time,seconds_elapsed,z,y,x
1789316287480873500,0.06687353515625,-0.5392033230572939,0.1493430047273636,-0.073425995814614
1789316287490907100,0.0769072265625,-1.2489245408177374,0.16528642379045486,-0.3475607707282528
1789316287500940300,0.086940185546875,-1.306291272637248,0.044019758990406985,-0.48508923635818063
1789316287510973200,0.09697314453125,-0.7648778723150491,-0.0569902997225523,-0.6001925562229007
1789316287521006300,0.10700634765625,-0.2488391517460346,0.06779167972207069,-0.5470611238855868
1789316287531039200,0.117039306640625,-0.09412029919922352,0.2625777542412281,-0.3962690893936902
1789316287541072400,0.127072265625,0.024505495703220366,0.21886866863518953,-0.42206999520231037
1789316287551106300,0.137106201171875,-0.030803719064593314,0.011008300748467445,-0.7780155132424086
1789316287561139500,0.147139404296875,-0.1941062755614519,-0.1583291519984603,-0.8619060948502272
1789316287571172400,0.15717236328125,-0.3527595449477434,-0.3651823886692524,-0.821252524357289
1789316287581205200,0.167205322265625,-0.2040449012517929,-0.3326642669022083,-0.7983309368446468
1789316287591238100,0.177238037109375,-0.2867816366493702,-0.14438158292770384,-0.8902372132562101
1789316287601272300,0.187272216796875,-0.70922437415421,-0.26860066779255864,-0.994773546399176
1789316287611305200,0.19730517578125,-0.9056862729310989,-0.5366422403976321,-0.9274543064944446
1789316287621338400,0.20733837890625,-0.7562707874894141,-0.46320466374307867,-0.4041851597478613
1789316287631371300,0.217371337890625,-0.4384060303121805,-0.1076625023394823,0.025736096944101155
1789316287641404200,0.227404052734375,-0.36622517572045327,0.23564298556447028,0.10476919205076991
1789316287651438300,0.237438232421875,-0.32070611808300015,0.14646014276742933,-0.21580405690018087
1789316287661471500,0.247471435546875,0.23123159886300562,-0.25496903280317784,-0.5469578461742028
1789316287671504400,0.25750439453125,0.4418909498184919,-0.19372925894260407,-0.4261745809769258
1789316287681537000,0.267537109375,-0.009400281029939651,-0.27121026576906443,-0.7745154692322015
1789316287691570200,0.277570068359375,-0.3022100919276476,-0.6765276809498667,-1.020043085277453
1789316287701604400,0.287604248046875,-0.22734335925281046,-0.9464578437805176,-0.753771591084823
1789316287711637200,0.29763720703125,0.015777999368309974,-0.6942281728133559,0.12001695699989795
1789316287721670100,0.307670166015625,0.12614917614459992,-0.08946896626204252,0.7928749364610761
1789316287731703300,0.317703369140625,-0.012688801181316375,0.3238306798443198,0.6228161106370389
1789316287741736200,0.327736083984375,-0.24052958856225012,0.26337942601293324,0.1982150260545313
1789316287751770400,0.337770263671875,-0.26251404135525225,0.06433277143985032,0.13838964903652667
1789316287761803300,0.34780322265625,0.08330021449923515,-0.2875637269377708,0.03499211066514253
1789316287771836200,0.357836181640625,0.49629123304784295,-0.6325567295372486,0.46680546471402046
1789316287781869000,0.367869140625,0.3994681046307087,-1.0753624561130999,-0.10579232455343007
1789316287791902200,0.377902099609375,0.5927531269371509,-1.7116361603468655,-1.4422440499156712
1789316287801935000,0.38793505859375,1.1611474731653928,-2.0761977867692707,-2.045399182271212
1789316287811969300,0.39796923828125,0.8764771295815705,-1.9161720599859953,-1.8877067207410931
1789316287822002200,0.408002197265625,0.04922083476483822,-1.8185501824066042,-1.8232080912150441
1789316287832035300,0.418035400390625,-0.8654384336948394,-2.0000427678495645,-1.2457524866528809
1789316287842068200,0.428068115234375,-1.197050561195612,-1.6130968756616115,-0.0299111541390419
1789316287852101400,0.438101318359375,-0.989299791163206,-0.6332996568590402,1.5316713689930737
1789316287862135300,0.44813525390625,-1.1313672519296407,0.3119114017307758,1.7660687384106217
1789316287872168200,0.458168212890625,-2.5661054562598467,1.141914949429035,0.5652297447174787
1789316287882201000,0.468201171875,-4.020625634902715,1.7779677043884992,1.0973214822039008
1789316287892234200,0.478234130859375,-3.086729166531563,1.8777759860962628,1.6135504646480083
1789316287902267100,0.48826708984375,-1.1559265236467122,1.3320371237903832,0.29324206483513116
1789316287912301300,0.49830126953125,0.1698632301867008,0.7057865086600184,-0.44181379292905326
1789316287922334200,0.508334228515625,1.3822574909865855,0.11201982076615094,-0.6141229549631476
1789316287932367400,0.518367431640625,1.8601006286740303,0.10445347716510295,-1.461702199101448
1789316287942400300,0.528400146484375,2.022847304853797,0.5887225562468171,-2.0019506472975013
1789316287952433400,0.538433349609375,2.0345149462938306,0.7654290764570236,-0.4444415110841393
1789316287962467000,0.548467041015625,1.2254027954548596,0.2849158427774906,1.74539376078099
1789316287972500200,0.558500244140625,1.1558791773736476,-0.6665066376730799,2.0080282136455176
1789316287982533000,0.568533203125,0.9599947862237691,-1.030958666241169,1.3661401766613126
1789316287992566300,0.578566162109375,-0.005169511592388153,-0.5246867219269276,1.3616504640266298
1789316288002599200,0.58859912109375,-0.5500152244508266,0.5368932925492524,1.181604570260644
1789316288012633300,0.59863330078125,-0.4968956286817789,1.1823062887892126,1.1204007444962858
1789316288022666200,0.608666259765625,-0.6438572912305593,0.9893573665693401,0.3053548196941614
1789316288032699400,0.618699462890625,-0.7436269944936037,0.5596820474624633,-0.0438996397420764
1789316288042732300,0.628732177734375,0.10094166965186595,0.04392477418333292,0.6142708390012384
1789316288052765400,0.638765380859375,0.7266776132583618,-0.1846577714756131,1.0514309609055519
1789316288062799000,0.648799072265625,0.977481343075633,-0.3011287264317274,0.2777954893782735
1789316288072832300,0.658832275390625,0.9869564429074525,-0.3524193532079458,0.0379629431694746
1789316288082865200,0.668865234375,0.4245236354321241,0.15486118362694978,0.34253421127051115
1789316288092898300,0.678898193359375,0.09609656770825385,0.6592649959817528,-0.16388327899426222
1789316288102931200,0.68893115234375,0.35123218924999233,0.5987438917845487,-0.9964216058671473
1789316288112965400,0.69896533203125,1.2517016043156384,0.658761138112843,-0.19603139840513467
1789316288122998300,0.708998291015625,1.9729501782625913,1.3223510115563868,0.3065887454032898
1789316288133031400,0.719031494140625,1.2888351109236478,1.2575538374751805,-0.7791220862448215
1789316288143064300,0.729064208984375,0.5231318937003612,0.5224120549932122,-1.745311927716434
1789316288153097200,0.73909716796875,0.27559038054943086,0.20452859311550856,-1.2236647196158765
1789316288163130400,0.74913037109375,0.3217085731238127,-0.37887306036949153,-0.6221282745033502
1789316288173164300,0.759164306640625,0.13398118494451045,-0.8280249411016702,-1.0003782345384358
1789316288183197200,0.769197265625,-0.4206406565189361,-1.1788695923388004,-1.176900630353391
1789316288193230000,0.77922998046875,-0.6960562650233507,-1.132694408880174,-1.002728012534976
1789316288203263200,0.78926318359375,-0.5130757791101932,-0.8351488016322255,-1.6627023258298634
1789316288213296000,0.799296142578125,-0.14970307021141052,-0.47581835386157034,-2.213974272343516
1789316288223330300,0.809330322265625,0.015990180814266203,-0.0647761312931776,-1.9478093072652816
1789316288233363200,0.81936328125,-0.7017869176298379,0.3454664653301239,-1.539737624940276
1789316288243396400,0.829396240234375,-0.17726093922257422,-0.40042525922507044,-1.3818021484345198
1789316288253429200,0.83942919921875,0.8144418214291334,-1.424021580004692,-1.8082552906244993
1789316288263462400,0.84946240234375,1.226295360380411,-1.1341069060266018,-2.3701491689175365
1789316288273496000,0.85949609375,2.195643665882945,0.19498159709125756,-2.176053414750099
1789316288283529200,0.869529296875,2.823061278966069,1.0329416567519307,-2.208639341056347
1789316288293562000,0.87956201171875,2.67826059384346,0.8505562141224742,-2.057895821881294
1789316288303595300,0.88959521484375,1.8336252942025661,-0.18016557462289928,-0.28526187973618505
1789316288313628200,0.899628173828125,0.6646236004054547,-1.3646039070047438,3.398382209587097
1789316288323662300,0.909662353515625,-0.1203285071671009,-3.414189435049891,2.788206238684058
1789316288333695200,0.9196953125,-0.47273675445914265,-5.325642065298557,-3.676040628582239
1789316288343728400,0.929728271484375,-0.38548224937617775,-4.3951229644060135,-4.229190059405565
1789316288353761300,0.93976123046875,0.05095043503642082,-3.084932930764556,0.38642917483747
1789316288363794400,0.94979443359375,-0.04460486540198326,-2.9462679719179867,3.1726953853696584
1789316288373828000,0.959828125,0.40597441778481,-3.4131802580073476,1.2154051330536604
1789316288383861200,0.969861328125,1.2953110289394856,-3.176367644141614,-1.036829604101181
1789316288393894100,0.97989404296875,1.8445979391157625,-2.343382450284064,-0.22350071235001087
1789316288403927300,0.98992724609375,2.1759797649919985,-0.9438103980116546,0.6945435223728418
1789316288413960200,0.999960205078125,1.8915514134705065,0.8295002743512392,-0.6250047067224979
1789316288423994400,1.009994384765625,0.6160100838840007,1.687414742282033,-2.3599323108077046
1789316288434027000,1.020027099609375,-0.5246808767080307,1.8421352022640407,-1.1962293079406023
1789316288444060200,1.03006005859375,-0.8205845619678497,1.1208411817401647,1.371836634737253
1789316288454093000,1.040093017578125,-0.9015174628138541,0.24338395508006214,1.7738041549682617
1789316288464126200,1.050126220703125,-1.4161124143153427,0.14111291825426742,-0.475348982784152
1789316288474159000,1.0601591796875,-1.8479700458973645,0.6336478127095848,-1.9904653766870497
1789316288484193000,1.070193115234375,-1.58197283860147,1.2723232443228363,-0.6675906335175037
1789316288494226000,1.080225830078125,-1.3449345992863178,1.3960907860279081,0.14174655824899673
1789316288504259000,1.090259033203125,-1.7418839990943669,1.2372693204678595,1.6575152785807847
1789316288514292000,1.1002919921875,-2.64125860466063,0.3712218880292028,2.680625569409132
1789316288524324900,1.110324951171875,-3.2890082271546124,-1.4523821437008677,3.5676807916283604
1789316288534359000,1.120359130859375,-3.0771336551904676,-3.4003505870506165,5.272785504379868
1789316288544392200,1.13039208984375,-3.2938556671857833,-4.040753938435018,7.118123448207974
1789316288554425000,1.140425048828125,-3.508675060430169,-4.010973132677376,6.8778346826642744
1789316288564458000,1.1504580078125,-3.72592781830132,-4.22033922895193,3.620974574920535
1789316288574491100,1.1604912109375,-4.415439776247739,-3.8674353070974345,0.5202426019996405
1789316288584525000,1.170525146484375,-5.018811912354827,-3.3845261181920763,0.5470552056014537
1789316288594558000,1.180557861328125,-2.827349623809755,-3.4361382320076226,1.32475105843544
1789316288604590800,1.1905908203125,0.3433142557322979,-3.931051746961474,2.8981308407366275
1789316288614624000,1.2006240234375,0.661937137800455,-4.2404169713407756,3.474620230615139
1789316288624657000,1.210656982421875,-0.5105146964505315,-3.6856510452315208,3.1104689385592934
1789316288634691000,1.220691162109375,-0.9882321619316935,-3.57690425478667,1.5976017848879098
1789316288644724000,1.230723876953125,-0.03832183960974216,-3.654481123203039,-1.8495055849015711
1789316288654757000,1.240757080078125,1.5365864674329757,-3.0464436256334184,-3.729864573228359
1789316288664790000,1.2507900390625,2.4567615767046806,-1.4315043369755147,-3.1338585819751024
1789316288674823200,1.2608232421875,4.763613746970892,0.2153641676455736,-2.536510528463125
1789316288684856800,1.27085693359375,5.9688031909585,0.7907800830736755,-2.479132106205821
1789316288694890000,1.280889892578125,7.845116118764877,1.0416288210764526,-1.7714543769717215
1789316288704923000,1.2909228515625,8.053755362069607,2.2433809840917585,-2.703667422300577
1789316288714956000,1.3009560546875,14.514619601160287,7.242493339720368,-4.8110184722244735
1789316288724989000,1.310989013671875,10.819930386209487,7.422470552164316,-2.399807809600234
1789316288735023000,1.321023193359375,15.12908070203662,7.189089666312933,0.6374386563599109
1789316288745056000,1.331055908203125,11.705441301596164,5.722190483090281,2.628386263605952
1789316288755089200,1.341089111328125,6.120476099938154,2.6216432190865278,3.767215521979332
1789316288765122000,1.3511220703125,3.2872774578392505,1.6994518015563487,1.9105279166191815
1789316288775155000,1.361155029296875,1.4947323620438575,0.9346756360501051,0.9108867641836405
1789316288785187800,1.371187744140625,1.5392004493236542,0.44943537384867666,0.36226387087404727
1789316288795222000,1.381221923828125,3.1231507254779336,0.9727207045450806,-3.809366564488411
1789316288805255000,1.3912548828125,3.1935885357946154,2.357011454924941,-5.661866655030846
1789316288815288000,1.4012880859375,2.3449182815492153,2.7154364782884715,-3.6921588196903463
1789316288825321000,1.411321044921875,1.077727504744008,1.7618699715465307,-2.7281097896397113
1789316288835354000,1.42135400390625,-0.27230770561695095,1.3658230735361576,-2.169902490904927
1789316288845388000,1.431387939453125,-1.3865326840877532,2.2282161481857297,-2.4463772530734538
1789316288855421200,1.441421142578125,-2.494928225752711,1.5303741687893866,-1.3756605769395827
1789316288865454000,1.4514541015625,-2.7406366782575846,0.47495618407428264,-0.9089157563716173
1789316288875487000,1.461487060546875,-1.6609832469522952,-0.4784697451531887,1.7020570156186818
1789316288885520000,1.471519775390625,-1.1924936285436152,-1.4468261170089245,4.968648243781924
1789316288895554000,1.481553955078125,-1.952550948834419,-1.4803005165874956,4.864389412406086
1789316288905587000,1.4915869140625,-4.35963780952692,-3.039202276203036,4.066232955345511
1789316288915620000,1.5016201171875,-3.352508931684494,0.24741525642275808,4.819972763052583
1789316288925653000,1.511653076171875,-2.898335423398018,1.26967740598917,4.597949137517809
1789316288935686100,1.52168603515625,-0.830651197952032,0.14882511833310128,2.20320621009171
1789316288945720000,1.531719970703125,1.091332763183117,-1.6132985357135534,0.30101591370701786
1789316288955753000,1.5417529296875,1.5054583387196063,-1.4520570033997295,0.1037456211566925
1789316288965785900,1.551785888671875,1.4410989715337752,-0.6456634638696909,-0.5407084669232368
1789316288975819000,1.561819091796875,2.279253092461824,-0.21448153959214686,-1.6433675107628105
1789316288985852000,1.571851806640625,3.1442391062140462,0.32728023577630516,-2.1487211711883543
1789316288995886000,1.581885986328125,3.1386265270292757,1.2924141384541987,-1.6766630466431378
1789316289005919000,1.5919189453125,2.6319723053991795,1.7067139015138149,-0.9763526313066482
1789316289015952100,1.6019521484375,2.038930424648523,1.1785375839054584,-0.2995078472316265
1789316289025985000,1.611985107421875,1.0358768334209918,0.44792555380761623,0.3129284698188305
1789316289036018000,1.622017822265625,-0.11788462114632128,-0.07227320905029773,0.5881809967160224
1789316289046051000,1.632051025390625,-0.9247422710567712,0.009627660045027733,0.49843759742677207
1789316289056085000,1.6420849609375,-1.4824550642728804,-0.30741759744286534,-0.11751286522448062
1789316289066118000,1.652117919921875,-1.1995745267152786,-1.6430857712119817,-1.0025181691765785
1789316289076150800,1.66215087890625,-0.3738298055052757,-3.1494682390391824,-0.7991770322799682
1789316289086184000,1.672183837890625,-0.5228852254629135,-3.02138371091783,-0.48008828626573086
1789316289096216800,1.682216796875,-1.4974047961235046,-1.084493272551894,-0.33434067568182946
1789316289106251000,1.6922509765625,-1.499050809764862,0.28150691111683845,0.3457575572311878
1789316289116284000,1.702283935546875,-0.5777332524597645,0.5855401268184185,0.7493161460459232
1789316289126317000,1.712317138671875,-0.16303133834004402,0.5907569846838713,0.2404524316728115
1789316289136350000,1.722349853515625,0.46628713992834087,0.8885270483374595,-0.37275311618447304
1789316289146383000,1.732383056640625,0.973382091063261,1.4802245287418365,-0.2960135753750801
1789316289156416800,1.742416748046875,0.8677917188227177,1.9687696777075527,0.9247872792422771
1789316289166450000,1.752449951171875,0.5478244364082813,1.4062059373289346,1.9819670129328966
1789316289176482800,1.76248291015625,-0.7049579488813876,0.2960568299949169,2.5795021134495735
1789316289186516000,1.772515869140625,-1.3317232355356217,-0.2773480378717184,2.945824904325604
1789316289196548900,1.782548828125,-1.8386866692453623,0.04577040205001831,2.2173305970340964
1789316289206582000,1.79258203125,-1.488024973359704,0.6323831265360117,1.4609253695100546
1789316289216616000,1.802615966796875,-1.4913094018578528,1.5375170262813567,0.6562789659082889
1789316289226649000,1.812649169921875,-0.8601315594583749,2.733880774256587,-0.5034866975098848
1789316289236682000,1.822681884765625,0.721283645260334,3.677223116365075,-1.0608072765380143
1789316289246715100,1.832715087890625,1.4868343022704125,3.617721710604429,-1.4370312837034462
1789316289256748000,1.842748046875,2.493396778401732,3.0018343763172624,-1.937894062450528
1789316289266782000,1.852781982421875,3.0433991433709857,2.163479179859161,-1.2860960413485765
1789316289276814800,1.86281494140625,2.170180723324418,2.373906475624442,-0.5258820691913366
1789316289286848000,1.872847900390625,1.2795458890527487,2.560126966372132,-1.0257733725577591
1789316289296881000,1.882880859375,0.7631926957070827,2.7797891234725713,-1.7081588396251202
1789316289306914000,1.8929140625,-0.02220123734883964,3.1824037094354627,-1.3346201260209083
1789316289316948000,1.902947998046875,-0.6848229233473538,3.187413062030077,-0.5187772056221962
1789316289326981000,1.912981201171875,-0.8050912247598171,3.2032366541057824,-0.7171981295123696
1789316289337014000,1.923013916015625,-0.7555033102482557,3.3817607451319693,-1.7366297318279742
1789316289347047200,1.933047119140625,-0.7482230901122092,3.4571909569084642,-2.8263226188495754
1789316289357080000,1.943080078125,-0.6106424193710088,3.65576590231657,-3.228403244066238
1789316289367114000,1.953114013671875,-0.1522545265262015,3.7470010014683006,-2.7564944648638368
1789316289377147000,1.96314697265625,1.1044663855224848,3.798329037645459,-2.338535302513838
1789316289387180000,1.973179931640625,2.031222334489226,4.30769660988748,-1.5706582483828067
1789316289397213000,1.983212890625,1.398691323915124,4.260454966241121,-1.2879156579911708
1789316289407246000,1.99324609375,1.648120842769742,2.2964684311568737,-1.097531617823243
1789316289417280000,2.003280029296875,2.520263158017397,-2.2440450009584425,-0.3588686754778027
1789316289427313200,2.013313232421875,1.9043670559018848,-9.736918876647948,-0.1303314302653074
1789316289437346300,2.02334619140625,6.791029090392589,-20.813720914411544,4.737173191551864
1789316289447379500,2.03337939453125,8.689631006896496,-21.169449246037004,6.850415345340966
1789316289457412400,2.043412353515625,0.2903846295773983,-11.389673224437237,4.445052824223041
1789316289467446300,2.0534462890625,-1.696916730120778,2.397020809230208,1.2713678432941435
1789316289477479200,2.063479248046875,-8.114868294680118,3.0228847631305453,-0.7674640894159674
1789316289487512300,2.07351220703125,-9.259209009951352,0.6713707365781069,-1.16530196249634
1789316289497545200,2.083545166015625,-7.2864663369596,-0.8411790217071771,-1.935831284701824
1789316289507578400,2.093578369140625,-4.745909747976064,-2.2408500043094155,-2.280885369838774
1789316289517611300,2.103611328125,-1.3214097851835191,-3.3252059142172334,-1.870528206925094
1789316289527645400,2.1136455078125,0.9113783470928668,-3.1707454203456638,-1.078747422376275
1789316289537678300,2.12367822265625,1.223930969336629,-1.8528484655886888,0.006608604484796524
1789316289547711500,2.13371142578125,-0.43133492288216946,-0.05323650014698505,0.5862848077058792
1789316289557744400,2.143744384765625,-0.4931726626358926,0.8328641978263854,0.08469488372802735
1789316289567777300,2.15377734375,0.814926536206156,0.6844108354151248,-0.18623627283871172
1789316289577811200,2.163811279296875,1.1495118342988193,1.089609008130431,-0.33963235234916206
1789316289587844400,2.17384423828125,0.6644516048394143,1.758418954309821,-0.3847799463257193
1789316289597877200,2.183877197265625,0.5433054976791143,2.1621809567421675,-0.6977966789498925
1789316289607910400,2.193910400390625,0.09886310981214046,1.59193192255795,-0.07051759755462407
1789316289617943300,2.203943359375,0.7035210479460656,1.317936117723584,-0.1623109151110053
1789316289627977500,2.2139775390625,0.8907856409192084,1.305517365655303,-0.5446484367206692
1789316289638010400,2.22401025390625,0.6105230307750403,1.199178220874071,-0.4175234012812376
1789316289648043500,2.23404345703125,-0.014671353300660848,0.5321791235089302,-0.44241029751747846
1789316289658076200,2.244076171875,-0.5595538910381496,-0.22341829476356506,-0.1436988613605499
1789316289668109300,2.254109375,-0.3969355174131691,-0.9656266546308994,-0.5947405013620853
1789316289678143200,2.264143310546875,-0.3929524391263723,-2.2809476214200255,-0.341199163274467
1789316289688176400,2.27417626953125,0.4883339904330671,-2.782445190939307,0.0625301059320569
1789316289698209300,2.284209228515625,0.3251120979569852,-2.3997920275092124,0.32964345777630805
1789316289708242400,2.294242431640625,-0.2707651523500681,-1.1892238130927084,0.59454527105093
1789316289718275300,2.304275390625,-0.5991384440600872,-0.326053324329853,0.5574626178473234
1789316289728308200,2.31430810546875,-0.4893722474396229,0.3185387109160423,0.5250443031929433
1789316289738342400,2.32434228515625,-0.38790567713081836,0.2177788275718689,0.5399867285199463
1789316289748375300,2.334375244140625,-0.31355332371890543,-0.2735655967235565,0.4699085452958941
1789316289758408200,2.344408203125,-0.34653716330155726,-0.5300555554836988,0.35604368118494745
1789316289768441000,2.354441162109375,-0.45590486212372777,-0.25374387492239475,0.3489095915213227
1789316289778474200,2.36447412109375,-0.36517625118941066,0.1880196491241455,0.2388843055732548
1789316289788508400,2.37450830078125,-0.15844050341844557,0.4629010046213865,0.04915785253122448
1789316289798541300,2.384541259765625,-0.03220803290456533,0.6891635829001664,-0.4020898314364254
1789316289808574200,2.39457421875,0.20857903755009174,0.877436914524436,-0.7200039807133376
1789316289818607400,2.404607421875,0.7083113509625196,0.9272001856029033,-0.8443925769262015
1789316289828640300,2.41464013671875,1.2464426608741284,1.0774930384010075,-0.9738625680565833
1789316289838674400,2.42467431640625,1.5220435628175735,1.3980752378433943,-0.9052614716477692
1789316289848707000,2.43470703125,1.3747270954817532,1.529058410015702,-0.07901479226499795
1789316289858740200,2.444740234375,1.6645266186475753,1.177020165079832,0.5883472931936383
1789316289868773000,2.454773193359375,2.332294800689071,0.7774661357313394,0.7117696747228502
1789316289878806300,2.46480615234375,2.76148628180176,0.43987551834285255,0.4572875486537814
1789316289888840200,2.474840087890625,3.070171122701466,0.03272854964733123,0.4073761012762785
1789316289898873300,2.484873291015625,2.937324787005782,-0.19962474672198294,0.6673949648149311
1789316289908906200,2.49490625,2.0711068933710455,-0.23899171147048473,0.6126869308106601
1789316289918939400,2.504939453125,1.379877025590837,-0.09903788185715674,0.4977434776827693
1789316289928972300,2.51497216796875,0.8845271650463342,0.06666705960631371,0.19763941812366245
1789316289939005400,2.52500537109375,0.4274729867570102,0.1826946547091007,0.02733487391024828
1789316289949039000,2.5350390625,0.5878004729658365,0.1583265216499567,-0.44798371373564
1789316289959072300,2.545072265625,0.3700356739193201,0.21105857940614223,-0.9579327391274273
1789316289969105200,2.555105224609375,-0.20796134404316544,0.12191782218515872,-0.9037092737697064
1789316289979138300,2.56513818359375,-0.6653345251537859,0.02567746209204197,-0.7309224112212658
1789316289989171200,2.575171142578125,-1.372484284991026,-0.16890636785328386,-0.9741384623885154
1789316289999205400,2.585205322265625,-1.5381201067410408,-0.5412608401089907,-1.4487395494148134
1789316290009238300,2.59523828125,-1.440807733502239,-1.0844839202016592,-1.873160016733408
1789316290019271400,2.605271484375,-0.7561462843269109,-1.705829519894719,-1.8208404853008686
1789316290029304300,2.61530419921875,0.08315642211437226,-1.8537141425073145,-1.157490850353986
1789316290039337500,2.62533740234375,0.2895125959832221,-1.305256084370613,-0.49401013637334107
1789316290049371100,2.63537109375,-0.03834470902867615,-0.28981062908172606,-0.3239715496197343
1789316290059404300,2.645404296875,-0.48967261862568556,0.9426707264572382,-0.24572671881392597
1789316290069437200,2.655437255859375,-0.6958879227191209,1.671998561963439,0.03895326938107609
1789316290079470300,2.66547021484375,-0.4877186350136995,1.9354998607903717,0.4076332909077406
1789316290089503200,2.675503173828125,-0.31145196752548215,1.9035808739602564,0.7038011800616979
1789316290099537400,2.685537353515625,-0.34848902802169324,1.6576368591338395,1.0201014644011854
1789316290109570300,2.6955703125,-0.5774368998616933,1.0614239471316338,1.0997899181440471
1789316290119603500,2.705603515625,-0.7258698040068149,0.37243338271081444,1.0322169957391918
1789316290129636400,2.71563623046875,-0.4549801484942436,-0.5120581265002488,0.6854128520645201
1789316290139669500,2.72566943359375,0.3169663470327854,-0.923247064062953,0.42764235197454686
1789316290149703200,2.735703125,0.5637994196534156,-0.6815881792098283,-0.25585516798794267
1789316290159736300,2.745736328125,-1.1877508179306984,-2.1113404118210077,0.08695362244024872
1789316290169769200,2.755769287109375,-0.7703869911253451,-2.3535522543817757,0.9667731943175196
1789316290179802400,2.76580224609375,0.15972177540063856,-1.5406114851653574,0.6925447497710585
1789316290189835300,2.775835205078125,0.01016717374920845,-0.6154588797420263,0.2557061149060726
1789316290199869400,2.785869384765625,-0.20240707091689109,0.11387012480795383,0.08893515164628625
1789316290209902300,2.79590234375,-0.24434534745812414,0.24739246006906032,-0.07632277670204639
1789316290219935500,2.805935546875,-0.120947515848279,0.07398118201196194,0.07207900165244936
1789316290229968400,2.815968505859375,0.10111001195609569,-0.07552022814750671,0.1877962156318128
1789316290240001300,2.826001220703125,0.14888006339073181,-0.18164894504845142,0.24148089793771504
1789316290250034400,2.836034423828125,0.4252817603230476,-0.10313362673819064,0.026527137723937628
1789316290260068400,2.846068359375,0.5958925574740395,0.009175240102410316,0.0314247005071491
1789316290270101200,2.856101318359375,0.6203653564840554,-0.11605682119727134,0.41157435668371617
1789316290280134100,2.866134033203125,0.39252394804861396,-0.31322131528556346,0.9452147118516265
1789316290290167300,2.876167236328125,0.30073950791843235,-0.367549702322483,1.1061910904232413
1789316290300200200,2.8862001953125,0.4990859052676707,-0.16493220352530477,0.946046632631123
1789316290310234400,2.896234375,0.6856961990505457,0.14226327559947965,0.6254240281131118
1789316290320267300,2.906267333984375,0.7588168917756527,0.18989421082437039,0.11349164688438176
1789316290330300400,2.916300537109375,1.1425152534097431,0.03067395520508289,-0.2245676839943975
1789316290340333300,2.926333251953125,1.7528636582702397,-0.17391630496978758,-0.1880001407060772
1789316290350366500,2.936366455078125,2.8955156898021697,-0.04195639671981335,0.18324235171973705
1789316290360400100,2.946400146484375,2.6668139016777275,0.568642183509469,0.5987882423829287
1789316290370433300,2.956433349609375,1.543092780587077,1.2356798593193292,0.5928573910292237
1789316290380466200,2.966466064453125,0.9803898509334772,1.3371750712007284,0.4775960310585797
1789316290390499300,2.976499267578125,0.7280372111737727,0.8387374737739562,0.5744567880723626
1789316290400532200,2.9865322265625,0.764022132268548,0.1574766268223524,0.7496070918165146
1789316290410566400,2.99656640625,0.8879641537576913,-0.22750936346948145,0.827155318660289
1789316290420599300,3.006599365234375,0.6297101079344749,-0.16474164938926697,0.8764235727634281
1789316290430632400,3.016632568359375,0.6641477995872497,0.0977589479625225,0.9872192585621029
1789316290440664800,3.026664794921875,0.8778022407054901,0.38746494762599465,1.0870274672046303
1789316290450697700,3.03669775390625,0.9885364786405115,0.6051952598810195,0.9093465490043163
1789316290460731000,3.04673095703125,0.9996166025161742,0.5566641609460116,0.501392793970555
1789316290470764800,3.056764892578125,0.8166700188726186,0.46113808660209177,0.2674270939685404
1789316290480797700,3.066797607421875,0.9870172331839799,0.38750878676772116,0.19969846954531967
1789316290490830600,3.07683056640625,1.0021960976153612,0.43874446848630905,0.411883787959069
1789316290500863700,3.08686376953125,0.8170224855720997,0.44994449241459367,0.6199304721981287
1789316290510896600,3.096896728515625,0.5097293547591194,0.3465414010852575,0.7988748344630002
1789316290520930800,3.106930908203125,0.10052428449001162,0.10277063864469528,0.5837891914978623
1789316290530963700,3.116963623046875,0.021727811150811613,-0.11332535040676593,0.21663111884146927
1789316290540996900,3.126996826171875,0.5713847236832603,-0.27006080347299577,-0.0027564591012895104
1789316290551029800,3.13702978515625,0.9244932647317647,-0.1627928534090519,0.18338826299645006
1789316290561063000,3.14706298828125,1.0872042850762604,0.048931496429443354,0.4772622690595686
1789316290571096600,3.1570966796875,1.18032505184412,0.2968798368155956,0.7386077780921012
1789316290581129700,3.167129638671875,0.9421060783118009,0.5940016656935214,0.7574359588112681
1789316290591162600,3.17716259765625,0.6339712725102901,0.6338941156208515,0.6111749188125133
1789316290601195800,3.18719580078125,0.6103396370321512,0.456868738719821,0.401055154626444
1789316290611228700,3.197228759765625,0.8391735271036624,0.15344401030540467,0.15787877788245677
1789316290621262800,3.207262939453125,1.1301029310822486,-0.13903905285596846,0.14694405382685363
1789316290631295700,3.217295654296875,1.203607727754116,-0.33629180974960327,0.260356205734238
1789316290641329000,3.227328857421875,1.0045791933596133,-0.2793295670777559,0.36673239459022877
1789316290651361800,3.23736181640625,0.6320189693987369,-0.059390346601605415,0.3962355524502694
1789316290661395000,3.24739501953125,0.39495793372988697,0.1581739614367485,0.24717984023168682
1789316290671428600,3.2574287109375,0.5638461814045905,0.3481242863625288,0.11760331998690962
1789316290681461800,3.267461669921875,0.8910966065645217,0.3269482273429632,0.10966872759535908
1789316290691494700,3.27749462890625,1.260423255431652,0.33951603249311446,0.09875753054581582
1789316290701527800,3.28752783203125,1.3856792821288109,0.27586802844703195,0.21912015917822716
1789316290711560700,3.297560791015625,1.453557471090555,0.2779524335056543,0.23887539161443708
1789316290721595000,3.307594970703125,1.3288590782761573,0.36335341967642304,0.2586646724507212
1789316290731627800,3.317627685546875,1.1532218677978963,0.4466244080811739,0.18523403699360788
1789316290741661000,3.327660888671875,1.1816695252556353,0.48452422288656233,0.2523042705733329
1789316290751693800,3.33769384765625,1.0723440581399948,0.5036369196355343,0.41982510235235093
1789316290761727000,3.34772705078125,1.089910109968856,0.47295127399265763,0.6640672086317092
1789316290771760600,3.3577607421875,1.1573675162352621,0.4501923296958208,0.9879623320143669
1789316290781793800,3.367793701171875,1.2424340097546576,0.43086219080388544,1.1055657250665127
1789316290791826700,3.37782666015625,1.2291150939762592,0.47455929371118544,1.0962338330976664
1789316290801859800,3.38785986328125,1.1614941677112132,0.5330909776568412,1.0414000538218766
1789316290811892700,3.397892822265625,1.222955402302742,0.5569833098977803,0.8269621341757476
1789316290821926000,3.40792578125,1.2698352268993853,0.508520015501976,0.5082654562190175
1789316290831959800,3.417959716796875,1.4793242189012468,0.4826595980584621,0.31162922378852964
1789316290841993000,3.427992919921875,1.5578326690793036,0.4672416641741991,0.25053689557462927
1789316290852025900,3.43802587890625,1.441815595370531,0.3659527885198593,0.22945918236300347
1789316290862058800,3.448058837890625,1.2990464160755275,0.30151392635703084,0.2762719330728054
1789316290872091600,3.458091552734375,1.2207060159407555,0.22652035243213176,0.4520565161325037
1789316290882125800,3.468125732421875,1.0666754379190504,0.09586100538671016,0.5032768541514874
1789316290892158700,3.47815869140625,0.893149447441101,-0.11282909132242203,0.5164420406728982
1789316290902191900,3.48819189453125,0.8449006725788116,-0.3041156332880258,0.5239474478669465
1789316290912224800,3.498224853515625,0.8484104342654347,-0.4947364048212766,0.48820232687741516
1789316290922257700,3.508257568359375,0.6031298517838121,-0.8227133906900882,0.4306590694472193
1789316290932291800,3.518291748046875,0.17814210597127675,-1.148823413643241,0.4033864471182227
1789316290942325000,3.528324951171875,0.11325403873622417,-1.3107394842177629,0.6087368780106306
1789316290952358000,3.53835791015625,0.3838318518206477,-1.4067606486022473,0.7526020358487964
1789316290962390800,3.548390869140625,0.8817395801544189,-1.6114204668819903,0.7520419177480041
1789316290972423700,3.558423583984375,0.8157321535006165,-2.094351283097267,0.8670242415815591
1789316290982457900,3.568457763671875,0.5458081281498074,-2.566106040781736,0.8088114143267273
1789316290992490800,3.57849072265625,0.2048833979025483,-2.985337415024638,1.0113635928027331
1789316291002523600,3.588523681640625,0.07971534174978732,-2.9929630875974893,1.0982369896136224
1789316291012556800,3.598556884765625,0.2678580327317118,-2.7189041543990373,1.246643298012763
1789316291022589700,3.608589599609375,1.0984113232672215,-1.8526900601565837,1.289176910098642
1789316291032623900,3.618623779296875,1.4843740496367215,-1.1021300515294075,1.215216478613764
1789316291042656800,3.62865673828125,0.859208307133615,-0.6907669264435767,1.385235045492649
1789316291052689700,3.638689697265625,0.6458899661019444,-0.35890988427102566,1.3929174166887999
1789316291062722600,3.64872265625,0.943484088666737,-0.01605097109079361,1.6233850454419851
1789316291072755700,3.658755615234375,1.4432526424363255,0.3608277005910873,1.9624702853024005
1789316291082788600,3.66878857421875,1.717730093307793,0.6609522184163331,2.351979890498519
1789316291092822800,3.67882275390625,1.777413869898021,0.7563619729042053,2.4885925929903983
1789316291102855700,3.688855712890625,1.727706128399074,0.6930383785068989,2.251863711885363
1789316291112888800,3.698888916015625,1.673012707442045,0.44553544380068777,1.831347266267985
1789316291122921700,3.708921630859375,1.8442939877331255,0.21307459540367124,1.3358096280664205
1789316291132955000,3.718954833984375,1.9676095478869973,0.02480243282318115,0.8537372553113848
1789316291142988800,3.72898876953125,2.0315221942186352,-0.07336275785267353,0.47895080666840073
1789316291153021700,3.739021728515625,1.8391802979812024,-0.43637130961418147,0.2124485724598169
1789316291163054600,3.7490546875,1.516899916318804,-0.9002835371047258,0.361687093899399
1789316291173087700,3.759087646484375,1.4135446096539497,-1.1513941409140824,0.43745026395730674
1789316291183120600,3.76912060546875,1.785841798764467,-1.5233318490624428,0.3605507102806121
1789316291193154800,3.77915478515625,1.3622951916709543,-1.9585142411530017,1.2540860152341424
1789316291203187700,3.789187744140625,1.4148026468910275,-1.9704022473454474,1.041369366422668
1789316291213220900,3.799220947265625,2.1034711397506296,-1.649953903415799,-0.627774536762014
1789316291223253800,3.809253662109375,1.4498831664919853,-0.9346212755143641,-0.9895291429396719
1789316291233287000,3.819286865234375,0.5551274528980255,0.35105157198607917,-0.4468423616807908
1789316291243320600,3.829320556640625,-0.009297697438299656,1.7959698095470666,-0.14967011778987943
1789316291253353700,3.839353759765625,-0.8271814760148525,2.6893857989698646,-0.2679607624538243
1789316291263386600,3.84938671875,-1.9732666968658565,2.9105063381850718,-0.4733318708080798
1789316291273419800,3.859419677734375,-2.497268943659961,2.8361633371233936,-0.43733211747035383
1789316291283452700,3.86945263671875,-2.3224574434161185,2.408544658285379,-0.5690473667768762
1789316291293486800,3.87948681640625,-1.6829621467873452,1.6598773315370081,-0.7086801842749119
1789316291303519700,3.889519775390625,-0.8517897014401853,0.7704518730551004,-0.7867996351353823
1789316291313553000,3.899552978515625,-0.13778466888070107,-0.1274345397800207,-0.5651927006427199
1789316291323585800,3.909585693359375,0.019601503179222345,-1.076269049564004,-0.11960814787014387
1789316291333618700,3.91961865234375,-0.20069164530113337,-2.06924256080389,0.3835942436724901
1789316291343652600,3.929652587890625,-0.22752704525664447,-2.8023177661448715,0.36340924151688814
1789316291353685800,3.939685791015625,0.05662468128055334,-3.0824680019557475,-0.0383246252218727
1789316291363718700,3.94971875,0.45585663906782864,-2.6880320462733507,-0.3320325083373114
1789316291373751600,3.95975146484375,1.7849078789152204,-1.855434390428662,-0.4659330657936632
1789316291383784700,3.96978466796875,2.5119103402137757,-1.2724410254836083,-0.2320573638963513
1789316291393819000,3.97981884765625,1.1366785100802779,-0.8127753495216369,0.22896977314455433
1789316291403851800,3.989851806640625,0.10650836386829614,-0.3315764716655016,0.20485961516816167
1789316291413885000,3.999885009765625,-0.4009736868880689,-0.07996843972802162,-0.2598813730304129
1789316291423917800,4.009917724609375,-0.5912425762437283,-0.09590192191898822,-0.7989100519068538
1789316291433950700,4.01995068359375,-0.2620025847017765,-0.25805180124938487,-1.1612070943981407
1789316291443984400,4.029984375,0.37054720363803206,-0.505772762620449,-1.4565927471332252
1789316291454018600,4.0400185546875,0.8412380584180355,-0.6972562884628772,-1.5436640046037733
1789316291464051500,4.050051513671875,1.1543209150809794,-0.6674228757351637,-1.2563517682090402
1789316291474084600,4.060084716796875,1.2375836471140385,-0.4016436951041221,-1.1615224439576268
1789316291484117500,4.070117431640625,0.910632570226863,0.05806815808713436,-1.334246762663871
1789316291494150400,4.080150390625,0.49874790548495945,0.5597083509474993,-1.5254954568371175
1789316291504184600,4.0901845703125,0.2734521264117211,0.9979776031374931,-1.4226673889167607
1789316291514217700,4.1002177734375,0.11558339499924332,1.3453998787105084,-1.1401254356637596
1789316291524250600,4.110250732421875,0.031668300004675985,1.5649591599583625,-0.7438290929369628
1789316291534283500,4.120283447265625,-0.01552252676989883,1.5589198797941206,-0.5612617178693413
1789316291544316400,4.13031640625,-0.19646825545243918,1.3835375939249992,-0.2862224683966487
1789316291554350600,4.1403505859375,-0.556228692138195,1.3287082716286183,0.049447921518981454
1789316291564383500,4.150383544921875,-0.6953122417230159,1.352674253627658,0.29275691166669127
1789316291574416400,4.16041650390625,-0.4552818348545581,1.2883575565397738,0.4290156130891293
1789316291584449500,4.170449462890625,0.010527239233255386,1.1417834320038556,0.5361353137888014
1789316291594482400,4.180482421875,0.4577730306157842,0.845811942204833,0.6531886717427522
1789316291604516600,4.1905166015625,0.7950830409646034,0.44501405027508734,0.7023612834516912
1789316291614549500,4.200549560546875,1.048586677390337,0.10194996991157532,0.7659601876590401
1789316291624582700,4.210582763671875,0.8879378502726555,-0.14077566739022732,0.7790905951280146
1789316291634615300,4.220615234375,0.4089817829072475,-0.22160160073041915,0.7473824745696037
1789316291644648400,4.2306484375,0.18218265006635337,-0.139338328063488,0.49755219289436936
1789316291654682400,4.240682373046875,0.263122528642416,0.004496726897358894,0.23594737533852456
1789316291664715500,4.250715576171875,0.6010474925518036,0.09161211577057837,0.06551620907075703
1789316291674748400,4.26074853515625,1.048192709636688,0.0747802234351635,0.018403890892490744
1789316291684781600,4.270781494140625,1.3134312075197696,-0.018776596662402154,0.13874028910510242
1789316291694814500,4.280814453125,1.2758031953930855,-0.10685060143470763,0.1340692285541445
1789316291704848600,4.2908486328125,1.0663000287353992,-0.08543371939659118,0.15703560505658387
1789316291714881500,4.300881591796875,0.6636369274556636,0.07047229710817336,0.23396336191445588
1789316291724914400,4.31091455078125,0.22357143949866293,0.27890695775151253,0.20034290492869913
1789316291734947300,4.320947265625,0.005811334893573075,0.35533962456881996,-0.14414280573576688
1789316291744980500,4.33098046875,0.11437692355262115,0.16883213357329369,-0.5832174560245126
1789316291755014400,4.341014404296875,0.4953180406341329,-0.24299510189294812,-1.1184210419211535
1789316291765047600,4.351047607421875,0.6484966414690018,-0.23303017271757123,-1.3868123778119683
1789316291775080400,4.36108056640625,0.4035094889760017,0.12535364185273645,-1.493306420893967
1789316291785113600,4.371113525390625,0.07837620210051537,0.44654199049472804,-1.5354410967901349
1789316291795146500,4.381146484375,-0.1752665505349636,0.6530027207165956,-1.3992968885928392
1789316291805180700,4.3911806640625,-0.21813889305591583,0.6616787791252136,-1.0601869526825844
1789316291815213600,4.401213623046875,0.027702720841951668,0.5450988108366728,-0.8424589785151183
1789316291825246500,4.41124658203125,0.38598789734337474,0.43085693010687826,-0.6369605174541473
1789316291835279400,4.421279296875,0.6746107414126395,0.45281098776161666,-0.34110052520558237
1789316291845312500,4.4313125,0.7231400867819786,0.6248539000749588,0.017303528435155747
1789316291855345400,4.441345458984375,0.3335106911310926,0.8075929784476756,0.3862575445976108
1789316291865379600,4.451379638671875,0.008811082965135573,0.926671193292737,0.6986349564049392
1789316291875412500,4.46141259765625,0.07944591369125992,1.1237550233602522,1.0022798303760587
1789316291885445600,4.471445556640625,0.39905897584054617,1.2590139731556176,1.2163280200522393
1789316291895478500,4.481478515625,0.7626911759257317,1.3008277465343474,1.412464413201809
1789316291905511700,4.49151171875,0.8144061655938625,1.2627677727311848,1.5496268585309385
1789316291915545300,4.50154541015625,0.4409294113099575,1.0357435624301432,1.5235437382474541
1789316291925578500,4.51157861328125,-0.06520465890355408,0.532975826844573,1.233554245467484
1789316291935611400,4.521611328125,-0.4055776004869491,-0.15225743086934088,1.0421169699195771
1789316291945644500,4.53164453125,-0.24655484020113944,-0.9017746524453163,0.7722351032100617
1789316291955677400,4.541677490234375,0.2882102081477642,-1.7704729647189377,0.37701172347702083
1789316291965711600,4.551711669921875,1.0949532187025994,-2.654049112650752,0.20047617591954767
1789316291975744500,4.56174462890625,1.893235859426111,-3.1004058097064493,0.36201113822199404
1789316291985777700,4.571777587890625,1.977176856046915,-2.6977164049416777,0.7720051669117063
1789316291995810600,4.581810546875,0.974528923010826,-1.7672043183118105,0.7693020454328506
1789316292005843500,4.591843505859375,-0.20948095482587814,-0.7687994296729564,0.4549124900855124
1789316292015877400,4.60187744140625,-0.6500713434398174,-0.20412147361934183,0.16480492388382553
1789316292025910500,4.61191064453125,-0.21114450412392616,-0.09000643413960933,0.011031535493582486
1789316292035943400,4.621943359375,0.3530431111294776,-0.10725333701670169,0.03660970192961394
1789316292045976300,4.631976318359375,0.7933996179223061,-0.18175298994481562,0.08352101764306426
1789316292056009500,4.642009521484375,1.0255236355803907,-0.05829553710222244,0.03720423375666141
1789316292066043600,4.652043701171875,0.9589046528995037,0.24973113214969633,0.17718473218120634
1789316292076076500,4.66207666015625,0.9219954565666616,0.5574760618507861,0.4401938635770231
1789316292086109400,4.672109375,0.9038310004532336,0.6794260327398777,0.6238453075543046
1789316292096142600,4.682142578125,0.8817022438187152,0.6604045214056968,0.8240540647093206
1789316292106175500,4.692175537109375,0.9234287773054093,0.5789882209569216,1.1144795377537609
1789316292116209400,4.70220947265625,0.9074094434618949,0.5795072763949632,1.4707823082663118
1789316292126242300,4.7122421875,0.6423335157293826,0.6549333965182303,1.7988051791034638
1789316292136275500,4.722275390625,0.07379946876950562,0.7449234640449285,1.956163586373627
1789316292146308400,4.732308349609375,-0.4599999494176358,0.7551999433875084,2.0314730943799018
1789316292156341500,4.742341552734375,-0.5693571268457919,0.5398433745265007,2.0478554893821475
1789316292166375400,4.75237548828125,0.00957673357538879,0.22904840960502623,2.0473890409141777
1789316292176408600,4.76240869140625,0.5775673213083297,-0.05036006792783737,2.0612788884483275
1789316292186441500,4.77244140625,0.6843336785256863,-0.25602701742351053,2.1430270511999727
1789316292196474600,4.782474609375,0.5970528699576855,-0.2444382864385843,2.2980483938246965
1789316292206507500,4.792507568359375,0.33670324009470637,0.06395312447249889,2.364188214686513
1789316292216541400,4.80254150390625,0.1637947239279747,0.6559089635521174,2.3560794347718357
1789316292226574300,4.81257421875,0.48954416994042693,1.3170786241114139,2.290568267202377
1789316292236607500,4.822607421875,0.7792191168785094,1.962818075826764,2.1396203114964067
1789316292246640400,4.832640380859375,0.7478630976933985,2.4299241309225557,2.0180951418906448
1789316292256673500,4.842673583984375,0.5403753625113517,2.3696406348735093,1.6527195687368512
1789316292266707500,4.85270751953125,0.20526180276088415,2.0678169119149445,1.290701781578362
1789316292276740600,4.86274072265625,-0.3870142812490463,1.4411293666720388,0.9458132622666656
1789316292286773500,4.8727734375,-0.8616798848789184,0.5661486131280661,0.8771157197460532
1789316292296806700,4.882806640625,-1.3761995061218737,-0.47987435125410555,0.6226918997354806
1789316292306839600,4.892839599609375,-1.3483575594723223,-1.7054443199694156,0.0036168753229081627
1789316292316873500,4.90287353515625,-0.4335305332303047,-3.045390609449148,-0.8627886498384177
1789316292326906400,4.91290625,0.22845453536510466,-4.277099811571836,-1.6068671874918043
1789316292336939500,4.922939453125,0.5193360816139727,-4.94536206074059,-2.299196394816041
1789316292346972400,4.932972412109375,0.4123673336923122,-4.8354403812974684,-2.849195837175846
1789316292357005600,4.943005615234375,-0.1434158797007054,-3.910483006185293,-2.9042738735362885
1789316292367039500,4.95303955078125,-0.5917454111993312,-2.080517988055944,-1.6470727950215338
1789316292377072600,4.96307275390625,-1.3908102152764796,-0.37039457035958767,-0.26930428601726886
1789316292387105500,4.97310546875,-1.6823533672392368,0.5556447547703981,0.30020832365117966
1789316292397138700,4.983138671875,-1.3982009100496768,1.2419424268454313,0.6745603263996541
1789316292407171600,4.993171630859375,-1.1770353626489638,1.889436028751731,0.6530472905106842
1789316292417205500,5.00320556640625,-1.0002080656033008,2.082424698460102,0.26767507738023993
1789316292427238400,5.01323828125,-0.9684942459564655,1.7623685687184332,-0.19036672370694577
1789316292437271300,5.023271240234375,-0.7611632357060909,1.1437170304149389,-0.5802727078095078
1789316292447304200,5.03330419921875,-0.27310499347448347,0.2679138545721769,-0.9078664665143936
1789316292457337300,5.04333740234375,0.5499462508678435,-1.02649934874475,-0.901294540778175
1789316292467370200,5.053370361328125,1.4133856196999548,-2.0926941635400054,-0.6262381209749728
1789316292477404400,5.063404296875,1.9554349798381327,-2.431079730698466,0.009271905409917234
1789316292487437300,5.073437255859375,1.3406523919224738,-1.668316658580303,0.4765574087258428
1789316292497470500,5.083470458984375,0.5424082565784454,-0.06402151353359221,0.7760581686295569
1789316292507503400,5.09350341796875,0.2320820782124996,1.4517279175758362,0.9210320914272219
1789316292517537300,5.103537353515625,0.12269925488643348,2.4853122561454772,0.9812938140358776
1789316292527570200,5.113570068359375,-0.25852230483796446,2.9774387707293033,0.909356851202622
1789316292537603300,5.123603271484375,-0.7843079644501209,3.1024475446671245,0.7975391288798301
1789316292547636200,5.13363623046875,-1.2974831122815609,3.0031600719630718,0.7093596909716725
1789316292557669400,5.14366943359375,-1.4395043958187101,2.6828344776302573,0.7065931488677859
1789316292567702300,5.153702392578125,-1.321837801337242,2.0538123519599436,0.6421103744979948
1789316292577736400,5.163736328125,-1.0855739804606883,1.0122311694175004,0.6502690579690039
1789316292587769300,5.173769287109375,-0.8046131589192896,-0.2537573189258575,0.6747719963889569
1789316292597802500,5.183802490234375,-0.6151262867867946,-1.096908517488837,0.39517281858958303
1789316292607835400,5.19383544921875,-0.676038070802018,-1.4399568157613276,0.12632694386430085
1789316292617868300,5.203868408203125,-0.8639175077378749,-1.4519967976450918,0.13139905949681996
1789316292627902200,5.213902099609375,-1.0677543191969394,-1.2740981450408697,0.09599259587712586
1789316292637935400,5.223935302734375,-1.1490589759647845,-1.118940316554904,0.03851714298613369
1789316292647968300,5.23396826171875,-0.9119079239249229,-1.0693202533394097,-0.029908669921010732
1789316292658001200,5.244001220703125,-0.4992074127554893,-1.0789233634650706,-0.09754523214660585
1789316292668035300,5.254035400390625,-0.079973079370521,-1.1978852584540842,-0.12154489721953868
1789316292678068500,5.264068359375,0.35884971504900604,-1.4657669643223286,-0.12328465355895458
1789316292688101400,5.274101318359375,0.6820037742733955,-1.6629887415558098,-0.06423625226281583
1789316292698134300,5.28413427734375,0.744321991020441,-1.6506676046431064,-0.03485226380303502
1789316292708167400,5.29416748046875,0.6758276429217308,-1.5976041229754685,0.12371975704059004
1789316292718200300,5.304200439453125,0.6869418151974678,-1.2842062820792197,0.2096678557001054
1789316292728234200,5.314234130859375,0.33689854347109793,-0.6089566582411527,0.22403744957521557
1789316292738267100,5.32426708984375,0.06631634647250174,0.2081008986443281,0.09191445971801876
1789316292748300300,5.33430029296875,0.16576222460865975,1.006407577830553,-0.09321516705304383
1789316292758333200,5.344333251953125,-0.381703315359354,1.39996675067842,-0.43767946960330006
1789316292768366300,5.354366455078125,-0.6506055964469909,1.5454045646607875,-0.42860944344103336
1789316292778400300,5.364400146484375,0.21417000769125297,1.562173913154006,-0.22818828564435242
1789316292788433400,5.374433349609375,0.9304805224478244,2.0589391934543846,0.2042547446101904
1789316292798466300,5.38446630859375,0.7359878779172897,2.19440389495492,0.9165382140740752
1789316292808499500,5.39449951171875,0.4177443505555391,1.7888398115366697,1.5145871093317866
1789316292818532400,5.404532470703125,0.34395664528906345,1.4238976613640784,1.7164846232913433
1789316292828566300,5.414566162109375,0.41318215720653534,0.9750023857414721,1.80556824349761
1789316292838599200,5.42459912109375,0.4909790981143713,0.9151520204126834,1.9617944318674503
1789316292848632300,5.43463232421875,0.5625964736044407,1.4038620045512913,1.873599869455397
1789316292858665200,5.444665283203125,0.7270055300384759,2.1147440827846524,1.864916504523158
1789316292868698400,5.454698486328125,1.1146019950896502,2.6798487398177384,1.9823641955569384
1789316292878732300,5.464732177734375,1.2385451856225729,2.9597458776503798,1.990005942481756
1789316292888765400,5.474765380859375,0.7074438474129885,2.86030292212367,1.6305179660618305
1789316292898798300,5.48479833984375,-0.03651036974098533,2.409436054167151,1.1728555196810513
1789316292908831200,5.494831298828125,-0.4235860988536849,1.957907507431507,0.9939650795605033
1789316292918864100,5.504864013671875,0.25516364205982534,1.9008985030084846,0.8455643241193145
1789316292928898300,5.514898193359375,2.1387164945244788,2.5609353601455687,1.586825247068703
1789316292938931200,5.52493115234375,2.564069566518068,3.6335733597308395,3.4112732553422447
1789316292948964400,5.53496435546875,1.1818529920637606,4.09547892357409,4.99422575263083
1789316292958997200,5.544997314453125,-1.7262416088044643,3.376856606477499,6.252685014513134
1789316292969030400,5.555030517578125,-1.4256015426725148,-1.0867062724262475,4.158103429791331
1789316292979064300,5.565064208984375,3.817676712194085,-9.438734386974573,0.710341687746346
1789316292989097500,5.575097412109375,2.2044097406625744,-13.797130672007798,0.640317645862326
1789316292999130400,5.58513037109375,-1.50347447142601,-14.750262586724757,-0.09741071904674171
1789316293009163300,5.595163330078125,-0.3350099532455206,-12.319918769085406,1.4362781272485852
1789316293019196200,5.605196044921875,0.8695920462429523,-6.325087402901053,0.9765290838520974
1789316293029230300,5.615230224609375,-1.9558517439454792,-3.5831758824020623,-0.35614947964698074
1789316293039263200,5.62526318359375,-3.5330373482704163,-2.8520056338995694,-1.4030316912069916
1789316293049296400,5.63529638671875,-3.514295822921395,-2.3574527689516542,-1.6441573459662495
1789316293059329300,5.645329345703125,-2.875380664268136,-2.543649878823757,-1.186688741657138
1789316293069362400,5.655362548828125,-2.8272552235245705,-2.2346511496692893,-1.0324622026719152
1789316293079396400,5.665396240234375,-2.6654133872300383,-1.8119979842841625,-1.1009468330942094
1789316293089429500,5.675429443359375,-2.542012633010745,-1.4428560443341731,-1.1336340278178452
1789316293099462100,5.685462158203125,-2.5642718110918996,-0.7775345247924328,-1.2102892513446508
1789316293109495300,5.695495361328125,-2.69211726976037,0.5196557420223951,-1.3270501291580497
1789316293119528200,5.705528076171875,-2.8645079725980755,1.9303461312890051,-1.344881700055301
1789316293129562400,5.715562255859375,-2.798216176044941,2.766685896271467,-1.0590265306010842
1789316293139595300,5.72559521484375,-2.105356661236286,3.2240707678198812,-0.6966950013183056
1789316293149628400,5.73562841796875,-1.0151472029946744,3.669453651407361,-0.44035263433530925
1789316293159661300,5.745661376953125,-0.22242811468243598,3.783493287563324,-0.19033377128541468
1789316293169694200,5.755694091796875,-0.06302095818892121,3.3081974962711334,-0.11043649709746241
1789316293179728400,5.765728271484375,-0.37038872514069077,2.5261048697829245,-0.25252631582617757
1789316293189761300,5.77576123046875,-0.6407305375121534,1.8599077364504337,-0.3944474999897182
1789316293199794200,5.785794189453125,-0.7614445368655025,1.6191408320009708,-0.28966800574064255
1789316293209827000,5.7958271484375,-0.7999883486628532,1.3546253876954317,-0.04946458039283752
1789316293219860200,5.805860107421875,-0.8598173789426684,0.903343509197235,0.5412681466326117
1789316293229894400,5.815894287109375,-0.8510244161561131,0.23756197092831133,1.1902991872392594
1789316293239927300,5.82592724609375,-0.8340367487370968,-0.468286204791069,1.7146131303310392
1789316293249960200,5.835960205078125,-0.7334592362225055,-0.9616226796865462,1.8904371686182915
1789316293259993300,5.845993408203125,-0.58794309630692,-1.26508949367702,1.8287199865043162
1789316293270026200,5.856026123046875,-0.3676704060927033,-1.415640120628476,1.6865588561050593
1789316293280060400,5.866060302734375,-0.1675301110640168,-1.4816162753611801,1.3864295159742235
1789316293290093000,5.876093017578125,-0.18874416400641203,-1.7017764451116322,1.1368391074694693
1789316293300126200,5.886126220703125,-0.11686696853637694,-1.7125731489360332,0.6933712637230753
1789316293310159000,5.8961591796875,-0.13160101180970668,-1.322044722086191,0.38307621114775536
1789316293320192300,5.906192138671875,0.04238660483062267,-0.5602811823993921,0.5345341622024774
1789316293330226200,5.91622607421875,0.7272785017609595,0.002453238371014595,0.501337702782452
1789316293340259300,5.92625927734375,1.279119772595167,-0.06560965950787068,-0.007467705532163381
1789316293350292200,5.936292236328125,1.4417904609292744,-0.1621165615826845,-0.4932894208833575
1789316293360325400,5.946325439453125,1.2324345937877892,-0.14782441685795783,-0.8355737490460277
1789316293370358300,5.956358154296875,0.8557470607638359,0.11165887849926948,-0.9634380585454404
1789316293380392200,5.96639208984375,0.21695114457607267,0.3308914120107889,-0.7084174416854977
1789316293390425000,5.976425048828125,-0.33273703987747427,0.6038374155312776,-0.14456673023626207
1789316293400458200,5.986458251953125,-0.7253910805791616,0.7457546541720629,0.21874694195166228
1789316293410491100,5.9964912109375,-1.2837372032627463,0.6266910523742437,0.6302941914327442
1789316293420524300,6.006524169921875,-1.5529527880832552,0.08922902002632617,0.8947348169364034
1789316293430558200,6.01655810546875,-1.4704197585642338,-0.342193142747879,1.1115979909680782
1789316293440591600,6.026591552734375,-1.469268250441551,-0.3749848207592964,1.3336289230264722
1789316293450624500,6.03662451171875,-1.3279974930107592,-0.37876550834178924,1.456901520821452
1789316293460657700,6.04665771484375,-1.2331132237017155,-0.49902328836023807,1.3735942920595408
1789316293470690600,6.056690673828125,-1.319005208259821,-0.7013987950950861,1.1815301898501813
1789316293480724500,6.066724365234375,-1.2516238629043102,-0.8415870179861783,0.9813045546256005
1789316293490757400,6.07675732421875,-0.9034645052284002,-0.7969798144966364,0.6982980526007712
1789316293500790500,6.08679052734375,-0.48804713631570334,-0.7410971837550401,0.5301597465105354
1789316293510823400,6.096823486328125,-0.22957301800101995,-0.7938754187405109,0.4437541133418679
1789316293520856600,6.106856689453125,0.19423896203041074,-1.235010581755638,0.093305329554528
1789316293530890500,6.116890380859375,0.4000806835711002,-1.9219500588655472,-0.270787656442821
1789316293540923600,6.126923583984375,0.13351385969370602,-2.374406241840124,-0.23626608589887618
1789316293550956500,6.13695654296875,-0.2424628947123885,-2.281743740233779,-0.2492914255581796
1789316293560989700,6.14698974609375,-0.32762159655988216,-1.7382044337987899,-0.4606435810834169
1789316293571022600,6.157022705078125,-0.25710312222242354,-1.0173661942183971,-0.4306922410644591
1789316293581055500,6.167055419921875,0.07115384963154793,-0.32882454260885713,-0.3407052422776818
1789316293591089400,6.17708935546875,0.4993734169721603,-0.16528993092179298,-0.317001564476639
1789316293601122600,6.18712255859375,0.7346019765168428,-0.335022228205204,-0.16449512728229165
1789316293611155500,6.197155517578125,0.9715992992997169,-0.7105746197193861,-0.20765008613690733
1789316293621188400,6.207188232421875,0.7104279047250748,-1.3095645952194928,-0.04437003373280167
1789316293631221500,6.217221435546875,-0.10647709194719791,-1.8768173701971769,0.3605534136943519
1789316293641255700,6.227255615234375,-0.6405185021966695,-2.031069774276018,0.5430868864923716
1789316293651288600,6.23728857421875,-1.171566575849056,-2.020717307087779,0.6535067247159778
1789316293661321500,6.247321533203125,-2.348128475767374,-2.1666087100565434,0.8700181627005338
1789316293671354600,6.257354736328125,-2.8891695356458422,-2.100229819741845,1.009864294155687
1789316293681387500,6.267387451171875,-2.4312843133598565,-1.3946201289534568,1.1652212984755634
1789316293691421400,6.27742138671875,-1.444424901086092,-0.75736033629179,1.2302508200079203
1789316293701454300,6.287454345703125,-0.6703051531732082,0.06606850919127463,1.0021081270709633
1789316293711487500,6.297487548828125,-0.34783787063658234,0.46614334754347797,0.6038388768360018
1789316293721520400,6.307520263671875,0.3115723790347576,0.21616437811255454,0.528820460730791
1789316293731553500,6.317553466796875,-0.016724340307712554,0.12560966244041918,0.8366451776698232
1789316293741587500,6.32758740234375,-0.4371761962562799,0.3527373331159353,0.6429729096114635
1789316293751620600,6.33762060546875,-0.3247685452163219,0.8225947327464819,0.28774171385318037
1789316293761653500,6.347653564453125,-0.36425066077709195,1.1705611981987953,-0.1563444079220295
1789316293771686700,6.357686767578125,-0.7710515925139189,0.6194926653027534,-0.15087591338306663
1789316293781719600,6.367719482421875,-0.397238738143444,0.35510113963782786,-0.1757026038646698
1789316293791753500,6.37775341796875,0.339376916283369,0.3385299440652132,-0.337879371201992
1789316293801786400,6.387786376953125,0.7357768655151128,0.5804407578527927,-0.4780108954697847
1789316293811819500,6.397819580078125,0.34709669688045974,0.6568558890134095,-0.551077592985332
1789316293821852400,6.407852294921875,0.010575170028209686,0.620461218073964,-0.5902347143754363
1789316293831885600,6.417885498046875,-0.8608090203285217,0.3730465461730957,-0.2868088169172406
1789316293841919500,6.42791943359375,-1.5761925016343592,0.2774257792830467,0.20908494124561547
1789316293851952600,6.43795263671875,-1.3298328917443751,0.25305881526768204,0.4773971474856138
1789316293861985500,6.447985595703125,-1.064435403907299,0.4599503381222486,0.8016130272552371
1789316293872018700,6.458018798828125,-0.6653308718919754,0.6688683983683585,1.1595195797026157
1789316293882051600,6.468051513671875,-0.39814942324757574,0.7042898403614759,1.41780548196882
1789316293892085500,6.47808544921875,-0.5272510194569826,0.7572118677318096,1.4946005523577333
1789316293902118400,6.488118408203125,-1.1363514700829982,1.0346820706784725,1.4669398074939846
1789316293912151600,6.498151611328125,-1.5859692147612572,1.393898244419694,1.2602502369523048
1789316293922184400,6.508184326171875,-1.5761504160583018,1.6508388695567846,1.0427084330067038
1789316293932217600,6.518217529296875,-1.325972709184885,1.842991672962904,1.0459485839717089
1789316293942251500,6.52825146484375,-0.7563111194998026,1.7696727542519568,1.1269339456573129
1789316293952284700,6.53828466796875,-0.23309680821299553,1.3308686645328998,1.0443912715271115
1789316293962317600,6.548317626953125,-0.28866496617794035,0.883444045984745,0.7920138626523315
1789316293972350700,6.558350830078125,-0.17702303881347178,0.5038222130745649,0.7409682966783643
1789316293982383600,6.568383544921875,0.06898644246459007,-0.20137188265025616,0.45077465962842106
1789316293992417500,6.57841748046875,0.14735796838998794,-0.8177414474964141,0.7510548064067959
1789316294002450400,6.588450439453125,0.012978724038600922,-0.713135410118103,0.9652009765647351
1789316294012483600,6.598483642578125,-0.3351169207513332,0.10968202546834944,0.9236278800740837
1789316294022516500,6.6085166015625,-0.634760377061367,0.352376098588109,0.38072818671688435
1789316294032549600,6.618549560546875,-1.4726444488763808,0.5627437731206417,-0.6088213414236903
1789316294042583600,6.62858349609375,-1.9759762480854988,1.5927292104154824,-1.454099469012767
1789316294052616700,6.63861669921875,-1.283195059210062,2.1228929024487733,-1.5324645651973783
1789316294062649600,6.648649658203125,0.12132511698901653,1.0011246689915656,-1.0353124775364995
1789316294072682500,6.6586826171875,1.2483470331907272,-1.3229372870117426,-0.1266089026108384
1789316294082715400,6.66871533203125,1.5155132842659949,-2.3267402353018523,0.4354235073700547
1789316294092749600,6.67874951171875,1.7294377744972704,-2.3254794215857983,0.4349273944161832
1789316294102782500,6.688782470703125,0.7881973731040954,-2.430634325018525,0.4401695328533649
1789316294112815600,6.698815673828125,-0.7023305229872465,-2.2939918119102716,0.6668268095381558
1789316294122848500,6.7088486328125,-0.8831693206965923,-1.4228005137771367,-0.07458952316865325
1789316294132881400,6.71888134765625,-0.6465443383574485,-0.6992997769892215,-1.0377855896517634
1789316294142915600,6.72891552734375,-0.09280804755687713,-0.4857838675588369,-0.6473056781187653
1789316294152948700,6.73894873046875,0.21757307586669922,-0.4423655815929174,0.4333405636161565
1789316294162981600,6.748981689453125,0.12301087811887264,-0.7699146974384784,0.680758011996001
1789316294173014500,6.7590146484375,0.6085299572616816,-0.9863707519739866,-0.0050597676075994965
1789316294183047400,6.76904736328125,-0.16761866613030432,0.13047230004072188,-0.5769869641371072
1789316294193081600,6.77908154296875,-0.709614250254631,0.8804729212194681,-1.099932687615603
1789316294203114500,6.789114501953125,-0.29225568414628506,-0.10923194361329078,-0.973167571529746
1789316294213147400,6.7991474609375,-0.5336503651052713,-0.6426473309189081,-1.0069700340189038
1789316294223180500,6.8091806640625,-0.5977396831780671,-0.0516875171393156,-1.1369959054663776
1789316294233213400,6.81921337890625,-0.3848977274864912,0.5191279187560082,-0.9767502523221075
1789316294243247600,6.82924755859375,-0.3098153062343597,0.7531260597229004,-0.6819118582062422
1789316294253280500,6.839280517578125,-0.22596213402748105,0.4408388104170561,-0.38400910808369515
1789316294263313400,6.8493134765625,-0.48992988132238385,0.3611936112940311,-0.1331435650765896
1789316294273346300,6.85934619140625,-0.8632523218274116,0.5067541748732328,0.04470817964598536
1789316294283379500,6.86937939453125,-1.0298340461254119,0.9460983628183602,0.2003217890754342
1789316294293413400,6.879413330078125,-0.9246119226753711,0.7480290288448334,0.21620763273239135
1789316294303446500,6.889446533203125,-1.261555474331975,0.12169921099841594,0.38965895053893324
1789316294313479400,6.8994794921875,-1.9344956521838903,0.6953595149308442,0.34059834783710535
1789316294323512600,6.9095126953125,-1.9847604430437087,1.7518208712190388,0.11403561756797134
1789316294333545500,6.91954541015625,-1.5529285304248333,2.731438641801476,-0.02663220553360879
1789316294343579600,6.92957958984375,-0.9163684104651212,2.9116560927420854,-0.046670346564427014
1789316294353612500,6.939612548828125,0.03273030321300029,2.4761393541306256,0.20147190895862876
1789316294363645400,6.9496455078125,0.943019686025381,1.5843161868572233,0.666405807647109
1789316294373678300,6.95967822265625,1.265736559408903,0.5849322240531444,1.029395654708147
1789316294383711500,6.96971142578125,1.1618477303892374,0.42212125046551224,0.8181110845264047
1789316294393745400,6.979745361328125,1.2432377273529767,0.37490240317285056,0.7444445214215666
1789316294403778600,6.989778564453125,1.7079057416468857,-0.457847812885046,0.12318988794758916
1789316294413811500,6.9998115234375,1.5712380940973758,-0.5525631553679704,-0.28095877571478484
1789316294423844600,7.0098447265625,0.7833838353425264,-0.3578571603477001,-0.35993951957970854
1789316294433877500,7.01987744140625,-0.06245616391301155,-0.8016343623042106,-1.0146800969395786
1789316294443911400,7.029911376953125,-0.23734277521967886,-0.931201237937808,-1.8056638128265738
1789316294453944300,7.0399443359375,0.17704700421094893,-0.5403495704829693,-2.2537471875444055
1789316294463977200,7.049977294921875,-0.05817220298349857,-0.26734102312028407,-2.2191972676888105
1789316294474010400,7.06001025390625,-1.0367857649594545,0.39853520769476886,-1.9984755185328422
1789316294484043300,7.070043212890625,-2.374422608453035,1.0405424871444702,-1.9816082626231013
1789316294494077400,7.080077392578125,-2.7913381069689986,0.8132388753801584,-1.773138822927326
1789316294504110300,7.0901103515625,-1.6439011792480944,0.14466507604420184,-0.4650266184732318
1789316294514143500,7.1001435546875,-0.9396680375099181,-0.6794669492721557,1.0916639678988604
1789316294524176400,7.11017626953125,-0.941042832994461,-1.6893664608716963,1.2800515004873274
1789316294534209500,7.12020947265625,-0.638134237408638,-2.149460591378808,0.9368144747097045
1789316294544243500,7.130243408203125,0.20451018067598342,-2.309621342718601,0.7440662626937031
1789316294554276400,7.1402763671875,1.2272212430536746,-2.7189795577228066,0.39951581622995436
1789316294564309200,7.150309326171875,1.2564485065817832,-2.444067807087302,-0.09474990233965218
1789316294574342400,7.16034228515625,0.0005734159737825394,-0.6626666211187839,-1.1426043929979204
1789316294584375300,7.170375244140625,-1.3100187687277793,1.4061796338438988,-2.3854776709526777
1789316294594409500,7.180409423828125,-1.5042495474517346,2.388369885262847,-2.4310129490725694
1789316294604442400,7.1904423828125,-0.8318143965125083,2.433116789484024,-1.7502815328225492
1789316294614475500,7.2004755859375,0.7189093173444271,2.134738238543272,-0.8955341506205499
1789316294624508400,7.21050830078125,2.5583599566996096,1.3886135820150374,0.03917831030860543
1789316294634541300,7.220541259765625,2.2680939850658177,0.0844528916656971,0.5928298454351723
1789316294644575200,7.2305751953125,0.9047802640020847,-1.026862921360135,1.2426362543284892
1789316294654608400,7.2406083984375,-0.41957507311403747,-1.5586907472133635,1.4549189687021076
1789316294664641300,7.250641357421875,-0.15280863501131534,-1.741348577043414,1.1616839181296528
1789316294674674200,7.260674072265625,0.9710983640402555,-1.8460078059136866,0.869735400236398
1789316294684707300,7.270707275390625,1.518881299394369,-1.1747054583966732,0.782734577653557
1789316294694741500,7.280741455078125,1.4079407982975243,-0.09825812965631485,0.5604139419335872
1789316294704774400,7.2907744140625,1.1193594187498093,0.8906979626357555,0.6739962627761066
1789316294714807300,7.300807373046875,0.8263105383992194,1.5807815829902887,0.4525787133757025
1789316294724840400,7.31084033203125,0.5879156237781048,1.967178609123826,0.02617145615406334
1789316294734873300,7.320873291015625,0.5041016145378351,1.8060206634402274,-0.8845124058686197
1789316294744907300,7.3309072265625,0.64118894880414,1.348199738562107,-1.3734551758497953
1789316294754940200,7.340940185546875,0.5665016643494367,1.05509006793499,-1.387361243866384
1789316294764973300,7.350973388671875,0.3628811259895563,0.719993020927906,-1.2861805047616361
1789316294775006200,7.361006103515625,0.21306641209721564,0.4538514367252588,-0.9866173471461981
1789316294785039400,7.371039306640625,0.11442249799370766,0.20537410402894019,-0.4394342773813754
1789316294795073300,7.3810732421875,0.09878946005403995,-0.14152385540902615,0.14943660129494965
1789316294805106400,7.3911064453125,0.15409458316862581,-0.6821218476951122,0.5163520243018865
1789316294815139300,7.401139404296875,0.3426327032089233,-0.9884522344231605,0.720531950110197
1789316294825172500,7.41117236328125,0.6074871702104807,-0.9105851508885622,0.6404303855217993
1789316294835205400,7.421205322265625,0.9458978718101978,-0.6688683983683585,0.3856283067833632
1789316294845239300,7.4312392578125,1.1719769102156161,-0.4184416851699352,0.018188129249960182
1789316294855272200,7.441272216796875,1.346125854897499,-0.15302257002294062,-0.3358424585469067
1789316294865305300,7.451305419921875,1.1880196979999542,0.019581483304500578,-0.5512389210268854
1789316294875338200,7.461338134765625,0.9022399318695068,0.10845628306567669,-0.6211193897217512
1789316294885371400,7.471371337890625,0.6490344016075134,0.21687691029608247,-0.6021621757954359
1789316294895405300,7.4814052734375,0.3386556162714958,0.3142611797273159,-0.32903409370630976
1789316294905438500,7.4914384765625,0.2983306201457977,0.45747839505076404,-0.02907747979387641
1789316294915471400,7.501471435546875,0.4092050702691078,0.5428144992917776,0.13540230378881096
1789316294925504500,7.51150439453125,0.5823772788733244,0.625918314436078,0.1922206810105592
1789316294935537400,7.521537353515625,0.8743126450240611,0.6986030268967152,0.12417385748364031
1789316294945571300,7.5315712890625,1.1276613831490279,0.7584387791782617,-0.006339797480776906
1789316294955604200,7.541604248046875,1.3312883512496947,0.7894616939514875,-0.19053185114078222
1789316294965637400,7.551637451171875,1.4112439314961434,0.7292354810476303,-0.14244908049516378
1789316294975670300,7.561670166015625,1.4945768792212009,0.6065402447491884,0.03582636953219771
1789316294985703400,7.571703369140625,1.5289958661735057,0.4307160603314638,0.09042239452935755
1789316294995737300,7.5817373046875,1.2884218539476393,0.21423487135469912,0.15243812119849026
1789316295005770500,7.5917705078125,0.9707903210043907,0.0970528455197811,0.23413915687277911
1789316295015803400,7.601803466796875,0.6657663406997919,0.11192600500285625,0.33211781200058754
1789316295025836500,7.61183642578125,0.43126200377643104,0.22181495122015474,0.5401535364542156
1789316295035869400,7.621869384765625,0.3389157285124063,0.39697687233686446,0.6289644771989434
1789316295045903400,7.6319033203125,0.31947043880820275,0.5737836380511522,0.5539547558568417
1789316295055936300,7.641936279296875,0.3174935857772827,0.6275275031983852,0.37540867219455537
1789316295065969400,7.651969482421875,0.36266134575903414,0.43698798020780083,0.23138006742298603
1789316295076002300,7.662002197265625,0.4326677789211273,0.06656476827561855,0.25008374497964975
1789316295086035500,7.672035400390625,0.43565410125553605,-0.231066763690114,0.4619850588202476
1789316295096069400,7.6820693359375,0.40634558918476105,-0.5765040029257535,0.7038184234574437
1789316295106102500,7.6921025390625,0.527235237365961,-0.8489467330992221,0.7698609214246273
1789316295116135400,7.702135498046875,0.7334715111821889,-0.989247768715024,0.728594260534644
1789316295126168600,7.71216845703125,0.7480225991040468,-1.0219424160927533,0.6909828342165798
1789316295136201500,7.722201416015625,0.6460530477091669,-0.9309452173501253,0.6543439061924815
1789316295146235400,7.7322353515625,0.3577572071045637,-0.7546013929724693,0.6850277252044529
1789316295156268300,7.742268310546875,-0.07807634237110614,-0.5098842895925044,0.7298348351802676
1789316295166301400,7.752301513671875,-0.6540367399394512,-0.2420996143579483,0.8928298600979149
1789316295176334300,7.762334228515625,-1.120312773951888,0.02721709274947643,0.8544068982012569
1789316295186367200,7.7723671875,-1.2183674899905919,0.3122252899855375,0.5283632915478199
1789316295196401400,7.7824013671875,-0.9714292034298181,0.603426496642828,0.17809205628447233
1789316295206434600,7.7924345703125,-0.7272896076768637,0.7822825961023568,0.053539355551078915
1789316295216467500,7.802467529296875,-0.6621060646265745,0.7660399018317461,-0.05245192564055323
1789316295226500400,7.812500244140625,-0.7639227635473013,0.5912316164582967,-0.20009543297365306
1789316295236533500,7.822533447265625,-1.0216343730568884,0.2993213847488165,-0.3451975852608681
1789316295246567400,7.8325673828125,-1.2397802803754805,0.03248831115067005,-0.5287776445023715
1789316295256600300,7.842600341796875,-1.1359700695499777,-0.0973106196731329,-0.592904956497997
1789316295266633200,7.85263330078125,-0.8530357559785247,-0.10932429807186127,-0.4315019500121474
1789316295276666400,7.862666259765625,-0.5875377303764223,0.00514087001979351,-0.1044908865660429
1789316295286699300,7.87269921875,-0.5588572870761156,0.1414256557315588,0.3551284660361707
1789316295296733400,7.8827333984375,-0.5470242259413004,0.08244272088706493,0.578800881691277
1789316295306766300,7.892766357421875,-0.2986646744057536,-0.11161153222620486,0.6562251168292016
1789316295316799500,7.902799560546875,-0.0011222820281982422,-0.37782150548994536,0.4361893771760165
1789316295326832400,7.912832275390625,0.2678133168071508,-0.6802677442610263,0.006679916155338287
1789316295336865500,7.922865478515625,0.34285014535188674,-0.9014584261029959,-0.25324841955564914
1789316295346899200,7.932899169921875,0.3499240292608738,-0.942978769493103,-0.4607175961676985
1789316295356932400,7.942932373046875,0.45865503761470316,-0.7548521528631448,-0.41619478302597995
1789316295366965200,7.95296533203125,0.5293313328623771,-0.45381928802132604,-0.14211670673564075
1789316295376998400,7.962998291015625,0.7528156785994767,-0.18866788389980793,0.13904694390147923
1789316295387031300,7.97303125,1.1100745807930827,-0.07779810995161533,0.31177652330473066
1789316295397065500,7.9830654296875,1.3921350341394543,-0.19385843828022478,0.2864408603876829
1789316295407098400,7.993098388671875,1.6025222901552916,-0.34089901128411293,0.25059322887174784
1789316295417131500,8.003131591796874,1.729500026078522,-0.5958259585112333,0.4794008885234594
1789316295427164400,8.013164306640626,1.6562907052218914,-0.7523813788354397,0.6564306493386626
1789316295437197600,8.023197509765625,1.2372542690292,-0.5993371815025806,0.8356224104933441
1789316295447231000,8.03323095703125,0.7691755695089697,-0.053665539214015005,1.0732687717694789
1789316295457264000,8.04326416015625,0.39283436570465563,0.5785878234624863,1.3673688416734338
1789316295467297000,8.053297119140625,0.13259995971918107,0.9263502907752991,1.3687459752455353
1789316295477330200,8.063330078125,0.19769348639845846,0.9083774117112159,1.2631328066512941
1789316295487363000,8.073363037109376,0.29177257680445906,0.7358546069264411,1.3565015568308532
1789316295497397200,8.083397216796875,0.4398644124269485,0.6186848560512066,1.4664957169882953
1789316295507430100,8.09343017578125,0.6147153678983449,0.5556815796494483,1.4431500588446855
1789316295517463300,8.10346337890625,0.9593760698035358,0.5524626176029444,1.378140411056578
1789316295527496200,8.11349609375,1.170315114483237,0.5415671295791864,1.2289644334591925
1789316295537529300,8.123529296875,0.9723702836722135,0.5556430012047291,1.1827889577396213
1789316295547563000,8.13356298828125,0.39985681168735027,0.6557248391568661,1.2216199889805168
1789316295557596200,8.14359619140625,-0.00044774376749992365,0.7702589808315038,1.2997021035052836
1789316295567629000,8.153629150390625,-0.005353635987639427,0.8235948496997356,1.3325992877177892
1789316295577662200,8.163662109375,0.22602818500101565,0.8189286114543676,1.4397234453968704
1789316295587695000,8.173695068359375,0.484427776774764,0.7536456996828317,1.5562068214431404
1789316295597729300,8.183729248046875,0.7410799403592944,0.6168798524558544,1.6567603685602545
1789316295607762200,8.19376220703125,0.9578639116749167,0.4103127392500639,1.6917488259635864
1789316295617795300,8.20379541015625,1.0766899053245782,0.2686719794631004,1.537884544419497
1789316295627828200,8.213828125,0.9265320770829916,0.2851601729273796,1.2302490664422512
1789316295637861400,8.223861328125,0.6822703162550926,0.4877110362291336,0.9711733289726078
1789316295647895000,8.23389501953125,0.24269348859786985,0.6932920610070228,0.7181948854647576
1789316295657928200,8.24392822265625,-0.05337736992239952,0.7781611322581767,0.4764790097273886
1789316295667961000,8.253961181640625,-0.2007254014402628,0.7356359957396984,0.2873838403262198
1789316295677994200,8.263994140625,-0.1348369249910116,0.5962988367199897,0.1368337613640353
1789316295688027100,8.274027099609375,0.018975918626785278,0.33283202468454837,0.20036780190793796
1789316295698061300,8.284061279296875,0.2507704120695591,-0.09824760826230049,0.4130450868234038
1789316295708094200,8.29409423828125,0.5713268925487995,-0.5604559544444084,0.5840786759637295
1789316295718127400,8.30412744140625,0.6945446914166211,-1.0353817433804273,0.8152882091253996
1789316295728160300,8.31416015625,0.6439560754299164,-1.3381091371804474,0.8761370839722454
1789316295738193200,8.324193115234374,0.6296440569609403,-1.3512684784829616,0.7832874622959644
1789316295748227000,8.33422705078125,0.24227087927162647,-1.1167781700849533,0.6464755109049379
1789316295758260200,8.34426025390625,-0.21292729588747022,-0.6873281841665506,0.591165492419526
1789316295768293000,8.354293212890624,-0.5619570066571236,-0.16457330708503723,0.6880633665733039
1789316295778326000,8.364325927734376,-0.5736725788921118,0.2467009706735611,0.7343621033463626
1789316295788359200,8.374359130859375,-0.230753459957242,0.40934067934751506,0.7691197476685047
1789316295798393300,8.384393310546875,0.20548750127553939,0.36255262468755245,0.7495258432738483
1789316295808426200,8.39442626953125,0.5769084920734167,0.012412906849384307,0.7024868825927376
1789316295818459100,8.404459228515625,0.8321703703433275,-0.5743319195836782,0.6530101003054529
1789316295828492300,8.4144921875,0.7352063721507788,-1.123362224650383,0.6657532620225102
1789316295838525200,8.424525146484376,0.5593710818171501,-1.4737877736926077,0.7594296168465167
1789316295848559000,8.43455908203125,0.34046295795440673,-1.4708879605978726,0.8580831024959683
1789316295858592000,8.444592041015625,0.08910919303894042,-1.1643296103328467,1.095806401465833
1789316295868625200,8.454625244140624,-0.017916764962673186,-0.7929752550303936,1.4291715101137756
1789316295878658000,8.464657958984375,-0.022418168035149573,-0.41077509606480594,1.5703110423803328
1789316295888691200,8.474691162109375,0.05408113427758217,0.05968319206833839,1.3839948361732064
1789316295898725000,8.48472509765625,0.09345686685442924,0.32904958353638647,1.0766349602669476
1789316295908758300,8.49475830078125,0.2486135262966156,0.42808162017464635,0.6870249634362757
1789316295918791200,8.504791259765625,0.3590215279519558,0.3559703236877918,0.36769042596742507
1789316295928824000,8.514823974609374,0.3286562003046274,0.09850947406888008,0.07492964184321463
1789316295938857000,8.52485693359375,0.2657867794156074,-0.07735738044679165,-0.19615641302429138
1789316295948891100,8.53489111328125,-0.1367898126244545,0.050990182524919506,-0.2726516967490315
1789316295958924000,8.544924072265625,-0.48895840594172474,0.22533786464929578,-0.28955153975412246
1789316295968957200,8.554957275390626,-0.49183191555142397,0.3795107737511396,-0.2064266087565571
1789316295978990000,8.564989990234375,0.14609306302070618,0.17208499788939952,-0.07811082916259765
1789316295989023200,8.575023193359375,0.6959644950866699,-0.4311591279238462,0.11119732540212571
1789316295999057200,8.58505712890625,0.9797224000006913,-0.9558066868841647,0.16234233316257596
1789316296009090300,8.59509033203125,0.7966109811842441,-1.5498931082516907,0.13376922269426286
1789316296019123200,8.605123291015625,1.1537725604832172,-2.1229244666308165,0.2722769451525062
1789316296029156000,8.615156005859374,1.8022610186457633,-2.4254782574295994,0.6357712346043437
1789316296039189000,8.62518896484375,0.9684756143212317,-2.299275889793038,1.2567968816280364
1789316296049223200,8.63522314453125,-1.4188017995297908,-0.7797679829329252,2.064046161204576
1789316296059256000,8.645256103515624,-2.491537998792529,1.622715767878294,1.8289017728120087
1789316296069289200,8.655289306640626,-1.6812269935578106,1.8341005104988812,1.255907093181461
1789316296079322000,8.665322021484375,-0.612048194515705,0.45625031456053255,1.2364014515921473
1789316296089355300,8.675355224609374,-0.5712053119957446,-0.5206698875010013,1.2332684142634271
1789316296099389200,8.68538916015625,-0.9173217656672,-0.6643190645009279,1.2145040194954722
1789316296109422000,8.695422119140625,-1.0583405941635369,-0.4307505471229553,0.8879157845713198
1789316296119455000,8.705455078125,-0.9970020361036062,-0.3445499350070953,0.566363132661581
1789316296129488100,8.715488037109376,-0.9338958838492631,-0.27406536293923855,0.311549290420115
1789316296139521000,8.72552099609375,-1.0324491970598697,-0.011153846698999404,0.21540026187226174
1789316296149555200,8.73555517578125,-0.863048323687911,0.2115437325745821,0.07036839834228158
1789316296159588000,8.745588134765624,-0.8534282624274492,0.3214034526973963,0.13498349385485053
1789316296169621200,8.755621337890625,-1.2297300110042095,0.6007224983811378,0.36175080678537486
1789316296179654100,8.765654052734375,-1.5863433087706564,0.6819967600107193,0.5575600868724286
1789316296189687300,8.775687255859374,-1.7776053008168935,0.6384814434111118,0.5392826719038188
1789316296199721200,8.78572119140625,-1.7928677518785,0.7052531324356794,0.4451610575303435
1789316296209754000,8.795754150390625,-1.4024579829722643,0.6041968964934349,0.06706760323122143
1789316296219787000,8.805787109375,-1.0100316135466099,0.3812175776690244,-0.19703304972834884
1789316296229820200,8.815820068359375,-0.7451210324436426,0.4009522057086229,-0.26651260947212574
1789316296239853000,8.82585302734375,-0.555210455006361,0.48303719919919963,-0.3416962991416454
1789316296249887200,8.83588720703125,-0.49383448754549025,0.3277548675507307,-0.38105924530215557
1789316296259920100,8.845920166015626,-0.46461540732383727,0.23165888436436652,-0.5852415822632611
1789316296269953300,8.855953369140625,-0.49735973906219005,0.1175485210597515,-0.5662123260140419
1789316296279986200,8.865986083984374,-0.45430444118976593,-0.040352468654513356,-0.54428340280056
1789316296290019000,8.87601904296875,-0.24425533108711242,-0.47072132298350333,-0.596157528553158
1789316296300053000,8.886052978515625,-0.16724106498956678,-0.6804688197910785,-0.5881145804163068
1789316296310086100,8.896086181640625,-0.1456429811656475,-0.687036507743597,-0.5223731112223118
1789316296320119000,8.906119140625,0.03002396686375141,-0.7946130853652954,-0.6562356382232158
1789316296330152000,8.91615185546875,0.084313190934062,-0.8566828803092241,-0.7007469070576131
1789316296340185000,8.92618505859375,0.06767886699736118,-0.7836801879405975,-0.7937377638354897
1789316296350219300,8.93621923828125,-0.16134849981963634,-0.6710042413532733,-0.7548268722914159
1789316296360252200,8.946252197265625,-0.5086661459743976,-0.37062078033089635,-0.5335745233900845
1789316296370285000,8.95628515625,-0.2751765390515327,0.6957751099944114,1.1519206490062177
1789316296380318200,8.966318115234374,1.1827613390803335,1.4608154793947934,1.1948774549402297
1789316296390351000,8.97635107421875,1.138953761535883,0.8544646197378635,-0.039597047177329654
1789316296400385000,8.986385009765625,-0.7188608020275831,1.0535095207452774,0.625096915050596
1789316296410418000,8.99641796875,-2.258620638799667,0.8727320978343486,-0.7695136423569172
1789316296420451000,9.006451171875,-2.3496377112865448,0.2532055302619934,-1.7472876117035745
1789316296430484000,9.01648388671875,-0.5804974564760923,-0.503795909589529,-0.1056918598536402
1789316296440517000,9.02651708984375,0.2887982371687889,0.057522214642167085,1.1787428972192109
1789316296450551600,9.036551513671874,0.141029934412241,0.8943991552412509,0.8927829522162676
1789316296460584400,9.04658447265625,-0.2615793908536434,0.7115665533661842,0.5819008204679936
1789316296470617600,9.05661767578125,-0.8105003903269767,0.5261293219506741,0.6554856235735118
1789316296480650500,9.066650390625,-1.096677631342411,0.7345148827552795,0.7845229223750532
1789316296490683400,9.076683349609375,-0.7653735468775034,1.0091402176648379,0.7646341266870498
1789316296500717300,9.08671728515625,-0.09061725951433182,1.268604808321595,0.7406882376279681
1789316296510750500,9.09675048828125,0.1123030216217041,1.2559464022785425,0.6656423489939421
1789316296520783400,9.106783447265625,-0.15063479810357092,1.072992219850421,0.3888794175338
1789316296530816300,9.116816162109375,-0.44675475646257395,0.8786503819674253,0.04815269407667219
1789316296540849400,9.126849365234374,-0.48337739093899723,0.7649462613761424,-0.21672047762535512
1789316296550883600,9.136883544921876,-0.00597089110314846,0.6190314775317907,-0.2516069724915549
1789316296560916500,9.14691650390625,0.3982902930229902,0.22875614866018293,-0.05546900843940675
1789316296570949400,9.156949462890625,0.5331599512398243,-0.3003080576986074,0.1099159072894603
1789316296580982500,9.166982421875,0.3984136271417141,-0.3470475970417261,0.045492845483962444
1789316296591015400,9.177015380859375,0.29553426742553707,0.005596212571859359,-0.08747037632334977
1789316296601049300,9.18704931640625,0.25684943972229957,0.3468383382052183,0.02773338997485116
1789316296611082200,9.197082275390626,0.023051205241680143,0.5290338112205266,0.22994371447693554
1789316296621115400,9.207115478515625,-0.09998597636222839,0.5477946257919073,0.20538846134785563
1789316296631148300,9.217148193359375,-0.011321019959449768,0.11214461618959903,0.012938063234649598
1789316296641181400,9.227181396484376,0.2698176423668861,-0.2589870362728834,-0.04977244989876635
1789316296651215400,9.23721533203125,0.15060323392152786,-0.37892800542712207,-0.13233880629865452
1789316296661248500,9.24724853515625,0.034971944659948344,-0.3583540039539337,-0.2683656169276684
1789316296671281400,9.257281494140624,-0.0074526540935039515,-0.26071663654446603,-0.39915129376649855
1789316296681314600,9.267314453125,0.06420446888506412,-0.0342290173381567,-0.45712055805642154
1789316296691347500,9.277347412109375,0.168548055934906,0.16253274116814134,-0.41977866939473896
1789316296701381400,9.28738134765625,0.3005740151584148,0.2622866623401642,-0.3204367996223271
1789316296711414300,9.297414306640626,0.05699672946333885,0.33630583827495575,-0.185846816863399
1789316296721447400,9.307447509765625,-0.008643325182795524,0.5311860208183526,-0.18987364296037704
1789316296731480300,9.317480224609374,0.31658406971693037,0.7659136451035737,-0.2004836468399502
1789316296741513500,9.327513427734376,0.44324061086177824,0.8432675184190273,-0.131629543784447
1789316296751547400,9.33754736328125,0.4029483479619026,0.8623369605481624,-0.17447549148881808
1789316296761580500,9.34758056640625,0.16979133399426935,0.9494202007174491,-0.11566382155800238
1789316296771613400,9.357613525390626,0.14080547800660131,0.9977052159368991,-0.18603854004321618
1789316296781646600,9.367646484375,0.11869593752920626,1.0867489425241947,0.014519998663850129
1789316296791679500,9.377679443359375,0.46266836490929125,1.027974681994319,0.1371294929075986
1789316296801713400,9.38771337890625,0.7973778739035129,0.8523509885847568,0.23401728405877947
1789316296811746300,9.397746337890625,1.0509656814813613,0.5335790534347296,0.23825346032381056
1789316296821779500,9.407779541015625,1.1031459505736827,0.1960053871810436,0.39931671346127984
1789316296831812400,9.417812255859374,1.1392232261270283,-0.05275251602232456,0.4848837769139558
1789316296841845500,9.427845458984375,1.2242208921939133,-0.13305764035880566,0.44240200461316853
1789316296851879400,9.43787939453125,1.2748241212278604,-0.09394844976365566,0.375805014568381
1789316296861912600,9.44791259765625,1.4065911372542381,-0.04693886130750179,0.31843992671668525
1789316296871945500,9.457945556640626,1.0336509740650652,-0.4511439313322305,-0.028547501103021202
1789316296881978600,9.467978515625,0.9160989458739757,-1.3271633802741765,-0.16107245935723186
1789316296892011500,9.478011474609374,0.7253092475146055,-1.5085013596773147,-0.1134412684040144
1789316296902045400,9.48804541015625,0.28043197536170483,-1.3882821581035851,-0.3681534769019112
1789316296912078300,9.498078369140625,-0.0775906046807766,-1.2820470582187176,-0.5692496844159439
1789316296922111500,9.508111572265625,-0.16292904700934885,-0.9301204569637775,-0.48038942463677375
1789316296932144400,9.518144287109376,0.07757073093652725,-0.47509003958702084,-0.4962011070789769
1789316296942177500,9.528177490234375,0.1990478236168623,0.039780806246399875,-0.6687308165285736
1789316296952211500,9.53821142578125,0.12417290763556957,0.24462767153084278,-0.8303260576508938
1789316296962244600,9.54824462890625,-0.03792845637798309,0.31435061157643795,-0.7800066139943898
1789316296972277500,9.558277587890625,-0.14932371550500392,0.17600421715974807,-0.6822657131452113
1789316296982310700,9.568310546875,-0.11224281586706637,0.0787403592377901,-0.36827911257557566
1789316296992343600,9.578343505859374,-0.01549275268614292,0.09918635041713714,-0.07832198769524693
1789316297002377500,9.58837744140625,-0.08191139048933982,0.03378185809254646,0.06911971345543862
1789316297012410400,9.598410400390625,-0.16089841796457766,-0.22225918785631654,-0.34684411035887897
1789316297022443500,9.608443603515624,-0.1542056423276663,-0.4140221151620149,-0.4242557782761752
1789316297032476400,9.618476318359376,-0.003739771050214767,-0.24860768107771872,-0.2538522306676954
1789316297042509300,9.62850927734375,0.1253559799402952,-0.12902911549508572,-0.4218906565800309
1789316297052543500,9.63854345703125,0.20102409212589262,-0.3456085041493177,-0.47179896215237677
1789316297062576600,9.64857666015625,0.42393852902054785,-0.5616173994392156,-0.2434978637833148
1789316297072609500,9.658609619140625,0.6730185037851333,-0.7082640046894549,0.10835209203884005
1789316297082642400,9.668642333984375,0.6608300533413887,-0.8510112644135952,0.39944004758000373
1789316297092675300,9.67867529296875,0.49275195300579067,-0.9756967977464198,0.5194486751429737
1789316297102709500,9.68870947265625,0.46180034990310664,-0.8528104227900505,0.743407068132609
1789316297112742400,9.698742431640625,0.687985771292448,-0.34051088874936103,0.7860532737474888
1789316297122775300,9.708775390625,0.940955154711008,0.262048177409172,0.6512314732603728
1789316297132808400,9.718808349609375,1.0975076524257659,0.7270248192608356,0.5746592518419027
1789316297142841300,9.72884130859375,1.035201710638404,0.8323200079470873,0.4191859276659786
1789316297152875500,9.73887548828125,0.7799293109744787,0.6718985598444939,0.15238792538121343
1789316297162908400,9.748908447265626,0.5018792623132466,0.463101495629549,0.07541698696874082
1789316297172941600,9.758941650390625,0.21923896325230596,0.29060324076414107,-0.06817782949544489
1789316297182974500,9.768974365234374,0.055094695234298705,0.2039618991434574,-0.25202033906541765
1789316297193007400,9.77900732421875,-0.03329495135843753,0.2758481547027826,-0.3836275614202022
1789316297203041300,9.789041259765625,-0.2640145090460777,0.48356093081235885,-0.45896972958706317
1789316297213074400,9.799074462890625,-0.8807622595548629,0.7276344755917787,-0.6026970133244991
1789316297223107300,9.809107421875,-1.8331711206942796,0.7238438511371612,-0.9434162841275334
1789316297233140500,9.819140380859375,-2.5352491302251816,0.4154103546500206,-1.2581827830284833
1789316297243173400,9.82917333984375,-2.599271812802553,-0.13287819213867186,-1.624190808866918
1789316297253207600,9.83920751953125,-2.1256489231586455,-0.697066318848729,-1.8782982564046977
1789316297263240400,9.849240478515625,-1.3542454484671353,-1.1563602388888596,-1.6587389751568435
1789316297273273300,9.8592734375,-0.3911363296151161,-1.532095001232624,-1.113939001136273
1789316297283306200,9.86930615234375,0.39500586452484127,-1.8076105629801749,-0.6334128349099308
1789316297293339400,9.87933935546875,1.0525579191088676,-1.7874445577859877,-0.22875680624730885
1789316297303373300,9.889373291015625,1.4581184953957795,-1.5940999142467975,0.21069091513752936
1789316297313406500,9.899406494140624,1.593746278503537,-1.320910749620199,0.7373607006404549
1789316297323439400,9.909439453125,1.301150987139344,-0.9225883078932762,1.0157080517478287
1789316297333472500,9.919472412109375,0.6717144354492426,-0.45282969246208665,1.0947241591870784
1789316297343505400,9.92950537109375,0.08038929548859595,0.041838323298096655,1.0600222636401653
1789316297353539600,9.93953955078125,-0.293106163495779,0.3313233736872673,0.8057525382127613
1789316297363572500,9.949572509765625,-0.425508554816246,0.4751040681123733,0.48261817006953056
1789316297373605400,9.95960546875,-0.5599649560570716,0.48796997942626474,0.23694880746603011
1789316297383638300,9.96963818359375,-0.4618167165160179,0.31498715591430665,0.35238296672031283
1789316297393671400,9.97967138671875,-0.43607144988477226,0.3167740393310785,0.23711568846553563
1789316297403705300,9.989705322265625,-0.5722744025319815,0.4048042049616575,0.01640661612804979
1789316297413738500,9.999738525390624,-0.6157417883366346,0.4788479308158159,0.1177989521568641
1789316297423771400,10.009771484375,-0.5028361246466636,0.5584264944434165,0.29104853684622795
1789316297433804500,10.019804443359375,-0.4346376176893711,0.6616419542461633,0.3414522612527013
1789316297443837000,10.0298369140625,-0.5094178411245346,0.6386328345805407,0.2011723049575463
1789316297453870800,10.039870849609375,-0.4525438612580299,0.49796471921801566,0.12468699463754891
1789316297463904000,10.049904052734375,-0.14556231714487075,0.41419688720703124,0.03652121992856264
1789316297473937000,10.05993701171875,0.259023276630044,0.3625941257417202,-0.18571228549722582
1789316297483970000,10.069969970703125,0.715190589082241,0.2888976058900356,-0.3204685830000788
1789316297494003000,10.0800029296875,1.0795470483213663,0.15088263538479804,-0.3613339696127921
1789316297504036900,10.090036865234374,1.3249381054401397,0.02648527134358883,-0.17929383328966794
1789316297514069800,10.10006982421875,1.3608721731305122,-0.057897477695345874,0.3085851068522781
1789316297524103000,10.11010302734375,1.1486650082111358,-0.1251999125957489,0.7805185090392828
1789316297534135800,10.1201357421875,0.8083785758674145,-0.09665069445967674,0.9808375216357409
1789316297544169000,10.1301689453125,0.6301461612641811,-0.04640519282221794,0.9130845664888619
1789316297554203000,10.140202880859375,0.8351713057249784,-0.1752531065315008,0.7744729452647269
1789316297564236000,10.150236083984375,1.2579776158452034,-0.4727390925467014,0.8446216364417225
1789316297574269000,10.16026904296875,1.5195868173152207,-0.8087450710922479,0.7892464437656104
1789316297584301800,10.1703017578125,1.412473181030154,-0.7352215697199106,0.560912246844545
1789316297594334700,10.180334716796875,1.1865870348483323,-0.483829226359725,0.41066842081993815
1789316297604369000,10.190368896484374,1.0811059682011603,-0.3881909238129854,0.4770836245570331
1789316297614401800,10.20040185546875,0.9940735814362763,-0.3783960905075073,0.3266214796066284
1789316297624435000,10.21043505859375,0.6588140373438597,-0.24609949764907357,0.1756159302282147
1789316297634467800,10.2204677734375,0.357227045750618,-0.09739537534713745,0.044691968296701086
1789316297644501000,10.2305009765625,0.35759295645356176,-0.1173392622232437,0.0731063399727689
1789316297654535000,10.240534912109375,0.5572527744889259,-0.08589782977700233,0.3043173298725858
1789316297664568000,10.250568115234374,0.737993957042694,0.0026139818906784056,0.5511090110369027
1789316297674601000,10.26060107421875,0.7538847691357136,0.21180793646872043,0.5901411908730864
1789316297684633900,10.2706337890625,0.7594464949160814,0.3652560384273529,0.6009813685130327
1789316297694666800,10.280666748046874,0.8052642432391643,0.459218516716361,0.7240360857736319
1789316297704701000,10.290700927734376,0.9060913466006517,0.5534264941990376,0.761105368039012
1789316297714733800,10.30073388671875,1.106226380932331,0.4956581958413124,0.7253734718572348
1789316297724767000,10.31076708984375,1.2069137835621833,0.26853110968768595,0.6124075293473898
1789316297734800000,10.3207998046875,1.216709201389551,0.19410978269279003,0.37600926843620835
1789316297744833000,10.3308330078125,1.1488134767711162,0.25396540871858597,0.20134981694892048
1789316297754867000,10.340866943359375,1.0080085832864045,0.27617197982966896,0.06549884694400243
1789316297764900000,10.350900146484374,0.7991390383571386,0.17749942415356634,0.01788735620509833
1789316297774932700,10.3609326171875,0.6486404338538646,0.22774200318157672,0.14431562328571454
1789316297784966000,10.3709658203125,0.5891700077533721,0.4280734368681907,0.19615758206807077
1789316297794998800,10.380998779296876,0.029544658914208412,0.5376192687362432,0.2831840505488217
1789316297805033000,10.391032958984376,-0.2749041518509388,0.08370119651556014,0.6530019169989973
1789316297815065900,10.40106591796875,-0.24040566992163656,-0.28318858059346674,0.787749483206123
1789316297825099000,10.41109912109375,-0.6972317385435104,0.04200725012421608,0.7492772022750228
1789316297835132000,10.4211318359375,-1.1748726316571234,0.6601689590841532,0.663012219686061
1789316297845164800,10.431164794921875,-0.9272036927342414,0.9316285234391689,0.5649074539605528
1789316297855199000,10.441198974609375,-0.374220850649476,0.603622311475873,0.53005456910301
1789316297865232000,10.45123193359375,0.2090694514155388,0.10274199707210063,0.43909646026175464
1789316297875264800,10.4612646484375,0.6653238576292991,-0.6118161393254995,0.4924252052694559
1789316297885297700,10.471297607421874,0.6006447569698095,-1.1751485259890555,0.6173262810491025
1789316297895330800,10.481330810546876,-0.5181944372981786,-1.1945984918683767,0.5710843890298157
1789316297905365000,10.491364990234375,-1.5606056409239768,-0.32453239837288855,0.7221884851455688
1789316297915398000,10.50139794921875,-1.2792419376701116,0.2585200032830238,0.8159363708358257
1789316297925430800,10.5114306640625,0.18942308618128298,-0.6831026754260062,0.5836383483177051
1789316297935464000,10.5214638671875,1.3612263933956623,-2.271711591041088,0.5841860087957232
1789316297945496800,10.531496826171875,0.6732073043555021,-2.469540686517954,0.6536340043574571
1789316297955531000,10.541531005859374,-0.9016571635454893,-1.564440104520321,0.7263920012500137
1789316297965563600,10.551563720703125,-1.1976420973479747,-0.040780338677763935,0.850152747888118
1789316297975596800,10.5615966796875,-0.55907297565341,0.10179682517647742,0.44308293608203525
1789316297985629700,10.571629638671874,0.13031331008672714,-0.20741583898961544,0.15568857436180114
1789316297995662800,10.581662841796875,-0.292479556030035,-0.32960838646292684,-0.2684956730481237
1789316298005696800,10.59169677734375,-1.1290122132360934,0.03991349271535873,-0.5619027191866189
1789316298015730000,10.60172998046875,-1.4276526299834251,0.3633376375854015,-0.8952100332327186
1789316298025762800,10.6117626953125,-1.3041244499921798,0.5011193838566541,-1.2725728351697325
1789316298035796000,10.6217958984375,-1.179207445991039,0.5999427461802959,-1.455877000079304
1789316298045828900,10.631828857421874,-0.8325298513054847,0.5028846399635076,-1.4026833161607384
1789316298055862800,10.64186279296875,-0.7755787145495414,0.38585283625423905,-1.0740385140329598
1789316298065895700,10.651895751953125,-0.7787205197066068,0.4273825319945812,-0.7309148124366999
1789316298075928800,10.6619287109375,-1.1303180351376534,0.08422551265060901,-0.43405002705976364
1789316298085961700,10.671961669921876,-1.455900234824419,-0.5225350968509912,-0.38774646798111495
1789316298095995000,10.681994873046875,-1.3990496358335018,-0.38698563967645166,-0.42047406778037544
1789316298106028800,10.69202880859375,-1.1846756482690572,0.5201940866827964,-0.40794374509640036
1789316298116062000,10.70206201171875,-0.8117512671709061,1.580430285334587,-0.12154044024012982
1789316298126094800,10.7120947265625,-0.68074588316679,2.0260159980177876,-0.1430978267274797
1789316298136128000,10.7221279296875,-1.0354314277410506,1.688043103313446,-0.1851404404260218
1789316298146161000,10.732160888671874,-1.0895283441096544,0.5371411298304796,-0.33721272398680446
1789316298156194800,10.74219482421875,-1.122336388733983,-0.15849135682284832,-0.21293964391238987
1789316298166227700,10.752227783203125,-0.7712427311718464,0.009475099831819534,0.37975656520575285
1789316298176260900,10.7622607421875,-0.46300797212719913,0.6893535525143146,0.6106348205864429
1789316298186293800,10.772293701171876,-0.11703940249383449,1.1314379790782927,0.4476514130413532
1789316298196327000,10.782326904296875,0.2451367900967598,0.9495032028257846,0.3522485266856849
1789316298206360800,10.79236083984375,0.2448001054883003,0.3548626547068357,0.5725263314664364
1789316298216394000,10.80239404296875,0.06650339347720145,0.24772154589295386,0.6125555960485711
1789316298226427000,10.812427001953125,0.10378010794818401,0.7449041748225689,0.3765845841061324
1789316298236460000,10.8224599609375,0.3266822698831558,0.975651789560914,0.05616637958642095
1789316298246493000,10.832492919921876,0.5222381597310304,1.0531044470757245,-0.06128006933834403
1789316298256526800,10.84252685546875,0.4259229808360338,1.0095809471696615,0.12144194830171763
1789316298266559700,10.852559814453125,0.12089373983442783,0.9986451271355151,0.180279154532589
1789316298276593000,10.862593017578124,-0.030133856979012486,1.0154793575584888,0.3583493643114343
1789316298286625800,10.872625732421875,-0.13774258330464362,0.8089572525382042,0.34702633505798874
1789316298296659000,10.882658935546875,-0.3790454943269491,0.8499591250121593,0.09118998136837035
1789316298306692900,10.89269287109375,-0.6496832209050655,1.0536772785276174,-0.23133270288361235
1789316298316726000,10.90272607421875,-0.4627344158828258,1.1168372067958117,-0.46750864454731345
1789316298326759000,10.912759033203125,-0.12976152142286299,0.9402250868707894,-0.35025691447705026
1789316298336792000,10.9227919921875,0.18163783913254736,0.6777163062125444,0.006057016750331968
1789316298346825000,10.932824951171876,0.3145703918069601,0.5455810413956642,0.6049662734307348
1789316298356859000,10.94285888671875,0.24228549231886862,0.5464326897889376,0.9049920070566236
1789316298366891800,10.952891845703125,0.028097967237234112,0.6387994233191013,0.8049724937509745
1789316298376925000,10.962925048828126,-0.10026946947872638,0.7084820313543081,0.6671998806342482
1789316298386957800,10.972957763671875,-0.09173661893308162,0.6594809768199921,0.46030313361529257
1789316298396990700,10.98299072265625,-0.1652624583929777,0.6212462309718132,0.2182598342881538
1789316298407025000,10.99302490234375,-0.22842823188006878,0.7152981411099434,0.03776086299242452
1789316298417058000,11.00305810546875,-0.3623077100157738,0.7354653153479099,-0.09634287975267507
1789316298427091000,11.013091064453125,-0.5321843842059374,0.5439391194075346,-0.2700236498003825
1789316298437123800,11.023123779296874,-0.47986675246953964,0.2940741317451,-0.3765087058583274
1789316298447156500,11.033156494140625,-0.3387240053325891,0.2943652236461639,-0.15068236357234419
1789316298457190400,11.0431904296875,-0.15638649349808692,0.34943244635164733,0.039194950916152445
1789316298467223300,11.053223388671874,0.3131312989145517,0.4811906945496797,0.4469168882217258
1789316298477256400,11.06325634765625,0.707687666106224,0.5114356106877327,0.5813610875681042
1789316298487289300,11.073289306640625,0.7314987498044967,0.27428631221354005,0.5245327734742313
1789316298497322500,11.083322509765624,0.5162959102004766,-0.005078326177597046,0.5904623856514692
1789316298507356400,11.0933564453125,0.2860994996041059,-0.2908499090015888,0.706755719018355
1789316298517389600,11.1033896484375,0.18176058872938156,-0.5869529162257909,0.7116872571364045
1789316298527422500,11.11342236328125,0.2739303383827209,-0.7857371204704046,0.6376913159467279
1789316298537455600,11.12345556640625,0.3324035701394081,-0.9210475081920623,0.6600239245902747
1789316298547488500,11.133488525390625,0.34765608432888984,-1.0476514423668384,0.5447042220285162
1789316298557522400,11.1435224609375,0.2267699432790279,-0.9964029011666774,0.39792467458099123
1789316298567555300,11.153555419921876,0.2894651766449213,-0.5727665699630975,0.22953137081637978
1789316298577588500,11.16358837890625,0.6001157646596431,-0.2334112809896469,-0.039723267372883855
1789316298587621400,11.173621337890625,0.8098018866688013,-0.032715105643868446,-0.3678660747952759
1789316298597654500,11.183654541015626,0.17515139972269533,-0.08459317691922187,-0.5381701440846547
1789316298607688400,11.1936884765625,-0.30449849512577054,-0.2197083343297243,-0.5490852135917171
1789316298617721600,11.2037216796875,-0.3926221842586994,-0.6117793144464493,-0.767590784535557
1789316298627754500,11.21375439453125,-0.49270051507949825,-0.8793255047500133,-0.9553905072987079
1789316298637787600,11.22378759765625,-0.46498891681134696,-0.8694985227406025,-1.1231524543572216
1789316298647820500,11.233820556640625,-0.7315116092860698,-0.9276531900674104,-1.5143153066530823
1789316298657854500,11.2438544921875,-5.217157725182175,-1.355801445737481,-2.3581251152552665
1789316298667887400,11.253887451171876,-3.3124399561464783,-0.36169454655349254,-2.20621795912832
1789316298677920500,11.26392041015625,2.785399364569783,0.8423603404462336,-1.5869760537162423
1789316298687953400,11.273953369140624,6.4579977437436575,0.6288596285849809,-1.6394962222874163
1789316298697986600,11.283986572265626,2.7198990106552836,-0.35389410193562504,-0.4579801340278238
1789316298708020500,11.2940205078125,-0.7167875028848648,-1.6294395231753587,0.2451679158873856
1789316298718053600,11.3040537109375,-0.6683142716169357,-2.234531322681904,1.6164315730422734
1789316298728086500,11.31408642578125,0.9844137726873159,-2.3273656737238166,3.1316087572216986
1789316298738119700,11.32411962890625,2.2318764242589473,-2.1922505163133144,3.0354139898359773
1789316298748152600,11.334152587890625,1.8769740220636129,-2.533102765846252,2.069265064896643
1789316298758186500,11.3441865234375,-0.9047545450389385,-6.821991799411177,3.963553502115607
1789316298768219400,11.354219482421875,-0.8089490692317486,-3.6545582800924774,-2.3885147005610166
1789316298778252500,11.36425244140625,1.2966624435484408,1.0550362919211387,-1.5094741502322255
1789316298788285400,11.374285400390624,1.9923773477882145,2.2312924868911503,-0.711426121982187
1789316298798318600,11.384318603515625,0.9168126471012831,2.320641918426752,-2.5483868442177773
1789316298808352500,11.3943525390625,-0.8187035705268383,1.7287065376132726,-2.6407275665238497
1789316298818385700,11.4043857421875,-1.9139613981992005,1.3694126224607228,-1.6460111571393905
1789316298828418600,11.41441845703125,-2.3683237070560454,0.9668237554609775,-0.349189723636955
1789316298838451700,11.42445166015625,-1.6429431478708982,0.22023381950855253,0.45733416427448387
1789316298848484600,11.434484619140624,-0.2865279541492462,0.21127485250532627,-0.09003814445212482
1789316298858518500,11.4445185546875,0.12803075210750103,0.7035422368645667,-1.0599326856605709
1789316298868551400,11.454551513671875,-1.0426806682169436,0.848406050351262,-1.3997607067123055
1789316298878584600,11.46458447265625,0.6008943478167057,0.6487327883124351,-1.2794969353444874
1789316298888617500,11.474617431640626,3.630045477865636,0.3988876743942499,-0.13390505096837876
1789316298898650400,11.484650390625,6.9365458148300645,0.9346393956929445,2.081417567244172
1789316298908684500,11.4946845703125,4.826815760815143,0.6129314070910215,1.0554745372079313
1789316298918717700,11.5047177734375,-0.9747241533219814,-0.17271628153026103,-0.9753910927981138
1789316298928750600,11.51475048828125,-3.644298167362809,-1.3071475972056388,-0.7377310683228075
1789316298938783500,11.524783447265625,-3.3309272144734856,-2.744705535131693,-0.6712335200645029
1789316298948816600,11.534816650390624,-1.5634446637421846,-2.633542915716767,0.8648274621896446
1789316298958850600,11.5448505859375,-0.021873978155851362,-2.496349782988429,1.4192109648525715
1789316298968883500,11.554883544921875,-0.5773439608812332,-3.349752326452732,0.19864333446919916
1789316298978916400,11.564916259765624,-0.4789397007524967,-2.4202917947024107,-0.35494507229328154
1789316298988949500,11.574949462890626,1.0027139840096235,-1.0113391890138388,-0.4658274134621024
1789316298998982400,11.584982421875,1.7434715605467557,0.47917701663970946,-0.6493763469129801
1789316299009016600,11.5950166015625,2.0715490841805932,-0.10782909107804298,0.35819559852182864
1789316299019049500,11.605049560546876,1.4444967972785234,-0.6011632278859615,0.8596601425543426
1789316299029082600,11.61508251953125,-0.0012830255478620527,-0.2221265013873577,0.48306379494518037
1789316299039115500,11.625115478515625,-0.5218406848460435,0.48618777218461035,0.057604339967668054
1789316299049148700,11.635148681640626,-0.7196586744070053,0.8946423163473606,-0.18885230055600405
1789316299059182300,11.645182373046875,-2.4184826994538304,-0.18969138172864913,-0.7868710929363966
1789316299069215500,11.655215576171875,-2.202570250275731,0.31090894668996333,-1.5282929786011576
1789316299079248400,11.665248291015626,-0.18020108432769774,1.8516560409337282,-2.6658050168961287
1789316299089281500,11.675281494140625,2.0002198779821394,1.851033525121212,-0.28342706552445884
1789316299099314400,11.685314453125,0.5367477465987205,1.8242051394283771,-0.6284124693393707
1789316299109348600,11.6953486328125,0.7553799761295318,1.993866709563136,-1.1399299130916596
1789316299119381500,11.705381591796876,1.4287573763549326,1.4134779741585253,-1.0183800474360585
1789316299129414700,11.71541455078125,2.404643559193611,0.7918208242982625,-0.4607654538974166
1789316299139447600,11.725447509765624,1.465057354748249,0.4797586159199476,-0.26778438297361135
1789316299149480700,11.735480712890626,0.7873416330575943,0.014562193837761878,-0.05299889199882746
1789316299159514400,11.745514404296875,0.8193985670536756,-0.03570201250016689,0.5143173036038875
1789316299169547500,11.755547607421875,0.45037294695973396,0.556152119770646,0.27273206850886345
1789316299179580400,11.765580322265626,-0.5853203465878963,0.5226981784582138,-0.3936068113818764
1789316299189613600,11.775613525390625,-1.3178981238007546,0.5391238280802965,-0.7849614599227904
1789316299199646500,11.785646484375,1.5116034173458814,-0.337243411386013,-0.4312476829901337
1789316299209680600,11.7956806640625,2.3060639424979685,-0.26581717455387116,-0.24591537325382232
1789316299219713500,11.805713623046875,1.0672621517658234,0.10964403154551983,0.32680268139243124
1789316299229746700,11.81574658203125,0.3666980539292097,1.541861777487397,-0.249741069021821
1789316299239779600,11.825779541015624,-0.0928705913990736,1.2676777566045523,-0.40873891406208274
1789316299249812500,11.8358125,-0.3896797010660171,0.49545069057047364,0.4648283194221556
1789316299259846400,11.845846435546875,0.38842648613452907,-0.04914484691917896,0.7859998630598187
1789316299269879600,11.855879638671874,1.5079928256332873,-0.1567623410731554,0.9375345326125621
1789316299279912400,11.865912353515625,1.871070935499668,0.21827450213432312,1.1688973566398024
1789316299289945600,11.875945556640625,2.152990519070625,1.7813263671666382,0.72865315111503
1789316299299978500,11.885978515625,2.127994024980068,3.255233383324742,-0.10641849362775682
1789316299310012700,11.8960126953125,1.5558359423041344,3.005024112269282,-0.5154641355514527
1789316299320045600,11.906045654296875,1.6641010867118835,1.427564951699972,-0.3974756156392395
1789316299330078700,11.91607861328125,2.3350369390040635,-0.17155366749167442,-0.08230755020007491
1789316299340111600,11.926111572265626,2.2068331684172153,-1.3910411014229058,0.18427067185416818
1789316299350144500,11.93614453125,1.2151432672470808,-2.15712250430882,0.7724516685701907
1789316299360178400,11.946178466796875,-0.07495908713340758,-2.9743273607105016,1.7194009491294622
1789316299370211600,11.956211669921874,-0.9821072493106127,-3.454441950461268,1.8705705847620964
1789316299380244500,11.966244384765625,-1.15699386061728,-2.962675501361489,1.4204364149942994
1789316299390277600,11.976277587890625,-1.3020511508494614,-2.4484084666401147,0.7823723202124238
1789316299400311600,11.9863115234375,-0.3886667246311903,-2.5546400593936442,0.10353957719057798
1789316299410344700,11.9963447265625,-0.18599018912315368,-1.6701888821929691,0.5902746079944073
1789316299420377600,12.006377685546875,-1.856788727647066,-1.1410475189447402,-0.5551669081255793
1789316299430410500,12.016410400390624,-2.14611771069169,-1.8540128331929444,0.006910656171292066
1789316299440443400,12.026443359375,-1.948625299823284,-2.205952878451347,0.18034034666791557
1789316299450477300,12.036477294921875,-1.6105425150036812,-1.143729889896512,-0.3861122178427875
1789316299460511500,12.046511474609375,-2.012257521778345,-0.039917584368586535,-0.8716597924277186
1789316299470544400,12.05654443359375,-2.3630887290120124,0.39051030667126174,-0.7059051666036248
1789316299480577500,12.06657763671875,-2.283871399912238,0.596494067031145,-0.7117312424086034
1789316299490610400,12.0766103515625,-1.7828870406121013,0.1239794308900833,-0.7001181076347828
1789316299500643600,12.0866435546875,-1.4113053062945604,-0.8960375700980424,-0.3996190574087202
1789316299510677200,12.09667724609375,-0.8329641510695218,-1.4246797516524792,-0.11327566604614257
1789316299520710400,12.10671044921875,-0.3146387808680534,-1.3266565997958182,-0.10685922313258052
1789316299530743300,12.116743408203124,-0.1741121198028326,-0.6036784255772829,-0.34970907133594153
1789316299540776400,12.1267763671875,-0.2130073753863573,0.13126608076691626,-0.42697585088983175
1789316299550810400,12.136810302734375,-0.07135434063971043,0.7633183679133653,-0.37092706980109214
1789316299560843500,12.146843505859374,0.5416986470043659,1.09276308824718,-0.29241394344791766
1789316299570876400,12.15687646484375,0.4821761984556913,1.516850085827708,-0.004126432280242443
1789316299580909600,12.16690966796875,0.7186509586691856,2.5439310338526964,0.0468950221657753
1789316299590942500,12.1769423828125,1.4183885425537823,4.480721518975496,-0.267556565567106
1789316299600975400,12.186975341796876,0.87808222669065,5.230460274347663,-0.680712273158133
1789316299611009300,12.19700927734375,-0.08522212247252464,4.438941063344478,-0.7284957685962319
1789316299621042400,12.20704248046875,-0.9782038121312856,2.9033599735617637,-0.7390997263275086
1789316299631075300,12.217075439453126,-1.0716969193428754,1.2096610364437101,-0.9965481548562646
1789316299641108200,12.227108154296875,-0.23721184231638906,-0.3969827175557613,-1.3087974102392792
1789316299651142400,12.237142333984375,-0.4784603928029537,-0.9708446815401315,-1.760373595508933
1789316299661175600,12.247175537109374,-1.1569476833879948,-0.36238603594899177,-2.1701535430565477
1789316299671208400,12.25720849609375,-1.566331032833457,-0.1550625514179468,-2.0756189639680085
1789316299681241300,12.267241455078125,-1.1063894625395536,-0.608503069254756,-1.3761780249424278
1789316299691274500,12.2772744140625,-0.45292029335498807,-0.4475339241415262,-0.42643560653328894
1789316299701308400,12.287308349609376,-0.10908405957520008,0.33822599268257614,0.26767244703173637
1789316299711341300,12.29734130859375,0.13905834207832812,0.5904828439176082,0.7297691495329142
1789316299721374200,12.307374267578124,0.35486148566305636,0.2598953832894563,0.7962500389173627
1789316299731407400,12.317407470703126,0.07356324886083603,0.0778694216221571,0.603305208350718
1789316299741440300,12.327440185546875,0.019055413603782653,0.08964110795855522,0.26739582204744217
1789316299751474400,12.337474365234375,0.4018114528864622,0.19962533124387263,-0.3402330947212875
1789316299761507300,12.34750732421875,0.6008809038132429,0.40365503492653365,-0.8834411233752966
1789316299771540500,12.35754052734375,0.6521177545756102,0.2840916669130325,-0.6384753059312701
1789316299781573400,12.367573486328125,-0.009211480459570884,0.284625919920206,-0.5300979333207011
1789316299791606500,12.3776064453125,-0.38326398880481716,0.9487667052447796,-0.2017686268828809
1789316299801640200,12.38764013671875,-0.034067104774713516,1.1399614772737026,0.34706104104518887
1789316299811673300,12.39767333984375,0.5159393518477678,1.1694570363491772,-0.05919117076769471
1789316299821706200,12.407706298828124,0.8880378035157919,0.8996358868509531,-0.5791866661384701
1789316299831739400,12.417739501953125,0.03963935194909572,-0.15022329469323156,-0.6418089803986251
1789316299841772300,12.427772216796875,-0.286767023602128,-0.22696049741506574,-0.6236605986371636
1789316299851806500,12.437806396484374,-0.38578736980259415,-0.0351484702706337,-0.5608997526891529
1789316299861839400,12.44783935546875,-0.3176321174651384,-0.19391279881596565,-0.41016529360339044
1789316299871872500,12.45787255859375,-0.5797802481174469,0.6390016678929329,-0.6570515577159821
1789316299881905400,12.467905517578124,-0.7271312022447586,1.587944314226508,-0.444110087172687
1789316299891938600,12.4779384765625,-0.40008009904921055,1.4722563263416288,0.296792304662615
1789316299901972200,12.48797216796875,0.10717793369293212,1.3133382685393094,0.3915704832486808
1789316299912005400,12.49800537109375,0.1776408784508705,1.4487521166354418,0.23457477181106803
1789316299922038300,12.508038330078126,0.0703226595044136,0.7634493008166551,0.47222763589322564
1789316299932071400,12.518071533203125,0.4772545241445303,0.09672025256454944,0.449644486554712
1789316299942104300,12.528104248046875,0.9936246686249971,0.01804769786596298,0.16536065807044506
1789316299952138500,12.538138427734374,1.376518070551753,0.22933424080908296,-0.34138613721393046
1789316299962171400,12.54817138671875,1.6290893945634364,0.34531565868258474,-0.70439176636599
1789316299972204500,12.55820458984375,1.173185701483488,0.26985154463648797,0.002696837868541479
1789316299982237400,12.568237548828124,-0.07313070266246795,0.22488193757534025,1.357914492368698
1789316299992270600,12.5782705078125,-0.33444179796874524,-0.36537352732717987,1.8307777958169578
1789316300002304300,12.58830419921875,-0.24260814840197562,-1.1374755056768655,1.4334056405521929
