time,seconds_elapsed,z,y,x
1789222150095785000,0.054784912109375,-0.39860233664512634,-0.7340481877326965,-0.2584564685821533
1789222150105779000,0.064779052734375,-0.288987398147583,-0.8052189946174622,-0.4149050712585449
1789222150115774000,0.07477392578125,-0.2295762449502945,0.3491761088371277,-0.5205414891242981
1789222150125768000,0.084767822265625,-0.1893356591463089,0.9456200003623962,-0.422822505235672
1789222150135762000,0.094761962890625,-0.128696009516716,-0.07291445136070251,0.25020089745521545
1789222150145756000,0.104755859375,-0.23025472462177277,-0.42518150806427,0.21130116283893585
1789222150155750100,0.114750244140625,-0.4003412425518036,-0.08455602824687958,-0.05127560347318649
1789222150165744000,0.124744140625,-0.3486446738243103,-0.2639182507991791,0.1753637045621872
1789222150175738000,0.134738037109375,-0.10590553283691406,-0.0065564950928092,0.10311240702867508
1789222150185731800,0.14473193359375,0.043204035609960556,0.8376529812812805,-0.17081812024116516
1789222150195725800,0.154725830078125,0.09066849201917648,0.5757651925086975,0.03318748250603676
1789222150205720000,0.164719970703125,-0.030759958550333977,-0.3965696096420288,0.2087351530790329
1789222150215714000,0.174714111328125,-0.36674782633781433,-0.83216392993927,0.1449657529592514
1789222150225708000,0.1847080078125,-0.6233078241348267,-0.8066027760505676,-0.1321120709180832
1789222150235702000,0.194701904296875,-0.5942175984382629,-0.8294622302055359,-0.21536356210708618
1789222150245697000,0.204697021484375,-0.38205695152282715,-0.09077710658311844,-0.3577413856983185
1789222150255691000,0.21469091796875,-0.06802099198102951,0.9798256158828735,-0.46959173679351807
1789222150265685000,0.22468505859375,0.2601189911365509,1.000881552696228,0.0836002305150032
1789222150275679200,0.23467919921875,0.4184221029281616,0.7672184109687805,0.2658618986606598
1789222150285673000,0.2446728515625,0.3449307680130005,0.34454625844955444,0.1562008559703827
1789222150295667000,0.2546669921875,0.06913912296295166,-0.3497619330883026,0.3434503674507141
1789222150305661000,0.264660888671875,-0.3011297881603241,-0.2947501242160797,0.04784335568547249
1789222150315655000,0.274655029296875,-0.5541372895240784,-0.21802443265914917,-0.11580922454595566
1789222150325649000,0.28464892578125,-0.47276008129119873,-0.46153905987739563,-0.2564569115638733
1789222150335643100,0.29464306640625,-0.07951931655406952,-0.6068416237831116,-0.5806514620780945
1789222150345637000,0.30463720703125,0.3481757342815399,-0.43064144253730774,-0.49437659978866577
1789222150355631000,0.314631103515625,0.37266480922698975,0.4425153434276581,0.07178828120231628
1789222150365624800,0.324624755859375,0.09066683053970337,1.0011638402938843,0.27124395966529846
1789222150375618800,0.334618896484375,-0.24043306708335876,0.3043386936187744,0.25863760709762573
1789222150385613800,0.34461376953125,-0.4866454303264618,-0.3012978434562683,0.10661046952009201
1789222150395608000,0.354608154296875,-0.4528041183948517,0.12279777228832245,-0.16833481192588806
1789222150405602000,0.36460205078125,-0.11487467586994171,0.2835177481174469,0.09058837592601776
1789222150415596000,0.374595947265625,0.11971306800842285,0.17863981425762177,0.22216744720935822
1789222150425590000,0.384590087890625,0.265689492225647,-0.3831225633621216,0.028803536668419838
1789222150435584000,0.394583984375,0.20907947421073914,-0.7536785006523132,0.28842949867248535
1789222150445578000,0.404577880859375,-0.1560472846031189,0.20938640832901,-0.24995633959770203
1789222150455572000,0.414572021484375,-0.4738833010196686,0.46455028653144836,-0.8951707482337952
1789222150465566000,0.42456591796875,-0.5674763321876526,-0.45445042848587036,-0.43133118748664856
1789222150475560000,0.434559814453125,-0.5153637528419495,-0.5268447995185852,0.06362255662679672
1789222150485554000,0.444553955078125,-0.332423597574234,0.05733010917901993,0.3078461289405823
1789222150495548000,0.4545478515625,-0.05563433840870857,-0.32431843876838684,0.7660076022148132
1789222150505542100,0.464542236328125,-0.11368478834629059,0.0018527987413108349,0.7636681199073792
1789222150515536100,0.4745361328125,-0.4433028995990753,0.6778925061225891,0.37436991930007935
1789222150525531100,0.48453125,-0.667356014251709,-0.010895293205976486,-0.003415284212678671
1789222150535525000,0.494525146484375,-0.6750298738479614,-1.1197865009307861,-0.5008825659751892
1789222150545519000,0.50451904296875,-0.5695491433143616,-0.765670120716095,-0.9408350586891174
1789222150555512800,0.514512939453125,-0.3534405529499054,-0.3836585581302643,-0.5444844961166382
1789222150565506800,0.5245068359375,-0.27699407935142517,-0.2826867997646332,-0.03947572410106659
1789222150575501000,0.5345009765625,-0.4223632514476776,-0.11726053804159164,0.28056514263153076
1789222150585495000,0.5444951171875,-0.6935703754425049,-0.02021561935544014,0.7331368327140808
1789222150595489000,0.554489013671875,-0.9947208762168884,0.2074417620897293,0.6360909342765808
1789222150605483000,0.56448291015625,-1.1502273082733154,0.04387618601322174,0.4492894411087036
1789222150615477000,0.57447705078125,-0.9985448122024536,-0.4253573715686798,0.37025028467178345
1789222150625471200,0.58447119140625,-0.5545550584793091,-0.4963066577911377,-0.07461963593959808
1789222150635465000,0.59446484375,-0.037294354289770126,-0.22805121541023254,-0.32389843463897705
1789222150645459000,0.604458984375,0.3242056667804718,-0.23987627029418945,-0.1544206291437149
1789222150655454000,0.614453857421875,0.33107608556747437,-0.40924933552742004,-0.09419909119606018
1789222150665448000,0.624447998046875,0.0001972750760614872,-0.5841928720474243,-0.1581888198852539
1789222150675442000,0.63444189453125,-0.4561409652233124,-0.5127386450767517,-0.10241343080997467
1789222150685436000,0.644435791015625,-0.7060276865959167,0.1416352391242981,-0.12429343909025192
1789222150695430100,0.65443017578125,-0.5460007190704346,0.4404682517051697,-0.025582844391465187
1789222150705424100,0.664424072265625,-0.23577043414115906,0.13453178107738495,0.3592379689216614
1789222150715418000,0.674418212890625,0.043438829481601715,-0.6860834360122681,0.856209397315979
1789222150725411800,0.684411865234375,0.18266406655311584,-1.0188771486282349,0.8446493744850159
1789222150735405800,0.69440576171875,0.0284635778516531,-0.08135473728179932,0.37971606850624084
1789222150745400000,0.704400146484375,-0.4457781910896301,0.9074222445487976,-0.14219075441360474
1789222150755394000,0.71439404296875,-0.9060043692588806,0.4777717888355255,-0.4839523434638977
1789222150765388000,0.724387939453125,-1.0608453750610352,-0.4892140030860901,-0.35846051573753357
1789222150775382000,0.734382080078125,-0.6177182197570801,-1.256546139717102,-0.09718921780586243
1789222150785377000,0.744376953125,0.12773548066616058,-1.0490401983261108,0.17490079998970032
1789222150795371000,0.75437109375,0.6794068813323975,-0.01412813551723957,0.5107315182685852
1789222150805365000,0.764364990234375,0.9030227661132812,0.7601165771484375,0.5668163299560547
1789222150815359200,0.774359130859375,0.6488352417945862,0.9397693872451782,0.3144863545894623
1789222150825353000,0.78435302734375,0.011539796367287636,0.6788492202758789,-0.20719709992408752
1789222150835347000,0.794346923828125,-0.5475237369537354,-0.20572535693645477,-0.4214411973953247
1789222150845341000,0.8043408203125,-0.6201611757278442,-1.399040937423706,-0.15924963355064392
1789222150855335000,0.8143349609375,-0.345321387052536,-1.0992792844772339,-0.5480242967605591
1789222150865329200,0.8243291015625,-0.02864144742488861,-0.2747001051902771,-0.2536594569683075
1789222150875323100,0.8343232421875,0.01637290045619011,0.30357682704925537,0.467022567987442
1789222150885317000,0.844317138671875,-0.09947535395622253,0.48683375120162964,0.18396686017513275
1789222150895311000,0.85431103515625,-0.30541202425956726,0.15778367221355438,0.04477116838097572
1789222150905304800,0.864304931640625,-0.56339430809021,-0.2135142832994461,0.21826393902301788
1789222150915298800,0.874298828125,-0.7176411151885986,-0.4364458918571472,-0.09705245494842529
1789222150925293800,0.8842939453125,-0.6612582802772522,-0.8739915490150452,0.2537333071231842
1789222150935288000,0.8942880859375,-0.6060912013053894,-0.150462344288826,0.4499443769454956
1789222150945282000,0.904281982421875,-0.6028307676315308,0.5455403327941895,0.10131656378507614
1789222150955276000,0.914276123046875,-0.5664476752281189,-0.3741548955440521,0.2818879187107086
1789222150965270000,0.92427001953125,-0.45426222681999207,-0.9501084089279175,0.006115959957242012
1789222150975264000,0.934263916015625,-0.267206072807312,-0.7705447673797607,-0.35047757625579834
1789222150985257700,0.9442578125,-0.11340847611427307,-0.8840023279190063,0.3135767877101898
1789222150995251700,0.954251708984375,-0.034541625529527664,-0.634319007396698,0.4858947694301605
1789222151005245700,0.96424560546875,-0.051473408937454224,-0.0750226080417633,0.3293054699897766
1789222151015239700,0.97423974609375,-0.2740870416164398,0.7499831318855286,0.59489506483078
1789222151025233400,0.9842333984375,-0.512487530708313,1.0445976257324219,0.5475817918777466
1789222151035227600,0.9942275390625,-0.5590507388114929,0.029219504445791245,0.017598360776901245
1789222151045221600,1.0042216796875,-0.36103370785713196,-1.1235432624816895,-0.7775800228118896
1789222151055215600,1.014215576171875,-0.04964678734540939,-1.242095708847046,-0.707615315914154
1789222151065210600,1.024210693359375,0.06773903965950012,0.03425491601228714,-0.5009397268295288
1789222151075204600,1.03420458984375,-0.061879679560661316,0.27354899048805237,0.01065213605761528
1789222151085198600,1.044198486328125,-0.41137710213661194,-0.8748555183410645,0.9788546562194824
1789222151095192600,1.054192626953125,-0.8930082321166992,-1.5757321119308472,1.237345576286316
1789222151105186800,1.064186767578125,-1.4324350357055664,-1.0186599493026733,0.6571786403656006
1789222151115180800,1.074180908203125,-1.7035539150238037,-0.7832109928131104,0.47956469655036926
1789222151125174500,1.084174560546875,-1.5849552154541016,-0.6053323745727539,0.6392892599105835
1789222151135168500,1.09416845703125,-1.0346382856369019,-0.17893874645233154,0.2833942472934723
1789222151145162500,1.10416259765625,-0.25048547983169556,0.8132554292678833,-0.5827674865722656
1789222151155156700,1.11415673828125,0.5681869983673096,1.0214020013809204,-0.5454904437065125
1789222151165150700,1.124150634765625,1.3358098268508911,0.32715892791748047,-0.020125502720475197
1789222151175144700,1.134144775390625,1.5411115884780884,0.7048800587654114,-0.4035748839378357
1789222151185138700,1.144138671875,1.0901598930358887,-0.051946550607681274,0.2185336947441101
1789222151195132700,1.154132568359375,0.3766966164112091,-0.7498676180839539,0.787346601486206
1789222151205127700,1.164127685546875,-0.22715124487876892,-0.6908760070800781,0.4233252704143524
1789222151215121400,1.174121337890625,-0.4074230194091797,-0.45796576142311096,0.09953413903713226
1789222151225115600,1.18411572265625,-0.344947874546051,-0.19494949281215668,0.2522946298122406
1789222151235109600,1.194109619140625,-0.2875908613204956,0.06673163920640945,0.05775763839483261
1789222151245103600,1.204103515625,-0.2162640243768692,-0.5637654662132263,0.23544593155384064
1789222151255097600,1.21409765625,-0.11825224757194519,-0.9188486933708191,0.4469272792339325
1789222151265091600,1.224091552734375,-0.019185146316885948,-0.46373435854911804,-0.04536338895559311
1789222151275085600,1.23408544921875,-0.0028969866689294577,-0.24235349893569946,-0.35527756810188293
1789222151285079800,1.244079833984375,-0.14032375812530518,-0.17751260101795197,-0.025838684290647507
1789222151295073500,1.254073486328125,-0.2699741721153259,0.15237343311309814,0.12602993845939636
1789222151305067500,1.264067626953125,-0.17157918214797974,-0.19844353199005127,0.19685405492782593
1789222151315061500,1.2740615234375,-0.06317121535539627,-0.5914791822433472,0.3849150240421295
1789222151325055500,1.284055419921875,0.032155122607946396,-0.3336493968963623,0.08711575716733932
1789222151335049700,1.2940498046875,0.25701382756233215,-0.2721370458602905,-0.06693000346422195
1789222151345044700,1.304044677734375,0.48056429624557495,-0.19815608859062195,-0.04101075977087021
1789222151355038700,1.314038818359375,0.5955337882041931,0.44340312480926514,-0.48968178033828735
1789222151365032700,1.32403271484375,0.550103485584259,0.43848031759262085,-0.02546054497361183
1789222151375026700,1.334026611328125,0.2733618915081024,0.24342159926891327,0.5599272847175598
1789222151385020700,1.344020751953125,0.013031698763370514,-0.12179451435804367,0.2836671769618988
1789222151395014400,1.354014404296875,-0.024134045466780663,-0.680626630783081,-0.003445297945290804
1789222151405008600,1.364008544921875,0.2127077430486679,-0.3094174563884735,-0.9395788908004761
1789222151415002600,1.374002685546875,0.4631468951702118,0.18040527403354645,-1.069283127784729
1789222151424996600,1.38399658203125,0.5149948000907898,0.311751127243042,-0.49494513869285583
1789222151434990600,1.393990478515625,0.3900403082370758,-0.17367495596408844,-0.19921065866947174
1789222151444984600,1.403984619140625,0.11805257201194763,-1.2982693910598755,0.46257758140563965
1789222151454978800,1.413978759765625,-0.35878482460975647,-0.8574819564819336,0.661812961101532
1789222151464972800,1.423972900390625,-0.689285397529602,-0.09350769966840744,0.5370250344276428
1789222151474966500,1.433966552734375,-0.6308678984642029,0.13801446557044983,0.17155177891254425
1789222151484961500,1.44396142578125,-0.23284345865249634,0.4295734465122223,-0.30031639337539673
1789222151494955500,1.45395556640625,0.34919223189353943,0.5525856018066406,-0.5333507657051086
1789222151504949500,1.463949462890625,0.9144017696380615,0.09459028393030167,-0.5815967321395874
1789222151514943500,1.473943603515625,1.1468291282653809,-0.43694525957107544,-0.4606519937515259
1789222151524937700,1.483937744140625,0.9173899292945862,-0.3448455333709717,-0.30610132217407227
1789222151534931700,1.493931640625,0.5307807326316833,-0.241319939494133,-0.44588345289230347
1789222151544925700,1.50392578125,0.18176937103271484,-0.17979863286018372,-0.5891639590263367
1789222151554919700,1.513919677734375,-0.0019109789282083511,0.10586641728878021,-0.3579041063785553
1789222151564913400,1.523913330078125,0.04958353936672211,0.41690486669540405,-0.2543032169342041
1789222151574907600,1.53390771484375,0.3348994553089142,-0.019315306097269058,0.06125340983271599
1789222151584901600,1.543901611328125,0.5195437669754028,-0.23127372562885284,0.45831137895584106
1789222151594895600,1.5538955078125,0.511907696723938,0.2642662525177002,0.2684285044670105
1789222151604889600,1.5638896484375,0.4172095060348511,0.29064446687698364,0.10735678672790527
1789222151614883600,1.573883544921875,0.25211161375045776,0.11471204459667206,-0.07534591853618622
1789222151624878600,1.583878662109375,0.1452089548110962,-0.006330963224172592,-0.4063797891139984
1789222151634872600,1.59387255859375,0.2268604040145874,-0.23748695850372314,-0.20391295850276947
1789222151644866800,1.60386669921875,0.4336008131504059,-0.016806814819574356,0.05655105412006378
1789222151654860800,1.61386083984375,0.6134565472602844,0.6558517813682556,0.10894421488046646
1789222151664854500,1.6238544921875,0.7072941660881042,0.7410951256752014,0.2766357660293579
1789222151674848500,1.6338486328125,0.5798898935317993,0.4377584159374237,0.282574862241745
1789222151684842500,1.643842529296875,0.3039455711841583,-0.18173503875732422,0.05181440711021423
1789222151694836700,1.653836669921875,0.10736647248268127,-0.8461652398109436,-0.31846538186073303
1789222151704830700,1.663830810546875,0.04767157509922981,-0.8647227883338928,-0.5522193312644958
1789222151714824700,1.67382470703125,0.12176337093114853,-0.16603796184062958,-0.6490180492401123
1789222151724818700,1.683818603515625,0.32916638255119324,0.5639198422431946,-0.45318880677223206
1789222151734812700,1.693812744140625,0.5267561674118042,0.4029304087162018,0.2169187068939209
1789222151744806700,1.703806640625,0.3927091360092163,0.2875577509403229,0.6012250781059265
1789222151754801400,1.713801513671875,-0.07890550792217255,-0.027995683252811432,0.6067798733711243
1789222151764795600,1.723795654296875,-0.5882847905158997,-0.8179474472999573,0.4931623637676239
1789222151774789600,1.73378955078125,-0.9211170673370361,-0.8412602543830872,0.1563907116651535
1789222151784783600,1.74378369140625,-0.9304074645042419,-0.04261067137122154,-0.27955058217048645
1789222151794777600,1.753777587890625,-0.6397340893745422,0.2625228762626648,-0.36409369111061096
1789222151804771600,1.763771484375,-0.21003440022468567,-0.01098011527210474,-0.044726159423589706
1789222151814765600,1.773765625,0.11089140921831131,-0.011492772959172726,0.22656366229057312
1789222151824759800,1.783759765625,0.2625480592250824,-0.12122299522161484,0.3070300221443176
1789222151834753500,1.79375341796875,0.13974995911121368,-0.6544179320335388,0.4676743149757385
1789222151844747500,1.80374755859375,-0.2875671684741974,-0.8388018012046814,0.5341153144836426
1789222151854741500,1.813741455078125,-0.738480269908905,-0.6107068061828613,0.3595925569534302
1789222151864735500,1.823735595703125,-0.9029163718223572,-0.2965923249721527,0.03014068678021431
1789222151874729700,1.833729736328125,-0.7548701763153076,0.06412672251462936,0.03911713510751724
1789222151884723700,1.8437236328125,-0.4176070988178253,0.4143924415111542,-0.12554626166820526
1789222151894718700,1.85371875,0.048508137464523315,-0.17344467341899872,-0.23177176713943481
1789222151904712700,1.863712646484375,0.42369750142097473,-0.8379808664321899,-0.04526413604617119
1789222151914706700,1.873706787109375,0.5525606870651245,-0.3794780373573303,-0.2209712415933609
1789222151924700700,1.88370068359375,0.49021753668785095,0.14613933861255646,-0.23702079057693481
1789222151934694700,1.893694580078125,0.22177836298942566,0.1647883951663971,0.07902131974697113
1789222151944688600,1.903688720703125,-0.09664744138717651,-0.08827386796474457,0.14019429683685303
1789222151954682600,1.9136826171875,-0.17747969925403595,-0.4892897307872772,0.2773689329624176
1789222151964676600,1.923676513671875,0.03733450174331665,-0.14291910827159882,0.09838686883449554
1789222151974670600,1.933670654296875,0.42270082235336304,0.7330119013786316,-0.3450353145599365
1789222151984664600,1.94366455078125,0.7903662323951721,1.1022204160690308,-0.28293606638908386
1789222151994659000,1.9536591796875,1.0581763982772827,0.9003979563713074,-0.23543088138103485
1789222152004653000,1.963653076171875,1.1675759553909302,0.34075745940208435,-0.1908169835805893
1789222152014646800,1.973646728515625,1.1647542715072632,-0.5746133923530579,0.27864691615104675
1789222152024640800,1.983640869140625,1.0291424989700317,-0.6955586075782776,0.6844427585601807
1789222152034635800,1.9936357421875,0.6559280157089233,0.5602011680603027,1.037933111190796
1789222152044629800,2.003629638671875,0.31615886092185974,1.6641035079956055,0.8246756196022034
1789222152054623700,2.013623779296875,0.1527070701122284,1.8422058820724487,0.051427293568849564
1789222152064618000,2.023617919921875,0.21475175023078918,0.7210254073143005,-0.4508214294910431
1789222152074612000,2.033612060546875,0.5286747813224792,-0.6500779986381531,-1.0303529500961304
1789222152084606000,2.04360595703125,0.9876925945281982,-1.4819002151489258,-1.4712532758712769
1789222152094600000,2.053599853515625,1.304372787475586,-1.5442531108856201,-0.8740332722663879
1789222152104594000,2.063593994140625,1.338894248008728,-0.23562505841255188,-0.3801460862159729
1789222152114588000,2.073587890625,1.1648569107055664,0.8190122842788696,0.04860444739460945
1789222152124582000,2.083581787109375,0.6650955677032471,1.27097487449646,0.66904616355896
1789222152134575900,2.093575927734375,-0.08012160658836365,1.4648221731185913,0.840082049369812
1789222152144569900,2.10356982421875,-0.5625337958335876,0.7808783650398254,0.5478343367576599
1789222152154563800,2.113563720703125,-0.46911919116973877,0.04060272127389908,0.3704155683517456
1789222152164557800,2.123557861328125,-0.015126882120966911,0.07363603264093399,-0.050059955567121506
1789222152174552800,2.133552734375,0.4942791163921356,0.5062148571014404,-0.9281824231147766
1789222152184547000,2.143547119140625,0.9119994640350342,0.0640234649181366,-0.6092137694358826
1789222152194541000,2.153541015625,1.0898607969284058,-0.37713688611984253,-0.025529302656650543
1789222152204534800,2.16353466796875,0.995238184928894,0.22576557099819183,-0.7984548807144165
1789222152214528800,2.17352880859375,0.6764473915100098,-0.29214656352996826,0.024878405034542084
1789222152224522800,2.183522705078125,-0.12229444086551666,-0.05885283276438713,1.1481380462646484
1789222152234516700,2.193516845703125,-0.7361282706260681,0.18604932725429535,0.6614842414855957
1789222152244511000,2.203510986328125,-1.1041038036346436,0.7047135829925537,0.5073293447494507
1789222152254505000,2.2135048828125,-1.0641741752624512,0.33261993527412415,0.8030582070350647
1789222152264499000,2.2234990234375,-0.7113408446311951,0.666808009147644,-0.38422760367393494
1789222152274493000,2.233492919921875,-0.15917517244815826,-0.16706019639968872,-0.5495230555534363
1789222152284486700,2.243486572265625,0.2094956785440445,-1.3531386852264404,-0.09927849471569061
1789222152294481000,2.25348095703125,0.37801918387413025,-1.2503257989883423,-0.16931723058223724
1789222152304476000,2.263475830078125,0.12341421842575073,-0.4438457190990448,0.37541463971138
1789222152314470000,2.273469970703125,-0.2887943685054779,0.27609166502952576,0.0996784046292305
1789222152324463900,2.2834638671875,-0.5686004757881165,0.9991564154624939,-0.7402216792106628
1789222152334457900,2.293457763671875,-0.6254531145095825,-0.11501806229352951,0.3738321363925934
1789222152344451800,2.303451904296875,-0.83852219581604,0.3040243089199066,-0.13451509177684784
1789222152354445800,2.31344580078125,-0.8156179189682007,-0.02645241469144821,-0.7449967861175537
1789222152364440000,2.323440185546875,-0.6795885562896729,-1.3257523775100708,0.6392802000045776
1789222152374433800,2.333433837890625,-0.4703442454338074,-0.6946465373039246,0.24153757095336914
1789222152384427800,2.343427734375,-0.045723963528871536,0.40030258893966675,-0.17671291530132294
1789222152394421800,2.353421875,0.04880600422620773,-0.3268527686595917,0.7561804056167603
1789222152404415700,2.363415771484375,-0.2047598510980606,-0.07974036782979965,0.43739596009254456
1789222152414410000,2.373409912109375,-0.6048944592475891,0.08125437051057816,0.5896357893943787
1789222152424404000,2.383404052734375,-0.8389888405799866,-0.9237303137779236,0.5700938105583191
1789222152434399000,2.39339892578125,-0.7441629767417908,-0.7732374668121338,-0.33003440499305725
1789222152444393000,2.40339306640625,-0.3300143778324127,0.8531575798988342,-0.6195256114006042
1789222152454387000,2.413386962890625,0.48280927538871765,0.9374487400054932,-0.17974695563316345
1789222152464381000,2.423380859375,0.9115610122680664,1.125918984413147,-0.7556282877922058
1789222152474374700,2.433374755859375,0.762157142162323,0.5201876759529114,0.15080225467681885
1789222152484369000,2.443368896484375,0.27630138397216797,-0.112786665558815,1.1580499410629272
1789222152494363000,2.45336279296875,-0.11656175553798676,-0.6811917424201965,0.3024479150772095
1789222152504356900,2.46335693359375,-0.31760069727897644,-1.329782485961914,0.06628318876028061
1789222152514350800,2.473350830078125,-0.23693807423114777,-0.7132859826087952,-0.5050812363624573
1789222152524344800,2.4833447265625,0.08143734186887741,0.04088491573929787,-0.5755872130393982
1789222152534339000,2.493339111328125,0.5363763570785522,0.8896985650062561,0.13948562741279602
1789222152544333000,2.5033330078125,1.0150271654129028,1.4118679761886597,0.11741749197244644
1789222152554326800,2.513326904296875,1.0887497663497925,0.9786891937255859,0.10947488248348236
1789222152564321800,2.52332177734375,0.7396037578582764,0.41306936740875244,-0.13806717097759247
1789222152574315800,2.533315673828125,0.2638534605503082,-1.3729233741760254,0.4198882579803467
1789222152584309800,2.543309814453125,-0.009845760650932789,-2.090027332305908,0.04696764051914215
1789222152594303700,2.5533037109375,0.41220536828041077,3.9686226844787598,-1.8564612865447998
1789222152604298000,2.563298095703125,1.1141178607940674,1.9084241390228271,-0.7365068197250366
1789222152614292000,2.5732919921875,0.912398636341095,-0.5654921531677246,0.15067891776561737
1789222152624286000,2.583285888671875,0.3916729986667633,-0.9462122321128845,1.245721459388733
1789222152634280000,2.593280029296875,-0.05644245818257332,-0.10829547792673111,1.5355770587921143
1789222152644273700,2.603273681640625,0.1699322909116745,-0.24599775671958923,0.38385915756225586
1789222152654268000,2.613267822265625,0.4434991180896759,0.20977243781089783,-0.3334329128265381
1789222152664262000,2.623261962890625,0.41800928115844727,1.4710139036178589,-0.9231435060501099
1789222152674256000,2.633255859375,0.3266708552837372,1.0641467571258545,-0.3188605010509491
1789222152684249900,2.643249755859375,0.20969372987747192,0.13984385132789612,-0.20141717791557312
1789222152694243800,2.653243896484375,0.02275632694363594,-0.9916747212409973,0.23417876660823822
1789222152704238800,2.66323876953125,0.20697617530822754,-0.3980758786201477,-1.0703229904174805
1789222152714232800,2.67323291015625,0.7123978137969971,0.12096809595823288,-1.756395697593689
1789222152724227000,2.68322705078125,0.5240281224250793,-1.3386809825897217,0.2444734126329422
1789222152734221000,2.693220947265625,-0.00017787888646125793,-0.6464670896530151,1.1751525402069092
1789222152744214800,2.70321484375,-0.3632235825061798,0.8885106444358826,0.5232315063476562
1789222152754208800,2.713208740234375,-0.569544792175293,1.1595155000686646,0.5107370018959045
1789222152764202800,2.72320263671875,-0.6838016510009766,1.0435107946395874,0.5176758170127869
1789222152774196700,2.73319677734375,-0.5151649713516235,0.7810264825820923,-0.29517096281051636
1789222152784191000,2.74319091796875,0.14693665504455566,-0.7346845865249634,-0.6803157925605774
1789222152794185000,2.75318505859375,0.7812507748603821,-1.9792940616607666,0.3312249481678009
1789222152804179000,2.763178955078125,0.9160103797912598,0.19302207231521606,-0.005498345009982586
1789222152814173000,2.7731728515625,0.7495478987693787,1.5489561557769775,-0.33407488465309143
1789222152824166700,2.783166748046875,0.3179630935192108,0.6930683255195618,0.4424334466457367
1789222152834161700,2.79316162109375,-0.20433606207370758,0.7035686373710632,-0.2939601540565491
1789222152844156000,2.803156005859375,-0.484421968460083,0.19533583521842957,-0.12311519682407379
1789222152854150000,2.81314990234375,-0.460368812084198,-0.47242221236228943,0.35375362634658813
1789222152864144000,2.823143798828125,0.09280657768249512,-0.4734216332435608,-0.9422519207000732
1789222152874137900,2.833137939453125,0.6952913999557495,-1.0174970626831055,0.4927263557910919
1789222152884131800,2.8431318359375,0.660071849822998,1.067037582397461,1.667186975479126
1789222152894125800,2.853125732421875,0.738296389579773,2.264021158218384,-0.29573261737823486
1789222152904120000,2.8631201171875,0.5641535520553589,0.4214992821216583,0.33188509941101074
1789222152914113800,2.87311376953125,0.20018787682056427,-0.7496181130409241,1.208905816078186
1789222152924107800,2.883107666015625,0.17511697113513947,0.5386850833892822,-1.9876800775527954
1789222152934101800,2.893101806640625,0.11257130652666092,-0.49792635440826416,-0.8427644968032837
1789222152944095700,2.903095703125,-0.11478269100189209,-0.06242383271455765,1.177094578742981
1789222152954090800,2.9130908203125,0.1424829363822937,2.1198313236236572,-0.9829638600349426
1789222152964084700,2.923084716796875,0.5097030401229858,0.0314054973423481,0.29178574681282043
1789222152974079000,2.933078857421875,0.42976292967796326,-0.790472149848938,1.006526231765747
1789222152984073000,2.943072998046875,0.4222535789012909,-0.35503730177879333,-0.8285161256790161
1789222152994066700,2.953066650390625,0.08487527817487717,-0.3775884211063385,0.924792468547821
1789222153004060700,2.963060791015625,-0.11340278387069702,1.0682224035263062,0.9903787970542908
1789222153014054700,2.9730546875,-0.10888579487800598,1.6988805532455444,-0.8638295531272888
1789222153024049000,2.983048828125,-0.3061107099056244,-0.23974362015724182,0.12069965898990631
1789222153034043000,2.99304296875,-0.46682846546173096,-0.5039646625518799,-0.10036695003509521
1789222153044036900,3.003036865234375,-0.33123135566711426,-0.014135627076029778,-1.3867864608764648
1789222153054030800,3.01303076171875,-0.11405161768198013,-0.7000934481620789,-0.4077455997467041
1789222153064024600,3.023024658203125,0.27332615852355957,-0.2617640793323517,-0.6268954277038574
1789222153074018800,3.033018798828125,0.7185782194137573,1.037507176399231,-0.5527612566947937
1789222153084013800,3.043013916015625,0.5616803765296936,0.3476879596710205,1.2870738506317139
1789222153094007800,3.0530078125,-0.26442524790763855,0.3763129413127899,1.070878505706787
1789222153104001800,3.063001708984375,-0.9945245981216431,-1.2620214223861694,0.665477991104126
1789222153113995800,3.072995849609375,-1.4933273792266846,-1.9679749011993408,1.1664230823516846
1789222153123989800,3.08298974609375,-1.371887445449829,0.9031277894973755,-0.14315424859523773
1789222153133983700,3.092983642578125,-0.7937660217285156,2.016758441925049,-1.065624475479126
1789222153143978000,3.10297802734375,0.016040440648794174,0.5812322497367859,-0.9006803035736084
1789222153153971700,3.1129716796875,0.540437638759613,-0.314970999956131,-0.8692030906677246
1789222153163965700,3.122965576171875,0.653586208820343,-1.3060376644134521,0.5300915241241455
1789222153173959700,3.132959716796875,0.4238680303096771,-0.5600831508636475,0.006209125742316246
1789222153183953700,3.14295361328125,-0.1006239503622055,-0.463329941034317,-0.3573758006095886
1789222153193948000,3.152947998046875,-0.713215172290802,-1.049468755722046,0.6639965176582336
1789222153203942000,3.16294189453125,-0.9802024960517883,0.4023307263851166,-0.3047832250595093
1789222153213937000,3.17293701171875,-0.8136353492736816,1.5123825073242188,-0.8284134268760681
1789222153223931000,3.182930908203125,-0.4380318820476532,0.318795382976532,0.9490776658058167
1789222153233924900,3.1929248046875,-0.1649518758058548,0.1454734057188034,0.6585124135017395
1789222153243918800,3.2029189453125,-0.0427091158926487,-0.608585000038147,0.6191389560699463
1789222153253912600,3.21291259765625,0.0064706820994615555,-0.7912997007369995,1.100248098373413
1789222153263906800,3.22290673828125,0.23180145025253296,1.0817533731460571,-1.3652665615081787
1789222153273900800,3.23290087890625,0.2306738793849945,-0.15530014038085938,-1.596529245376587
1789222153283894800,3.242894775390625,-0.02486290968954563,-1.247965693473816,0.6719199419021606
1789222153293888800,3.252888671875,-0.27032700181007385,-0.018401779234409332,0.21345464885234833
1789222153303882800,3.2628828125,-0.21580582857131958,-0.32591867446899414,-0.4660133421421051
1789222153313877000,3.272876953125,-0.22755755484104156,-0.9991716742515564,0.6780403852462769
1789222153323871000,3.28287109375,-0.3559364080429077,0.2589697241783142,0.4779837131500244
1789222153333866000,3.292865966796875,-0.2865131199359894,1.068161129951477,-0.6742523908615112
1789222153343859700,3.302859619140625,-0.2722718119621277,0.3095804452896118,0.7331570386886597
1789222153353853700,3.312853759765625,0.0092549417167902,0.21252474188804626,1.2334243059158325
1789222153363847700,3.32284765625,0.6260364651679993,2.642522096633911,-0.43435391783714294
1789222153373841700,3.332841552734375,0.7283751368522644,-0.18561777472496033,0.5287196636199951
1789222153383836000,3.3428359375,0.24948780238628387,-1.7407195568084717,0.26573124527931213
1789222153393830000,3.352829833984375,-0.10155866295099258,-2.4264519214630127,-0.5834714770317078
1789222153403823900,3.362823974609375,-0.2813093662261963,-0.49313369393348694,-0.19338886439800262
1789222153413817900,3.37281787109375,0.20851224660873413,1.6890506744384766,-1.1348199844360352
1789222153423811600,3.3828115234375,0.4956216514110565,-0.632164716720581,-1.5681334733963013
1789222153433805800,3.392805908203125,0.16022954881191254,-0.5414739847183228,0.34286728501319885
1789222153443799800,3.4027998046875,-0.21241310238838196,1.38351309299469,1.048626184463501
1789222153453793800,3.412793701171875,0.03505475074052811,1.427498698234558,0.20676186680793762
1789222153463788800,3.422788818359375,0.29808345437049866,-0.3401055634021759,0.605804443359375
1789222153473782800,3.43278271484375,0.023933637887239456,-0.23136921226978302,0.12745273113250732
1789222153483776800,3.44277685546875,-0.23699091374874115,-0.12437218427658081,0.16140404343605042
1789222153493770800,3.452770751953125,-0.2561914920806885,-0.33073335886001587,0.6163539886474609
1789222153503765000,3.462764892578125,-0.04093962535262108,-0.10956687480211258,-0.5823972821235657
1789222153513759000,3.472759033203125,0.13024915754795074,-0.1801060289144516,-1.0023391246795654
1789222153523752700,3.482752685546875,0.3741312026977539,0.0866163820028305,-0.5860809683799744
1789222153533746700,3.49274658203125,0.8150579929351807,0.8925341367721558,-0.8834854960441589
1789222153543740700,3.50274072265625,0.8162612915039062,-0.07670030742883682,-0.17505787312984467
1789222153553734700,3.512734619140625,0.28130948543548584,-0.416789710521698,0.7726796269416809
1789222153563729000,3.52272900390625,-0.22984495759010315,-0.7333189845085144,0.6498469710350037
1789222153573723000,3.532722900390625,-0.44583025574684143,-0.8759365677833557,0.1979263722896576
1789222153583718000,3.5427177734375,-0.2993803024291992,0.5798341631889343,0.08985815942287445
1789222153593711900,3.5527119140625,-0.09370464831590652,1.6467963457107544,-0.7051004767417908
1789222153603705900,3.562705810546875,0.042223937809467316,0.40554893016815186,-0.4353487491607666
1789222153613699600,3.572699462890625,0.100191630423069,-0.5174145102500916,0.3309404253959656
1789222153623693800,3.58269384765625,0.38363519310951233,0.13259395956993103,-0.37342795729637146
1789222153633687800,3.592687744140625,0.7639210224151611,0.23103319108486176,-0.6833046078681946
1789222153643681800,3.602681884765625,0.47232645750045776,-0.7479432225227356,0.5276755094528198
1789222153653675800,3.61267578125,-0.23442798852920532,-0.9606200456619263,1.4443960189819336
1789222153663669800,3.622669677734375,-0.6758740544319153,-0.7344281077384949,1.226826548576355
1789222153673663700,3.632663818359375,-0.7350899577140808,0.19612854719161987,0.703660249710083
1789222153683658000,3.642657958984375,-0.29617246985435486,0.11960342526435852,-0.962632954120636
1789222153693651700,3.652651611328125,0.10287582129240036,0.29727673530578613,-0.8037298321723938
1789222153703647000,3.66264697265625,0.5308377146720886,1.07001793384552,0.46677258610725403
1789222153713640700,3.672640625,1.1082792282104492,2.5739011764526367,-1.221270203590393
1789222153723634700,3.682634765625,1.209279179573059,-0.5322059988975525,0.03206406533718109
1789222153733628700,3.692628662109375,0.5305171608924866,-1.4356218576431274,1.1773484945297241
1789222153743622700,3.70262255859375,0.027836276218295097,-1.2253440618515015,-0.2703259289264679
1789222153753617000,3.712616943359375,-0.3339650630950928,-0.8119587898254395,-0.28003448247909546
1789222153763611000,3.72261083984375,-0.20634600520133972,0.5917583703994751,0.07566341012716293
1789222153773604900,3.73260498046875,0.1354808360338211,2.294126510620117,-1.1524535417556763
1789222153783598800,3.742598876953125,0.10933315008878708,1.5352164506912231,0.08209337294101715
1789222153793592600,3.752592529296875,-0.04831134155392647,0.9401371479034424,0.4829142987728119
1789222153803586800,3.7625869140625,0.07344534993171692,-0.4655272662639618,-0.8595150113105774
1789222153813580800,3.772580810546875,0.3059230446815491,-3.028763771057129,0.1298689842224121
1789222153823575800,3.782575927734375,0.26742011308670044,-2.428009510040283,1.0713411569595337
1789222153833569800,3.79256982421875,0.6697078943252563,3.6656296253204346,-0.9984427094459534
1789222153843563800,3.802563720703125,0.928723931312561,2.3547914028167725,0.39881378412246704
1789222153853557800,3.812557861328125,0.25985485315322876,0.8032645583152771,0.988335907459259
1789222153863551700,3.8225517578125,-0.3067793548107147,-0.5113636255264282,-0.29105570912361145
1789222153873546000,3.8325458984375,-0.6341660618782043,-1.518405556678772,0.3276250958442688
1789222153883539700,3.842539794921875,-0.3050145208835602,-1.683546543121338,1.2168608903884888
1789222153893533700,3.85253369140625,0.22547785937786102,0.5939834713935852,-1.573938250541687
1789222153903527700,3.862527587890625,0.23760287463665009,0.8260093927383423,-0.9045849442481995
1789222153913521700,3.872521728515625,0.009607790037989616,1.3008228540420532,0.962200403213501
1789222153923516000,3.882515869140625,0.14173123240470886,0.9376220107078552,-0.7317018508911133
1789222153933510000,3.892510009765625,0.36733531951904297,-1.4738267660140991,-0.8559486865997314
1789222153943505000,3.9025048828125,0.43176397681236267,-2.388864040374756,0.5334888696670532
1789222153953499000,3.912498779296875,0.49781519174575806,1.80299973487854,-1.1535717248916626
1789222153963492900,3.922492919921875,0.5369137525558472,2.6522374153137207,-0.8974489569664001
1789222153973486800,3.93248681640625,0.4001138508319855,1.4296789169311523,0.6153197288513184
1789222153983480600,3.94248046875,-0.03780169412493706,1.5781596899032593,0.0005706504452973604
1789222153993474600,3.952474609375,-0.10916056483983994,-1.315725564956665,0.7043828368186951
1789222154003468500,3.962468505859375,-0.008652323856949806,-2.991044759750366,0.9139649271965027
1789222154013462500,3.972462646484375,0.10262440145015717,-1.4015477895736694,-0.39460933208465576
1789222154023456500,3.98245654296875,0.15608127415180206,0.2992650866508484,-0.2971523404121399
1789222154033450500,3.992450439453125,0.14611493051052094,1.221985101699829,0.05084211751818657
1789222154043444500,4.002444580078125,0.22878260910511017,1.1496433019638062,-1.087905764579773
1789222154053438500,4.0124384765625,0.20654387772083282,0.3781798183917999,-0.7410892844200134
1789222154063433500,4.02243359375,-0.08197744935750961,-0.030957121402025223,1.056856393814087
1789222154073427500,4.032427490234375,-0.3914218544960022,0.6746039986610413,0.2194100320339203
1789222154083421400,4.04242138671875,-0.5117447972297668,0.1834837943315506,-0.10980211943387985
1789222154093415400,4.05241552734375,-0.5103426575660706,-0.6034355163574219,1.1296473741531372
1789222154103409400,4.062409423828125,-0.29549747705459595,1.137433409690857,-0.43896520137786865
1789222154113403600,4.072403564453125,0.10328958928585052,1.2587003707885742,-1.4263889789581299
1789222154123397600,4.082397705078125,0.35620591044425964,-0.8325276970863342,0.3913121223449707
1789222154133391400,4.092391357421875,0.3083705008029938,-1.1035655736923218,0.7137096524238586
1789222154143385300,4.10238525390625,0.27439191937446594,-0.5323288440704346,-0.23468925058841705
1789222154153379300,4.11237939453125,0.18872414529323578,-0.4633183181285858,0.387455016374588
1789222154163373600,4.12237353515625,0.0036013717763125896,0.8723074793815613,-0.271763414144516
1789222154173367600,4.132367431640625,-0.1404130458831787,1.538557767868042,-0.8054457306861877
1789222154183362600,4.142362548828125,-0.3820511996746063,0.6848795413970947,0.47208401560783386
1789222154193356500,4.1523564453125,-0.5122460126876831,-0.21339720487594604,-0.24405916035175323
1789222154203350500,4.1623505859375,-0.3483296036720276,-1.2519209384918213,-0.3473654091358185
1789222154213344500,4.172344482421875,-0.18675030767917633,-0.9090086221694946,0.9621633887290955
1789222154223338500,4.18233837890625,-0.04610157757997513,1.2087596654891968,-0.48062118887901306
1789222154233332500,4.19233251953125,-0.020493151620030403,0.5829080939292908,-0.30627894401550293
1789222154243326500,4.202326416015625,-0.3025858700275421,-0.5276349186897278,1.5702660083770752
1789222154253320400,4.212320556640625,-0.5808414816856384,-0.7005215287208557,1.0018800497055054
1789222154263314400,4.222314453125,-0.5782083868980408,0.5842649340629578,-0.9352974891662598
1789222154273308400,4.232308349609375,-0.4701724052429199,-0.38489025831222534,0.7563722133636475
1789222154283302700,4.242302734375,-0.5054846405982971,0.5752831697463989,0.7114676237106323
1789222154293297400,4.25229736328125,-0.3778800368309021,1.3446965217590332,-0.1663459837436676
1789222154303291600,4.262291748046875,-0.4076294004917145,-0.38303452730178833,0.9650185704231262
1789222154313285600,4.27228564453125,-0.2124071717262268,-1.9343568086624146,-0.22912876307964325
1789222154323279400,4.282279296875,-0.02860386110842228,-1.535295009613037,-0.13638333976268768
1789222154333273300,4.2922734375,0.03782575950026512,0.09506881982088089,0.12966112792491913
1789222154343267300,4.302267333984375,0.35712698101997375,1.492600917816162,-2.137882709503174
1789222154353261600,4.312261474609375,0.21979230642318726,1.0302172899246216,-0.38971683382987976
1789222154363255600,4.322255615234375,-0.03686458244919777,0.23674193024635315,1.4411616325378418
1789222154373249500,4.33224951171875,-0.05376846343278885,0.9984491467475891,-1.3650742769241333
1789222154383243500,4.342243408203125,-0.028790229931473732,-1.2404712438583374,-0.5620859265327454
1789222154393237500,4.352237548828125,-0.35439735651016235,-1.806847333908081,2.1241791248321533
1789222154403232500,4.362232421875,-0.3578450381755829,1.3648673295974731,0.3868359923362732
1789222154413226500,4.3722265625,-0.12411724030971527,1.5419808626174927,-0.2861083149909973
1789222154423220500,4.382220458984375,-0.2109716534614563,-0.1114426776766777,1.3389346599578857
1789222154433214500,4.39221435546875,-0.29846927523612976,0.6534348130226135,-0.6022586226463318
1789222154443208400,4.40220849609375,-0.2191358357667923,-0.42477259039878845,-1.333964467048645
1789222154453202400,4.412202392578125,-0.08698206394910812,-2.9338531494140625,1.1794638633728027
1789222154463196400,4.422196533203125,-0.09060374647378922,-1.2585582733154297,0.6625853776931763
1789222154473190700,4.432190673828125,-0.05548783391714096,0.5086967349052429,-0.5660977959632874
1789222154483184600,4.4421845703125,-0.3325486481189728,1.0946122407913208,0.8449866771697998
1789222154493178600,4.4521787109375,-0.4596077799797058,1.5384304523468018,0.596464216709137
1789222154503172400,4.46217236328125,-0.4984808564186096,1.1127065420150757,-0.889639675617218
1789222154513166300,4.472166259765625,-0.49237820506095886,-0.8005844950675964,0.5029197931289673
1789222154523161300,4.482161376953125,-0.356205552816391,-0.6816499829292297,0.5447213649749756
1789222154533155300,4.4921552734375,0.033740878105163574,-0.6747478246688843,-0.49249571561813354
1789222154543149600,4.502149658203125,0.3995856046676636,-1.2822328805923462,0.08245059847831726
1789222154553143600,4.5121435546875,0.38039034605026245,0.4785102605819702,-0.16490887105464935
1789222154563137500,4.522137451171875,0.2355422079563141,0.5830022096633911,-0.5009312629699707
1789222154573131500,4.532131591796875,-0.09156987071037292,-0.17424264550209045,0.4590003490447998
1789222154583125500,4.54212548828125,-0.3017580807209015,0.3928191363811493,0.5781079530715942
1789222154593119500,4.552119384765625,-0.506039023399353,0.043291475623846054,0.6040095686912537
1789222154603113500,4.562113525390625,-0.38712865114212036,-1.3003075122833252,-0.7109116911888123
1789222154613107500,4.572107421875,-0.003765281056985259,0.8022462725639343,-1.6001538038253784
1789222154623101400,4.582101318359375,0.07986141741275787,1.1835110187530518,0.07904984056949615
1789222154633096400,4.592096435546875,0.043118320405483246,0.9305933117866516,-0.8316588401794434
1789222154643090400,4.60209033203125,0.08535264432430267,-1.799418568611145,-0.1610557585954666
1789222154653084400,4.61208447265625,-0.21743571758270264,-3.0826327800750732,1.6677287817001343
1789222154663078700,4.62207861328125,-0.3123718202114105,-2.2739014625549316,0.672044038772583
1789222154673072600,4.63207275390625,-0.3645783066749573,0.5143308639526367,-0.19041427969932556
1789222154683066600,4.642066650390625,-0.3658861219882965,3.8411777019500732,-0.2973516881465912
1789222154693060400,4.652060302734375,0.17418591678142548,3.6551575660705566,-1.2543306350708008
1789222154703054300,4.662054443359375,0.4569777846336365,0.33264169096946716,-0.11035268008708954
1789222154713048600,4.672048583984375,0.191761314868927,-0.4600183665752411,1.8202060461044312
1789222154723042600,4.68204248046875,-0.01898007094860077,-0.9395996332168579,1.066136121749878
1789222154733036500,4.69203662109375,0.15649162232875824,-2.505018711090088,-0.6172310709953308
1789222154743031600,4.702031494140625,0.3643011748790741,-2.1780238151550293,-0.030415724962949753
1789222154753025500,4.712025634765625,0.6669337749481201,2.987616539001465,-1.2519266605377197
1789222154763019500,4.72201953125,0.6533485054969788,3.2111661434173584,-1.469631552696228
1789222154773013500,4.732013427734375,0.34852442145347595,0.7682490348815918,0.27148744463920593
1789222154783007500,4.742007568359375,0.050677187740802765,-0.7225053310394287,-0.01846747100353241
1789222154793001500,4.75200146484375,0.040015753358602524,-2.4644384384155273,0.009595321491360664
1789222154802995500,4.761995361328125,-0.0685839131474495,-2.539330005645752,0.6114330887794495
1789222154812989400,4.771989501953125,-0.024170909076929092,-0.24082759022712708,-0.4361910820007324
1789222154822983400,4.7819833984375,-0.050693344324827194,1.3829219341278076,-0.26436349749565125
1789222154832977400,4.791977294921875,-0.13314561545848846,1.2972307205200195,0.8649171590805054
1789222154842971600,4.8019716796875,0.020306581631302834,1.7978765964508057,-0.5277848243713379
1789222154852966700,4.811966552734375,0.2301546186208725,0.3237873911857605,-0.6066175699234009
1789222154862960600,4.821960693359375,0.15652485191822052,-1.2257965803146362,0.3668978214263916
1789222154872954600,4.83195458984375,0.14795853197574615,-0.6701133847236633,-0.6313116550445557
1789222154882948400,4.8419482421875,0.38015660643577576,-0.035876546055078506,-1.0169070959091187
1789222154892942300,4.8519423828125,0.3909333348274231,-0.14900149405002594,0.11588548868894577
1789222154902936600,4.8619365234375,0.052904143929481506,1.0042715072631836,0.41140127182006836
1789222154912930600,4.8719306640625,-0.2096358686685562,1.7172386646270752,-0.14114367961883545
1789222154922924500,4.881924560546875,-0.232391357421875,-0.4105842709541321,0.25799575448036194
1789222154932918500,4.89191845703125,-0.4327085018157959,-1.5127313137054443,0.9231963753700256
1789222154942912500,4.90191259765625,-0.5937104821205139,-0.08302934467792511,0.652509868144989
1789222154952906500,4.911906494140625,-0.4397651255130768,1.1201040744781494,-0.09881681948900223
1789222154962901500,4.921901611328125,-0.2059183418750763,0.5618800520896912,-0.21282662451267242
1789222154972895500,4.9318955078125,-0.0019825089257210493,0.6216541528701782,-1.0003886222839355
1789222154982889500,4.941889404296875,0.1940998136997223,0.06547340750694275,-1.2403090000152588
1789222154992883700,4.9518837890625,0.22695788741111755,-1.628418207168579,-0.2402655929327011
1789222155002877700,4.961877685546875,-0.04185287281870842,-1.6330980062484741,0.4236600697040558
1789222155012871700,4.97187158203125,-0.43990838527679443,-0.2873918116092682,1.3033254146575928
1789222155022865400,4.981865478515625,-0.6588100790977478,0.9268568158149719,1.3718186616897583
1789222155032859600,4.991859619140625,-0.7404303550720215,1.4458266496658325,0.923902690410614
1789222155042853600,5.001853515625,-0.710853099822998,1.7695372104644775,0.204942524433136
1789222155052847600,5.01184765625,-0.474382221698761,1.1194398403167725,-0.6159949898719788
1789222155062841600,5.021841552734375,-0.16844521462917328,-0.8382041454315186,-0.1640646606683731
1789222155072836600,5.031836669921875,0.026523729786276817,-1.5499300956726074,-0.2501470744609833
1789222155082830600,5.04183056640625,0.3090684413909912,-1.863682746887207,-0.7675811052322388
1789222155092824600,5.051824462890625,0.41006773710250854,-1.7508896589279175,-0.737831175327301
1789222155102818800,5.06181884765625,0.21091009676456451,-0.28314995765686035,-0.6781859397888184
1789222155112812500,5.0718125,-0.23556725680828094,1.2839043140411377,-0.1476573497056961
1789222155122806500,5.081806640625,-0.6612624526023865,1.2465957403182983,0.35068845748901367
1789222155132800500,5.091800537109375,-0.8703514933586121,0.1309850811958313,0.37446731328964233
1789222155142794500,5.10179443359375,-0.9967802166938782,-0.6513780951499939,0.8865103721618652
1789222155152788700,5.111788818359375,-0.9413776993751526,-0.5235517024993896,0.9944048523902893
1789222155162782700,5.12178271484375,-0.5692757964134216,0.40499985218048096,0.037757981568574905
1789222155172776700,5.131776611328125,-0.11414238810539246,0.7544063329696655,-0.33435192704200745
1789222155182771700,5.141771728515625,0.07202230393886566,0.7740429639816284,-0.3602359890937805
1789222155192765700,5.151765625,-0.023566264659166336,0.37672120332717896,-0.6915057897567749
1789222155202759700,5.161759765625,-0.2712133526802063,-1.014984369277954,-0.33219537138938904
1789222155212753400,5.17175341796875,-0.5872397422790527,-1.5425519943237305,-0.1261894702911377
1789222155222747600,5.18174755859375,-0.7711343169212341,-1.1855440139770508,-0.10362014174461365
1789222155232741600,5.19174169921875,-0.8299539685249329,-0.44631147384643555,0.15117913484573364
1789222155242735600,5.201735595703125,-0.7424238324165344,0.38506484031677246,0.06970452517271042
1789222155252729600,5.2117294921875,-0.6893630027770996,0.8275560140609741,0.21452483534812927
1789222155262723600,5.2217236328125,-0.7147841453552246,0.645248293876648,0.21915271878242493
1789222155272717800,5.2317177734375,-0.6511630415916443,-0.43340548872947693,-0.10028572380542755
1789222155282712600,5.241712646484375,-0.6393545269966125,-1.6864094734191895,0.06398949027061462
1789222155292706800,5.251706787109375,-0.7866683602333069,-1.7972418069839478,0.10717397928237915
1789222155302700500,5.261700439453125,-0.8956063985824585,-0.9816842675209045,-0.013759279623627663
1789222155312694500,5.271694580078125,-0.9187394380569458,-0.06272703409194946,0.010258438065648079
1789222155322688500,5.2816884765625,-0.9833080768585205,0.4453990161418915,-0.04341885447502136
1789222155332682500,5.2916826171875,-1.01929771900177,0.19984623789787292,-0.12114214897155762
1789222155342676700,5.3016767578125,-0.8623277544975281,-0.9947988390922546,0.19180409610271454
1789222155352670700,5.311670654296875,-0.6422454714775085,-1.5176877975463867,0.27905216813087463
1789222155362664700,5.321664794921875,-0.49405333399772644,-0.9504576325416565,-0.03627466410398483
1789222155372658700,5.33165869140625,-0.5180441737174988,-0.48683908581733704,0.16888034343719482
1789222155382652400,5.34165234375,-0.6787021160125732,-0.155962735414505,0.2261320948600769
1789222155392647700,5.351647705078125,-0.8199737668037415,0.015169859863817692,-0.22014471888542175
1789222155402641400,5.361641357421875,-0.8469770550727844,-0.5623034834861755,-0.0758495107293129
1789222155412635600,5.3716357421875,-0.7897710204124451,-0.7730391621589661,0.018470337614417076
1789222155422629600,5.381629638671875,-0.6291224956512451,-0.7408884763717651,-0.033393170684576035
1789222155432623600,5.39162353515625,-0.43542975187301636,-0.8618612289428711,0.2648257613182068
1789222155442617600,5.40161767578125,-0.46797287464141846,-0.5361977219581604,0.4129287004470825
1789222155452611600,5.411611572265625,-0.7604066133499146,-0.14061710238456726,0.3256419897079468
1789222155462605800,5.421605712890625,-1.019438624382019,-0.6052858233451843,0.102592334151268
1789222155472599600,5.431599609375,-1.0199698209762573,-1.6549172401428223,0.02516145631670952
1789222155482593500,5.441593505859375,-0.7727662324905396,-1.5394079685211182,-0.05046551674604416
1789222155492588500,5.451588623046875,-0.30257150530815125,-0.32088983058929443,-0.31086117029190063
1789222155502582500,5.46158251953125,0.11742991954088211,0.5191946625709534,-0.25152119994163513
1789222155512576500,5.471576416015625,0.3222663998603821,0.1530611515045166,0.24754241108894348
1789222155522570500,5.481570556640625,0.2726515531539917,-0.24335666000843048,0.6869903206825256
1789222155532564700,5.491564697265625,-0.2335900366306305,0.4333381950855255,0.5063161849975586
1789222155542558700,5.501558837890625,-0.6017206311225891,-0.38814467191696167,0.1599457561969757
1789222155552552700,5.511552734375,-0.4651113450527191,-2.127438545227051,0.6865291595458984
1789222155562546700,5.521546630859375,-0.24308504164218903,-1.206168532371521,0.5166524052619934
1789222155572540400,5.53154052734375,0.1534378081560135,-0.16584965586662292,-0.37455448508262634
1789222155582534700,5.54153466796875,0.42604026198387146,0.2771911025047302,-0.1425623744726181
1789222155592528600,5.551528564453125,0.61701899766922,0.5532639622688293,0.2987058460712433
1789222155602523600,5.561523681640625,0.8770923018455505,1.1940603256225586,-0.9300476908683777
1789222155612517600,5.571517578125,0.9301847815513611,0.4307379722595215,-1.2516382932662964
1789222155622511600,5.58151171875,0.6737251877784729,-0.8937603235244751,0.267734557390213
1789222155632505600,5.591505615234375,0.29858750104904175,-1.0737746953964233,0.30274367332458496
1789222155642499600,5.60149951171875,0.2704545855522156,-1.512787938117981,-0.23792506754398346
1789222155652493800,5.611493896484375,0.38482537865638733,-1.5549352169036865,1.0844087600708008
1789222155662487600,5.621487548828125,0.1454017609357834,0.7081735134124756,1.589192509651184
1789222155672481500,5.6314814453125,0.2659151554107666,0.7720462679862976,0.31199002265930176
1789222155682475500,5.6414755859375,0.42193758487701416,0.21282590925693512,-0.288167804479599
1789222155692469500,5.651469482421875,0.6273394823074341,0.2105683535337448,1.0435926914215088
1789222155702464500,5.661464599609375,0.9295352697372437,2.8462142944335938,-1.0973951816558838
1789222155712458500,5.67145849609375,1.0762546062469482,0.8311394453048706,-2.0475687980651855
1789222155722452700,5.68145263671875,0.9476157426834106,-1.6481479406356812,0.7412774562835693
1789222155732446700,5.69144677734375,0.6910496950149536,-0.7011628150939941,0.7981876134872437
1789222155742440700,5.701440673828125,0.909132719039917,1.1178486347198486,-2.0357015132904053
1789222155752434700,5.7114345703125,1.1353636980056763,-2.070756673812866,0.029418954625725746
1789222155762428400,5.721428466796875,0.7368048429489136,-1.1053048372268677,1.4980283975601196
1789222155772422700,5.731422607421875,0.6300895810127258,1.2597155570983887,-0.36074352264404297
1789222155782416600,5.741416748046875,0.5476948022842407,1.309281349182129,-0.6480172276496887
1789222155792410600,5.75141064453125,0.9177988171577454,0.4571518301963806,0.5255939364433289
1789222155802405600,5.761405517578125,0.8610669374465942,2.395453929901123,-0.9911866784095764
1789222155812399600,5.771399658203125,0.4923543930053711,0.5287024974822998,-0.9821875691413879
1789222155822393600,5.7813935546875,0.4447174668312073,-2.7923805713653564,1.449603796005249
1789222155832387600,5.7913876953125,0.4954323172569275,-1.4474081993103027,1.115934133529663
1789222155842381800,5.8013818359375,0.727574348449707,0.18915852904319763,-0.9986092448234558
1789222155852375600,5.81137548828125,0.6978646516799927,-0.38277021050453186,-0.1591784805059433
1789222155862369500,5.82136962890625,0.544715940952301,0.61883145570755,1.1741865873336792
1789222155872363500,5.831363525390625,0.7737909555435181,5.4718546867370605,-1.2216607332229614
1789222155882357500,5.841357421875,0.9973612427711487,2.3138279914855957,-1.7460041046142578
1789222155892351700,5.851351806640625,0.875912070274353,-2.287888526916504,0.8959185481071472
1789222155902346500,5.861346435546875,0.3796560764312744,-2.3568811416625977,1.4188778400421143
1789222155912340700,5.8713408203125,0.333097904920578,-1.1106816530227661,-0.5973868370056152
1789222155922334700,5.881334716796875,0.6252643465995789,-1.2256206274032593,-0.29304105043411255
1789222155932328700,5.89132861328125,0.7103459239006042,0.22363032400608063,0.5744178891181946
1789222155942322700,5.90132275390625,0.8637568950653076,2.3628828525543213,-1.1066815853118896
1789222155952316400,5.91131640625,0.6694518327713013,2.387988328933716,-0.7099544405937195
1789222155962310700,5.921310546875,0.5084188580513,-0.016547422856092453,2.398912191390991
1789222155972304600,5.9313046875,0.4341678321361542,1.1063315868377686,0.39513882994651794
1789222155982298600,5.941298583984375,0.3591880202293396,1.0086400508880615,-1.7737332582473755
1789222155992292900,5.95129296875,0.09617984294891357,-0.7499656081199646,0.44385969638824463
1789222156002286600,5.96128662109375,-0.12216916680335999,-0.06891339272260666,0.21489085257053375
1789222156012281900,5.97128173828125,0.1479661762714386,0.6179184913635254,-2.0499298572540283
1789222156022275600,5.981275634765625,0.5920644998550415,-1.9531495571136475,0.1629948914051056
1789222156032269800,5.991269775390625,0.46856793761253357,-0.46746715903282166,0.8484576940536499
1789222156042263800,6.001263916015625,0.4745643734931946,0.9748929738998413,-0.980893611907959
1789222156052257800,6.0112578125,0.29555389285087585,0.3662828803062439,-0.0045095169916749
1789222156062251800,6.021251708984375,0.07115670293569565,-0.7002872824668884,2.639400005340576
1789222156072245800,6.031245849609375,-0.11658896505832672,0.8333001732826233,0.40280881524086
1789222156082239700,6.04123974609375,-0.1498008817434311,0.21982243657112122,-1.4136971235275269
1789222156092234000,6.05123388671875,-0.37560367584228516,-0.7475956082344055,1.1039451360702515
1789222156102227700,6.061227783203125,-0.1977834701538086,2.474339723587036,1.1015018224716187
1789222156112222700,6.07122265625,0.37979811429977417,3.6785178184509277,-2.2065179347991943
1789222156122216700,6.081216796875,0.7299644947052002,-1.9237592220306396,-0.115325927734375
1789222156132210700,6.091210693359375,0.322133332490921,-2.6095969676971436,2.303009271621704
1789222156142204700,6.10120458984375,0.31211429834365845,-0.5419843792915344,-0.1885233223438263
1789222156152199000,6.111198974609375,0.5147066116333008,0.5122278928756714,-1.7584197521209717
1789222156162193000,6.12119287109375,0.5792750716209412,-1.0106576681137085,0.72456955909729
1789222156172187000,6.131186767578125,0.47179654240608215,1.110169529914856,-0.9537372589111328
1789222156182180900,6.141180908203125,0.19717010855674744,1.4807069301605225,-1.5515817403793335
1789222156192174600,6.151174560546875,-0.2639266848564148,-0.28025561571121216,2.363347053527832
1789222156202169900,6.161169921875,-0.5572181344032288,-0.03884216025471687,2.058314800262451
1789222156212163600,6.17116357421875,-0.3749101459980011,0.6297739744186401,-1.0659781694412231
1789222156222157800,6.18115771484375,-0.3281627595424652,0.23405423760414124,0.27188563346862793
1789222156232151800,6.19115185546875,-0.23122689127922058,1.3042709827423096,0.9383763074874878
1789222156242145800,6.201145751953125,0.24236981570720673,1.5661627054214478,-1.930907130241394
1789222156252139800,6.211139892578125,0.5250084400177002,-1.895287275314331,-0.15652120113372803
1789222156262133800,6.2211337890625,0.16734693944454193,-1.9148497581481934,1.811508297920227
1789222156272127700,6.231127685546875,0.1870386153459549,0.2201419621706009,-0.9801974892616272
1789222156282122000,6.2411220703125,0.1587812304496765,0.5010245442390442,-1.5480293035507202
1789222156292115700,6.25111572265625,-0.03127153217792511,-0.5173144340515137,1.6126662492752075
1789222156302109700,6.261109619140625,-0.18677319586277008,2.4660873413085938,-0.32611221075057983
1789222156312104700,6.271104736328125,-0.25870516896247864,1.0018362998962402,-1.4933315515518188
1789222156322098700,6.2810986328125,-0.4950181245803833,-2.194545030593872,2.2235653400421143
1789222156332092700,6.2910927734375,-0.7964112758636475,-1.1538405418395996,2.1831226348876953
1789222156342087000,6.3010869140625,-0.4117860794067383,0.4798245429992676,-1.3871119022369385
1789222156352081000,6.311080810546875,-0.20628751814365387,-0.6856018900871277,-0.4584397077560425
1789222156362075000,6.321074951171875,-0.13813230395317078,-0.10917899012565613,1.0974082946777344
1789222156372068900,6.33106884765625,0.20007343590259552,2.3105711936950684,-1.6595604419708252
1789222156382062600,6.3410625,0.2751398980617523,0.34973472356796265,-1.6333907842636108
1789222156392056600,6.351056640625,-0.11893738806247711,-1.5229932069778442,1.8000187873840332
1789222156402051600,6.361051513671875,-0.4944991171360016,-0.8977483510971069,0.8557401895523071
1789222156412045800,6.3710458984375,-0.45478686690330505,-0.8234179615974426,-1.9474506378173828
1789222156422039800,6.381039794921875,-0.4745176136493683,-1.514488697052002,0.3956531882286072
1789222156432033800,6.39103369140625,-0.541304886341095,0.7188552021980286,1.59878671169281
1789222156442027800,6.40102783203125,-0.1494353711605072,2.16341495513916,-1.271681308746338
1789222156452021800,6.411021728515625,0.03294854611158371,-0.2456231713294983,-0.3568698465824127
1789222156462015700,6.421015625,-0.22347024083137512,-0.9924883842468262,2.5609853267669678
1789222156472010000,6.431010009765625,-0.18717001378536224,-0.46300452947616577,0.46881094574928284
1789222156482003700,6.441003662109375,-0.0017879358492791653,-0.7214846014976501,-1.8452153205871582
1789222156491997700,6.450997802734375,0.03144378960132599,-1.1347943544387817,0.8332274556159973
1789222156501992700,6.46099267578125,0.1391773223876953,3.2130978107452393,0.04223854839801788
1789222156511986700,6.470986572265625,0.3966762125492096,2.8235208988189697,-2.4565372467041016
1789222156521980700,6.480980712890625,0.3602375090122223,-1.9967563152313232,0.7072077393531799
1789222156531975000,6.490974853515625,-0.20923368632793427,-2.5888421535491943,2.25235915184021
1789222156541969000,6.500968994140625,-0.2190135270357132,-0.035393401980400085,-1.0196231603622437
1789222156551963000,6.510962890625,-0.0625046044588089,0.044704362750053406,-0.753223717212677
1789222156561956900,6.520956787109375,-0.13999401032924652,-0.5075219869613647,1.8543070554733276
1789222156571950600,6.53095068359375,0.1676066815853119,0.7092350125312805,-0.47905832529067993
1789222156581944800,6.54094482421875,0.4475458562374115,1.30955970287323,-2.4355905055999756
1789222156591938800,6.550938720703125,0.565450131893158,-0.9853650331497192,1.468531608581543
1789222156601933800,6.560933837890625,0.5241383910179138,0.8973372578620911,0.9232179522514343
1789222156611927800,6.570927734375,0.7258654236793518,0.9901921153068542,-2.353889226913452
1789222156621921800,6.580921875,0.5165327191352844,-1.1496531963348389,-0.6618275046348572
1789222156631915800,6.590915771484375,0.20377078652381897,-1.236158847808838,2.718757152557373
1789222156641909800,6.60090966796875,0.3760237395763397,5.020465850830078,-0.5120395421981812
1789222156651903700,6.61090380859375,0.6923721432685852,0.7265977263450623,-1.761868953704834
1789222156661898000,6.62089794921875,0.4937780201435089,-3.0871469974517822,1.3800264596939087
1789222156671891700,6.6308916015625,0.01191762275993824,-0.842350959777832,1.8164557218551636
1789222156681885700,6.6408857421875,0.13741430640220642,1.8290568590164185,-1.6796544790267944
1789222156691879700,6.650879638671875,0.5360621213912964,-0.7272506952285767,-1.1541038751602173
1789222156701874700,6.660874755859375,0.46335944533348083,-1.348658800125122,1.8204156160354614
1789222156711868700,6.67086865234375,0.4623277187347412,1.5667076110839844,-0.465142160654068
1789222156721863000,6.68086279296875,0.4235896170139313,1.293521761894226,-2.106099843978882
1789222156731857000,6.69085693359375,0.1879938691854477,-1.1900866031646729,1.483052372932434
1789222156741851000,6.700850830078125,-0.06771176308393478,-0.0833519846200943,1.7020888328552246
1789222156751844900,6.710844970703125,0.22403433918952942,2.597280740737915,-2.2837162017822266
1789222156761838600,6.720838623046875,0.4237493872642517,-0.6720393896102905,-0.259499728679657
1789222156771832800,6.730832763671875,0.10828012973070145,-1.024940013885498,2.5506863594055176
1789222156781826800,6.740826904296875,0.30509352684020996,0.6474745869636536,-0.5443154573440552
1789222156791820800,6.75082080078125,0.5690833330154419,0.6939331293106079,-2.2161865234375
1789222156801815800,6.76081591796875,0.5456392168998718,-1.3865009546279907,1.6360368728637695
1789222156811809800,6.770809814453125,0.3654736578464508,0.6207687854766846,0.6862929463386536
1789222156821803800,6.7808037109375,0.5674206018447876,1.50311279296875,-2.8571066856384277
1789222156831797800,6.7907978515625,0.4750403165817261,-0.5120840668678284,0.15762224793434143
1789222156841791700,6.800791748046875,0.25419989228248596,0.8470829129219055,2.7044482231140137
1789222156851786000,6.810785888671875,0.41529104113578796,4.421229839324951,-1.3595671653747559
1789222156861779700,6.82077978515625,0.3521934151649475,-0.8645700216293335,-0.5389606356620789
1789222156871773700,6.830773681640625,-0.12366659939289093,-2.942288637161255,1.9768643379211426
1789222156881767700,6.840767578125,-0.25906211137771606,-0.3401327431201935,-0.5458549857139587
1789222156891762700,6.8507626953125,-0.004575219936668873,0.0693059042096138,-2.2918591499328613
1789222156901756700,6.860756591796875,0.3056478798389435,-1.9378148317337036,0.9738982915878296
1789222156911751000,6.8707509765625,0.3995642364025116,1.9416884183883667,0.7534516453742981
1789222156921745000,6.880744873046875,0.7143232822418213,3.2353789806365967,-2.2080976963043213
1789222156931739000,6.89073876953125,0.6356815099716187,-0.005837786011397839,-0.7383850812911987
1789222156941732900,6.90073291015625,0.29517456889152527,-1.7140311002731323,2.9164135456085205
1789222156951726600,6.9107265625,0.011297827586531639,1.815578579902649,0.6982240676879883
1789222156961720800,6.920720947265625,0.14707370102405548,0.7256944179534912,-1.9250056743621826
1789222156971714800,6.93071484375,0.10740751028060913,-1.9233397245407104,0.515536367893219
1789222156981708800,6.940708740234375,-0.07190804183483124,-0.0065429192036390305,2.027618408203125
1789222156991704000,6.9507041015625,0.256291925907135,3.1616592407226562,-0.6529935002326965
1789222157001698000,6.960697998046875,0.608909010887146,0.9272717237472534,-0.7222181558609009
1789222157011692000,6.970692138671875,0.5660533905029297,-0.7589369416236877,1.3040753602981567
1789222157021686000,6.98068603515625,0.5117605328559875,-0.005545197054743767,-0.24080421030521393
1789222157031680000,6.990679931640625,0.6339916586875916,-0.1363721787929535,-2.2983627319335938
1789222157041674000,7.000674072265625,0.5755382180213928,-1.678301215171814,0.8457238674163818
1789222157051668000,7.01066796875,0.2590135335922241,0.3223133981227875,1.3947163820266724
1789222157061662000,7.020661865234375,0.4138229489326477,2.113600015640259,-2.0412089824676514
1789222157071656000,7.030656005859375,0.3442457318305969,0.2446456253528595,-0.8151147365570068
1789222157081651000,7.04065087890625,0.002377335913479328,-0.6551182270050049,2.5992016792297363
1789222157091645000,7.05064501953125,-0.09482165426015854,1.360548973083496,0.14157147705554962
1789222157101639000,7.060638916015625,0.048852019011974335,0.6436216235160828,-2.188227653503418
1789222157111633200,7.070633056640625,0.10321352630853653,-1.999627947807312,1.4699631929397583
1789222157121627100,7.080627197265625,-0.0883408784866333,0.4684949219226837,2.2168331146240234
1789222157131620900,7.090620849609375,0.26463955640792847,2.9165234565734863,-1.3815639019012451
1789222157141614800,7.10061474609375,0.31979236006736755,1.091190218925476,-1.7991602420806885
1789222157151608800,7.11060888671875,0.30512765049934387,-1.7083628177642822,1.9477027654647827
1789222157161603000,7.12060302734375,0.1513756662607193,2.244831085205078,0.6063897013664246
1789222157171597000,7.13059716796875,0.2494116723537445,3.314293622970581,-2.4915452003479004
1789222157181592000,7.140592041015625,0.28597623109817505,-1.9819555282592773,0.3088570833206177
1789222157191586000,7.1505859375,-0.26372021436691284,-2.4450645446777344,2.3526620864868164
1789222157201580000,7.160580078125,-0.40165892243385315,-0.036981649696826935,-0.22981597483158112
1789222157211574000,7.170573974609375,-0.298972487449646,0.4931250810623169,-1.8036301136016846
1789222157221568000,7.180568115234375,-0.21855007112026215,-1.2434412240982056,0.9390106201171875
1789222157231562000,7.19056201171875,-0.25070294737815857,0.8149121999740601,0.7360316514968872
1789222157241556000,7.200555908203125,-0.10570017248392105,2.7433338165283203,-1.6461338996887207
1789222157251550000,7.210550048828125,-0.2046390175819397,1.060205340385437,-0.3984234035015106
1789222157261544000,7.2205439453125,-0.3055840730667114,-1.3015637397766113,1.7465022802352905
1789222157271539000,7.2305390625,-0.34190425276756287,0.11170290410518646,-0.03447071835398674
1789222157281533000,7.240532958984375,-0.2617919147014618,0.7381910085678101,-1.3144431114196777
1789222157291527000,7.25052685546875,-0.27684515714645386,-0.770182728767395,0.3200993835926056
1789222157301521200,7.260521240234375,-0.42586463689804077,-0.45678767561912537,1.4305191040039062
1789222157311515100,7.27051513671875,-0.47228485345840454,1.0224968194961548,0.4628083109855652
1789222157321508900,7.2805087890625,-0.38993340730667114,1.2664484977722168,-1.0715816020965576
1789222157331502800,7.2905029296875,-0.5054001212120056,0.20001289248466492,-0.035761576145887375
1789222157341496800,7.300496826171875,-0.4687236249446869,-0.9427897334098816,0.8246000409126282
1789222157351491000,7.310490966796875,0.03770335391163826,1.9861351251602173,-1.3655569553375244
1789222157361486000,7.320486083984375,0.2727210223674774,0.04963836818933487,-0.8417271375656128
1789222157371480000,7.33047998046875,-0.2582392692565918,-1.7761234045028687,1.7087351083755493
1789222157381474000,7.34047412109375,-0.874962329864502,-1.5900019407272339,1.7386430501937866
1789222157391468000,7.350468017578125,-1.0286195278167725,0.22137236595153809,-1.315592885017395
1789222157401462000,7.3604619140625,-1.2420592308044434,-0.36306971311569214,-1.0331438779830933
1789222157411456000,7.3704560546875,-1.4501792192459106,-0.8323495984077454,1.1003285646438599
1789222157421450000,7.380449951171875,-1.058300256729126,1.6059802770614624,-0.7486255168914795
1789222157431444000,7.39044384765625,-0.34249162673950195,2.356736421585083,-2.8641788959503174
1789222157441438000,7.40043798828125,-0.08680364489555359,-1.3345372676849365,0.43961161375045776
1789222157451433000,7.410432861328125,-0.444673091173172,-1.332105040550232,1.9777277708053589
1789222157461427000,7.420427001953125,-0.26669690012931824,2.6875908374786377,-1.397753357887268
1789222157471421000,7.4304208984375,-0.035373397171497345,-0.6019417643547058,-0.7091245651245117
1789222157481415000,7.440414794921875,-0.6978777647018433,-3.1952285766601562,1.1202088594436646
1789222157491409200,7.4504091796875,-1.3754758834838867,-2.506206512451172,1.0469028949737549
1789222157501403100,7.460403076171875,-1.6483381986618042,2.038776397705078,-0.3358970284461975
1789222157511396900,7.47039697265625,-1.426090955734253,0.660033643245697,-0.2253609448671341
1789222157521390800,7.480390869140625,-1.3188118934631348,-1.5444151163101196,-0.6913195252418518
1789222157531384800,7.490384765625,-1.268200159072876,-1.4583537578582764,-0.4252851605415344
1789222157541379000,7.500379150390625,-0.8860046863555908,0.0870637372136116,-0.08724693953990936
1789222157551374000,7.5103740234375,0.17604318261146545,1.7687301635742188,-0.5271643996238708
1789222157561368000,7.5203681640625,0.08838227391242981,-0.6949213743209839,-0.4289443790912628
1789222157571362000,7.530362060546875,-0.7413588166236877,-1.7522237300872803,1.1763622760772705
1789222157581356000,7.54035595703125,-1.5161083936691284,-1.7460224628448486,1.6653436422348022
1789222157591350000,7.55035009765625,-1.6336984634399414,-0.32877132296562195,-0.3449919521808624
1789222157601344000,7.560343994140625,-1.3917901515960693,-1.5676794052124023,-0.5543652772903442
1789222157611338000,7.570337890625,-1.1633614301681519,-0.9738630056381226,-1.1335926055908203
1789222157621332000,7.58033203125,-0.7655757069587708,1.1037920713424683,-2.3171355724334717
1789222157631326000,7.590325927734375,-0.37695178389549255,0.14223544299602509,-0.4183923304080963
1789222157641321000,7.600321044921875,-0.19464951753616333,-1.3513967990875244,1.7497484683990479
1789222157651315000,7.61031494140625,-0.011779844760894775,0.013339049182832241,0.38153326511383057
1789222157661309000,7.620308837890625,0.039822082966566086,-0.24942785501480103,-0.4042527675628662
1789222157671303000,7.630302978515625,-0.5464110374450684,-1.2911648750305176,0.8372106552124023
1789222157681297200,7.640297119140625,-1.167344570159912,-1.0414578914642334,1.5025368928909302
1789222157691291100,7.650291015625,-1.3645210266113281,0.2003207504749298,0.2918689250946045
1789222157701284900,7.660284912109375,-0.9531044363975525,0.34135931730270386,-1.1606829166412354
1789222157711278800,7.67027880859375,-0.6275489926338196,-0.8587952852249146,-0.8842155933380127
1789222157721272800,7.68027294921875,-0.546396017074585,-0.9466971158981323,0.7239095568656921
1789222157731267800,7.690267822265625,-0.1767340898513794,-0.8145130276679993,0.61469566822052
1789222157741262000,7.700261962890625,0.5600355863571167,-1.0747150182724,-0.45145872235298157
1789222157751256000,7.710256103515625,0.865009069442749,-1.0074347257614136,0.26275527477264404
1789222157761250000,7.72025,0.6697131395339966,1.2346550226211548,0.6320198774337769
1789222157771244000,7.730244140625,0.5106009840965271,2.5276713371276855,-0.5057272911071777
1789222157781238000,7.740238037109375,0.3363197147846222,0.8767432570457458,-0.31203046441078186
1789222157791232000,7.75023193359375,0.056807130575180054,-0.20732229948043823,0.3234330415725708
1789222157801226000,7.76022607421875,-0.1355896294116974,0.11078308522701263,0.1336151659488678
1789222157811220000,7.770219970703125,0.13568422198295593,-0.808321475982666,0.0023037376813590527
1789222157821215000,7.780215087890625,0.7072022557258606,-1.8812886476516724,0.1661476045846939
1789222157831209000,7.790208984375,0.9592206478118896,-0.5187005996704102,0.6184138655662537
1789222157841203000,7.800202880859375,0.8052468299865723,2.3147695064544678,0.1602008044719696
1789222157851197000,7.810197021484375,0.5674422979354858,2.07086181640625,-0.42165833711624146
1789222157861191000,7.82019091796875,0.3225790560245514,-0.9687135219573975,0.40522459149360657
1789222157871185200,7.83018505859375,-0.13517813384532928,-1.693735122680664,0.7166695594787598
1789222157881179100,7.84017919921875,-0.2942540645599365,-0.6752946972846985,0.010021334514021873
1789222157891172900,7.8501728515625,-0.06849312037229538,0.5377733111381531,-0.46711939573287964
1789222157901166800,7.860166748046875,0.10899965465068817,0.9256947040557861,0.48227977752685547
1789222157911161900,7.870161865234375,0.2298339307308197,1.5183732509613037,0.40259745717048645
1789222157921155800,7.88015576171875,0.5064316987991333,1.9503788948059082,-0.6696314811706543
1789222157931150000,7.890150146484375,0.6751818656921387,-0.4446401298046112,0.30912578105926514
1789222157941144000,7.90014404296875,0.19720503687858582,-1.8776822090148926,1.1387290954589844
1789222157951138000,7.910137939453125,-0.203108549118042,-3.50677227973938,0.7508242726325989
1789222157961132000,7.920132080078125,-0.315822958946228,-3.367997407913208,-0.5916839241981506
1789222157971126000,7.9301259765625,-0.4833410978317261,0.7414889335632324,-0.6242967247962952
1789222157981120000,7.9401201171875,-0.3697540760040283,3.718824863433838,-0.39251938462257385
1789222157991114000,7.950114013671875,-0.2641054093837738,3.761300802230835,-1.762913703918457
1789222158001108700,7.960108642578125,-0.334121435880661,0.6828390955924988,-1.0005053281784058
1789222158011102700,7.970102783203125,-0.5590860843658447,-2.6769680976867676,2.0894434452056885
1789222158021096700,7.9800966796875,-0.9666730165481567,-2.892672061920166,1.9181164503097534
1789222158031090700,7.990090576171875,-0.8444898128509521,-2.874610424041748,-0.6269220113754272
1789222158041084400,8.00008447265625,-1.007280945777893,-1.0011519193649292,-0.396230012178421
1789222158051078700,8.01007861328125,-1.1297212839126587,1.3202099800109863,1.3885853290557861
1789222158061072600,8.02007275390625,-0.5165607333183289,3.79569149017334,-1.115984320640564
1789222158071066600,8.030066650390625,0.0631612092256546,0.7264041304588318,-2.656743049621582
1789222158081060600,8.040060546875,0.20972028374671936,-2.873171091079712,0.344704806804657
1789222158091055600,8.0500556640625,-0.1367681622505188,-1.4816381931304932,1.9531360864639282
1789222158101049600,8.060049560546876,-0.16328848898410797,-0.2245340347290039,-0.08229368180036545
1789222158111043600,8.070043701171874,-0.16258540749549866,-2.0168561935424805,-1.2037521600723267
1789222158121037800,8.080037841796875,-0.4747002124786377,-1.6098763942718506,0.6341507434844971
1789222158131031600,8.090031494140625,-0.7216194868087769,1.5241129398345947,1.76157808303833
1789222158141025500,8.100025634765625,-0.45226067304611206,2.728898763656616,-0.5528733134269714
1789222158151019500,8.11001953125,-0.09889009594917297,0.3618849217891693,-1.657228946685791
1789222158161013500,8.120013427734374,0.08499782532453537,-2.0409369468688965,0.9841002225875854
1789222158171008500,8.130008544921875,0.0653144046664238,-0.7328105568885803,1.2320681810379028
1789222158181002500,8.14000244140625,0.45357823371887207,0.40754786133766174,-1.4429854154586792
1789222158190996700,8.149996826171876,0.8330182433128357,-1.6444385051727295,-1.196595549583435
1789222158200990700,8.15999072265625,0.5157985091209412,-0.9943366646766663,0.9965987801551819
1789222158210984700,8.169984619140624,0.2949451804161072,1.6306495666503906,0.41576388478279114
1789222158220978700,8.179978759765625,0.5312987565994263,2.466278314590454,-1.5799590349197388
1789222158230972400,8.189972412109375,0.6631316542625427,-0.6389608383178711,-0.27440881729125977
1789222158240966700,8.199966552734375,0.1694868952035904,0.10178132355213165,1.2086677551269531
1789222158250960600,8.209960693359376,-0.05410385876893997,1.4612767696380615,0.8017394542694092
1789222158260955600,8.21995556640625,0.3862673342227936,-0.36096620559692383,-0.6249335408210754
1789222158270949600,8.22994970703125,0.8610852360725403,-2.7472779750823975,-0.16581390798091888
1789222158280943600,8.239943603515625,0.5440855026245117,-0.9589952230453491,1.6742767095565796
1789222158290937600,8.2499375,0.35099565982818604,0.38717788457870483,1.5181323289871216
1789222158300931600,8.259931640625,0.5210707783699036,0.202865868806839,-1.287540078163147
1789222158310925800,8.26992578125,0.37534579634666443,0.17780658602714539,-1.013907790184021
1789222158320919600,8.27991943359375,0.021070636808872223,1.4581303596496582,0.8822847008705139
1789222158330913500,8.28991357421875,-0.00575725082308054,3.454193592071533,-1.7725683450698853
1789222158340907500,8.299907470703126,0.15726731717586517,0.0349259115755558,-2.7850160598754883
1789222158350902500,8.309902587890624,0.36219146847724915,-4.351101875305176,0.8834490180015564
1789222158360896500,8.319896484375,0.07007335871458054,-1.9764118194580078,2.175691843032837
1789222158370890500,8.329890380859375,0.051460787653923035,0.2575444281101227,1.004032850265503
1789222158380884700,8.339884765625,0.06173090636730194,-0.3456619679927826,0.2779185175895691
1789222158390878700,8.349878662109376,-0.18965153396129608,0.5977585911750793,0.7689756155014038
1789222158400872700,8.359872802734374,-0.38592997193336487,3.293191909790039,0.8297106027603149
1789222158410866700,8.36986669921875,-0.11691926419734955,3.2913670539855957,-1.2109663486480713
1789222158420860400,8.3798603515625,0.26443764567375183,-1.4985321760177612,-1.6596570014953613
1789222158430855400,8.38985546875,0.24305061995983124,-3.794208526611328,0.6133310794830322
1789222158440849700,8.399849609375,-0.032335616648197174,-1.3160967826843262,0.8956717252731323
1789222158450843600,8.40984375,0.2058580368757248,0.4063735008239746,-1.3287529945373535
1789222158460837600,8.419837646484375,0.3068070411682129,-0.1740802824497223,-1.1095143556594849
1789222158470831600,8.42983154296875,-0.06956128776073456,0.6865889430046082,1.391723871231079
1789222158480825600,8.43982568359375,-0.3997952938079834,2.8150112628936768,0.8479843139648438
1789222158490819600,8.449819580078126,-0.2680439352989197,1.2783828973770142,-1.3935743570327759
1789222158500813800,8.459813720703124,-0.07808583974838257,-2.768739700317383,0.2059517502784729
1789222158510807600,8.4698076171875,-0.4230797290802002,-2.058767795562744,2.01179575920105
1789222158520802800,8.479802734375,-0.22291550040245056,1.8543599843978882,-0.4941539764404297
1789222158530796500,8.489796630859376,0.3600214123725891,0.8117341995239258,-1.863849401473999
1789222158540790500,8.49979052734375,0.31893274188041687,-1.9107190370559692,0.44778087735176086
1789222158550784500,8.509784423828124,-0.2260003536939621,-0.3092670440673828,1.3119986057281494
1789222158560778500,8.519778564453125,-0.3213229477405548,2.365999937057495,-1.1310851573944092
1789222158570772700,8.529772705078125,0.051468975841999054,-0.4126633107662201,-1.218442440032959
1789222158580766700,8.5397666015625,-0.10826438665390015,-2.3266801834106445,0.5600941777229309
1789222158590760700,8.5497607421875,-0.5190085172653198,-0.3115760087966919,0.861264705657959
1789222158600755700,8.559755615234375,-0.4989129900932312,0.8534606695175171,-0.49248358607292175
1789222158610749700,8.569749755859375,-0.09570933878421783,-1.1732324361801147,-0.3938118517398834
1789222158620743400,8.579743408203125,-0.26397189497947693,-0.7517983317375183,1.381479024887085
1789222158630737700,8.589737548828126,-0.4665718674659729,0.9412650465965271,1.8473883867263794
1789222158640731600,8.599731689453124,-0.061974652111530304,0.8428792953491211,-0.817034900188446
1789222158650725600,8.6097255859375,0.25855568051338196,-0.8257104158401489,-0.9567307829856873
1789222158660719600,8.6197197265625,0.11352568119764328,-0.09971661120653152,0.7240206003189087
1789222158670713600,8.629713623046875,0.31181398034095764,3.0129966735839844,-1.4022057056427002
1789222158680707600,8.63970751953125,1.033467173576355,0.3347836434841156,-2.515742063522339
1789222158690702600,8.64970263671875,0.8575782179832458,-3.0034618377685547,0.3683878779411316
1789222158700696800,8.65969677734375,0.022338800132274628,-1.478711485862732,2.180908441543579
1789222158710690800,8.66969091796875,-0.46701544523239136,1.1953693628311157,0.9568313956260681
1789222158720684500,8.6796845703125,-0.32418110966682434,0.26399022340774536,-0.45691701769828796
1789222158730678500,8.689678466796876,-0.39065760374069214,-1.38911771774292,-0.10746688395738602
1789222158740672500,8.699672607421874,-0.5443880558013916,0.38497599959373474,0.4711977541446686
1789222158750666500,8.70966650390625,-0.0016669963952153921,3.5052881240844727,-0.913308322429657
1789222158760660700,8.71966064453125,0.9625269174575806,0.1427648812532425,-1.064889669418335
1789222158770654700,8.72965478515625,0.8196632266044617,-2.3890538215637207,0.03060881234705448
1789222158780649700,8.739649658203126,0.10134756565093994,-1.29049551486969,1.3342227935791016
1789222158790643700,8.749643798828124,-0.30436959862709045,0.3275817334651947,0.23665426671504974
1789222158800637700,8.7596376953125,-0.25146806240081787,-1.0352363586425781,-0.811724841594696
1789222158810631400,8.76963134765625,-0.4828070402145386,-0.9967036247253418,0.022046972066164017
1789222158820625700,8.779625732421875,-0.6187856793403625,2.03989577293396,0.3690088093280792
1789222158830619600,8.78961962890625,0.03490155562758446,2.965224266052246,-1.289595127105713
1789222158840613600,8.799613525390624,0.8263943195343018,-1.4878932237625122,-1.1831777095794678
1789222158850607600,8.809607666015625,0.7536852359771729,-2.428821325302124,0.7118644118309021
1789222158860602600,8.8196025390625,0.2909480333328247,0.4176742434501648,1.4966613054275513
1789222158870596600,8.8295966796875,0.26835110783576965,1.0038950443267822,-0.2695649266242981
1789222158880590600,8.839590576171876,0.24462425708770752,-1.2236899137496948,-1.1181682348251343
1789222158890584800,8.849584716796874,-0.1952793449163437,-0.39042413234710693,0.2988957166671753
1789222158900578800,8.859578857421875,-0.4448007345199585,2.512024164199829,0.6999685168266296
1789222158910572500,8.869572509765625,0.03614407777786255,1.2739694118499756,-0.6732489466667175
1789222158920566500,8.87956640625,0.4792940318584442,-2.250149965286255,-0.4452354311943054
1789222158930560500,8.889560546875,0.24566079676151276,-1.4418907165527344,0.9936193823814392
1789222158940555500,8.899555419921874,0.009581721387803555,1.0597403049468994,0.6806893944740295
1789222158950549500,8.909549560546875,0.20544204115867615,0.18374839425086975,-0.8410475254058838
1789222158960543700,8.919543701171875,0.28473013639450073,-1.562440276145935,-0.12193619459867477
1789222158970537700,8.929537841796876,-0.08881519734859467,0.5037809610366821,0.9305523037910461
1789222158980531700,8.93953173828125,-0.09488258510828018,1.8721768856048584,-0.563429594039917
1789222158990525700,8.949525634765624,0.19919006526470184,-0.33416125178337097,-1.4829027652740479
1789222159000519400,8.95951953125,0.2838583290576935,-1.8844603300094604,0.45649269223213196
1789222159010513400,8.969513427734375,0.16283655166625977,0.9530426859855652,0.6725365519523621
1789222159020507400,8.97950732421875,0.4027639627456665,1.9068114757537842,-1.077493667602539
1789222159030502400,8.98950244140625,0.5180345773696899,-1.126408576965332,-0.9126842021942139
1789222159040496400,8.999496337890625,0.20622295141220093,-1.4758105278015137,1.1959731578826904
1789222159050490400,9.009490478515625,-0.28238773345947266,1.366445779800415,1.9598455429077148
1789222159060484400,9.019484375,-0.12635537981987,1.1638076305389404,-0.5068231225013733
1789222159070478300,9.029478271484376,0.2560116946697235,-2.0247702598571777,-1.4212485551834106
1789222159080472600,9.03947265625,0.04469984397292137,-1.452625036239624,1.0391579866409302
1789222159090466600,9.049466552734375,-0.0012101244647055864,3.3539347648620605,0.5515064001083374
1789222159100460500,9.05946044921875,0.6124481558799744,2.9612607955932617,-2.195833206176758
1789222159110455600,9.06945556640625,0.950051486492157,-2.9757540225982666,-0.9027842283248901
1789222159120449300,9.07944921875,0.2800048887729645,-1.9699299335479736,1.8023524284362793
1789222159130443300,9.089443359375,-0.39921170473098755,1.5344879627227783,1.933436632156372
1789222159140437200,9.099437255859375,-0.3127681314945221,0.27948105335235596,-0.5892961025238037
1789222159150431500,9.109431396484375,-0.13562822341918945,-2.4052517414093018,-0.7270845770835876
1789222159160425500,9.119425537109375,-0.37174469232559204,-0.09093039482831955,0.8071327209472656
1789222159170419500,9.12941943359375,-0.13828639686107635,4.646368980407715,-1.0141562223434448
1789222159180413400,9.139413330078124,0.6830751299858093,1.4656322002410889,-2.1274726390838623
1789222159190408400,9.149408447265625,1.0026826858520508,-3.2559921741485596,0.3928823471069336
1789222159200402400,9.15940234375,0.3262481987476349,-1.3624355792999268,1.4291107654571533
1789222159210396400,9.169396484375,0.053518667817115784,0.3988957107067108,-0.29270368814468384
1789222159220390400,9.179390380859376,0.3109235167503357,-1.5098696947097778,-0.3199589252471924
1789222159230384400,9.18938427734375,0.031865768134593964,-1.6818203926086426,1.7452408075332642
1789222159240378400,9.19937841796875,-0.4117957651615143,1.3069854974746704,1.64932119846344
1789222159250372400,9.209372314453125,-0.32384487986564636,2.3001160621643066,-1.1583770513534546
1789222159260366300,9.219366455078125,-0.044298719614744186,0.24900314211845398,-1.6151920557022095
1789222159270360600,9.229360595703126,0.08359958976507187,-1.2848726511001587,1.6101725101470947
1789222159280355300,9.239355224609374,0.0021234946325421333,1.7419612407684326,0.2537909746170044
1789222159290349600,9.249349609375,0.2829285264015198,0.9659813046455383,-2.203639507293701
1789222159300343600,9.259343505859375,0.3756977915763855,-2.0203864574432373,-0.30120906233787537
1789222159310337300,9.269337158203125,0.3743845820426941,-1.586187481880188,2.3047802448272705
1789222159320331300,9.279331298828126,0.5853256583213806,5.317924499511719,-1.149996042251587
1789222159330325200,9.2893251953125,0.6712070107460022,0.9738861322402954,-2.0424041748046875
1789222159340319500,9.299319580078125,0.3988020122051239,-3.368330717086792,1.4639878273010254
1789222159350313500,9.3093134765625,-0.2776840627193451,-0.49137189984321594,2.0735561847686768
1789222159360308500,9.31930859375,-0.3371002972126007,3.2611260414123535,-1.3025161027908325
1789222159370302500,9.329302490234374,0.016248449683189392,-1.487439751625061,-1.3837001323699951
1789222159380296400,9.33929638671875,0.016453729942440987,-3.5790157318115234,1.2014816999435425
1789222159390290400,9.34929052734375,-0.13328143954277039,1.6909290552139282,0.6536819934844971
1789222159400284400,9.359284423828125,0.2371501326560974,4.254669666290283,-1.7637815475463867
1789222159410278400,9.3692783203125,0.7684028148651123,-1.6295713186264038,0.13634952902793884
1789222159420272400,9.3792724609375,0.3960198760032654,-2.339988946914673,2.1651980876922607
1789222159430266400,9.389266357421874,0.024562444537878036,0.40784668922424316,0.4861050844192505
1789222159440261400,9.399261474609375,-0.010846962220966816,0.743069589138031,-1.7160431146621704
1789222159450255400,9.40925537109375,-0.0535491518676281,-1.4167909622192383,0.19905869662761688
1789222159460249300,9.419249267578126,-0.2826780080795288,0.1207713857293129,1.2150076627731323
1789222159470243300,9.429243408203124,-0.0024940345901995897,3.617706775665283,-1.6281436681747437
1789222159480237600,9.439237548828125,0.6511513590812683,0.05645039677619934,-1.3959906101226807
1789222159490231600,9.4492314453125,0.7057467103004456,-2.338212251663208,1.6024432182312012
1789222159500225300,9.459225341796875,0.2814275324344635,0.0005510803312063217,1.5515917539596558
1789222159510219300,9.46921923828125,0.29237234592437744,0.49294930696487427,-0.8370698094367981
1789222159520214300,9.47921435546875,0.43304261565208435,-1.7168463468551636,0.09606683999300003
1789222159530208300,9.489208251953125,-0.027625111863017082,-0.20125634968280792,2.096428871154785
1789222159540202500,9.499202392578125,-0.21059024333953857,2.365636110305786,0.43620455265045166
1789222159550196500,9.509196533203125,-0.04484149068593979,1.7101807594299316,-2.022784948348999
1789222159560190500,9.5191904296875,0.15403206646442413,-1.6411383152008057,0.88556307554245
1789222159570184400,9.529184326171874,0.032737597823143005,0.13951778411865234,1.3820961713790894
1789222159580178400,9.539178466796875,0.454262375831604,2.3402678966522217,-2.423257827758789
1789222159590172400,9.54917236328125,0.8598900437355042,-1.3305813074111938,-1.4450738430023193
1789222159600167400,9.55916748046875,0.6965414881706238,-2.2387771606445312,2.0380120277404785
1789222159610161400,9.569161376953126,0.4743606150150299,2.536463975906372,0.0694195032119751
1789222159620155400,9.5791552734375,0.5251874923706055,2.586688995361328,-2.323545217514038
1789222159630149400,9.5891494140625,0.5863040685653687,-2.4986114501953125,1.4146225452423096
1789222159640143400,9.599143310546875,0.04470350965857506,-1.0981265306472778,2.525502920150757
1789222159650137300,9.609137451171875,0.057982828468084335,3.2286171913146973,-1.414927363395691
1789222159660131300,9.61913134765625,0.15682728588581085,0.7554458975791931,-1.886814832687378
1789222159670125600,9.62912548828125,0.12422380596399307,-2.4011800289154053,2.2564730644226074
1789222159680120600,9.63912060546875,-0.05771109461784363,1.3585493564605713,1.604844331741333
1789222159690114600,9.649114501953125,0.3374660611152649,4.393916606903076,-2.422610282897949
1789222159700108500,9.659108642578126,0.8232318758964539,-2.007051706314087,-0.5969556570053101
1789222159710102300,9.669102294921874,0.5208855867385864,-3.1345136165618896,1.6835720539093018
1789222159720096300,9.67909619140625,0.25466588139533997,-0.24158039689064026,0.19085663557052612
1789222159730090500,9.689090576171875,0.3293555676937103,0.9421790242195129,-2.1443519592285156
1789222159740084500,9.69908447265625,0.3798145353794098,-0.8960351943969727,-0.1415412276983261
1789222159750078500,9.709078369140625,-0.033614594489336014,0.7753732204437256,2.1474575996398926
1789222159760073500,9.719073486328124,-0.10745108127593994,5.4283223152160645,-0.5678195357322693
1789222159770067500,9.7290673828125,0.22496682405471802,1.9304159879684448,-1.0754222869873047
1789222159780061400,9.7390615234375,0.30146944522857666,-2.7718968391418457,1.9409252405166626
1789222159790055400,9.749055419921875,-0.046599581837654114,-2.2299153804779053,1.50229811668396
1789222159800049400,9.75904931640625,0.10362304747104645,-1.3612191677093506,-1.2902694940567017
1789222159810043400,9.76904345703125,0.30108872056007385,-1.1577882766723633,-1.3267176151275635
1789222159820037400,9.779037353515625,0.24863187968730927,-0.2334972769021988,1.5379494428634644
1789222159830031400,9.78903125,0.26855233311653137,3.99776291847229,0.06154328212141991
1789222159840025300,9.799025390625,0.17327584326267242,4.239115238189697,-2.311246156692505
1789222159850020400,9.809020263671876,0.04093671590089798,-0.21680940687656403,0.9235441088676453
1789222159860014300,9.819014404296874,-0.33772292733192444,-1.246655821800232,2.1612768173217773
1789222159870008600,9.829008544921875,-0.4450288712978363,0.5662281513214111,-1.6377289295196533
1789222159880002600,9.83900244140625,-0.4206302762031555,-1.9386380910873413,-1.8324253559112549
1789222159889996500,9.84899658203125,-0.4033498167991638,-3.7687180042266846,1.8761564493179321
1789222159899990300,9.858990234375,-0.14368359744548798,2.491203546524048,0.7787593603134155
1789222159909984300,9.868984375,0.26104736328125,5.195409774780273,-2.3639307022094727
1789222159919979300,9.878979248046875,0.17818725109100342,0.05333021655678749,-0.03240460157394409
1789222159929973200,9.88897314453125,-0.3853924870491028,-2.0513105392456055,2.5419211387634277
1789222159939967500,9.898967529296876,-0.7720073461532593,0.9003613591194153,-0.4466201066970825
1789222159949961500,9.90896142578125,-0.6335144639015198,-0.4734971225261688,-2.4861276149749756
1789222159959955500,9.91895556640625,-0.7834201455116272,-3.2736053466796875,0.23398935794830322
1789222159969949400,9.928949462890625,-1.1769368648529053,-1.790830135345459,2.070354700088501
1789222159979943400,9.938943359375,-0.8784408569335938,2.3442182540893555,-0.498172789812088
1789222159989937400,9.9489375,-0.38183799386024475,1.0285392999649048,-1.233445644378662
1789222159999932700,9.9589326171875,-0.5168023109436035,-0.513840913772583,0.7334434986114502
1789222160009927000,9.968927001953125,-0.9170892238616943,0.2577146589756012,0.9209087491035461
1789222160019921000,9.9789208984375,-0.9599058032035828,-0.4560120701789856,-0.7273616194725037
1789222160029915000,9.988914794921875,-0.85169917345047,-2.150097370147705,-1.08389151096344
1789222160039908900,9.998908935546876,-1.0896445512771606,-1.1101963520050049,0.33605632185935974
1789222160049902800,10.00890283203125,-1.1991137266159058,0.7789182066917419,0.9087925553321838
1789222160059896800,10.018896728515625,-0.8193585276603699,0.31755155324935913,-0.42921680212020874
1789222160069891000,10.02889111328125,-0.5007757544517517,-1.177227258682251,-0.5356950163841248
1789222160079886000,10.038885986328125,-0.7243562936782837,-0.3147350251674652,1.3044072389602661
1789222160089880000,10.048880126953126,-0.9792287945747375,1.14100182056427,1.1382465362548828
1789222160099873800,10.058873779296874,-0.8121773600578308,-0.6500025987625122,-1.0352727174758911
1789222160109867800,10.06886767578125,-0.677609920501709,-2.4840545654296875,-1.0387121438980103
1789222160119861800,10.07886181640625,-0.8064764738082886,-1.0813730955123901,1.0262314081192017
1789222160129855700,10.088855712890625,-0.788510262966156,1.6202831268310547,0.6422342658042908
1789222160139850000,10.09885009765625,-0.33916059136390686,0.3613854944705963,-1.2437710762023926
1789222160149844000,10.108843994140624,-0.16507691144943237,-1.535925269126892,-0.31947413086891174
1789222160159839000,10.1188388671875,-0.4039347767829895,-0.10902408510446548,1.668424367904663
1789222160169833000,10.1288330078125,-0.3005093038082123,2.6886024475097656,-0.3411617577075958
1789222160179827000,10.138826904296875,0.1548347920179367,-0.5484499335289001,-1.8849552869796753
1789222160189820700,10.148820556640626,0.1288902759552002,-3.13083553314209,0.30715709924697876
1789222160199815000,10.15881494140625,-0.39202797412872314,-0.01907177083194256,1.7021071910858154
1789222160209809000,10.168808837890625,-0.37854039669036865,1.909491777420044,0.09570420533418655
1789222160219803000,10.178802978515625,-0.004451331216841936,-0.6401787996292114,-1.1472136974334717
1789222160229796900,10.188796875,-0.014172402210533619,-1.2834545373916626,-0.2723006010055542
1789222160239791900,10.1987919921875,-0.28597161173820496,0.8307783603668213,1.062616229057312
1789222160249785900,10.208785888671875,-0.10067286342382431,1.3344905376434326,0.08225388824939728
1789222160259779800,10.21877978515625,0.6716358661651611,-0.25283825397491455,-1.244294285774231
1789222160269774000,10.228774169921875,0.8497377038002014,-1.1688778400421143,-0.36138448119163513
1789222160279768000,10.23876806640625,0.35249653458595276,0.6654037833213806,0.7773699164390564
1789222160289761800,10.24876171875,-0.004063186701387167,1.450654149055481,0.5765939354896545
1789222160299755800,10.258755859375,0.08561376482248306,-0.3866254687309265,0.013213984668254852
1789222160309749800,10.268749755859375,0.19089731574058533,-1.4100987911224365,-0.31459957361221313
1789222160319744800,10.278744873046875,-0.07467570900917053,-0.02806512638926506,0.4395517408847809
1789222160329738800,10.28873876953125,-0.16297389566898346,0.9788755178451538,0.4450075030326843
1789222160339733000,10.29873291015625,0.15770013630390167,0.11735532432794571,-1.2715399265289307
1789222160349727000,10.30872705078125,0.4903601408004761,-1.4967674016952515,-0.8423596024513245
1789222160359721000,10.318720947265625,0.35993462800979614,-0.35113316774368286,1.0006202459335327
1789222160369715000,10.32871484375,0.28071942925453186,1.5734699964523315,-0.02865475043654442
1789222160379708700,10.338708740234376,0.3047405779361725,0.10206171125173569,-1.3937039375305176
1789222160389703000,10.348702880859374,0.08660265803337097,-1.5007069110870361,0.023375054821372032
1789222160399697700,10.35869775390625,-0.34595203399658203,0.3184187114238739,1.6284030675888062
1789222160409692000,10.36869189453125,-0.2279079705476761,2.4132416248321533,-0.033885374665260315
1789222160419686000,10.378685791015625,0.2225583791732788,-0.3611101806163788,-1.3168009519577026
1789222160429679900,10.388679931640626,0.252949059009552,-1.8737273216247559,-0.04724302887916565
1789222160439673900,10.398673828125,0.013269871473312378,0.16704630851745605,1.400918960571289
1789222160449667800,10.408667724609375,0.26000455021858215,2.1062564849853516,-0.10834188014268875
1789222160459662000,10.418662109375,0.8035020232200623,-0.32060930132865906,-1.4759635925292969
1789222160469656000,10.428656005859375,0.6647569537162781,-1.7446720600128174,-0.18666791915893555
1789222160479651000,10.438651123046874,0.17088238894939423,0.08648888766765594,1.0626276731491089
1789222160489644800,10.448644775390624,0.17014682292938232,2.6950411796569824,-0.8181251287460327
1789222160499638800,10.458638671875,0.5869532227516174,-0.15450315177440643,-1.210005283355713
1789222160509632800,10.4686328125,0.333113431930542,-1.8354568481445312,-0.13679583370685577
1789222160519626800,10.478626708984375,-0.17644135653972626,-0.09074621647596359,0.7756897211074829
1789222160529621000,10.48862109375,-0.15955451130867004,1.1669995784759521,0.2555072605609894
1789222160539615000,10.498614990234374,0.20784443616867065,-0.2674265503883362,-0.7669855952262878
1789222160549609000,10.50860888671875,0.20807160437107086,-0.8799211382865906,-0.41599589586257935
1789222160559604000,10.51860400390625,-0.06451761722564697,0.5359542965888977,1.2312543392181396
1789222160569598000,10.528597900390626,-0.14834913611412048,1.6166144609451294,0.7282187342643738
1789222160579592000,10.538592041015624,0.08238515257835388,-0.37188199162483215,-1.2721185684204102
1789222160589585700,10.548585693359374,0.1369733065366745,-2.422440528869629,-0.5221081972122192
1789222160599580000,10.558579833984375,-0.18582265079021454,-0.5372959971427917,1.1143773794174194
1789222160609574000,10.568573974609375,-0.27432480454444885,2.0380091667175293,-0.08968405425548553
1789222160619567900,10.57856787109375,-0.01154007576406002,0.4869426190853119,-1.606291651725769
1789222160629563000,10.58856298828125,0.09679625183343887,-1.877301573753357,-0.11787807941436768
1789222160639556900,10.598556884765625,-0.10594863444566727,-0.2372681051492691,1.0484689474105835
1789222160649550800,10.60855078125,-0.10205269604921341,1.3455779552459717,0.3615604043006897
1789222160659544800,10.618544921875,0.055181171745061874,-0.36692485213279724,-0.1336662322282791
1789222160669539000,10.6285390625,-0.030218414962291718,-1.0880271196365356,0.12014739215373993
1789222160679532800,10.63853271484375,-0.3054039776325226,0.44111913442611694,0.8674704432487488
1789222160689526800,10.64852685546875,-0.28662070631980896,1.1099427938461304,0.24440817534923553
1789222160699520800,10.658520751953125,0.08238096535205841,-0.5824891924858093,-1.3221352100372314
1789222160709515800,10.668515869140625,0.19805456697940826,-1.6147840023040771,-0.4933314025402069
1789222160719509800,10.678509765625,-0.14744411408901215,0.14458903670310974,1.2094835042953491
1789222160729503700,10.688503662109374,-0.16340044140815735,1.3125883340835571,0.08807707577943802
1789222160739498000,10.698498046875,0.23665735125541687,-0.4822302758693695,-1.5209217071533203
1789222160749492000,10.708491943359375,0.26717692613601685,-1.6817848682403564,-0.17407754063606262
1789222160759486000,10.71848583984375,-0.250284880399704,0.6805678606033325,1.5316218137741089
1789222160769480000,10.72847998046875,-0.27207592129707336,2.000023603439331,0.32432085275650024
1789222160779473700,10.7384736328125,0.21625493466854095,-0.5068545937538147,-1.1305227279663086
1789222160789468700,10.74846875,0.30861949920654297,-2.034856081008911,0.17895540595054626
1789222160799463000,10.758462890625,-0.23019535839557648,0.8328093886375427,1.866976022720337
1789222160809457000,10.768456787109375,-0.2895122170448303,1.2912871837615967,0.8800820708274841
1789222160819451000,10.778450927734376,0.1430259346961975,-1.3294579982757568,-1.7498819828033447
1789222160829444900,10.78844482421875,0.5026102066040039,-3.0160064697265625,-0.593101441860199
1789222160839438800,10.79843896484375,0.260750412940979,1.252541422843933,0.9872634410858154
1789222160849432800,10.808432861328125,0.41731899976730347,4.093489170074463,-1.144130825996399
1789222160859427000,10.818427001953125,0.7542915344238281,0.5732644200325012,-2.2540197372436523
1789222160869422000,10.828422119140624,0.8558541536331177,-3.140559196472168,1.2137210369110107
1789222160879416000,10.838416015625,0.2277372032403946,0.21536488831043243,2.3381001949310303
1789222160889409800,10.848409912109375,0.08910101652145386,1.7525500059127808,0.006841988768428564
1789222160899403800,10.85840380859375,0.2536037564277649,-1.0433111190795898,-1.0380384922027588
1789222160909397800,10.868397705078126,0.30733808875083923,-2.456425189971924,0.7698875665664673
1789222160919391700,10.878391845703124,0.0870281383395195,2.5350074768066406,0.40951576828956604
1789222160929386000,10.888385986328124,0.29839789867401123,4.195605754852295,-1.871285080909729
1789222160939381000,10.898381103515625,0.8077646493911743,-1.2030768394470215,-0.9461643695831299
1789222160949375000,10.908375,0.7108165621757507,-3.0408101081848145,1.7736408710479736
1789222160959369000,10.918368896484376,0.2901286780834198,0.4448305666446686,1.0328385829925537
1789222160969363000,10.928363037109374,0.2999567985534668,0.9601925015449524,-1.3283833265304565
1789222160979356700,10.938356689453125,0.3841925263404846,-1.9636212587356567,-0.7901129722595215
1789222160989351000,10.948350830078125,0.12816502153873444,-0.9926838874816895,1.0608638525009155
1789222160999345200,10.95834521484375,0.033439356833696365,5.108803749084473,-0.6215142011642456
1789222161009339100,10.968339111328126,0.45396873354911804,2.517819881439209,-2.1217899322509766
1789222161019334100,10.978334228515624,1.0029679536819458,-3.6560637950897217,0.4019295871257782
1789222161029328100,10.988328125,0.5815658569335938,-1.6345404386520386,2.5929114818573
1789222161039322000,10.998322021484375,0.37331464886665344,2.7147655487060547,0.7583852410316467
1789222161049316000,11.008316162109375,0.524541974067688,0.739368200302124,-1.4314777851104736
1789222161059310000,11.01831005859375,0.511091947555542,-2.577340602874756,-0.1709517389535904
1789222161069304300,11.02830419921875,0.17369894683361053,0.6178262829780579,1.015863060951233
1789222161079298000,11.038298095703125,0.3214826285839081,6.158779621124268,-1.4674761295318604
1789222161089292000,11.0482919921875,0.7242146730422974,0.6049609184265137,-1.9171631336212158
1789222161099287000,11.058287109375,0.8484600782394409,-4.086578369140625,0.4283478260040283
1789222161109281000,11.068281005859374,0.46798595786094666,-1.036041021347046,1.7843647003173828
1789222161119275000,11.07827490234375,0.3647235631942749,3.0944015979766846,0.7076123356819153
1789222161129269200,11.088269287109375,0.5322974324226379,0.3496875464916229,-0.564499020576477
1789222161139263200,11.09826318359375,0.5373945236206055,-2.272240161895752,-0.08085019141435623
1789222161149257200,11.10825732421875,0.15597687661647797,0.6443036198616028,1.118841290473938
1789222161159251200,11.118251220703126,0.26363322138786316,5.717226028442383,-1.0499422550201416
1789222161169246200,11.12824609375,0.9861330986022949,1.7499643564224243,-2.0089049339294434
1789222161179240200,11.138240234375,1.317552089691162,-3.1231367588043213,0.8816592693328857
1789222161189234000,11.14823388671875,0.7704000473022461,-0.17237472534179688,1.5368075370788574
1789222161199228200,11.158228271484376,0.49410736560821533,3.0354442596435547,-0.8298039436340332
1789222161209222100,11.16822216796875,0.6714946627616882,-0.6304787397384644,-0.9409850239753723
1789222161219216100,11.178216064453125,0.5218694806098938,-3.345806360244751,1.3556510210037231
1789222161229210000,11.188210205078125,-0.09411169588565826,0.8703541159629822,1.0623230934143066
1789222161239204000,11.1982041015625,-0.23806586861610413,3.4060678482055664,-1.3568661212921143
1789222161249199000,11.20819921875,-0.19705824553966522,0.20608915388584137,-1.2262042760849
1789222161259193000,11.218193115234374,-0.1586482673883438,-2.395073413848877,1.0351569652557373
1789222161269187300,11.228187255859375,-0.11018779128789902,2.3427398204803467,0.01620357856154442
1789222161279181300,11.238181396484375,0.18397493660449982,3.265465021133423,-1.011750340461731
1789222161289175000,11.248175048828125,0.09358271956443787,-0.8338948488235474,0.25972849130630493
1789222161299169000,11.2581689453125,-0.3743990361690521,-2.1263468265533447,1.5824470520019531
1789222161309163000,11.2681630859375,-0.7582955360412598,0.732201099395752,0.51691734790802
1789222161319158000,11.278157958984375,-0.7705111503601074,0.19651590287685394,-1.1110469102859497
1789222161329152000,11.288152099609375,-0.7695127129554749,-2.6963064670562744,-0.8210736513137817
1789222161339146200,11.298146240234376,-0.9198623299598694,-2.4350380897521973,0.5278658270835876
1789222161349140200,11.30814013671875,-0.6524671316146851,2.7418153285980225,-0.4546310007572174
1789222161359134200,11.31813427734375,0.007853236049413681,3.288038969039917,-1.3788070678710938
1789222161369128200,11.328128173828125,-0.051511820405721664,-0.21079927682876587,0.3828251361846924
1789222161379122000,11.338121826171875,-0.7770955562591553,-0.5373733043670654,2.2409050464630127
1789222161389116200,11.3481162109375,-1.3163756132125854,0.4661095142364502,0.8949745297431946
1789222161399111000,11.35811083984375,-1.2783435583114624,-1.1208232641220093,-1.1087819337844849
1789222161409105200,11.368105224609375,-1.2719848155975342,-2.962419271469116,-0.013808155432343483
1789222161419099100,11.37809912109375,-1.4286755323410034,-1.0053637027740479,1.3774170875549316
1789222161429093000,11.388093017578125,-0.9756730794906616,2.2474381923675537,-0.627496600151062
1789222161439087000,11.398087158203126,-0.3689930737018585,1.1166808605194092,-2.156167984008789
1789222161449081000,11.4080810546875,-0.2734401822090149,-1.4318140745162964,0.19194158911705017
1789222161459075300,11.418075439453125,-0.6017160415649414,-0.7524465322494507,1.198900818824768
1789222161469069300,11.4280693359375,-0.5526760816574097,0.9256885051727295,-0.5912075638771057
1789222161479064300,11.438064208984375,-0.6053215861320496,-1.9120229482650757,-0.7217980027198792
1789222161489058000,11.44805810546875,-1.2133593559265137,-2.414161443710327,0.622048020362854
1789222161499052000,11.458052001953124,-1.7572622299194336,-0.21425285935401917,1.6012078523635864
1789222161509046000,11.4680458984375,-1.6515214443206787,0.5732510685920715,0.9683265686035156
1789222161519040000,11.4780400390625,-1.1126002073287964,-0.7594426870346069,-1.0339469909667969
1789222161529034200,11.4880341796875,-0.9808797240257263,-0.5757479667663574,-0.435711532831192
1789222161539028200,11.4980283203125,-0.9325751066207886,1.246156930923462,0.9219120144844055
1789222161549023200,11.508023193359374,0.14108577370643616,3.0045902729034424,-1.0942848920822144
1789222161559017200,11.518017333984375,0.6828973889350891,-0.8309206366539001,-1.836888074874878
1789222161569011200,11.52801123046875,0.1725451946258545,-2.363361358642578,0.5878342390060425
1789222161579005200,11.538005126953125,-0.668825089931488,-1.265358328819275,2.876044511795044
1789222161588999000,11.5479990234375,-1.007910966873169,0.6722109317779541,0.4604153633117676
1789222161598993200,11.5579931640625,-0.9041152596473694,-1.0434012413024902,-1.9029713869094849
1789222161608987100,11.567987060546875,-1.1194230318069458,-1.839150309562683,-0.4436081349849701
1789222161618981000,11.577981201171875,-1.1651297807693481,0.826016366481781,0.5094719529151917
1789222161628976000,11.58797607421875,-0.32397884130477905,3.8052031993865967,-1.8903213739395142
1789222161638970000,11.59797021484375,0.9630607962608337,-1.1529134511947632,-1.3945496082305908
1789222161648964000,11.607964111328124,0.9856225252151489,-2.8736841678619385,2.3070333003997803
1789222161658958000,11.6179580078125,0.25163987278938293,-0.5373400449752808,3.339689016342163
1789222161668952300,11.627952392578125,-0.07765599340200424,-0.4434041976928711,0.24046920239925385
1789222161678946000,11.637946044921875,-0.24381811916828156,-1.6647869348526,-0.8498764038085938
1789222161688940000,11.64793994140625,-0.6475208401679993,-1.5321394205093384,1.6593334674835205
1789222161698935000,11.65793505859375,-0.7943282723426819,2.7468974590301514,-0.28656697273254395
1789222161708929000,11.667928955078125,-0.5700770616531372,4.727182388305664,-3.5155203342437744
1789222161718923000,11.677923095703125,-0.11719250679016113,0.10874281823635101,0.03463885933160782
1789222161728917200,11.687917236328126,0.11574673652648926,-2.7769250869750977,3.065706253051758
1789222161738911200,11.6979111328125,0.37745949625968933,-0.7855589985847473,-0.4142133593559265
1789222161748905200,11.7079052734375,0.5077375769615173,-0.4158933460712433,-1.6811463832855225
1789222161758899200,11.717899169921875,0.41096410155296326,-2.316878080368042,2.1748416423797607
1789222161768893200,11.72789306640625,0.2870829105377197,0.9267027378082275,0.8929339051246643
1789222161778888200,11.73788818359375,0.29342299699783325,3.929995536804199,-3.140929698944092
1789222161788882000,11.7478818359375,0.05385144427418709,-0.44773611426353455,-0.01011393778026104
1789222161798876200,11.757876220703125,-0.7059688568115234,-1.5220849514007568,2.3741390705108643
1789222161808870100,11.7678701171875,-0.9675709009170532,-1.5662074089050293,-0.6686335206031799
1789222161818864000,11.777864013671875,-0.7618471384048462,-2.0101687908172607,-2.3812015056610107
1789222161828858000,11.787858154296876,-0.5064132809638977,-2.726862668991089,1.5744684934616089
1789222161838852000,11.79785205078125,-0.2052518129348755,2.610661506652832,1.2130873203277588
1789222161848847000,11.80784716796875,0.23153245449066162,4.004307746887207,-1.601507544517517
1789222161858841000,11.817841064453125,0.23930123448371887,0.4626271724700928,0.16553114354610443
1789222161868835300,11.82783544921875,-0.271892249584198,-1.3920408487319946,2.879520893096924
1789222161878829300,11.837829345703126,-0.8945161700248718,-0.9441649913787842,1.140384316444397
1789222161888823000,11.847822998046874,-1.0306031703948975,-2.2765696048736572,-1.1153675317764282
1789222161898817000,11.857817138671875,-0.9814056754112244,-2.668872117996216,-0.259995698928833
1789222161908811000,11.86781103515625,-0.7159023880958557,0.5083258152008057,0.9833604097366333
1789222161918805200,11.87780517578125,-0.2356179654598236,3.3369429111480713,-0.7854113578796387
1789222161928800000,11.887800048828124,0.0963921993970871,1.8153274059295654,-1.5819721221923828
1789222161938794200,11.897794189453125,0.17096899449825287,-1.5668443441390991,1.4626219272613525
1789222161948788200,11.907788330078125,-0.17614048719406128,-1.1873668432235718,1.3461374044418335
1789222161958782200,11.9177822265625,-0.092047318816185,-1.5260951519012451,-1.777852177619934
1789222161968776200,11.927776123046876,0.04823017120361328,-3.2112159729003906,-1.4170575141906738
1789222161978770000,11.93777001953125,-0.20073409378528595,-1.36648690700531,1.3285261392593384
1789222161988764200,11.94776416015625,-0.4593571126461029,4.985991954803467,-0.017511624842882156
1789222161998758700,11.957758544921875,-0.41020259261131287,2.114126205444336,-0.7305718660354614
1789222162008752600,11.967752685546875,-0.5008105039596558,-3.166970729827881,2.268261432647705
1789222162018746600,11.97774658203125,-1.0528197288513184,-2.536996841430664,2.1327030658721924
1789222162028740600,11.98774072265625,-0.8566864132881165,-2.0906357765197754,-0.87465900182724
1789222162038734600,11.997734619140624,-0.7147616147994995,-1.6250032186508179,-0.9163973927497864
1789222162048728800,12.007728759765625,-0.6970734596252441,0.24888822436332703,1.6336264610290527
1789222162058722800,12.017722900390625,-0.19698207080364227,4.392619609832764,-0.907015323638916
1789222162068717800,12.0277177734375,0.09850817173719406,2.298506021499634,-3.3088369369506836
1789222162078711600,12.037711669921874,0.16745127737522125,-2.6413192749023438,0.5528063178062439
1789222162088705500,12.04770556640625,-0.31827571988105774,-2.2587101459503174,1.9692976474761963
1789222162098699500,12.057699462890625,-0.41543668508529663,-0.22917181253433228,-1.5005378723144531
1789222162108693500,12.067693603515625,-0.3932640254497528,-2.580498695373535,-1.4417661428451538
1789222162118687700,12.077687744140626,-0.8411899209022522,-2.423861503601074,1.518585443496704
1789222162128681700,12.087681640625,-1.0958198308944702,-0.1995210498571396,1.8962777853012085
1789222162138675700,12.09767578125,-0.7843058705329895,0.9468129277229309,-0.5545547604560852
1789222162148670700,12.107670654296875,-0.4606167674064636,0.2230192869901657,-0.4606735110282898
1789222162158664700,12.117664794921875,-0.4804656505584717,0.5786454081535339,1.1507025957107544
1789222162168658700,12.12765869140625,-0.34391260147094727,1.021449327468872,-0.05820956826210022
1789222162178652400,12.13765234375,0.47447463870048523,-0.5089248418807983,-2.167219877243042
1789222162188646700,12.147646728515625,1.0065926313400269,-3.0522897243499756,-0.8363893628120422
1789222162198640600,12.157640625,0.5241784453392029,-0.8750007152557373,0.33864134550094604
1789222162208634600,12.167634521484375,-0.022252973169088364,1.3508602380752563,0.7550889253616333
1789222162218629600,12.177629638671876,-0.19358494877815247,-0.008057503961026669,0.7674894332885742
1789222162228623600,12.18762353515625,-0.28986939787864685,-1.3588833808898926,-0.03971628099679947
1789222162238617600,12.19761767578125,-0.5354121327400208,0.1155543252825737,0.2502504587173462
1789222162248611600,12.207611572265625,-0.3672471344470978,1.416641116142273,0.5306724905967712
1789222162258605800,12.217605712890625,0.4307115972042084,0.15828612446784973,-1.2222681045532227
1789222162268599600,12.227599609375,1.2509915828704834,-1.9036927223205566,-1.3696038722991943
1789222162278593500,12.237593505859374,1.3443703651428223,-1.1161386966705322,1.2825636863708496
1789222162288588500,12.247588623046875,1.046566128730774,2.024409055709839,1.5359171628952026
1789222162298582500,12.25758251953125,0.7984123826026917,1.983500599861145,-0.7164337038993835
1789222162308576500,12.267576416015626,0.5369927883148193,-0.970686674118042,-1.0184358358383179
1789222162318570500,12.277570556640624,0.13114266097545624,-1.7462728023529053,0.7483102679252625
1789222162328564700,12.287564697265625,-0.21476814150810242,0.6856710314750671,0.6426674723625183
1789222162338558700,12.297558837890625,0.04327473044395447,1.0720865726470947,-0.9939072132110596
1789222162348552700,12.307552734375,0.7912120819091797,-1.4673848152160645,-0.8045138120651245
1789222162358546700,12.317546630859376,1.275507926940918,-1.6957969665527344,1.00083589553833
1789222162368541700,12.327541748046874,1.4264793395996094,3.3153297901153564,0.057854026556015015
1789222162378535400,12.337535400390625,1.704197883605957,2.962782621383667,-1.4017773866653442
1789222162388529700,12.34752978515625,1.8148401975631714,-1.428534984588623,-0.1923861801624298
1789222162398523600,12.357523681640625,1.2210206985473633,-1.459803819656372,2.0650126934051514
1789222162408517600,12.367517578125,0.5132007598876953,2.090829849243164,1.6695066690444946
1789222162418511600,12.37751171875,0.3131140470504761,2.8356056213378906,-1.279697299003601
1789222162428505600,12.387505615234375,0.4852954149246216,-2.1341874599456787,-0.8002305626869202
1789222162438500600,12.39750048828125,0.44491326808929443,-2.855499267578125,0.852893054485321
1789222162448494600,12.40749462890625,0.868081271648407,4.985904216766357,-1.879382848739624
1789222162458488600,12.417488525390626,1.5772424936294556,1.6575425863265991,-2.357814311981201
1789222162468482800,12.42748291015625,1.7680808305740356,-3.4354307651519775,0.5722157955169678
1789222162478476500,12.4374765625,1.050404667854309,-1.260714054107666,3.4623146057128906
1789222162488470500,12.447470458984375,0.6935996413230896,6.491185665130615,0.5632625818252563
1789222162498464500,12.457464599609375,0.6091234087944031,2.5571422576904297,-1.545181393623352
1789222162508459500,12.46745947265625,0.3861166834831238,-4.627737045288086,0.8457345366477966
1789222162518453500,12.47745361328125,-0.30042946338653564,-3.624842882156372,1.4870191812515259
1789222162528447700,12.48744775390625,-0.2540004551410675,4.573053359985352,-2.2291035652160645
