time,seconds_elapsed,z,y,x
1789223138090799900,0.0417998046875,-0.04621623083949089,0.6798533797264099,-0.022250976413488388
1789223138100793900,0.0517939453125,0.10623536258935928,-0.42306816577911377,-0.40083369612693787
1789223138110787600,0.06178759765625,0.39826589822769165,-1.0181258916854858,-0.7290360927581787
1789223138120781600,0.071781494140625,0.6056758165359497,-0.45172566175460815,-0.6875621676445007
1789223138130775800,0.08177587890625,0.7478630542755127,0.037689320743083954,-0.519206702709198
1789223138140769800,0.091769775390625,0.794768750667572,-0.005982258822768927,-0.3128995895385742
1789223138150763800,0.101763671875,0.5929269790649414,0.16899754106998444,0.16543130576610565
1789223138160757800,0.1117578125,0.24656663835048676,0.7691853642463684,0.36518195271492004
1789223138170751700,0.121751708984375,-0.02520761825144291,0.807320237159729,0.49865055084228516
1789223138180744700,0.13174462890625,-0.06734974682331085,0.29547345638275146,0.47728878259658813
1789223138190738700,0.14173876953125,0.0949115976691246,-0.10508407652378082,0.34252700209617615
1789223138200732700,0.151732666015625,0.3354237973690033,0.10769210755825043,-0.09189131110906601
1789223138210726700,0.1617265625,0.574358344078064,-0.00472444761544466,-0.30487069487571716
1789223138220720600,0.171720703125,0.7138219475746155,-0.4126903712749481,-0.3157166838645935
1789223138230715000,0.18171484375,0.6725221872329712,-0.17056907713413239,-0.4168137311935425
1789223138240708900,0.191708984375,0.46580177545547485,0.3914412558078766,-0.3360677659511566
1789223138250702600,0.20170263671875,0.22572900354862213,0.5856951475143433,-0.3114739954471588
1789223138260696600,0.211696533203125,0.015915583819150925,0.36339977383613586,0.019717246294021606
1789223138270690600,0.221690673828125,-0.032105207443237305,0.10222330689430237,0.39019012451171875
1789223138280683800,0.231683837890625,0.07080146670341492,0.2054722011089325,0.5667025446891785
1789223138290677800,0.241677734375,0.25940173864364624,0.41983428597450256,0.4009804427623749
1789223138300671700,0.251671630859375,0.3841141164302826,0.2590281069278717,0.17848052084445953
1789223138310665700,0.261665771484375,0.3663915693759918,-0.038175880908966064,-0.10107202082872391
1789223138320659700,0.27165966796875,0.2921474277973175,-0.034208569675683975,-0.4683360457420349
1789223138330653700,0.28165380859375,0.26626551151275635,-0.056724000722169876,-0.4916112720966339
1789223138340647700,0.291647705078125,0.30489784479141235,-0.08211031556129456,-0.4642438292503357
1789223138350641700,0.3016416015625,0.340340793132782,0.14345809817314148,-0.24684228003025055
1789223138360635600,0.3116357421875,0.31215789914131165,0.6112106442451477,0.15248221158981323
1789223138370630000,0.3216298828125,0.2850503921508789,0.6658118367195129,0.3691815137863159
1789223138380624000,0.331623779296875,0.24495036900043488,0.300287127494812,0.39444103837013245
1789223138390616600,0.341616455078125,0.17664827406406403,0.10161184519529343,0.21264062821865082
1789223138400610600,0.351610595703125,0.13796000182628632,0.16402648389339447,0.10169973224401474
1789223138410604800,0.361604736328125,0.18625189363956451,0.13794641196727753,-0.07810678333044052
1789223138420598800,0.371598876953125,0.3211604356765747,0.14200401306152344,-0.41479238867759705
1789223138430592800,0.3815927734375,0.4028302729129791,0.2540876567363739,-0.2895716428756714
1789223138440586800,0.391586669921875,0.4849690794944763,0.13577593863010406,-0.35451334714889526
1789223138450580700,0.401580810546875,0.5782172679901123,-0.1744101494550705,-0.23668816685676575
1789223138460574700,0.41157470703125,0.660653293132782,-0.10682498663663864,0.04639945551753044
1789223138470568700,0.421568603515625,0.646379292011261,0.5225630402565002,0.29672273993492126
1789223138480562700,0.431562744140625,0.462836354970932,1.4948203563690186,0.4208873212337494
1789223138490555600,0.4415556640625,0.16496790945529938,1.966108798980713,0.4816382825374603
1789223138500550000,0.4515498046875,-0.09022630006074905,0.9307710528373718,0.6328927874565125
1789223138510544000,0.4615439453125,-0.24320439994335175,-0.5692197680473328,0.44837191700935364
1789223138520537900,0.471537841796875,-0.24337376654148102,-1.0661389827728271,0.01780136674642563
1789223138530531600,0.481531494140625,0.03209242224693298,-1.0539652109146118,-0.47487303614616394
1789223138540525600,0.491525634765625,0.4434424042701721,-0.9529863595962524,-0.9875928163528442
1789223138550519800,0.501519775390625,0.5934044718742371,0.1020432785153389,-0.9517165422439575
1789223138560513800,0.511513671875,0.38560760021209717,1.5373164415359497,-0.32241693139076233
1789223138570507800,0.5215078125,0.07388780266046524,1.331974983215332,0.33474016189575195
1789223138580501800,0.531501708984375,-0.2651650905609131,-0.18561114370822906,0.8382903933525085
1789223138590495700,0.541495849609375,-0.6841855049133301,-0.7412091493606567,1.1383391618728638
1789223138600488700,0.55148876953125,-0.9220539927482605,-0.5492676496505737,0.9532343149185181
1789223138610482700,0.561482666015625,-0.8506432175636292,-0.40886181592941284,0.448343425989151
1789223138620476700,0.5714765625,-0.6369144320487976,0.16498762369155884,-0.12969034910202026
1789223138630470700,0.581470703125,-0.3675977289676666,0.6447635293006897,-0.7837120890617371
1789223138640465000,0.59146484375,-0.06665146350860596,-0.18760797381401062,-1.0594643354415894
1789223138650459000,0.601458984375,0.15840747952461243,-1.204674243927002,-0.9690585136413574
1789223138660452900,0.611452880859375,0.23070058226585388,-1.1130952835083008,-0.5016260743141174
1789223138670446600,0.621446533203125,0.18150295317173004,-0.038708511739969254,-0.037825942039489746
1789223138680440600,0.631440673828125,0.004969192203134298,1.1603840589523315,0.349675714969635
1789223138690434800,0.641434814453125,-0.34404659271240234,1.8115249872207642,0.912676990032196
1789223138700427800,0.651427734375,-0.6155129671096802,1.2290533781051636,0.9658923149108887
1789223138710421800,0.661421875,-0.6407768130302429,-0.2590145170688629,0.704443633556366
1789223138720415700,0.671415771484375,-0.4043187201023102,-1.3171648979187012,0.1629045009613037
1789223138730409700,0.68140966796875,-0.024177774786949158,-1.1959580183029175,-0.6389522552490234
1789223138740403700,0.69140380859375,0.3077666163444519,-0.9006789326667786,-0.6355314254760742
1789223138750397700,0.701397705078125,0.425399512052536,-0.1563722938299179,-0.43892064690589905
1789223138760391700,0.7113916015625,0.31736305356025696,0.8433794379234314,-0.5073763728141785
1789223138770385700,0.7213857421875,0.02882232703268528,0.8798077702522278,-0.1714085042476654
1789223138780379600,0.731379638671875,-0.3437325954437256,0.42685943841934204,0.08357106149196625
1789223138790374000,0.741373779296875,-0.5733790993690491,-0.19306692481040955,0.4099174737930298
1789223138800367900,0.751367919921875,-0.5010199546813965,-0.5883801579475403,0.5942662954330444
1789223138810360600,0.761360595703125,-0.12761788070201874,-0.5026050806045532,0.4063464403152466
1789223138820354800,0.771354736328125,0.2673361003398895,0.07622792571783066,0.13391359150409698
1789223138830348800,0.781348876953125,0.5006148815155029,0.39985260367393494,-0.17799024283885956
1789223138840342800,0.7913427734375,0.4849192798137665,0.2730807960033417,-0.40346837043762207
1789223138850336800,0.801336669921875,0.24503877758979797,0.13660258054733276,-0.4087528884410858
1789223138860330800,0.811330810546875,0.0012903015594929457,-0.09007290005683899,-0.37110403180122375
1789223138870324700,0.82132470703125,-0.07854753732681274,-0.4312856197357178,-0.18958750367164612
1789223138880318700,0.831318603515625,-0.040347423404455185,-0.3016306757926941,0.12790895998477936
1789223138890312700,0.841312744140625,0.09269984066486359,0.29700157046318054,0.1137729063630104
1789223138900306700,0.851306640625,0.2861023247241974,0.30871203541755676,0.29380232095718384
1789223138910300700,0.86130078125,0.3402334749698639,0.11052544414997101,0.5050626397132874
1789223138920294400,0.87129443359375,0.27667874097824097,0.11164530366659164,0.21482761204242706
1789223138930288000,0.8812880859375,0.16883376240730286,0.09321116656064987,-0.03658277913928032
1789223138940282000,0.8912822265625,0.11909496784210205,-0.029954437166452408,-0.31865841150283813
1789223138950276000,0.901276123046875,0.1590043008327484,-0.05229036882519722,-0.5767650604248047
1789223138960270000,0.91127001953125,0.34206119179725647,-0.20539017021656036,-0.35579031705856323
1789223138970264300,0.921264404296875,0.5778194069862366,-0.05168689787387848,-0.15989671647548676
1789223138980258300,0.93125830078125,0.6725711822509766,0.5000985264778137,0.09356323629617691
1789223138990252300,0.941252197265625,0.624870777130127,0.6346943974494934,0.5655733942985535
1789223139000246300,0.951246337890625,0.4528582990169525,0.5445621013641357,0.6388899683952332
1789223139010240000,0.961239990234375,0.1869397908449173,0.5882808566093445,0.48333391547203064
1789223139020234000,0.97123388671875,0.01973162591457367,0.28777238726615906,0.299877792596817
1789223139030227200,0.981227294921875,0.08229833841323853,-0.2532927095890045,-0.12750203907489777
1789223139040221200,0.99122119140625,0.3555498421192169,-0.27684491872787476,-0.6418841481208801
1789223139050215200,1.001215087890625,0.7924310564994812,0.03147882968187332,-0.8396691083908081
1789223139060209200,1.011209228515625,1.1447582244873047,0.38413143157958984,-0.6840412020683289
1789223139070203400,1.021203369140625,1.1935163736343384,0.5841723680496216,-0.062198393046855927
1789223139080197000,1.031197021484375,0.971630871295929,0.787441074848175,0.42413049936294556
1789223139090191000,1.041191162109375,0.5941488146781921,0.9712468385696411,0.6198810935020447
1789223139100185000,1.05118505859375,0.22272361814975739,0.8329172134399414,0.6963939666748047
1789223139110179000,1.061178955078125,-0.006306099239736795,0.5806612372398376,0.29258444905281067
1789223139120173300,1.07117333984375,0.0586145780980587,0.3304831087589264,-0.24370640516281128
1789223139130167300,1.081167236328125,0.4461385905742645,0.03411669284105301,-0.44407331943511963
1789223139140160000,1.091159912109375,0.9739222526550293,0.06775374710559845,-0.6200296878814697
1789223139150154200,1.101154296875,1.3461192846298218,0.35434475541114807,-0.5320265889167786
1789223139160148200,1.111148193359375,1.3758279085159302,0.6760293245315552,-0.04295625537633896
1789223139170142200,1.12114208984375,1.0121690034866333,1.2214215993881226,0.39503014087677
1789223139180136200,1.13113623046875,0.4957439601421356,1.3631703853607178,0.37594565749168396
1789223139190130200,1.141130126953125,0.036367859691381454,0.7456222772598267,0.5299234986305237
1789223139200124200,1.151124267578125,-0.187654048204422,0.20864641666412354,0.4098500907421112
1789223139210118400,1.161118408203125,-0.05325603112578392,0.1579992175102234,0.04452166333794594
1789223139220112100,1.171112060546875,0.3578769266605377,0.2582424581050873,-0.16065466403961182
1789223139230106000,1.181106201171875,0.7437534928321838,0.5619096755981445,-0.3420841097831726
1789223139240100000,1.19110009765625,0.7942723631858826,0.9300317764282227,-0.14859560132026672
1789223139250093300,1.20109326171875,0.4691709578037262,1.1404715776443481,0.09897132217884064
1789223139260087300,1.21108740234375,-0.08633382618427277,0.8283727765083313,0.19109538197517395
1789223139270081300,1.221081298828125,-0.7081361413002014,0.2618257403373718,0.36646267771720886
1789223139280075300,1.2310751953125,-1.2104543447494507,0.1554793417453766,0.4395557940006256
1789223139290069000,1.241069091796875,-1.4038670063018799,0.2123175859451294,0.3432393968105316
1789223139300063200,1.251063232421875,-1.2497186660766602,0.05708938464522362,0.14596253633499146
1789223139310057200,1.26105712890625,-0.9116535782814026,-0.16011936962604523,-0.10480763763189316
1789223139320051200,1.27105126953125,-0.6434716582298279,-0.16520680487155914,-0.30825182795524597
1789223139330045200,1.281045166015625,-0.6221562623977661,0.14219708740711212,-0.35769715905189514
1789223139340039200,1.2910390625,-0.7962079048156738,0.049739327281713486,-0.3180557191371918
1789223139350033400,1.301033447265625,-1.083465814590454,-0.48275893926620483,-0.011022291146218777
1789223139360026000,1.311026123046875,-1.4127110242843628,-0.4498625099658966,0.25619104504585266
1789223139370020000,1.32102001953125,-1.600599765777588,0.04164278507232666,0.29897552728652954
1789223139380014000,1.33101416015625,-1.5651698112487793,0.018501779064536095,0.29516348242759705
1789223139390008300,1.34100830078125,-1.428736686706543,-0.38034093379974365,0.23873400688171387
1789223139400002300,1.351002197265625,-1.3140430450439453,-0.4936661720275879,0.3263200521469116
1789223139409996300,1.360996337890625,-1.2201474905014038,0.027342408895492554,0.011376758106052876
1789223139419990300,1.370990234375,-1.0985246896743774,-0.01840883493423462,-0.4101286828517914
1789223139429984000,1.38098388671875,-1.1107072830200195,-0.5685276389122009,-0.44147035479545593
1789223139439978200,1.390978271484375,-1.3039507865905762,-0.6800469756126404,-0.2584906816482544
1789223139449972200,1.40097216796875,-1.4899011850357056,-0.6526046991348267,0.023722905665636063
1789223139459965200,1.410965087890625,-1.5464776754379272,-0.5745125412940979,0.12355975806713104
1789223139469959200,1.420959228515625,-1.5271329879760742,-0.17422905564308167,0.10044164955615997
1789223139479953400,1.430953369140625,-1.4375019073486328,-0.004999019671231508,0.41799432039260864
1789223139489947100,1.440947021484375,-1.2567167282104492,-0.3642655611038208,0.6341441869735718
1789223139499941000,1.450941162109375,-1.0004220008850098,-0.9491223692893982,0.46313968300819397
1789223139509935000,1.46093505859375,-0.7921993136405945,-1.1262651681900024,0.17768317461013794
1789223139519929000,1.47092919921875,-0.6235150098800659,-0.8736899495124817,-0.23883920907974243
1789223139529923300,1.48092333984375,-0.42002683877944946,-0.975658655166626,-0.5899229049682617
1789223139539917300,1.490917236328125,-0.3640187084674835,-0.8986791968345642,-0.4457537829875946
1789223139549911300,1.500911376953125,-0.5084791779518127,-0.18912038207054138,-0.11288180947303772
1789223139559905300,1.5109052734375,-0.6256130337715149,0.1348867118358612,0.2935333549976349
1789223139569899000,1.52089892578125,-0.5701388716697693,-0.23561225831508636,0.6366616487503052
1789223139579892200,1.530892333984375,-0.48930710554122925,-0.18434853851795197,0.7034958600997925
1789223139589886200,1.54088623046875,-0.4367317855358124,0.2452760636806488,0.5119380950927734
1789223139599880200,1.550880126953125,-0.2837422490119934,-0.016027968376874924,0.10734110325574875
1789223139609874200,1.560874267578125,-0.017431454733014107,-0.9873520731925964,-0.2631133794784546
1789223139619868200,1.5708681640625,0.14494839310646057,-1.33585786819458,-0.5141139030456543
1789223139629862400,1.5808623046875,0.12572810053825378,-0.9271044135093689,-0.4021887183189392
1789223139639856000,1.590856201171875,0.0018378474051132798,-0.39987364411354065,0.04021426662802696
1789223139649850000,1.60085009765625,-0.12781254947185516,0.10674402117729187,0.2601871192455292
1789223139659844000,1.610843994140625,-0.22073744237422943,0.3014128506183624,0.4050292372703552
1789223139669838000,1.620838134765625,-0.2420206218957901,0.05939541757106781,0.41709816455841064
1789223139679832300,1.630832275390625,-0.09725970774888992,-0.6797934174537659,0.29611581563949585
1789223139689825300,1.6408251953125,0.12782347202301025,-1.1481760740280151,0.19852960109710693
1789223139699819000,1.650819091796875,0.35138624906539917,-0.8494314551353455,-0.1161031723022461
1789223139709813000,1.66081298828125,0.5345787405967712,-0.5299754738807678,-0.2063760757446289
1789223139719807200,1.67080712890625,0.59400475025177,-0.24083098769187927,-0.0981350913643837
1789223139729801200,1.68080126953125,0.5307381749153137,0.2977198362350464,-0.13284832239151
1789223139739795200,1.690795166015625,0.470342218875885,0.30883029103279114,-0.02851286716759205
1789223139749789200,1.7007890625,0.42220398783683777,-0.12996359169483185,0.1383054107427597
1789223139759783200,1.710783203125,0.35097721219062805,-0.17802779376506805,0.25575774908065796
1789223139769777400,1.72077734375,0.4053317904472351,-0.03326474502682686,0.1785215437412262
1789223139779771100,1.730771240234375,0.6216989755630493,-0.060262273997068405,0.022776152938604355
1789223139789765000,1.74076513671875,0.8853495121002197,-0.09002629667520523,-0.16029833257198334
1789223139799758000,1.750758056640625,1.0682754516601562,0.03357340767979622,-0.39724457263946533
1789223139809752300,1.76075244140625,1.105755090713501,0.013560815714299679,-0.23415763676166534
1789223139819746300,1.770746337890625,0.976479709148407,0.09973085671663284,0.041552502661943436
1789223139829740300,1.780740234375,0.8335102796554565,0.19178354740142822,0.09204976260662079
1789223139839734000,1.790734130859375,0.6792091131210327,0.4243701994419098,0.36195555329322815
1789223139849728000,1.80072802734375,0.572636067867279,0.7605745792388916,0.3880143165588379
1789223139859722200,1.81072216796875,0.5669145584106445,0.5597706437110901,0.06409722566604614
1789223139869716200,1.82071630859375,0.5910875201225281,0.024535169824957848,0.03175792843103409
1789223139879710200,1.830710205078125,0.6312637329101562,-0.05242246016860008,-0.2846202850341797
1789223139889704200,1.8407041015625,0.7660433650016785,-0.18274877965450287,-0.6245443224906921
1789223139899698200,1.8506982421875,0.9041581153869629,-0.47098881006240845,-0.4359847605228424
1789223139909692200,1.860692138671875,0.9254381060600281,-0.23749564588069916,-0.23987305164337158
1789223139919684400,1.870684326171875,0.810236930847168,0.15980537235736847,0.17506635189056396
1789223139929678000,1.880677978515625,0.6021409630775452,0.603710412979126,0.3052443265914917
1789223139939672300,1.89067236328125,0.37684953212738037,0.7722991108894348,0.26680079102516174
1789223139949666300,1.900666259765625,0.24148958921432495,0.2702360153198242,0.4516385495662689
1789223139959660300,1.910660400390625,0.2959975600242615,-0.3751693665981293,0.329132616519928
1789223139969654300,1.920654296875,0.5284039378166199,-0.3938620686531067,-0.26225826144218445
1789223139979648300,1.930648193359375,0.8252659440040588,0.1341937631368637,-0.7200173139572144
1789223139989642500,1.940642578125,0.9824470281600952,0.7206002473831177,-0.7988181114196777
1789223139999636500,1.950636474609375,0.8581205606460571,1.110082983970642,-0.4642997682094574
1789223140009630200,1.960630126953125,0.49382808804512024,0.9549784064292908,0.32026615738868713
1789223140019624200,1.970624267578125,0.02394741028547287,0.7020934224128723,0.910354733467102
1789223140029617400,1.980617431640625,-0.35141023993492126,0.6275198459625244,0.8689931631088257
1789223140039611400,1.990611328125,-0.5133962035179138,0.47622060775756836,0.5394403338432312
1789223140049605400,2.00060546875,-0.45980915427207947,0.17446981370449066,0.01182337012141943
1789223140059599400,2.010599365234375,-0.18974356353282928,-0.2642612159252167,-0.3430289924144745
1789223140069593300,2.02059326171875,0.1881861537694931,-0.582649827003479,-0.4557446241378784
1789223140079587300,2.03058740234375,0.47886937856674194,-0.4104152321815491,-0.6198539137840271
1789223140089581300,2.040581298828125,0.46797651052474976,0.10018838942050934,-0.3917965292930603
1789223140099575300,2.0505751953125,0.1449987292289734,0.44426319003105164,0.2192239612340927
1789223140109569300,2.0605693359375,-0.32654669880867004,0.6238294839859009,0.381133496761322
1789223140119563300,2.070563232421875,-0.7401936650276184,0.559410572052002,0.18744845688343048
1789223140129557200,2.08055712890625,-0.9225379228591919,0.09105587750673294,0.2471594512462616
1789223140139551500,2.090551513671875,-0.7923412919044495,-0.3421112596988678,0.17170731723308563
1789223140149544200,2.100544189453125,-0.4203115403652191,-0.42542213201522827,-0.20316563546657562
1789223140159538200,2.1105380859375,-0.030599454417824745,-0.2004534751176834,-0.36894047260284424
1789223140169532400,2.120532470703125,0.175811767578125,0.030777886509895325,-0.18554934859275818
1789223140179526400,2.1305263671875,0.07044807076454163,0.09983152151107788,0.1189705953001976
1789223140189520400,2.140520263671875,-0.3566209673881531,0.3230465054512024,0.09495687484741211
1789223140199514400,2.150514404296875,-0.9303657412528992,0.5211622714996338,0.07170774042606354
1789223140209508400,2.16050830078125,-1.2612971067428589,-0.021455224603414536,0.14524587988853455
1789223140219502300,2.17050244140625,-1.0973308086395264,-1.026540756225586,0.02328667975962162
1789223140229496300,2.180496337890625,-0.5417404770851135,-1.3934763669967651,-0.09377922117710114
1789223140239490300,2.190490234375,-0.04351498559117317,-0.4967051148414612,-0.02780446596443653
1789223140249484300,2.200484375,0.10754536837339401,0.6124184131622314,-0.01715155690908432
1789223140259478300,2.210478271484375,-0.11447011679410934,0.9602477550506592,-0.16634076833724976
1789223140269471500,2.220471435546875,-0.5279794335365295,0.2700751721858978,-0.13302010297775269
1789223140279465500,2.230465576171875,-0.869044303894043,-0.824577271938324,0.10280760377645493
1789223140289459200,2.240459228515625,-0.9247525930404663,-1.472003698348999,0.3197503089904785
1789223140299453200,2.250453125,-0.6887562870979309,-0.9086713790893555,0.256133496761322
1789223140309447200,2.260447265625,-0.31498536467552185,0.3076536953449249,0.12202230840921402
1789223140319441400,2.27044140625,-0.012799951247870922,0.8548121452331543,0.008531969040632248
1789223140329435400,2.280435302734375,0.04993639886379242,0.5389569401741028,-0.07398900389671326
1789223140339429400,2.290429443359375,-0.05970194563269615,-0.25723445415496826,-0.1743832528591156
1789223140349423400,2.30042333984375,-0.09072351455688477,-1.3370975255966187,-0.2205560803413391
1789223140359417300,2.310417236328125,-0.036672260612249374,-1.4440215826034546,-0.25906458497047424
1789223140369411300,2.320411376953125,-0.009272860363125801,-0.14058534801006317,-0.11317582428455353
1789223140379405300,2.3304052734375,0.0006018743733875453,1.0484458208084106,0.28596624732017517
1789223140389399300,2.3403994140625,0.021016068756580353,1.0310169458389282,0.717371940612793
1789223140399392300,2.350392333984375,0.043423108756542206,0.30727285146713257,0.6024746894836426
1789223140409386500,2.360386474609375,0.1429411768913269,-0.5305647850036621,-0.15606842935085297
1789223140419380500,2.37038037109375,0.32317060232162476,-1.2930728197097778,-0.5789626836776733
1789223140429374200,2.380374267578125,0.4657365381717682,-1.105514645576477,-0.6110591292381287
1789223140439368200,2.3903681640625,0.5446262955665588,0.09341836720705032,-0.49027037620544434
1789223140449362200,2.400362060546875,0.5240762829780579,1.0182745456695557,0.021348165348172188
1789223140459356400,2.4103564453125,0.3831348717212677,0.9898229241371155,0.40172532200813293
1789223140469350400,2.420350341796875,0.07757974416017532,0.4841189980506897,0.5464609265327454
1789223140479344400,2.430344482421875,-0.20419228076934814,-0.2715492248535156,0.5120976567268372
1789223140489338400,2.44033837890625,-0.23674276471138,-0.9403355717658997,0.058881159871816635
1789223140499332400,2.450332275390625,-0.020070647820830345,-1.0805832147598267,-0.457269549369812
1789223140509326300,2.460326416015625,0.28117841482162476,-0.48763516545295715,-0.6139065623283386
1789223140519319300,2.4703193359375,0.4870988130569458,0.27050766348838806,-0.49023309350013733
1789223140529313300,2.480313232421875,0.5184588432312012,0.43486276268959045,-0.165739968419075
1789223140539307300,2.490307373046875,0.3482924699783325,0.08328690379858017,0.1326664388179779
1789223140549301500,2.500301513671875,0.028671059757471085,-0.26836541295051575,0.3136138617992401
1789223140559295500,2.51029541015625,-0.24942606687545776,-0.6021713614463806,0.4733220040798187
1789223140569289200,2.520289306640625,-0.3416247069835663,-0.5417865514755249,0.3790335953235626
1789223140579283200,2.530283203125,-0.2194410115480423,-0.00583818182349205,0.02520468831062317
1789223140589277200,2.540277099609375,-0.02628939412534237,0.43980827927589417,-0.0689561665058136
1789223140599271400,2.550271484375,0.1214209720492363,0.4482978880405426,-0.13533279299736023
1789223140609265400,2.560265380859375,0.15075062215328217,0.07637759298086166,-0.20845600962638855
1789223140619259400,2.57025927734375,0.1303473562002182,-0.6013777256011963,-0.08025728911161423
1789223140629253400,2.58025341796875,-0.013972008600831032,-0.7301322221755981,0.021025655791163445
1789223140639246300,2.590246337890625,-0.1624070256948471,-0.351579874753952,0.13697463274002075
1789223140649240300,2.600240234375,-0.12258557230234146,0.7092328071594238,0.14558570086956024
1789223140659234300,2.610234375,-0.07876352220773697,0.7343522906303406,0.11533617973327637
1789223140669228300,2.620228271484375,-0.06106654927134514,-0.1680811494588852,0.011926434002816677
1789223140679222300,2.63022216796875,-0.020171847194433212,-0.7356817126274109,-0.059491291642189026
1789223140689216300,2.64021630859375,0.1489655077457428,-0.10772086679935455,0.020868264138698578
1789223140699210500,2.65021044921875,0.27328160405158997,0.5921855568885803,0.025404958054423332
1789223140709204500,2.66020458984375,0.2894728183746338,0.2799741327762604,-0.05775544047355652
1789223140719198200,2.6701982421875,0.1439393311738968,-0.5120726227760315,0.03226073458790779
1789223140729192200,2.680192138671875,-0.027466777712106705,-0.6808078289031982,0.033003754913806915
1789223140739186200,2.690186279296875,-0.06466741114854813,0.04529291391372681,-0.017886854708194733
1789223140749180400,2.700180419921875,0.012895292602479458,0.4614621698856354,-0.07507611066102982
1789223140759174400,2.71017431640625,0.15969352424144745,-0.2822069227695465,-0.02099769376218319
1789223140769167400,2.72016748046875,0.24400973320007324,-0.740304708480835,-0.10085950046777725
1789223140779161000,2.7301611328125,0.28550630807876587,-0.2618933916091919,-0.1503298431634903
1789223140789155300,2.7401552734375,0.2974071800708771,0.5376676917076111,-0.03827308490872383
1789223140799149300,2.7501494140625,0.24751313030719757,0.014525413513183594,0.07062596827745438
1789223140809143300,2.760143310546875,0.04501514509320259,-0.30926063656806946,0.34606820344924927
1789223140819137300,2.77013720703125,-0.10282198339700699,-0.333989679813385,0.5514757037162781
1789223140829131300,2.78013134765625,0.002977946773171425,-0.10902315378189087,0.05983137711882591
1789223140839125500,2.79012548828125,0.22067858278751373,0.09901952743530273,-0.45531585812568665
1789223140849119500,2.800119384765625,0.3975910246372223,0.10041368752717972,-0.6833165287971497
1789223140859113200,2.81011328125,0.5415889620780945,-0.4179735481739044,-0.39166444540023804
1789223140869107200,2.820107177734375,0.5443440079689026,-0.6728090047836304,-0.010034258477389812
1789223140879101200,2.83010107421875,0.304995596408844,0.17684002220630646,0.1160573661327362
1789223140889095400,2.840095458984375,0.04572594165802002,0.8227002620697021,0.32792407274246216
1789223140899088400,2.85008837890625,-0.0997052863240242,0.6471635699272156,0.4245198667049408
1789223140909082400,2.860082275390625,-0.04842159524559975,0.02701430767774582,0.11166607588529587
1789223140919076900,2.870076904296875,0.1083001047372818,-0.34029605984687805,-0.03148388862609863
1789223140929070800,2.88007080078125,0.33961668610572815,-0.3002399802207947,-0.2650465667247772
1789223140939065000,2.890065185546875,0.5233169794082642,0.013312609866261482,-0.49274179339408875
1789223140949059000,2.90005908203125,0.49423661828041077,0.5032759308815002,-0.3090182840824127
1789223140959053000,2.910052978515625,0.33279234170913696,0.5147911906242371,-0.02345978654921055
1789223140969047000,2.920047119140625,0.14912822842597961,-0.05759458616375923,0.24117693305015564
1789223140979041000,2.930041015625,-0.07121266424655914,-0.06625518947839737,0.21053433418273926
1789223140989035000,2.940034912109375,-0.23605114221572876,0.28883472084999084,0.18546412885189056
1789223140999029000,2.950029052734375,-0.19448000192642212,0.13184964656829834,0.20383702218532562
1789223141009023000,2.96002294921875,0.07586413621902466,-0.15390487015247345,-0.12252271920442581
1789223141019017000,2.970016845703125,0.2559393644332886,0.19374017417430878,-0.2567673325538635
1789223141029010200,2.98001025390625,0.19577403366565704,0.7885052561759949,-0.3036685287952423
1789223141039004200,2.990004150390625,0.07480153441429138,0.3975883722305298,-0.24995604157447815
1789223141048998000,2.999997802734375,0.008219846524298191,-0.6915917992591858,0.12351927161216736
1789223141058991900,3.009991943359375,-0.23563170433044434,-0.41059020161628723,0.25438860058784485
1789223141068985900,3.01998583984375,-0.4321620762348175,0.09335284680128098,0.06959106028079987
1789223141078980000,3.02997998046875,-0.3875032365322113,-0.13332290947437286,0.1299649178981781
1789223141088974000,3.03997412109375,-0.10222277790307999,-0.08844517916440964,0.09024147689342499
1789223141098968000,3.049968017578125,0.25760090351104736,0.46971291303634644,-0.16724970936775208
1789223141108962000,3.059962158203125,0.4105342626571655,1.016316294670105,-0.46996936202049255
1789223141118956000,3.0699560546875,0.37268248200416565,0.49402543902397156,-0.33636337518692017
1789223141128949800,3.07994970703125,0.2099151462316513,-0.5348330736160278,0.15232615172863007
1789223141138944000,3.089944091796875,-0.03828853368759155,-0.39542853832244873,0.13246296346187592
1789223141148938000,3.09993798828125,-0.1734231859445572,0.4153980016708374,0.009793508797883987
1789223141158931000,3.109930908203125,-0.10701140761375427,0.5678666234016418,0.2677387595176697
1789223141168925000,3.119925048828125,0.04490222781896591,0.6239504218101501,0.20812630653381348
1789223141178919200,3.129919189453125,0.2885258197784424,0.548498272895813,-0.101540207862854
1789223141188913000,3.139912841796875,0.5123812556266785,-0.10685880482196808,0.0421660952270031
1789223141198907000,3.149906982421875,0.49573251605033875,-0.2835691273212433,-0.00152332813013345
1789223141208900900,3.15990087890625,0.2876930236816406,0.1386183351278305,-0.09083402901887894
1789223141218894800,3.169894775390625,-0.013109143823385239,0.6646131277084351,0.18650490045547485
1789223141228889000,3.17988916015625,-0.20347163081169128,0.5790122151374817,0.20626261830329895
1789223141238883000,3.189883056640625,-0.31843897700309753,0.19619587063789368,0.291139155626297
1789223141248877000,3.199876953125,-0.27698686718940735,-0.14941053092479706,0.37775716185569763
1789223141258871000,3.20987109375,0.003495132550597191,-0.21892382204532623,-0.31842830777168274
1789223141268864800,3.21986474609375,0.37036260962486267,-0.20605303347110748,-0.7551949620246887
1789223141278859000,3.22985888671875,0.47836869955062866,0.4384218156337738,-0.5743026733398438
1789223141288853000,3.23985302734375,0.3314056396484375,0.9630746841430664,-0.026315493509173393
1789223141298846000,3.249845947265625,0.11760758608579636,0.5337214469909668,0.40229976177215576
1789223141308840000,3.25983984375,-0.18043555319309235,0.2232021987438202,0.43305209279060364
1789223141318834200,3.269834228515625,-0.5535590648651123,0.5755940675735474,0.2679036259651184
1789223141328828200,3.279828125,-0.7455722093582153,0.29181987047195435,0.14365090429782867
1789223141338822000,3.28982177734375,-0.6130692362785339,-0.6389381289482117,-0.10608036071062088
1789223141348816000,3.29981591796875,-0.4072015881538391,-0.5873711109161377,-0.19047300517559052
1789223141358809900,3.309809814453125,-0.2015746682882309,0.1972302496433258,-0.3681623041629791
1789223141368804000,3.31980419921875,-0.060261476784944534,0.2541571855545044,-0.36063382029533386
1789223141378798000,3.329798095703125,-0.16562971472740173,-0.045453768223524094,0.021151624619960785
1789223141388792000,3.3397919921875,-0.4638182520866394,-0.09315497428178787,0.2933266758918762
1789223141398786000,3.3497861328125,-0.7797732949256897,-0.014822355471551418,0.2631773054599762
1789223141408780000,3.359780029296875,-0.885706901550293,-0.20223192870616913,0.026630278676748276
1789223141418774000,3.36977392578125,-0.8331987261772156,-0.38722121715545654,0.19999167323112488
1789223141428768000,3.37976806640625,-0.6721016764640808,-0.10863833129405975,0.1003417819738388
1789223141438761000,3.389760986328125,-0.44305333495140076,0.32253915071487427,-0.3476349413394928
1789223141448755000,3.3997548828125,-0.31604239344596863,0.26470035314559937,-0.12040869891643524
1789223141458749000,3.4097490234375,-0.3453137278556824,-0.18909402191638947,0.20817556977272034
1789223141468743200,3.4197431640625,-0.4889422655105591,-0.5203071236610413,0.124440997838974
1789223141478737000,3.42973681640625,-0.6852683424949646,-0.23542344570159912,-0.11081120371818542
1789223141488731000,3.43973095703125,-0.7191320657730103,-0.21798452734947205,-0.08980099111795425
1789223141498724900,3.449724853515625,-0.508899986743927,-0.989398717880249,0.24092845618724823
1789223141508718800,3.45971875,-0.23344124853610992,-0.9142163395881653,0.18914994597434998
1789223141518713000,3.469713134765625,-0.06437206268310547,0.24802125990390778,-0.007213704288005829
1789223141528707000,3.47970703125,-0.032577916979789734,0.7125197052955627,-0.05031882971525192
1789223141538701000,3.489701171875,-0.06651324778795242,0.0877855122089386,-0.3202906548976898
1789223141548695000,3.499695068359375,-0.16664011776447296,-0.597880482673645,-0.09211847186088562
1789223141558688800,3.509688720703125,-0.29032742977142334,-0.4408242702484131,0.18654564023017883
1789223141568682000,3.519681884765625,-0.2229904681444168,-0.25278139114379883,0.10913447290658951
1789223141578676000,3.529676025390625,-0.10600579530000687,-0.08018964529037476,0.2375720739364624
1789223141588670000,3.539669921875,-0.028726719319820404,0.1987735480070114,0.1982627511024475
1789223141598664000,3.549663818359375,0.06278721988201141,0.01998063176870346,0.010723218321800232
1789223141608658200,3.559658203125,0.1724303513765335,-0.4243134558200836,-0.24761752784252167
1789223141618652200,3.569652099609375,0.23376455903053284,-0.45704612135887146,-0.44255557656288147
1789223141628646000,3.57964599609375,0.17251823842525482,-0.04169604927301407,-0.1061629205942154
1789223141638639900,3.589639892578125,0.1528840810060501,0.20808954536914825,0.08778737485408783
1789223141648633900,3.5996337890625,0.1831173598766327,0.0004005394293926656,0.2936398684978485
1789223141658628000,3.609628173828125,0.1422082781791687,-0.006944458931684494,0.17384342849254608
1789223141668622000,3.6196220703125,0.08264587819576263,0.04475442320108414,-0.058824699372053146
1789223141678616000,3.629615966796875,0.09125880897045135,-0.14796842634677887,-0.014564828015863895
1789223141688610000,3.639610107421875,0.20103617012500763,-0.30282217264175415,-0.17896123230457306
1789223141698603800,3.649603759765625,0.3302929699420929,-0.3616253137588501,-0.020231235772371292
1789223141708598000,3.659597900390625,0.3423437774181366,-0.051846154034137726,0.17183993756771088
1789223141718591000,3.669591064453125,0.2501022517681122,0.2529989778995514,0.10792193561792374
1789223141728585000,3.6795849609375,0.14866803586483002,0.12998276948928833,0.024146614596247673
1789223141738579000,3.689578857421875,0.07362282276153564,-0.08069910854101181,-0.0500759519636631
1789223141748573200,3.6995732421875,0.04402711242437363,-0.28418564796447754,-0.24679993093013763
1789223141758567200,3.709567138671875,0.18978005647659302,-0.8074256777763367,-0.3075386583805084
1789223141768561000,3.719560791015625,0.3940647542476654,-0.6371655464172363,-0.21625906229019165
1789223141778555000,3.729554931640625,0.5028719305992126,0.31649699807167053,-0.16164162755012512
1789223141788548900,3.739548828125,0.39827200770378113,0.9349637031555176,0.16451624035835266
1789223141798543000,3.749543212890625,0.18990255892276764,0.6604945659637451,0.24614079296588898
1789223141808537000,3.759537109375,0.024117587134242058,-0.16298039257526398,0.33568906784057617
1789223141818531000,3.769531005859375,-0.024451546370983124,-0.7081276178359985,0.12057754397392273
1789223141828525000,3.779525146484375,0.1245587095618248,-0.9881531596183777,-0.25023752450942993
1789223141838519000,3.78951904296875,0.36564934253692627,-0.8467597961425781,-0.04063770920038223
1789223141848512800,3.7995126953125,0.4867238402366638,0.3361561596393585,0.07516904920339584
1789223141858507000,3.809507080078125,0.46109330654144287,1.4563791751861572,-0.3286963999271393
1789223141868500000,3.8195,0.2851864695549011,0.9693384170532227,0.05265335738658905
1789223141878494000,3.829493896484375,0.01546257920563221,-0.15374162793159485,0.3316389322280884
1789223141888488000,3.839488037109375,-0.17227803170681,-0.8067545890808105,0.10466116666793823
1789223141898482200,3.849482177734375,-0.17154060304164886,-0.6797966361045837,0.023974042385816574
1789223141908476000,3.859475830078125,-0.06982089579105377,0.03429778665304184,0.02534344047307968
1789223141918469400,3.869469482421875,0.09330464899539948,0.36030837893486023,0.05545580014586449
1789223141928463000,3.879463134765625,0.20402184128761292,0.3436034321784973,0.034456245601177216
1789223141938457300,3.889457275390625,0.2243870347738266,0.18965302407741547,-0.25200775265693665
1789223141948451300,3.899451416015625,0.176836296916008,-0.3800264298915863,-0.3673900067806244
1789223141958445300,3.9094453125,-0.020065054297447205,-0.7247763276100159,-0.011431618593633175
1789223141968439300,3.919439208984375,-0.1963854879140854,-0.5715151429176331,0.10685427486896515
1789223141978433300,3.929433349609375,-0.21641884744167328,-0.14469407498836517,0.15638108551502228
1789223141988427500,3.939427490234375,-0.0887162834405899,0.1818331778049469,0.2099369913339615
1789223141998421500,3.94942138671875,0.01377866230905056,0.51151043176651,-0.03182770311832428
1789223142008414200,3.959414306640625,0.11806858330965042,0.06493639200925827,-0.012321380898356438
1789223142018408200,3.969408203125,0.24948786199092865,-0.6581834554672241,0.016460731625556946
1789223142028402400,3.97940234375,0.2837882936000824,-0.36825791001319885,-0.1430567502975464
1789223142038396400,3.989396484375,0.16946706175804138,0.6304077506065369,-0.2049558162689209
1789223142048390400,3.999390380859375,0.056235041469335556,0.5569588541984558,0.056125055998563766
1789223142058384400,4.00938427734375,0.0549391470849514,-0.49586302042007446,0.36805951595306396
1789223142068378000,4.019378173828125,0.030613569542765617,-0.3951638340950012,0.08962415903806686
1789223142078372400,4.029372314453125,0.0019800602458417416,0.3674089014530182,-0.2488689422607422
1789223142088366300,4.039366455078125,0.0826868936419487,0.19655513763427734,-0.07336289435625076
1789223142098360300,4.0493603515625,0.1958256959915161,-0.12469479441642761,0.13843511044979095
1789223142108354300,4.059354248046875,0.3025833070278168,0.19493646919727325,0.02514822967350483
1789223142118348300,4.069348388671875,0.35450267791748047,0.35210105776786804,0.012316054664552212
1789223142128342300,4.07934228515625,0.19214467704296112,0.3343047499656677,0.029473470523953438
1789223142138336500,4.08933642578125,-0.062369368970394135,0.09210356324911118,0.04953452944755554
1789223142148330200,4.099330322265625,-0.2284049391746521,-0.16499534249305725,-0.0020479708909988403
1789223142158323200,4.1093232421875,-0.1308986246585846,-0.5502468943595886,-0.2537286877632141
1789223142168317400,4.1193173828125,0.00726563623175025,-0.13645531237125397,-0.4720466434955597
1789223142178311400,4.1293115234375,0.0952780470252037,0.4354894161224365,-0.2136254608631134
1789223142188305400,4.139305419921875,0.10959227383136749,0.4846644103527069,0.14417341351509094
1789223142198299400,4.14929931640625,0.039987895637750626,0.3358706831932068,0.06895110756158829
1789223142208293400,4.15929345703125,-0.10835549980401993,0.09747382253408432,0.19145464897155762
1789223142218287000,4.169287109375,-0.19861775636672974,-0.16509707272052765,0.05300143361091614
1789223142228281300,4.17928125,-0.1630038321018219,-0.4923798739910126,0.0065505774691700935
1789223142238275300,4.189275390625,-0.12671665847301483,-0.06492839753627777,0.1802443414926529
1789223142248269300,4.199269287109375,0.024655811488628387,0.36257287859916687,0.1294168382883072
1789223142258263300,4.20926318359375,0.11672581732273102,0.2638510763645172,0.21510884165763855
1789223142268257300,4.21925732421875,-0.06798730790615082,0.7711806297302246,-0.21839173138141632
1789223142278251500,4.22925146484375,-0.28067535161972046,0.6313348412513733,-0.48037034273147583
1789223142288245200,4.239245361328125,-0.34963417053222656,-0.5993396043777466,0.09718939661979675
1789223142298239200,4.2492392578125,-0.3053726851940155,-0.8803099989891052,0.02496234141290188
1789223142308233200,4.259233154296875,-0.16202671825885773,-0.26625698804855347,-0.08712158352136612
1789223142318226400,4.269226318359375,-0.07316555827856064,0.33318620920181274,0.2588043808937073
1789223142328220400,4.279220458984375,-0.1087467223405838,0.7036029100418091,0.1982949823141098
1789223142338214400,4.28921435546875,-0.2567276656627655,0.4758424460887909,0.08121975511312485
1789223142348208400,4.29920849609375,-0.3712015151977539,-0.29294613003730774,-0.04412991181015968
1789223142358202000,4.3092021484375,-0.42038610577583313,-0.7222122550010681,-0.2869606614112854
1789223142368196400,4.3191962890625,-0.3865298628807068,-0.6187630891799927,-0.3123437762260437
1789223142378190300,4.3291904296875,-0.2782595753669739,-0.29687613248825073,-0.15547001361846924
1789223142388184300,4.339184326171875,-0.22719614207744598,0.2443000227212906,0.03208070620894432
1789223142398178300,4.34917822265625,-0.2946774363517761,0.6504374146461487,0.21568967401981354
1789223142408172300,4.35917236328125,-0.35629820823669434,0.21354557573795319,0.3022077977657318
1789223142418166300,4.369166259765625,-0.33153530955314636,-0.6377120018005371,0.16673092544078827
1789223142428160500,4.379160400390625,-0.23795689642429352,-0.860515832901001,-0.0049489522352814674
1789223142438154200,4.389154296875,-0.15079297125339508,-0.3375791013240814,0.03762274235486984
1789223142448148200,4.399148193359375,-0.10921037942171097,0.4091227948665619,-0.03199974447488785
1789223142458142200,4.40914208984375,-0.0859692394733429,0.42853111028671265,0.020620590075850487
1789223142468136200,4.41913623046875,-0.10083580017089844,-0.11297369003295898,0.2237103283405304
1789223142478129400,4.42912939453125,-0.10745561867952347,-0.5348647236824036,-0.09910980612039566
1789223142488123400,4.439123291015625,-0.05753493309020996,-0.5485342144966125,-0.40129655599594116
1789223142498117000,4.4491171875,-0.0203327015042305,-0.11798389256000519,-0.18807190656661987
1789223142508111400,4.459111328125,0.041362352669239044,0.21041768789291382,0.08322484791278839
1789223142518105300,4.469105224609375,0.1721600443124771,0.062437012791633606,0.23840537667274475
1789223142528099300,4.479099365234375,0.23467296361923218,0.039445143193006516,0.2420531064271927
1789223142538093300,4.48909326171875,0.09063535928726196,0.4149159789085388,0.1103171855211258
1789223142548087300,4.49908740234375,-0.10815896093845367,0.40281376242637634,-0.0018359832465648651
1789223142558081300,4.509081298828125,-0.1670539677143097,-0.19169139862060547,-0.06842060387134552
1789223142568075500,4.519075439453125,-0.0559796467423439,-0.6867661476135254,-0.07795658707618713
1789223142578069200,4.5290693359375,0.14937856793403625,-0.47504428029060364,-0.24950090050697327
1789223142588063200,4.539063232421875,0.3244915306568146,0.11019548028707504,-0.30112576484680176
1789223142598057200,4.54905712890625,0.2757306396961212,0.6888260841369629,-0.04447904974222183
1789223142608051200,4.55905126953125,0.08749283105134964,0.675444483757019,0.13515010476112366
1789223142618045400,4.56904541015625,-0.04712703078985214,-0.11694899201393127,0.21910864114761353
1789223142628039400,4.579039306640625,-0.08016274869441986,-0.7482691407203674,0.3030339181423187
1789223142638032400,4.589032470703125,-0.020745225250720978,-0.5629081130027771,0.11033636331558228
1789223142648026000,4.599026123046875,0.13326245546340942,-0.059732839465141296,-0.09819047898054123
1789223142658020400,4.609020263671875,0.32228243350982666,0.4118650555610657,-0.30054065585136414
1789223142668014300,4.619014404296875,0.366269588470459,0.6864010095596313,-0.2278856337070465
1789223142678008300,4.62900830078125,0.2330300509929657,0.5974157452583313,-0.11668933182954788
1789223142688002300,4.639002197265625,0.1288386732339859,-0.284189373254776,0.03352520242333412
1789223142697996300,4.648996337890625,0.07227712869644165,-0.9447824954986572,0.28687331080436707
1789223142707990500,4.658990478515625,0.04797524958848953,-0.4519115388393402,0.15430274605751038
1789223142717984500,4.668984619140625,0.020665064454078674,0.3957664966583252,0.19748617708683014
1789223142727978200,4.678978271484375,0.047262586653232574,0.6076167225837708,0.324052095413208
1789223142737972200,4.68897216796875,0.1586357206106186,0.27934882044792175,0.13549764454364777
1789223142747966200,4.69896630859375,0.2492029070854187,-0.07118549942970276,-0.07456105202436447
1789223142757960200,4.708960205078125,0.40876299142837524,-0.5843574404716492,-0.5271378755569458
1789223142767954400,4.718954345703125,0.396976113319397,-0.5716677904129028,-0.5272665023803711
1789223142777948400,4.728948486328125,0.2335512340068817,0.08033185452222824,-0.2755570113658905
1789223142787942400,4.7389423828125,0.18086831271648407,0.356144517660141,-0.12712892889976501
1789223142797936000,4.74893603515625,0.2562094032764435,-0.127447709441185,0.2805001139640808
1789223142807929300,4.758929443359375,0.2515094578266144,0.03328951448202133,0.22053956985473633
1789223142817923300,4.76892333984375,0.17130491137504578,0.08094092458486557,0.4407001733779907
1789223142827917300,4.778917236328125,0.1512044370174408,-0.15707004070281982,0.39784109592437744
1789223142837911300,4.788911376953125,0.17368869483470917,0.30148953199386597,-0.010937069542706013
1789223142847905300,4.7989052734375,0.22794795036315918,0.6674760580062866,-0.043592482805252075
1789223142857899500,4.8088994140625,0.25579342246055603,0.5187238454818726,-0.43010449409484863
1789223142867893200,4.818893310546875,0.26243987679481506,-0.33768323063850403,-0.4165833592414856
1789223142877887200,4.82888720703125,0.25247859954833984,-0.8575445413589478,0.024086160585284233
1789223142887881200,4.838881103515625,0.3153190612792969,-0.6075913906097412,-0.15466441214084625
1789223142897875200,4.848875244140625,0.3180690407752991,0.18211734294891357,-0.40661221742630005
1789223142907869400,4.858869384765625,0.11040586978197098,0.9881174564361572,-0.05016809701919556
1789223142917863400,4.868863525390625,-0.00401551416143775,0.5265599489212036,0.25122129917144775
1789223142927857400,4.878857421875,0.054479487240314484,-0.58218914270401,0.44649094343185425
1789223142937851400,4.888851318359375,0.10609820485115051,-0.3640996515750885,0.3108958303928375
1789223142947845400,4.898845458984375,0.09354300051927567,0.4424506425857544,0.0549364872276783
1789223142957839400,4.90883935546875,0.14747494459152222,0.009512810967862606,0.053408361971378326
1789223142967832300,4.918832275390625,0.2264520525932312,-0.33327117562294006,-0.29138922691345215
1789223142977826300,4.928826416015625,0.22653727233409882,0.15283028781414032,-0.45499947667121887
1789223142987820300,4.9388203125,0.22591276466846466,0.23691800236701965,-0.3066187798976898
1789223142997814500,4.948814453125,0.25909894704818726,-0.2630294859409332,-0.22748161852359772
1789223143007808500,4.95880859375,0.28294673562049866,-0.4212614893913269,-0.0424790158867836
1789223143017802500,4.968802490234375,0.2022756040096283,0.2216074913740158,0.10841915011405945
1789223143027796200,4.978796142578125,0.05763852968811989,0.8281056880950928,0.16469493508338928
1789223143037790200,4.988790283203125,0.01883760280907154,0.4609234035015106,0.3183039426803589
1789223143047784400,4.998784423828125,0.11936181038618088,-0.28018611669540405,0.20492252707481384
1789223143057778400,5.0087783203125,0.25695669651031494,-0.3490666449069977,-0.14081570506095886
1789223143067772400,5.0187724609375,0.3338746428489685,0.27704918384552,-0.12841495871543884
1789223143077766400,5.028766357421875,0.23026302456855774,0.9753544926643372,0.2573641538619995
1789223143087760400,5.038760498046875,0.07175088673830032,1.0267103910446167,0.23596885800361633
1789223143097754400,5.04875439453125,-0.11928298324346542,0.5857716202735901,0.09525994211435318
1789223143107748400,5.058748291015625,-0.30287250876426697,-0.009918144904077053,0.20759980380535126
1789223143117742300,5.068742431640625,-0.4554618000984192,-0.27109968662261963,0.09057383984327316
1789223143127736300,5.078736328125,-0.46077480912208557,-0.5258366465568542,0.019050389528274536
1789223143137730300,5.088730224609375,-0.3661351203918457,-0.4626672565937042,-0.007448328658938408
1789223143147723500,5.0987236328125,-0.2475501447916031,0.008560731075704098,-0.33498677611351013
1789223143157717500,5.108717529296875,-0.15251098573207855,0.03521524369716644,-0.43531444668769836
1789223143167711200,5.118711181640625,-0.20776037871837616,-0.2829691171646118,-0.10124539583921432
1789223143177705200,5.128705322265625,-0.4734128415584564,-0.07367874681949615,-0.08688962459564209
1789223143187699200,5.13869921875,-0.7302901744842529,-0.1090623065829277,0.016716396436095238
1789223143197693400,5.148693359375,-0.7872021794319153,-0.4370518922805786,0.2748025357723236
1789223143207687400,5.1586875,-0.5403239727020264,-0.6606106758117676,0.19404084980487823
1789223143217681400,5.168681396484375,-0.170728862285614,-0.42041221261024475,-0.012375176884233952
1789223143227675400,5.17867529296875,0.028498485684394836,0.30613648891448975,-0.0611906535923481
1789223143237669400,5.18866943359375,0.07010052353143692,0.5749434232711792,-0.008047806099057198
1789223143247663400,5.198663330078125,-0.07235302776098251,0.3209359347820282,0.09777209907770157
1789223143257657300,5.2086572265625,-0.2963869273662567,0.020661601796746254,-0.020604077726602554
1789223143267651300,5.2186513671875,-0.4308621883392334,-0.5102379322052002,0.1958366185426712
1789223143277645300,5.228645263671875,-0.4590570628643036,-0.6108300685882568,0.23114480078220367
1789223143287639300,5.238639404296875,-0.38777461647987366,0.04535842686891556,-0.41659215092658997
1789223143297633500,5.248633544921875,-0.3541777729988098,0.5871668457984924,-0.3724744915962219
1789223143307627500,5.25862744140625,-0.33626803755760193,0.1137356162071228,0.09146440029144287
1789223143317621500,5.26862158203125,-0.30446189641952515,-0.9360311031341553,0.09740325063467026
1789223143327614200,5.2786142578125,-0.34068194031715393,-0.9519187211990356,-0.06636916846036911
1789223143337608400,5.2886083984375,-0.4259433150291443,0.24914270639419556,0.001636246219277382
1789223143347602400,5.2986025390625,-0.38180649280548096,0.5906590223312378,0.24468298256397247
1789223143357596400,5.308596435546875,-0.19702838361263275,-0.27255696058273315,-0.057851050049066544
1789223143367590400,5.31859033203125,-0.15399383008480072,-0.7243419885635376,-0.023322366178035736
1789223143377584400,5.32858447265625,-0.270592600107193,0.027818847447633743,0.036847762763500214
1789223143387578400,5.338578369140625,-0.1704055517911911,-0.047815460711717606,-0.28346365690231323
1789223143397572400,5.348572265625,-0.05042855441570282,-0.5574811100959778,-0.10133567452430725
1789223143407566300,5.35856640625,-0.0798325166106224,0.23751135170459747,-0.07707667350769043
1789223143417560300,5.368560302734375,-0.09319945424795151,0.6100612282752991,0.15139883756637573
1789223143427554300,5.37855419921875,-0.09045533090829849,-0.00500967213883996,0.23806609213352203
1789223143437548300,5.38854833984375,-0.06612815707921982,-0.6269893646240234,-0.024287762120366096
1789223143447542500,5.39854248046875,-0.047212254256010056,-0.6927116513252258,0.13896960020065308
1789223143457536500,5.40853662109375,0.04729028418660164,-0.185784250497818,-0.04520369693636894
1789223143467530200,5.4185302734375,0.2552972733974457,0.11241309344768524,-0.3462090790271759
1789223143477524200,5.428524169921875,0.3156495690345764,0.35325607657432556,-0.022915702313184738
1789223143487518200,5.438518310546875,0.12572410702705383,0.9950645565986633,0.008793225511908531
1789223143497511400,5.448511474609375,-0.03038267232477665,0.3291259706020355,0.08867554366588593
1789223143507505400,5.45850537109375,-0.06058851256966591,-1.0184178352355957,0.24828118085861206
1789223143517499400,5.46849951171875,-0.04094290733337402,-0.8886175155639648,0.057978879660367966
1789223143527493400,5.478493408203125,-0.01684768870472908,0.1283515840768814,0.28081223368644714
1789223143537487400,5.4884873046875,0.1053842157125473,0.6392889022827148,0.015913719311356544
1789223143547481300,5.4984814453125,0.2571337819099426,0.1914714276790619,-0.2211558222770691
1789223143557475300,5.508475341796875,0.21897628903388977,0.05188237130641937,-0.10176204890012741
1789223143567469300,5.51846923828125,0.029647907242178917,0.46216869354248047,-0.33486828207969666
1789223143577463300,5.52846337890625,-0.05889447405934334,-0.24740873277187347,-0.018575549125671387
1789223143587457500,5.53845751953125,0.0030269487760961056,-0.9736519455909729,0.08708696812391281
1789223143597451500,5.548451416015625,0.029353095218539238,-0.3784719407558441,0.26381513476371765
1789223143607445500,5.558445556640625,0.011216169223189354,0.8212184906005859,0.2334204763174057
1789223143617439200,5.568439208984375,0.08308050781488419,0.7352446913719177,-0.07562685012817383
1789223143627433200,5.57843310546875,0.1421251893043518,-0.30961430072784424,0.08369223028421402
1789223143637427500,5.588427490234375,0.03912103548645973,-0.3216877579689026,0.03370656445622444
1789223143647421400,5.59842138671875,0.0016325177857652307,-0.1209930032491684,-0.1992103010416031
1789223143657415400,5.60841552734375,0.07029440253973007,-0.3712521195411682,0.12497389316558838
1789223143667409400,5.618409423828125,0.1266373097896576,-0.07214982807636261,0.30719801783561707
1789223143677403400,5.6284033203125,0.19840550422668457,0.4204215109348297,0.011392736807465553
1789223143687396400,5.638396240234375,0.30367785692214966,0.027628431096673012,-0.29171785712242126
1789223143697390300,5.648390380859375,0.26153308153152466,-0.2098887860774994,-0.5034106969833374
1789223143707384300,5.65838427734375,0.024876587092876434,0.2936968505382538,-0.1402662992477417
1789223143717378300,5.66837841796875,-0.09881046414375305,0.3304138779640198,0.11624724417924881
1789223143727372300,5.678372314453125,0.025365544483065605,-0.5226703882217407,0.11775166541337967
1789223143737366500,5.688366455078125,0.09568604826927185,-0.22360113263130188,0.20228838920593262
1789223143747360500,5.698360595703125,0.06588713824748993,0.9302416443824768,0.11023622751235962
1789223143757354200,5.708354248046875,0.1393941044807434,0.5734108090400696,-0.11485308408737183
1789223143767348200,5.71834814453125,0.21706093847751617,-0.5907045602798462,-0.24758689105510712
1789223143777342200,5.72834228515625,0.08009350299835205,-0.45409372448921204,-0.23122310638427734
1789223143787336400,5.73833642578125,-0.08302085101604462,0.0362943597137928,-0.17081515491008759
1789223143797330400,5.748330322265625,-0.08914639055728912,-0.11885873973369598,-0.17614705860614777
1789223143807324400,5.758324462890625,-0.045994121581315994,-0.09348174929618835,0.0186447910964489
1789223143817318400,5.768318359375,-0.04766073077917099,0.40877631306648254,0.18627026677131653
1789223143827312400,5.7783125,-0.01805516704916954,0.18465347588062286,0.17060396075248718
1789223143837306400,5.788306396484375,0.06810847669839859,-0.6241956949234009,0.019156116992235184
1789223143847300400,5.79830029296875,0.055453673005104065,-0.6655439138412476,0.08853386342525482
1789223143857294300,5.80829443359375,-0.005970274563878775,0.04548705741763115,0.060397032648324966
1789223143867288300,5.818288330078125,0.06466208398342133,0.3268819749355316,-0.22795221209526062
1789223143877281500,5.828281494140625,0.14834658801555634,0.18099428713321686,-0.1693245768547058
1789223143887275500,5.838275634765625,0.04742450639605522,0.497988760471344,0.02075587771832943
1789223143897269200,5.848269287109375,-0.1043170839548111,0.4222564399242401,0.1363099068403244
1789223143907263200,5.85826318359375,-0.13050155341625214,-0.417928010225296,0.2196042686700821
1789223143917257500,5.868257568359375,-0.057080063968896866,-0.886595606803894,0.26038604974746704
1789223143927251500,5.87825146484375,-0.02371678128838539,-0.1818121373653412,0.08411300927400589
1789223143937245400,5.888245361328125,-0.0057015614584088326,0.4246777892112732,0.07807935774326324
1789223143947239400,5.898239501953125,0.07597678899765015,0.1290099173784256,0.06119944155216217
1789223143957233400,5.9082333984375,0.15436241030693054,-0.2291993647813797,-0.175156369805336
1789223143967227400,5.918227294921875,0.15021373331546783,-0.2222578376531601,-0.1685677021741867
1789223143977221400,5.928221435546875,0.031388815492391586,0.008036354556679726,-0.1115393117070198
1789223143987215600,5.938215576171875,-0.0853002518415451,-0.05152630805969238,-0.08131349831819534
1789223143997209600,5.948209716796875,-0.1231783926486969,-0.17356832325458527,0.07142011821269989
1789223144007203600,5.95820361328125,-0.08842813223600388,-0.05465925112366676,0.2754361033439636
1789223144017197300,5.968197265625,0.04038231074810028,-0.13461986184120178,0.09916386753320694
1789223144027191300,5.97819140625,0.1574586033821106,-0.38482704758644104,-0.10271172970533371
1789223144037185500,5.988185546875,0.14269855618476868,-0.2650396525859833,0.06538433581590652
1789223144047179500,5.998179443359375,0.08181071281433105,0.2781493365764618,-0.08401340991258621
1789223144057173500,6.008173583984375,0.05223018303513527,0.3727128505706787,-0.14165246486663818
1789223144067167500,6.01816748046875,0.11403042823076248,-0.2179640233516693,0.006624879315495491
1789223144077160700,6.02816064453125,0.162602499127388,-0.467058002948761,-0.3400755524635315
1789223144087154400,6.038154541015625,0.14880385994911194,-0.5351608991622925,-0.46582362055778503
1789223144097148400,6.0481484375,-0.059112321585416794,-0.02340732142329216,-0.03441549837589264
1789223144107142400,6.058142333984375,-0.2877731919288635,0.6693815588951111,0.2991025447845459
1789223144117136400,6.068136474609375,-0.2819661796092987,0.2656031847000122,0.4206465482711792
1789223144127130600,6.078130615234375,-0.08203308284282684,-0.5279929637908936,0.27809473872184753
1789223144137124600,6.08812451171875,0.1432517021894455,-0.5321949124336243,0.10245020687580109
1789223144147118600,6.09811865234375,0.33762118220329285,-0.1794579029083252,0.1613694578409195
1789223144157112600,6.108112548828125,0.4811359941959381,0.2589527368545532,-0.24484783411026
1789223144167106300,6.118106201171875,0.4592519998550415,0.30956023931503296,-0.5256496667861938
1789223144177100500,6.1281005859375,0.2096475064754486,0.15174025297164917,-0.3601643145084381
1789223144187094500,6.138094482421875,-0.07972918450832367,0.1435563713312149,-0.2587505877017975
1789223144197088500,6.148088623046875,-0.12691587209701538,-0.2595149278640747,0.11599371582269669
1789223144207082500,6.15808251953125,0.03364531323313713,-0.38254258036613464,0.3226297199726105
1789223144217076500,6.168076416015625,0.24972034990787506,0.16440652310848236,0.13933898508548737
1789223144227070500,6.178070556640625,0.3615052103996277,0.6743273138999939,0.2206229269504547
1789223144237064700,6.188064697265625,0.3459302484989166,0.5967797636985779,0.14396436512470245
1789223144247058400,6.198058349609375,0.2571753263473511,-0.08244694024324417,0.10554826259613037
1789223144257052400,6.208052490234375,0.1114591509103775,-0.4735758304595947,0.22242560982704163
1789223144267046400,6.21804638671875,-0.0005201153689995408,-0.22726857662200928,0.14863181114196777
1789223144277039600,6.22803955078125,-0.006382265593856573,0.19361820816993713,0.03199867904186249
1789223144287033600,6.23803369140625,0.06820221990346909,0.6590237021446228,-0.21671846508979797
1789223144297027600,6.248027587890625,0.20583811402320862,0.32948043942451477,-0.2961815893650055
1789223144307021300,6.258021240234375,0.13839542865753174,-0.041959166526794434,-0.30415430665016174
1789223144317015300,6.268015380859375,-0.10388219356536865,-0.18628865480422974,-0.2853851318359375
1789223144327009500,6.278009521484375,-0.28621816635131836,-0.7037440538406372,0.2256065011024475
1789223144337003500,6.28800341796875,-0.30114465951919556,-0.8183603882789612,0.3750697374343872
1789223144346997500,6.29799755859375,-0.19920870661735535,-0.030159765854477882,0.015617309138178825
1789223144356991500,6.307991455078125,-0.028271585702896118,0.47038534283638,-0.12698538601398468
1789223144366985500,6.3179853515625,0.16565288603305817,0.0665513277053833,-0.07148323953151703
1789223144376979700,6.327979736328125,0.1877584457397461,-0.07768706977367401,0.002752643311396241
1789223144386973400,6.337973388671875,0.13291756808757782,0.0985095277428627,-0.23905758559703827
1789223144396967400,6.347967529296875,0.06344501674175262,-0.23658964037895203,-0.16092310845851898
1789223144406961400,6.35796142578125,-0.08166450262069702,-0.4816252291202545,0.06052699312567711
1789223144416955400,6.367955322265625,-0.19184985756874084,-0.2722451090812683,0.10163341462612152
1789223144426949400,6.377949462890625,-0.15109790861606598,0.021265873685479164,0.04838297888636589
1789223144436943600,6.387943603515625,-0.07559462636709213,0.44007644057273865,0.05863029137253761
1789223144446937600,6.3979375,-0.062423430383205414,0.9313212633132935,-0.008598282001912594
1789223144456931600,6.407931640625,-0.016462329775094986,0.38856664299964905,0.1910141557455063
1789223144466925300,6.41792529296875,0.08653648942708969,-0.741797685623169,0.42592307925224304
1789223144476918500,6.42791845703125,0.15679414570331573,-0.8187313675880432,0.13256922364234924
1789223144486912500,6.43791259765625,0.22797857224941254,-0.34873509407043457,-0.3184562623500824
1789223144496906500,6.447906494140625,0.20104415714740753,0.03659822419285774,-0.4612283408641815
1789223144506900500,6.457900390625,0.006074936594814062,0.4259489178657532,-0.2609844505786896
1789223144516894500,6.46789453125,-0.2344239503145218,0.514203667640686,0.19688643515110016
1789223144526888400,6.477888427734375,-0.28458964824676514,0.025917084887623787,0.32436609268188477
1789223144536882400,6.48788232421875,-0.13158679008483887,-0.3586457669734955,0.12946291267871857
1789223144546876400,6.49787646484375,0.05772215127944946,-0.2398775815963745,0.15380074083805084
1789223144556870400,6.507870361328125,0.24903832376003265,-0.037694916129112244,0.12952683866024017
1789223144566864400,6.517864501953125,0.3679654896259308,0.10002646595239639,-0.08184026926755905
1789223144576858600,6.527858642578125,0.2605000436306,0.48727911710739136,-0.19359129667282104
1789223144586852600,6.5378525390625,0.10900664329528809,0.3289448618888855,-0.267826110124588
1789223144596846600,6.5478466796875,0.032639168202877045,-0.2510623335838318,-0.22363309562206268
1789223144606840300,6.55784033203125,0.09198052436113358,-0.45131444931030273,-0.16578896343708038
1789223144616834300,6.567834228515625,0.23880085349082947,-0.16317987442016602,-0.09679578244686127
1789223144626828500,6.57782861328125,0.4043882191181183,0.11198245733976364,-0.1562551110982895
1789223144636822500,6.587822509765625,0.3724744915962219,0.3419498801231384,-0.04073517769575119
1789223144646816500,6.59781640625,0.1333865523338318,0.455289751291275,0.2813107669353485
1789223144656810500,6.607810546875,-0.07148110866546631,0.19020216166973114,0.35364994406700134
1789223144666804500,6.617804443359375,-0.14459820091724396,0.003769171889871359,0.29459115862846375
1789223144676798500,6.627798583984375,-0.07648412138223648,0.3326306939125061,-0.035531360656023026
1789223144686792400,6.63779248046875,0.16632533073425293,0.4306483268737793,-0.38771337270736694
1789223144696785400,6.647785400390625,0.38676556944847107,0.0415881909430027,-0.2017834484577179
1789223144706779400,6.657779296875,0.48183321952819824,-0.11237288266420364,-0.23449000716209412
1789223144716773600,6.667773681640625,0.41401103138923645,-0.22766192257404327,-0.027162645012140274
1789223144726767600,6.677767578125,0.1662539541721344,0.004063717555254698,0.0620545819401741
1789223144736761600,6.68776171875,-0.08467893302440643,0.2742922604084015,-0.016110526397824287
1789223144746755600,6.697755615234375,-0.2609786093235016,0.2820303440093994,0.169907808303833
1789223144756749300,6.707749267578125,-0.27540653944015503,0.4352060556411743,-0.018488995730876923
1789223144766743300,6.717743408203125,-0.10388059169054031,0.3316389322280884,-0.1385650634765625
1789223144776737500,6.727737548828125,0.09281888604164124,0.030162429437041283,-0.05445871502161026
1789223144786731500,6.7377314453125,0.20234164595603943,-0.0317763052880764,-0.11843796074390411
1789223144796725500,6.7477255859375,0.12056928873062134,0.07122943550348282,0.17527514696121216
1789223144806719500,6.757719482421875,-0.045035120099782944,0.05500732734799385,0.38114574551582336
1789223144816713500,6.76771337890625,-0.21673284471035004,-0.009696569293737411,0.4583742320537567
1789223144826707700,6.777707763671875,-0.3259461522102356,0.11004234850406647,0.231269970536232
1789223144836701400,6.787701416015625,-0.323709636926651,0.16545580327510834,-0.09525620937347412
1789223144846695400,6.7976953125,-0.22479289770126343,0.022164424881339073,-0.21636798977851868
1789223144856689400,6.807689453125,-0.08417346328496933,-0.048470862209796906,-0.14092622697353363
1789223144866683400,6.817683349609375,0.03683710843324661,0.05476710945367813,-0.11008549481630325
1789223144876677600,6.827677734375,0.18630622327327728,-0.22066207230091095,-0.30059364438056946
1789223144886671600,6.837671630859375,0.2102445811033249,-0.44112998247146606,-0.4338494539260864
1789223144896665600,6.84766552734375,-0.017429323866963387,0.017649566754698753,-0.08511276543140411
1789223144906659600,6.85765966796875,-0.33905795216560364,0.7914336919784546,0.39056241512298584
1789223144916654000,6.867654052734375,-0.41897115111351013,0.7167866230010986,0.3213609755039215
1789223144926647300,6.877647216796875,-0.2475498765707016,-0.47391989827156067,0.4539874792098999
1789223144936641000,6.88764111328125,-0.04953533038496971,-0.8603906631469727,0.2767280042171478
1789223144946635000,6.897635009765625,0.04195144400000572,-0.14220720529556274,0.1945524364709854
1789223144956629000,6.90762890625,0.1510627567768097,0.575780987739563,-0.192021906375885
1789223144966623000,6.917623046875,0.16430558264255524,0.6139880418777466,-0.4512697160243988
1789223144976617200,6.9276171875,0.001868473831564188,0.4152291417121887,-0.5129615664482117
1789223144986611200,6.937611083984375,-0.24025601148605347,0.07935687154531479,-0.3977031707763672
1789223144996605200,6.947605224609375,-0.44973546266555786,-0.4111907482147217,0.05414259806275368
1789223145006599200,6.95759912109375,-0.5150076746940613,-0.30913200974464417,0.3038480281829834
1789223145016593000,6.967593017578125,-0.3586742579936981,-0.056898970156908035,0.38655704259872437
1789223145026587100,6.977587158203125,-0.1227102056145668,0.020961208269000053,0.24311038851737976
1789223145036581000,6.9875810546875,0.05914081633090973,-0.11184424161911011,0.0012402341235429049
1789223145046575000,6.9975751953125,0.08452899754047394,-0.0200437493622303,-0.040609210729599
1789223145056569000,7.007569091796875,0.025355424731969833,0.17860782146453857,-0.23164041340351105
1789223145066563000,7.01756298828125,-0.06447965651750565,0.08913040906190872,-0.3359135687351227
1789223145076557000,7.02755712890625,-0.11729972809553146,-0.05619296431541443,-0.18419034779071808
1789223145086551000,7.037551025390625,-0.05489440634846687,-0.24305206537246704,0.16763639450073242
1789223145096545000,7.047544921875,0.02328614704310894,-0.05910060554742813,0.19786913692951202
1789223145106539000,7.0575390625,0.09876519441604614,0.13117267191410065,0.1388723999261856
1789223145116533000,7.067532958984375,0.07744445651769638,0.24478338658809662,0.39279016852378845
1789223145126527000,7.07752685546875,0.09719419479370117,0.1722516566514969,0.0678970217704773
1789223145136521200,7.087521240234375,0.18227580189704895,-0.32280388474464417,-0.2717446982860565
1789223145146514200,7.09751416015625,0.20848077535629272,-0.4114557206630707,-0.3546169400215149
1789223145156508000,7.1075078125,0.1849229782819748,-0.15720133483409882,-0.17520830035209656
1789223145166502000,7.117501953125,0.1799684315919876,-0.02883218042552471,0.057847052812576294
1789223145176496000,7.12749609375,0.18245449662208557,0.14535079896450043,0.02793150022625923
1789223145186490000,7.137489990234375,0.18527531623840332,0.14658118784427643,-0.015294800512492657
1789223145196484000,7.147484130859375,0.10725028812885284,0.13152927160263062,0.10266352444887161
1789223145206478000,7.15747802734375,0.06749462336301804,-0.0483078770339489,0.02358308993279934
1789223145216472000,7.16747216796875,0.17459364235401154,-0.4682002365589142,-0.044622063636779785
1789223145226466300,7.17746630859375,0.2890544533729553,-0.41565394401550293,0.1241869255900383
1789223145236460000,7.1874599609375,0.2217574268579483,0.5744302868843079,0.08798098564147949
1789223145246454000,7.1974541015625,0.12143535166978836,0.8356229662895203,0.01684529334306717
1789223145256448000,7.207447998046875,0.0522426962852478,-0.03821050375699997,0.35425394773483276
1789223145266442000,7.21744189453125,-0.02611762098968029,-0.3481787443161011,0.08565019071102142
1789223145276436000,7.22743603515625,0.06859051436185837,-0.39589938521385193,-0.5450444221496582
1789223145286430200,7.23743017578125,0.2809094190597534,-0.6640387177467346,-0.5058227181434631
1789223145296424200,7.247424072265625,0.3373309075832367,-0.014397048391401768,-0.31103163957595825
1789223145306418200,7.257418212890625,0.23900538682937622,0.544538140296936,0.17281624674797058
1789223145316412000,7.267411865234375,0.10884179174900055,0.360512375831604,0.3965473473072052
1789223145326406000,7.277406005859375,-0.10675680637359619,0.2697705030441284,0.4350169599056244
1789223145336400100,7.287400146484375,-0.2827078700065613,0.35224592685699463,0.2841355800628662
1789223145346394000,7.29739404296875,-0.12944374978542328,-0.35376420617103577,-0.15086008608341217
1789223145356388000,7.30738818359375,0.19965346157550812,-0.9162315130233765,-0.33237501978874207
1789223145366382000,7.317382080078125,0.4024510383605957,-0.12346760928630829,-0.3877546489238739
1789223145376376000,7.3273759765625,0.4183540940284729,0.8025491833686829,-0.3259163200855255
1789223145386369000,7.337369140625,0.3597579002380371,0.5194565057754517,-0.11646189540624619
1789223145396363000,7.347363037109375,0.12339410930871964,0.08030788600444794,0.20662347972393036
1789223145406357000,7.35735693359375,-0.15109017491340637,0.0413447767496109,0.21095751225948334
1789223145416351000,7.36735107421875,-0.21258603036403656,-0.2767847180366516,0.27413275837898254
1789223145426345200,7.37734521484375,-0.10224434733390808,-0.20146147906780243,0.2349054515361786
1789223145436339200,7.387339111328125,0.1480027735233307,0.13531067967414856,-0.052202485501766205
1789223145446333200,7.397333251953125,0.3720545172691345,0.3029729127883911,-0.14119014143943787
1789223145456327000,7.407326904296875,0.4177277386188507,0.47363173961639404,-0.248903289437294
1789223145466321000,7.41732080078125,0.22137606143951416,0.6034565567970276,-0.16352234780788422
1789223145476315100,7.427315185546875,-0.0010306433541700244,0.00971760880202055,-0.027173297479748726
1789223145486309000,7.43730908203125,-0.07740291208028793,-0.8297775983810425,0.1114165410399437
1789223145496303000,7.44730322265625,-0.10435010492801666,-0.558961033821106,0.1959143728017807
1789223145506297000,7.457297119140625,-0.12149953097105026,0.42162075638771057,0.13570323586463928
1789223145516291000,7.467291015625,-0.02863777056336403,0.6450367569923401,0.09030379354953766
1789223145526285000,7.47728515625,0.12376375496387482,0.11023729294538498,0.11249511688947678
1789223145536279000,7.487279052734375,0.1724008023738861,-0.08674261718988419,-0.0984935536980629
1789223145546273000,7.49727294921875,0.125283345580101,-0.07317700982093811,-0.25350338220596313
1789223145556267000,7.50726708984375,0.06827812641859055,-0.40309152007102966,0.08136703073978424
1789223145566261000,7.517260986328125,0.03879373520612717,-0.3249876797199249,0.020980915054678917
1789223145576255000,7.5272548828125,-0.03512256592512131,0.5039699673652649,-0.23640534281730652
1789223145586249200,7.537249267578125,-0.02761165425181389,0.6737038493156433,-0.1391752064228058
1789223145596243200,7.5472431640625,-0.009307214990258217,0.023970313370227814,-0.019051454961299896
1789223145606237200,7.5572373046875,-0.06943260133266449,-0.4853169023990631,0.0993654653429985
1789223145616231000,7.56723095703125,-0.12241192907094955,-0.3003062903881073,0.2675291895866394
1789223145626225000,7.577224853515625,-0.0919424369931221,0.2307189702987671,0.3220645785331726
1789223145636218000,7.587218017578125,-0.06153899431228638,0.825849711894989,-0.000013582121027866378
1789223145646212000,7.597212158203125,-0.021190771833062172,0.5185161232948303,0.015054849907755852
1789223145656206000,7.6072060546875,-0.023369504138827324,-0.20952872931957245,0.3183537423610687
1789223145666200000,7.617199951171875,0.019424032419919968,-0.4097560942173004,-0.2406379133462906
1789223145676194000,7.627194091796875,0.10693976283073425,-0.46286430954933167,-0.5288643836975098
1789223145686188000,7.63718798828125,0.009801231324672699,-0.09664078801870346,-0.2547185719013214
1789223145696182000,7.64718212890625,-0.22009268403053284,0.3989340662956238,-0.07576426863670349
1789223145706176000,7.657176025390625,-0.3901187479496002,0.46958133578300476,0.14788933098316193
1789223145716170000,7.667169921875,-0.4039514660835266,0.22505122423171997,0.35611364245414734
1789223145726164200,7.677164306640625,-0.3933555483818054,0.3287222385406494,0.0941384807229042
1789223145736158200,7.687158203125,-0.26405614614486694,-0.14177390933036804,-0.019961191341280937
1789223145746152200,7.697152099609375,-0.036442697048187256,-0.9030627608299255,0.09581547230482101
1789223145756146000,7.70714599609375,0.11320112645626068,-0.6410396695137024,-0.11417477577924728
1789223145766140000,7.717139892578125,-0.015564844943583012,0.5970476865768433,-0.2947773039340973
1789223145776134000,7.7271337890625,-0.31324660778045654,1.179924726486206,-0.06841287761926651
1789223145786128100,7.737128173828125,-0.5025432705879211,0.294012188911438,0.03617611527442932
1789223145796122000,7.7471220703125,-0.5042243003845215,-0.7685531377792358,-0.02317775785923004
1789223145806116000,7.7571162109375,-0.3897531032562256,-0.7724946141242981,0.0478370301425457
1789223145816110000,7.767110107421875,-0.22772423923015594,-0.22481286525726318,0.13910488784313202
1789223145826104000,7.77710400390625,-0.09190675616264343,0.004385161213576794,0.13709419965744019
1789223145836098000,7.78709814453125,-0.038431812077760696,0.22999884188175201,-0.15000760555267334
1789223145846092000,7.797092041015625,-0.12014718353748322,0.3893038034439087,-0.13143178820610046
1789223145856086000,7.8070859375,-0.2579287588596344,0.2702999413013458,-0.11969391256570816
1789223145866080000,7.817080078125,-0.29697149991989136,-0.3449043929576874,-0.17894046008586884
1789223145876074000,7.827073974609375,-0.24235671758651733,-0.8142614960670471,0.009425992146134377
1789223145886067200,7.837067138671875,-0.21976804733276367,-0.07920480519533157,0.06255125999450684
1789223145896061200,7.847061279296875,-0.21934273838996887,0.7043496370315552,0.28028011322021484
1789223145906055000,7.857054931640625,-0.09221994131803513,0.17783445119857788,0.3458695113658905
1789223145916049000,7.867048828125,-0.01647990755736828,-0.2547614574432373,0.11001971364021301
1789223145926043000,7.87704296875,-0.01605859585106373,0.13399721682071686,-0.23352593183517456
1789223145936036900,7.887036865234375,-0.03953862190246582,0.12852974236011505,-0.2420951873064041
1789223145946030800,7.89703076171875,-0.06211290508508682,-0.3303137421607971,-0.1804685741662979
1789223145956024800,7.90702490234375,-0.14469459652900696,-0.10256552696228027,-0.08858073502779007
1789223145966018800,7.917018798828125,-0.19485710561275482,0.3449307680130005,-0.04013809934258461
1789223145976012800,7.9270126953125,-0.1991085708141327,0.26167526841163635,-0.05451757088303566
1789223145986006800,7.9370068359375,-0.1551182121038437,-0.1429763287305832,-0.01290487963706255
1789223145996000800,7.947000732421875,-0.014092382974922657,-0.7590177059173584,0.13992540538311005
1789223146005994800,7.956994873046875,0.027712054550647736,-0.4212457537651062,0.0902143120765686
1789223146015988700,7.96698876953125,-0.032227445393800735,0.5217803716659546,-0.0391111820936203
1789223146025983000,7.97698291015625,-0.11593752354383469,0.6391077637672424,0.23371821641921997
1789223146035977000,7.98697705078125,-0.15468065440654755,-0.006597981322556734,0.3506368398666382
1789223146045971000,7.996970947265625,-0.10861968994140625,-0.4064082205295563,0.2850394546985626
1789223146055964700,8.006964599609375,0.10256658494472504,-0.6018893122673035,-0.05100752413272858
1789223146065958700,8.016958740234376,0.3926423490047455,-0.6797140836715698,-0.5277599692344666
1789223146075953000,8.026952880859374,0.41365230083465576,0.25849226117134094,-0.44151321053504944
1789223146085947000,8.03694677734375,0.2401694506406784,1.1541056632995605,-0.11795220524072647
1789223146095940900,8.04694091796875,0.12874172627925873,0.4133753180503845,0.172464981675148
1789223146105934800,8.056934814453125,0.055206265300512314,-0.5456891655921936,0.40488624572753906
1789223146115928800,8.0669287109375,-0.0745978057384491,-0.03642165660858154,0.3280668258666992
1789223146125922800,8.0769228515625,-0.08241844177246094,0.43576744198799133,0.17939159274101257
1789223146135916800,8.086916748046875,0.11229165643453598,0.13550908863544464,-0.026209766045212746
1789223146145910800,8.096910888671875,0.3616271913051605,-0.0886869952082634,-0.17207668721675873
1789223146155904800,8.10690478515625,0.49706384539604187,-0.00119575927965343,-0.3758138418197632
1789223146165898800,8.116898681640626,0.29815927147865295,0.3534954786300659,-0.40063637495040894
1789223146175892000,8.12689208984375,-0.04104756936430931,0.3165223002433777,-0.06657928973436356
1789223146185886000,8.136885986328124,-0.29965728521347046,0.1266716569662094,0.18031251430511475
1789223146195880000,8.1468798828125,-0.31583306193351746,-0.271036833524704,0.29180869460105896
1789223146205873700,8.156873779296875,-0.24136334657669067,0.07617466151714325,-0.2974604368209839
1789223146215867600,8.16686767578125,-0.1592591553926468,-0.17641177773475647,-0.03013686276972294
1789223146225862000,8.17686181640625,-0.1162768080830574,-0.4311721622943878,0.35478630661964417
1789223146235856000,8.18685595703125,-0.0881200060248375,0.13735546171665192,0.05660682171583176
1789223146245849900,8.196849853515625,-0.11686616390943527,0.5584970712661743,-0.021399032324552536
1789223146255843800,8.20684375,-0.20257307589054108,0.27645954489707947,-0.12144067883491516
1789223146265837800,8.216837890625,-0.32321321964263916,-0.32672324776649475,-0.08689282089471817
1789223146275832000,8.22683203125,-0.38168877363204956,-0.6291118860244751,0.028655346482992172
1789223146285825800,8.23682568359375,-0.32187390327453613,-0.5295403003692627,0.06302130967378616
1789223146295819800,8.24681982421875,-0.27640655636787415,0.04072292894124985,0.09903869777917862
1789223146305813800,8.256813720703125,-0.15482953190803528,0.049788329750299454,0.008254733867943287
1789223146315807700,8.266807861328125,-0.061351243406534195,-0.261213481426239,0.005520200356841087
1789223146325801700,8.2768017578125,-0.058090999722480774,-0.023430757224559784,-0.2052823156118393
1789223146335796000,8.2867958984375,-0.1291654407978058,0.07779466360807419,0.0020415792241692543
1789223146345790000,8.2967900390625,-0.17089185118675232,-0.32175007462501526,0.16257347166538239
1789223146355783700,8.30678369140625,-0.08977143466472626,-0.6265485882759094,-0.2122422158718109
1789223146365777700,8.316777587890625,-0.021147895604372025,-0.41402408480644226,-0.10334929078817368
1789223146375771600,8.326771728515626,-0.04808150976896286,0.12782932817935944,0.12388013303279877
1789223146385766000,8.336765869140624,0.012435098178684711,0.03736761212348938,-0.033360086381435394
1789223146395759900,8.346759765625,0.15851640701293945,-0.4230535328388214,-0.0436212457716465
1789223146405753900,8.35675390625,0.18394294381141663,-0.12038819491863251,0.09493663161993027
1789223146415747800,8.366747802734375,0.04460528492927551,0.5782100558280945,-0.024655545130372047
1789223146425741800,8.376741943359375,-0.07415039092302322,0.1433268040418625,0.3325217664241791
1789223146435735800,8.38673583984375,-0.050990745425224304,-0.6016365885734558,0.4357701241970062
1789223146445729800,8.396729736328124,0.056232113391160965,-0.3941800594329834,-0.12846636772155762
1789223146455723800,8.406723876953125,0.1445862054824829,0.24940291047096252,-0.5911319851875305
1789223146465717800,8.4167177734375,0.1692121922969818,0.35833898186683655,-0.364399254322052
1789223146475711000,8.4267109375,0.2474939525127411,-0.38815146684646606,0.00700810831040144
1789223146485705000,8.436705078125,0.2785498797893524,-0.8078744411468506,0.07677573710680008
1789223146495699000,8.446698974609374,0.10610965639352798,-0.11901932954788208,0.0992237851023674
1789223146505692700,8.456692626953124,-0.16369199752807617,0.5165325999259949,0.4062489867210388
1789223146515686700,8.466686767578125,-0.25980493426322937,0.4424211084842682,0.1714029163122177
1789223146525681000,8.476680908203125,-0.06976496428251266,-0.3993743062019348,-0.11828163266181946
1789223146535675000,8.4866748046875,0.21345742046833038,-0.8630215525627136,-0.2225680947303772
1789223146545668900,8.4966689453125,0.3212240934371948,-0.04581542685627937,-0.39271080493927
1789223146555662800,8.506662841796874,0.28156617283821106,0.5787296891212463,-0.19383737444877625
1789223146565656800,8.51665673828125,0.17439550161361694,0.48475950956344604,0.029503563418984413
1789223146575650800,8.52665087890625,0.024933578446507454,0.20931221544742584,0.16059979796409607
1789223146585644800,8.536644775390625,-0.10845670104026794,-0.15588413178920746,0.31182312965393066
1789223146595638800,8.546638671875,-0.07681142538785934,-0.7536740303039551,0.2505358159542084
1789223146605632800,8.5566328125,0.09123963117599487,-0.7077142596244812,0.030485205352306366
1789223146615626800,8.566626708984375,0.16202671825885773,0.2547049820423126,-0.003061569994315505
1789223146625620700,8.576620849609375,0.13108424842357635,0.9733731150627136,-0.09754732996225357
1789223146635615000,8.586614990234375,0.019726300612092018,0.8393809795379639,-0.06619739532470703
1789223146645609000,8.59660888671875,-0.08891841769218445,0.05770723894238472,-0.026434537023305893
1789223146655603000,8.60660302734375,-0.17991863191127777,-0.6771952509880066,-0.019653862342238426
1789223146665596700,8.6165966796875,-0.2752435505390167,-0.8486181497573853,0.14987178146839142
1789223146675590700,8.626590576171875,-0.31019753217697144,-0.3815300464630127,0.1598581075668335
1789223146685585000,8.6365849609375,-0.22254572808742523,0.10938987135887146,0.01938621513545513
1789223146695579000,8.646578857421876,-0.1252063810825348,0.30174121260643005,-0.1251845508813858
1789223146705572900,8.65657275390625,-0.06652070581912994,0.09124575555324554,-0.20637688040733337
1789223146715566800,8.66656689453125,0.007562578655779362,-0.6842763423919678,-0.12339304387569427
1789223146725560800,8.676560791015625,-0.02149224281311035,-0.8464820384979248,-0.02376418560743332
1789223146735554800,8.686554931640625,-0.15115275979042053,-0.040097083896398544,0.005739378277212381
1789223146745548800,8.696548828125,-0.28898492455482483,0.4276474714279175,0.3018607795238495
1789223146755542800,8.706542724609376,-0.35940077900886536,0.40291228890419006,0.1366976648569107
1789223146765536800,8.716536865234374,-0.350762277841568,0.23316533863544464,-0.21735629439353943
1789223146775530000,8.726530029296875,-0.16389678418636322,-0.586005449295044,-0.01619707979261875
1789223146785524000,8.73652392578125,0.10916537046432495,-1.262585163116455,0.11185196787118912
1789223146795518000,8.74651806640625,0.1904652863740921,-0.6205447316169739,0.04607295244932175
1789223146805511700,8.75651171875,0.04152001440525055,0.5213441252708435,0.07736456394195557
1789223146815505700,8.766505615234376,-0.21045416593551636,0.8018761873245239,0.28755003213882446
1789223146825499600,8.776499755859374,-0.37685567140579224,0.21266672015190125,0.252765417098999
1789223146835494000,8.786493896484375,-0.2218189537525177,-0.7914667129516602,-0.21976564824581146
1789223146845487900,8.79648779296875,0.07629530131816864,-1.1246353387832642,-0.4338816702365875
1789223146855481900,8.80648193359375,0.18346649408340454,-0.20853589475154877,-0.3122636377811432
1789223146865475800,8.816475830078126,0.19144026935100555,0.2939152419567108,-0.02401292510330677
1789223146875469800,8.8264697265625,0.1328858733177185,-0.1007673591375351,0.2561633288860321
1789223146885463800,8.8364638671875,-0.1363503783941269,-0.00202293717302382,0.17650339007377625
1789223146895457800,8.846457763671875,-0.48271259665489197,0.31145110726356506,0.07011144608259201
1789223146905451800,8.85645166015625,-0.5301743745803833,-0.41606804728507996,0.08381021022796631
1789223146915445800,8.86644580078125,-0.1972195953130722,-1.0989664793014526,-0.054618772119283676
1789223146925439700,8.876439697265624,0.293374627828598,-0.8190775513648987,-0.07233491539955139
1789223146935434000,8.88643408203125,0.5336180925369263,0.3896436393260956,-0.28886428475379944
1789223146945428000,8.896427978515625,0.49948012828826904,0.6745967864990234,-0.15176209807395935
1789223146955422000,8.906421875,0.28099384903907776,0.1653711199760437,0.2360237091779709
1789223146965415700,8.916415771484376,0.04719920456409454,-0.1213301569223404,0.24735626578330994
1789223146975409700,8.92640966796875,0.06899158656597137,-0.3484932780265808,-0.09895560890436172
1789223146985404000,8.93640380859375,0.23394565284252167,-0.30291804671287537,-0.2732757329940796
1789223146995398000,8.94639794921875,0.4186638295650482,-0.11596281826496124,-0.21970705687999725
1789223147005392000,8.956391845703125,0.5586273074150085,0.18572644889354706,-0.07891425490379333
1789223147015385900,8.9663857421875,0.524147093296051,0.7205565571784973,0.15722237527370453
1789223147025379800,8.9763798828125,0.38260143995285034,0.8138753175735474,0.0210027527064085
1789223147035373800,8.986373779296875,0.2660468518733978,-0.22127433121204376,0.009474195539951324
1789223147045367800,8.996367919921875,0.23212964832782745,-0.9833290576934814,-0.01822827197611332
1789223147055361800,9.00636181640625,0.2731151580810547,-0.537063717842102,-0.001883387565612793
1789223147065355800,9.016355712890626,0.35403236746788025,0.4328475594520569,0.07673419266939163
1789223147075349800,9.026349853515624,0.3657241761684418,1.0246626138687134,-0.041073933243751526
1789223147085343700,9.03634375,0.33312949538230896,0.541469395160675,-0.005246427375823259
1789223147095338000,9.046337890625,0.2757261097431183,-0.28902995586395264,0.12388572841882706
1789223147105332000,9.05633203125,0.19403977692127228,-0.4869864284992218,-0.04096927121281624
1789223147115326000,9.066325927734376,0.06492546945810318,-0.0366421677172184,-0.11776578426361084
1789223147125319700,9.076319580078126,-0.009288573637604713,0.45240581035614014,-0.009668872691690922
1789223147135313000,9.08631298828125,-0.004020308144390583,0.5277218818664551,0.1418362259864807
1789223147145307000,9.096306884765625,0.020952686667442322,0.20734626054763794,0.09399253875017166
1789223147155300900,9.10630078125,0.12512622773647308,-0.40845805406570435,-0.16078568994998932
1789223147165294800,9.116294921875,0.21020463109016418,-0.8800146579742432,-0.16988757252693176
1789223147175288800,9.126288818359376,0.2080029994249344,-0.6629889011383057,-0.0486074835062027
1789223147185282800,9.13628271484375,0.005256813485175371,0.7784470319747925,0.17266258597373962
1789223147195276800,9.14627685546875,-0.17081408202648163,1.5417132377624512,0.4960361123085022
1789223147205270800,9.156270751953125,-0.17261944711208344,0.4455982446670532,0.6608663201332092
1789223147215264800,9.1662646484375,-0.10767213255167007,-0.7200316786766052,0.18734699487686157
1789223147225258800,9.1762587890625,-0.0014647386269643903,-0.8857953548431396,-0.21924367547035217
1789223147235252700,9.186252685546876,0.19489732384681702,-0.6962863802909851,-0.3417735695838928
1789223147245247000,9.1962470703125,0.39919158816337585,-0.35543933510780334,-0.42385032773017883
1789223147255241000,9.206240966796875,0.4207781255245209,0.40934357047080994,-0.30910032987594604
1789223147265234700,9.216234619140625,0.3214970827102661,0.7246298789978027,-0.17972847819328308
1789223147275228700,9.226228759765625,0.10877867788076401,0.40368223190307617,0.04433790221810341
1789223147285222700,9.23622265625,-0.10371920466423035,0.05726541951298714,0.32917869091033936
1789223147295217000,9.246216796875,-0.10157988965511322,-0.2572445869445801,0.4721108078956604
1789223147305211000,9.2562109375,0.14970853924751282,-0.3609086573123932,0.2342447191476822
1789223147315204900,9.266204833984375,0.4065816104412079,0.37019455432891846,-0.12417254596948624
1789223147325198800,9.27619873046875,0.458090603351593,1.1116855144500732,-0.18468275666236877
1789223147335192800,9.28619287109375,0.31276828050613403,0.8874930739402771,-0.09732522070407867
1789223147345186800,9.296186767578124,0.11854475736618042,0.1188182607293129,-0.18087337911128998
1789223147355180800,9.306180908203125,-0.003029345767572522,-0.6704782247543335,-0.13420388102531433
1789223147365174800,9.3161748046875,-0.026494191959500313,-0.7621229290962219,-0.24354873597621918
1789223147375168800,9.326168701171875,0.0336327962577343,-0.2191869467496872,-0.19615432620048523
1789223147385162800,9.336162841796876,0.13777650892734528,0.4204665422439575,0.12343858182430267
1789223147395156700,9.34615673828125,0.17832154035568237,0.7415761351585388,0.20304152369499207
1789223147405151000,9.35615087890625,0.08458279818296432,0.6821258068084717,0.12247957289218903
1789223147415145000,9.36614501953125,-0.06519152224063873,0.1875201016664505,0.21542176604270935
1789223147425138700,9.376138671875,-0.17231930792331696,-0.34285402297973633,0.22633354365825653
1789223147435132700,9.386132568359375,-0.18315251171588898,-0.3095937967300415,-0.07477517426013947
1789223147445126700,9.396126708984376,-0.04718588665127754,-0.17119012773036957,-0.25116032361984253
1789223147455121000,9.406120849609374,0.08272071182727814,-0.14695163071155548,-0.0938415378332138
1789223147465115000,9.416114990234375,0.18937845528125763,0.06112220883369446,-0.2623961865901947
1789223147475108900,9.42610888671875,0.2612859308719635,0.2731460630893707,-0.3538818955421448
1789223147485102800,9.436102783203125,0.24486488103866577,0.059049203991889954,0.07246088236570358
1789223147495096800,9.446096923828126,0.06518352776765823,0.14617745578289032,0.17564718425273895
1789223147505090800,9.4560908203125,-0.0808117613196373,0.0900324210524559,0.11307009309530258
1789223147515084800,9.466084716796875,-0.09536194056272507,-0.18554562330245972,0.18212878704071045
1789223147525078800,9.476078857421875,-0.05143655836582184,0.07032929360866547,-0.07818668335676193
1789223147535072800,9.48607275390625,0.048705488443374634,0.177900493144989,-0.1989075094461441
1789223147545066000,9.49606591796875,0.23374192416667938,-0.2239484041929245,-0.20038342475891113
1789223147555060000,9.50606005859375,0.3522392809391022,-0.13563746213912964,-0.22292016446590424
1789223147565053700,9.5160537109375,0.2415180802345276,0.5884819030761719,-0.0635126605629921
1789223147575047700,9.526047607421875,-0.004463990684598684,0.7549518346786499,0.23957131803035736
1789223147585041700,9.536041748046875,-0.11947180330753326,-0.10215459764003754,0.4006962776184082
1789223147595036000,9.546035888671875,-0.13504357635974884,-0.5729029178619385,0.23686739802360535
1789223147605030000,9.55602978515625,-0.08394709974527359,-0.2538793981075287,-0.26980698108673096
1789223147615023900,9.56602392578125,0.00833675917237997,0.018876485526561737,-0.2544032633304596
1789223147625017900,9.576017822265625,0.07062596827745438,0.3088558316230774,0.016917996108531952
1789223147635011800,9.58601171875,0.16891951858997345,0.21015191078186035,-0.1052744910120964
1789223147645005800,9.596005859375,0.201606884598732,-0.2456989735364914,-0.11032197624444962
1789223147654999800,9.605999755859376,-0.0024399880785495043,-0.13649073243141174,0.1904919147491455
1789223147664993800,9.615993896484374,-0.2559681236743927,0.2841438353061676,0.2309863418340683
1789223147674987800,9.62598779296875,-0.29894569516181946,0.26476427912712097,-0.1087440550327301
1789223147684981800,9.635981689453125,-0.16687020659446716,-0.0884704738855362,-0.08796367794275284
1789223147694975700,9.645975830078125,-0.018339859321713448,-0.02749660611152649,-0.029763221740722656
1789223147704970000,9.655969970703126,0.1833309382200241,-0.12419252097606659,-0.03594575077295303
1789223147714964000,9.6659638671875,0.3201199471950531,-0.2673984169960022,0.061228469014167786
1789223147724957700,9.675957763671875,0.2181973159313202,0.29118549823760986,0.028717132285237312
1789223147734951700,9.68595166015625,-0.006413690745830536,0.730060338973999,-0.11903823912143707
1789223147744945700,9.695945556640625,-0.11739027500152588,0.20536300539970398,-0.132808119058609
1789223147754940000,9.70593994140625,-0.11948484927415848,-0.40515440702438354,0.1001681461930275
1789223147764934000,9.715933837890624,-0.11777803301811218,-0.0926487073302269,0.239021897315979
1789223147774928000,9.725927978515625,-0.019024556502699852,0.2554994225502014,0.1879962682723999
1789223147784921900,9.735921875,0.08446455001831055,0.30784252285957336,0.1635412573814392
1789223147794915800,9.745915771484375,0.08027113974094391,0.5640245079994202,0.03253397345542908
1789223147804909800,9.755909912109376,0.00023276027059182525,0.5812785625457764,-0.060023121535778046
1789223147814903800,9.76590380859375,-0.045124601572752,-0.17014670372009277,-0.10952622443437576
1789223147824897800,9.775897705078124,-0.061703845858573914,-0.7710434794425964,-0.2042921483516693
1789223147834891800,9.785891845703125,-0.1161913201212883,-0.36394840478897095,0.04537813365459442
1789223147844885800,9.7958857421875,-0.11456918716430664,0.31894177198410034,0.11430340260267258
1789223147854879700,9.805879638671875,-0.06143033877015114,0.4687131643295288,-0.008175372146070004
1789223147864874000,9.8158740234375,-0.07383853942155838,0.3600953221321106,-0.08805635571479797
1789223147874868000,9.825867919921874,-0.22703421115875244,0.3268987536430359,0.07302973419427872
1789223147884861700,9.83586181640625,-0.33502140641212463,-0.10667824000120163,0.14563949406147003
1789223147894855700,9.845855712890625,-0.2913990914821625,-0.6159185767173767,0.0720539540052414
1789223147904849700,9.855849609375,-0.17620138823986053,-0.35338735580444336,0.058208711445331573
1789223147914844000,9.865843994140626,-0.05786915868520737,0.25861477851867676,-0.11460620909929276
1789223147924837400,9.87583740234375,0.009696036577224731,0.353600412607193,-0.25289031863212585
1789223147934831400,9.885831298828125,-0.031063910573720932,0.04976515844464302,-0.08832826465368271
1789223147944825300,9.895825439453125,-0.21040357649326324,0.05700203403830528,0.041739724576473236
1789223147954819300,9.9058193359375,-0.3699871003627777,-0.13302409648895264,0.17291691899299622
1789223147964813600,9.9158134765625,-0.4024486541748047,-0.556041419506073,0.38780099153518677
1789223147974807600,9.9258076171875,-0.37846049666404724,-0.23479999601840973,0.20083749294281006
1789223147984801500,9.935801513671874,-0.28802165389060974,0.39586105942726135,-0.35633575916290283
1789223147994795500,9.94579541015625,-0.1524292230606079,0.3027167320251465,-0.5634969472885132
1789223148004789200,9.955789306640625,-0.08898100256919861,-0.20998838543891907,-0.21304196119308472
1789223148014783500,9.965783447265625,-0.06929917633533478,-0.4939969480037689,0.02971528470516205
1789223148024777500,9.975777587890626,-0.03708185628056526,-0.6142644882202148,0.21017001569271088
1789223148034771500,9.985771484375,-0.22946114838123322,0.17087000608444214,0.38700124621391296
1789223148044765400,9.995765380859375,-0.5374677181243896,1.0588289499282837,0.3251434564590454
1789223148054759400,10.005759521484375,-0.6362142562866211,0.5536341667175293,0.052796367555856705
1789223148064752400,10.01575244140625,-0.4689483046531677,-0.7478348016738892,0.028010329231619835
1789223148074746400,10.025746337890626,-0.17419496178627014,-0.9182590246200562,-0.1851663887500763
1789223148084740400,10.035740234375,0.05106877535581589,0.055749546736478806,-0.39766746759414673
1789223148094734300,10.045734375,0.20882324874401093,0.2807600200176239,-0.28026440739631653
1789223148104728600,10.055728515625,0.11322562396526337,0.050463974475860596,-0.04405827075242996
1789223148114722600,10.06572265625,-0.24529391527175903,0.26995691657066345,-0.008109591901302338
1789223148124716500,10.075716552734375,-0.5067918300628662,-0.014520352706313133,0.12048327177762985
1789223148134710500,10.08571044921875,-0.43560633063316345,-0.8999854326248169,0.25428420305252075
1789223148144704300,10.095704345703124,-0.24911847710609436,-0.39065882563591003,0.1048947274684906
1789223148154698500,10.105698486328125,-0.022299179807305336,0.6892934441566467,-0.08884544670581818
1789223148164692500,10.1156923828125,0.06313209980726242,1.0063822269439697,0.057616956532001495
1789223148174686500,10.1256865234375,0.03790077567100525,0.5048197507858276,-0.03621739149093628
1789223148184680400,10.135680419921876,-0.014591192826628685,-0.5896097421646118,-0.014899320900440216
1789223148194674400,10.14567431640625,-0.11762010306119919,-0.9363687634468079,-0.16531892120838165
1789223148204668400,10.15566845703125,-0.2009269744157791,-0.3323228061199188,-0.23749804496765137
1789223148214662700,10.16566259765625,-0.18670782446861267,0.18788202106952667,-0.0036903421860188246
1789223148224656400,10.175656494140625,-0.07569902390241623,0.3984493613243103,-0.1507072150707245
1789223148234650400,10.185650390625,-0.06193554028868675,0.5014186501502991,-0.09971886873245239
1789223148244644400,10.195644287109374,-0.16588111221790314,0.33144611120224,-0.002430400811135769
1789223148254638300,10.205638427734375,-0.20822323858737946,-0.5354689955711365,0.14967204630374908
1789223148264632600,10.215632568359375,-0.2588624656200409,-0.7428818345069885,0.3338962197303772
1789223148274626600,10.22562646484375,-0.29385825991630554,-0.03583922237157822,0.2170066088438034
1789223148284620500,10.23562060546875,-0.2821590006351471,0.47126179933547974,0.11801265925168991
1789223148294614500,10.245614501953124,-0.2252320498228073,0.4016494154930115,-0.1516539752483368
1789223148304608300,10.255608154296874,-0.1595129668712616,-0.1312544196844101,-0.34717845916748047
1789223148314602500,10.2656025390625,-0.15635338425636292,-0.49524354934692383,-0.34026038646698
1789223148324596500,10.275596435546875,-0.1880367547273636,-0.5715463161468506,-0.14085432887077332
1789223148334590500,10.285590576171876,-0.17279307544231415,-0.7600906491279602,0.3198014497756958
1789223148344584400,10.29558447265625,-0.20151208341121674,-0.25319844484329224,0.5579322576522827
1789223148354578400,10.305578369140624,-0.24463984370231628,0.6174536347389221,0.3717708885669708
1789223148364572400,10.315572509765625,-0.18983331322669983,0.5040748715400696,0.004328435752540827
1789223148374566700,10.325566650390625,-0.03875219076871872,-0.3752090334892273,-0.474191814661026
1789223148384560400,10.335560302734375,0.02917652763426304,-0.6115475296974182,-0.3086931109428406
1789223148394554400,10.345554443359376,-0.012348544783890247,-0.09947226196527481,-0.03711221367120743
1789223148404548400,10.35554833984375,0.05603104457259178,-0.20001564919948578,0.08972855657339096
1789223148414542300,10.365542236328125,0.17594759166240692,-0.4567715525627136,0.24919730424880981
1789223148424536600,10.37553662109375,0.09845626354217529,0.3186030089855194,0.2114001214504242
1789223148434530600,10.385530517578125,-0.0855705589056015,0.8667768836021423,-0.004063451196998358
1789223148444524500,10.395524658203126,-0.14174169301986694,-0.0020298613235354424,-0.014562697149813175
1789223148454518500,10.4055185546875,-0.07480872422456741,-0.8294519186019897,-0.048715073615312576
1789223148464512300,10.41551220703125,0.09861072897911072,-0.6057932376861572,-0.21647904813289642
1789223148474506500,10.425506591796875,0.2613948583602905,0.16104693710803986,-0.23166757822036743
1789223148484500500,10.43550048828125,0.2593604624271393,0.6362906694412231,0.00890720821917057
1789223148494494500,10.445494384765626,0.15382231771945953,0.24913924932479858,0.3289041221141815
1789223148504488400,10.455488525390624,-0.04000094532966614,-0.08919326215982437,0.30843454599380493
1789223148514482400,10.465482421875,-0.14580300450325012,-0.3297613859176636,0.048761412501335144
1789223148524476400,10.475476318359375,-0.08093399554491043,-0.5859979391098022,-0.14135393500328064
1789223148534470700,10.485470703125,0.042695533484220505,-0.20699472725391388,-0.21554240584373474
1789223148544464400,10.49546435546875,0.12359996885061264,0.46856242418289185,-0.10851875692605972
1789223148554458400,10.505458251953126,0.15550516545772552,0.36759984493255615,0.10610406845808029
1789223148564452400,10.515452392578124,0.1555246114730835,-0.2563692033290863,0.13628673553466797
1789223148574446300,10.5254462890625,0.12108887732028961,-0.5738118886947632,0.13969744741916656
1789223148584440600,10.535440673828125,0.05329571291804314,-0.3896732032299042,0.09171633422374725
1789223148594434600,10.5454345703125,-0.014105432666838169,-0.0015246596885845065,-0.05361582338809967
1789223148604428500,10.555428466796876,-0.027465712279081345,0.16165627539157867,0.014898521825671196
1789223148614422500,10.565422607421874,0.10347498953342438,-0.1378508061170578,-0.17943473160266876
1789223148624416300,10.575416259765625,0.2476542741060257,-0.33126741647720337,-0.44436946511268616
1789223148634410500,10.585410400390625,0.26718324422836304,-0.2894025146961212,-0.07393360882997513
1789223148644404500,10.595404541015625,0.1315617561340332,0.04207181930541992,0.3561647832393646
1789223148654398500,10.6053984375,0.023372966796159744,0.27016356587409973,0.19794291257858276
1789223148664392400,10.615392333984374,-0.012087821960449219,-0.02183791995048523,0.09991247951984406
1789223148674386400,10.625386474609375,-0.046663641929626465,-0.22858338057994843,0.056882455945014954
1789223148684380400,10.63538037109375,0.04259912669658661,-0.3884875476360321,-0.2989608645439148
1789223148694374700,10.645374755859375,0.23748046159744263,-0.6382529139518738,-0.3397711515426636
1789223148704368400,10.655368408203126,0.28896042704582214,-0.08334176242351532,-0.12544287741184235
1789223148714362400,10.6653623046875,0.1344480812549591,0.7500183582305908,0.17306526005268097
1789223148724356400,10.6753564453125,0.031030619516968727,0.26497334241867065,0.5956255793571472
1789223148734349600,10.685349609375,0.05574209243059158,-0.7128917574882507,0.4730469286441803
1789223148744343600,10.695343505859375,0.07906579226255417,-0.5657022595405579,-0.20000340044498444
1789223148754338600,10.705338623046876,0.041845183819532394,0.16033001244068146,-0.5153472423553467
1789223148764331300,10.715331298828126,0.020170781761407852,0.2749735116958618,-0.2621173560619354
1789223148774325200,10.7253251953125,0.09351424127817154,-0.08789417147636414,0.01786315254867077
1789223148784319500,10.735319580078125,0.26652729511260986,-0.4665983319282532,0.18976832926273346
1789223148794313500,10.7453134765625,0.38786303997039795,-0.42550602555274963,0.28221437335014343
1789223148804307500,10.755307373046875,0.26632195711135864,0.22675324976444244,0.18175780773162842
1789223148814301400,10.765301513671876,0.07925780117511749,0.5551218390464783,0.0059628174640238285
1789223148824295400,10.77529541015625,-0.0012543488992378116,0.011572766117751598,-0.054005444049835205
1789223148834289700,10.78528955078125,0.012264123186469078,-0.35830700397491455,-0.22656123340129852
1789223148844283400,10.795283447265625,0.11962253600358963,-0.13597993552684784,-0.39985179901123047
1789223148854277400,10.80527734375,0.30051055550575256,-0.26025980710983276,0.024502679705619812
1789223148864271400,10.815271240234376,0.402386873960495,-0.14601925015449524,0.2583535313606262
1789223148874265300,10.825265380859374,0.3339814245700836,0.27216947078704834,0.4392905533313751
1789223148884259600,10.835259521484375,0.2242104709148407,0.387967973947525,0.19503633677959442
1789223148894253600,10.845253662109375,0.15009362995624542,0.028085164725780487,-0.15223588049411774
1789223148904247600,10.85524755859375,0.09259198606014252,-0.12818700075149536,-0.19252070784568787
1789223148914241500,10.865241455078126,0.1297161877155304,-0.02737276814877987,-0.16073375940322876
1789223148924235500,10.875235595703124,0.24454450607299805,0.09399919956922531,-0.025073660537600517
1789223148934229500,10.8852294921875,0.2858075201511383,0.4151471257209778,0.14833886921405792
1789223148944223700,10.8952236328125,0.2769320011138916,0.30221766233444214,0.157297745347023
1789223148954217700,10.9052177734375,0.22123011946678162,-0.10239242017269135,0.09746424108743668
1789223148964211700,10.915211669921876,0.08143787086009979,-0.05726595222949982,0.10041581839323044
1789223148974205400,10.925205322265626,-0.024093884974718094,0.10602177679538727,-0.07372135668992996
1789223148984199400,10.935199462890624,0.09190569072961807,-0.3714134991168976,-0.2854653000831604
1789223148994193700,10.945193603515625,0.23106597363948822,-0.5355126857757568,-0.14630767703056335
1789223149004187600,10.955187744140625,0.2206527441740036,0.2565692067146301,-0.23350436985492706
1789223149014181600,10.965181640625,0.16608324646949768,0.5415900349617004,-0.14611274003982544
1789223149024175600,10.975175537109376,0.10046961903572083,0.0762777253985405,0.18836404383182526
1789223149034169600,10.985169677734374,0.0012884372845292091,-0.11669599264860153,0.04092719405889511
1789223149044163600,10.99516357421875,-0.05588723346590996,-0.1328722983598709,-0.11080215126276016
1789223149054157600,11.005157470703125,0.034801121801137924,-0.33144503831863403,-0.06935270875692368
1789223149064151600,11.015151611328125,0.20024654269218445,-0.342282235622406,-0.19375374913215637
1789223149074145500,11.0251455078125,0.23319889605045319,0.26157063245773315,-0.28163567185401917
1789223149084139500,11.035139404296874,0.10350801795721054,0.8955963253974915,-0.13800154626369476
1789223149094133500,11.045133544921875,0.010150638408958912,0.37874916195869446,0.18408913910388947
1789223149104127700,11.055127685546875,-0.03603017330169678,-0.4788171947002411,0.37413284182548523
1789223149114121700,11.065121826171875,-0.0631432831287384,-0.31286975741386414,0.16590695083141327
1789223149124115700,11.07511572265625,0.010343983769416809,0.14059412479400635,-0.14691674709320068
1789223149134109400,11.085109375,0.05245788022875786,0.40301430225372314,-0.2749767005443573
1789223149144103400,11.095103515625,0.03674736246466637,0.42451560497283936,-0.3022772967815399
1789223149154097700,11.10509765625,-0.013055347837507725,0.021986525505781174,0.15851427614688873
1789223149164091600,11.115091552734375,-0.016894029453396797,-0.36941665410995483,0.2424864023923874
1789223149174085600,11.125085693359376,-0.04133785143494606,-0.11469941586256027,-0.022947926074266434
1789223149184079600,11.13507958984375,-0.11401817947626114,0.24486221373081207,0.020415792241692543
1789223149194073600,11.145073486328124,-0.14542058110237122,0.10487901419401169,-0.11602620780467987
1789223149204067600,11.155067626953125,-0.20560428500175476,-0.12999394536018372,-0.20248626172542572
1789223149214061600,11.1650615234375,-0.3013734221458435,0.043174102902412415,-0.05986759439110756
1789223149224055600,11.1750556640625,-0.282320111989975,0.09174376726150513,0.09094135463237762
1789223149234049500,11.185049560546876,-0.09924589097499847,-0.2143772691488266,0.19261126220226288
1789223149244043500,11.19504345703125,0.004003796260803938,-0.06209506094455719,0.1468949019908905
1789223149254037500,11.20503759765625,-0.05287839472293854,0.23734012246131897,0.1791180819272995
1789223149264031700,11.21503173828125,-0.14156325161457062,0.10999787598848343,0.11298460513353348
1789223149274025700,11.225025634765625,-0.19720228016376495,-0.19652476906776428,-0.025778867304325104
1789223149284019700,11.235019775390626,-0.18047736585140228,-0.2220085710287094,-0.29667988419532776
1789223149294013400,11.245013427734374,-0.12308810651302338,-0.006904244888573885,-0.337050199508667
1789223149304007400,11.25500732421875,-0.1237400472164154,0.24526222050189972,0.009306682273745537
1789223149314001700,11.265001708984375,-0.16325683891773224,0.4616736173629761,0.17182795703411102
1789223149323995600,11.27499560546875,-0.1570814996957779,0.11399847269058228,0.2635975480079651
1789223149333989600,11.28498974609375,-0.1431417167186737,-0.3630863130092621,0.2697529196739197
1789223149343983600,11.294983642578124,-0.10230426490306854,-0.4368268549442291,-0.0017369136912748218
1789223149353977600,11.3049775390625,0.0086643286049366,-0.156124085187912,-0.29646602272987366
1789223149363971600,11.3149716796875,0.1266426295042038,-0.008311193436384201,-0.23130325973033905
1789223149373965600,11.324965576171875,0.07275409996509552,0.31542664766311646,-0.24343901872634888
1789223149383959600,11.33495947265625,-0.06896655261516571,0.3375612497329712,-0.2374413162469864
1789223149393953500,11.34495361328125,-0.11315398663282394,-0.26089364290237427,0.14161145687103271
1789223149403947500,11.354947509765625,-0.14472922682762146,-0.35119956731796265,0.32309311628341675
1789223149413941500,11.36494140625,-0.09603811800479889,0.1267121434211731,0.06968241184949875
1789223149423935700,11.374935791015625,0.02129570208489895,0.2732994556427002,0.11971761286258698
1789223149433929700,11.3849296875,0.09743494540452957,0.22426985204219818,-0.033256225287914276
1789223149443923700,11.394923828125,0.15219593048095703,0.11655084788799286,-0.4424397349357605
1789223149453917400,11.40491748046875,0.10764230787754059,-0.1221565380692482,-0.20154669880867004
1789223149463911400,11.414911376953125,0.005017395596951246,-0.09828528761863708,-0.019531622529029846
1789223149473905700,11.42490576171875,-0.013317403383553028,-0.2573351263999939,0.35434263944625854
1789223149483899600,11.434899658203125,-0.03624535724520683,-0.08876848220825195,0.7457322478294373
1789223149493893600,11.4448935546875,-0.024231569841504097,0.4105910062789917,0.4911428391933441
1789223149503887600,11.4548876953125,0.08594340085983276,0.4504052400588989,-0.17148147523403168
1789223149513881600,11.464881591796875,0.21260014176368713,-0.003947070799767971,-0.6251227259635925
1789223149523875800,11.474875732421875,0.20148997008800507,0.051363054662942886,-0.7055150270462036
1789223149533869600,11.48486962890625,0.14706747233867645,0.07973290979862213,-0.1990443915128708
1789223149543863600,11.494863525390626,0.19369490444660187,-0.3507460355758667,0.4344015121459961
1789223149553857500,11.504857421875,0.23802880942821503,-0.1823839247226715,0.3778146803379059
1789223149563851500,11.5148515625,0.12524287402629852,0.5658532977104187,0.27637779712677
1789223149573845500,11.524845458984375,-0.07592325657606125,0.8786618113517761,0.2504420578479767
1789223149583839700,11.53483984375,-0.11655191332101822,0.03249828889966011,0.02557087317109108
1789223149593833700,11.544833740234376,-0.059000469744205475,-0.5052546262741089,-0.2078607827425003
1789223149603827700,11.55482763671875,0.04201695695519447,-0.0381455197930336,-0.4141218066215515
1789223149613821400,11.564821533203125,0.16557565331459045,0.28422534465789795,-0.3068840503692627
1789223149623815400,11.5748154296875,0.2528860569000244,0.07052290439605713,0.014280668459832668
1789223149633809700,11.5848095703125,0.15916354954242706,0.14456650614738464,0.20009766519069672
1789223149643803600,11.5948037109375,-0.06162608042359352,0.3253064453601837,0.16013000905513763
1789223149653797600,11.604797607421874,-0.18046005070209503,-0.16856983304023743,0.10833127051591873
1789223149663791600,11.61479150390625,-0.22839269042015076,-0.31387192010879517,0.01792680285871029
1789223149673785600,11.62478564453125,-0.22685019671916962,0.3071815073490143,-0.1990758180618286
1789223149683779800,11.63477978515625,-0.17602482438087463,0.6707679629325867,-0.15233254432678223
1789223149693773600,11.644773681640626,-0.012231099419295788,0.050208576023578644,0.06003324314951897
1789223149703767600,11.654767578125,0.05988410487771034,-0.5070818662643433,0.24967694282531738
1789223149713761500,11.664761474609374,-0.010340522043406963,-0.36451032757759094,0.08693010360002518
1789223149723755500,11.674755615234375,-0.06450042873620987,-0.24729155004024506,0.01890125311911106
1789223149733749500,11.68474951171875,-0.12055651098489761,-0.06472839415073395,0.20342741906642914
1789223149743743700,11.69474365234375,-0.18049228191375732,0.5136649012565613,-0.08307624608278275
1789223149753737700,11.70473779296875,-0.12172111123800278,0.5001429915428162,-0.5400685667991638
1789223149763731700,11.714731689453124,-0.032162465155124664,-0.3475220203399658,-0.20659685134887695
1789223149773725400,11.724725341796875,-0.019604593515396118,-0.6300690174102783,0.06587301939725876
1789223149783719400,11.734719482421875,-0.03808240592479706,-0.299540638923645,0.24146109819412231
1789223149793713700,11.744713623046875,0.0253415759652853,0.037690386176109314,0.27877092361450195
1789223149803707600,11.754707763671876,0.027768779546022415,0.5208719372749329,0.01465617399662733
1789223149813701600,11.76470166015625,-0.07311708480119705,0.610589325428009,-0.1574769765138626
1789223149823695600,11.774695556640625,-0.08491595834493637,-0.2999483644962311,-0.14453162252902985
1789223149833689600,11.784689697265625,-0.013510748744010925,-0.9399967789649963,-0.0911853015422821
1789223149843683800,11.794683837890625,0.05619882419705391,-0.34886452555656433,-0.15789802372455597
1789223149853677600,11.804677490234376,0.12138129025697708,0.37707483768463135,-0.10930678248405457
1789223149863671600,11.814671630859374,0.08221045136451721,0.5013536810874939,0.31831780076026917
1789223149873665500,11.82466552734375,-0.04056740179657936,0.27795758843421936,0.43294185400009155
1789223149883659500,11.834659423828125,-0.07233012467622757,-0.20821711421012878,-0.04248514398932457
1789223149893653500,11.844653564453125,-0.050463706254959106,-0.5230551958084106,-0.1130133718252182
1789223149903647700,11.854647705078126,-0.06809383630752563,0.0422329418361187,-0.19202430546283722
1789223149913641700,11.864641845703124,-0.01954946666955948,0.20505568385124207,-0.19613967835903168
1789223149923636500,11.874636474609375,0.020746290683746338,0.009884055703878403,0.03820570930838585
1789223149933630200,11.884630126953125,0.03232012316584587,0.18696188926696777,-0.014049505814909935
1789223149943624200,11.894624267578125,0.09726210683584213,-0.037943653762340546,-0.11219817399978638
1789223149953618200,11.9046181640625,0.1492408812046051,-0.48611876368522644,-0.3310306668281555
1789223149963612400,11.9146123046875,0.0210629403591156,-0.3514280617237091,0.008026234805583954
1789223149973606400,11.9246064453125,-0.14146898686885834,0.18210269510746002,0.13831552863121033
1789223149983600400,11.934600341796875,-0.17706824839115143,0.37550410628318787,0.06933699548244476
1789223149993594400,11.944594482421875,-0.08510370552539825,0.2048809826374054,0.14342321455478668
1789223150003588400,11.95458837890625,0.031034614890813828,0.1030677929520607,0.02510189078748226
1789223150013582300,11.964582275390624,0.09140181541442871,-0.03982996940612793,-0.07544095814228058
1789223150023576300,11.974576416015625,0.09550628066062927,-0.2117311656475067,0.03183489665389061
1789223150033570300,11.9845703125,0.05102083832025528,-0.20722535252571106,0.19000935554504395
1789223150043564300,11.994564208984375,-0.03686320781707764,0.23573529720306396,-0.07450565695762634
1789223150053558300,12.004558349609376,-0.12674249708652496,0.5634154081344604,-0.3827494978904724
1789223150063552300,12.01455224609375,-0.22081999480724335,0.3970901072025299,-0.17624986171722412
1789223150073545200,12.024545166015624,-0.23541544377803802,-0.06172621622681618,0.09396271407604218
1789223150083539200,12.034539306640625,-0.13704147934913635,-0.6061887145042419,0.3374249041080475
1789223150093534200,12.0445341796875,-0.028685174882411957,-0.6600061655044556,0.3432215452194214
1789223150103528200,12.054528076171875,-0.0452878512442112,-0.041800178587436676,0.24299107491970062
1789223150113522200,12.064522216796876,-0.11057471483945847,0.3620370328426361,0.24143685400485992
1789223150123515400,12.074515380859374,-0.1706058233976364,0.282097727060318,0.1950927972793579
1789223150133509400,12.08450927734375,-0.15541328489780426,-0.04872759059071541,-0.17383970320224762
1789223150143503400,12.09450341796875,-0.08317185193300247,-0.39567914605140686,-0.49018383026123047
1789223150153498400,12.104498291015625,-0.15499889850616455,-0.21407261490821838,-0.494101345539093
1789223150163492000,12.1144921875,-0.25130653381347656,-0.13112260401248932,-0.24268987774848938
1789223150173485300,12.1244853515625,-0.2089952975511551,-0.43557438254356384,0.13731445372104645
1789223150183479300,12.134479248046874,-0.14224369823932648,-0.3007121682167053,0.2564608156681061
1789223150193473300,12.144473388671875,-0.18524496257305145,0.3127121031284332,-0.026441460475325584
1789223150203467300,12.15446728515625,-0.16481797397136688,-0.1002456471323967,0.10530778020620346
1789223150213461500,12.16446142578125,-0.0939648449420929,-0.6311625242233276,0.3886076509952545
1789223150223455500,12.17445556640625,-0.1270865797996521,0.2268637716770172,0.1065773069858551
1789223150233449200,12.18444921875,-0.177772656083107,0.9924845099449158,-0.20960329473018646
1789223150243443200,12.194443115234375,-0.19190099835395813,0.19226478040218353,0.18389393389225006
1789223150253437200,12.204437255859375,-0.10518447309732437,-0.9614405632019043,0.12443486601114273
1789223150263431400,12.214431396484375,0.051902610808610916,-1.102967619895935,-0.3202909231185913
1789223150273425400,12.22442529296875,0.11806778609752655,-0.3121832013130188,-0.33921879529953003
1789223150283419400,12.23441943359375,0.00845500361174345,0.39892634749412537,-0.20426711440086365
1789223150293413400,12.244413330078125,-0.16047783195972443,0.38417482376098633,0.03778945654630661
1789223150303407400,12.254407470703125,-0.2825523316860199,0.3224209249019623,0.17637476325035095
1789223150313401300,12.2644013671875,-0.25412896275520325,0.05385630577802658,0.32690194249153137
1789223150323395300,12.274395263671876,-0.1552196741104126,-0.02562520280480385,-0.15581995248794556
1789223150333389300,12.284389404296874,-0.016587233170866966,-0.5540024638175964,-0.28791993856430054
1789223150343383300,12.29438330078125,-0.008390288800001144,-0.8299403190612793,0.2593548595905304
1789223150353377300,12.304377197265625,-0.05293139070272446,-0.12861523032188416,0.18446119129657745
