time,seconds_elapsed,z,y,x
1789223138100793900,0.0517939453125,0.1012713611125946,-0.4149113595485687,-0.39719706773757935
1789223138110787600,0.06178759765625,0.3933037519454956,-1.0099693536758423,-0.7253995537757874
1789223138120781600,0.071781494140625,0.6007136702537537,-0.443569153547287,-0.6839256286621094
1789223138130775800,0.08177587890625,0.7428969740867615,0.045846447348594666,-0.5155699849128723
1789223138140769800,0.091769775390625,0.7898026704788208,0.002174865920096636,-0.30926284193992615
1789223138150763800,0.101763671875,0.5879608988761902,0.17715466022491455,0.16906803846359253
1789223138160757800,0.1117578125,0.24160052835941315,0.7773424983024597,0.3688187003135681
1789223138170751700,0.121751708984375,-0.030170686542987823,0.8154768943786621,0.5022871494293213
1789223138180744700,0.13174462890625,-0.07231281697750092,0.30363011360168457,0.4809253513813019
1789223138190738700,0.14173876953125,0.0899461954832077,-0.09692706167697906,0.34616369009017944
1789223138200732700,0.151732666015625,0.330458402633667,0.11584912240505219,-0.08825461566448212
1789223138210726700,0.1617265625,0.5693929195404053,0.0034325653687119484,-0.30123400688171387
1789223138220720600,0.171720703125,0.7088565230369568,-0.40453335642814636,-0.3120799958705902
1789223138230715000,0.18171484375,0.6675541996955872,-0.1624116599559784,-0.41317689418792725
1789223138240708900,0.191708984375,0.4608337879180908,0.3995986878871918,-0.3324309289455414
1789223138250702600,0.20170263671875,0.2207610309123993,0.5938525795936584,-0.3078371584415436
1789223138260696600,0.211696533203125,0.010947609320282936,0.37155720591545105,0.023354077711701393
1789223138270690600,0.221690673828125,-0.03707224875688553,0.11038058251142502,0.3938269019126892
1789223138280683800,0.231683837890625,0.0658344253897667,0.21362946927547455,0.5703393220901489
1789223138290677800,0.241677734375,0.2544398307800293,0.42799073457717896,0.40461695194244385
1789223138300671700,0.251671630859375,0.37915220856666565,0.2671845555305481,0.1821170300245285
1789223138310665700,0.261665771484375,0.36142289638519287,-0.03001835010945797,-0.09743515402078629
1789223138320659700,0.27165966796875,0.28717875480651855,-0.02605103887617588,-0.4646991789340973
1789223138330653700,0.28165380859375,0.2612956762313843,-0.04856628179550171,-0.4879743456840515
1789223138340647700,0.291647705078125,0.2999280095100403,-0.07395260035991669,-0.4606069028377533
1789223138350641700,0.3016416015625,0.3353763222694397,0.1516149640083313,-0.24320563673973083
1789223138360635600,0.3116357421875,0.30719342827796936,0.6193675398826599,0.15611885488033295
1789223138370630000,0.3216298828125,0.2800849974155426,0.6739688515663147,0.3728182017803192
1789223138380624000,0.331623779296875,0.23998495936393738,0.30844414234161377,0.39807772636413574
1789223138390616600,0.341616455078125,0.1716819405555725,0.10976900905370712,0.2162773758172989
1789223138400610600,0.351610595703125,0.1329936683177948,0.17218364775180817,0.10533647984266281
1789223138410604800,0.361604736328125,0.18128696084022522,0.14610335230827332,-0.07447011023759842
1789223138420598800,0.371598876953125,0.3161954879760742,0.15016095340251923,-0.41115570068359375
1789223138430592800,0.3815927734375,0.39786767959594727,0.26224422454833984,-0.28593510389328003
1789223138440586800,0.391586669921875,0.48000648617744446,0.14393250644207,-0.3508768081665039
1789223138450580700,0.401580810546875,0.5732495188713074,-0.1662527620792389,-0.2330513447523117
1789223138460574700,0.41157470703125,0.655685544013977,-0.09866760671138763,0.05003627389669418
1789223138470568700,0.421568603515625,0.6414124965667725,0.5307202935218811,0.3003595173358917
1789223138480562700,0.431562744140625,0.4578695595264435,1.5029776096343994,0.42452409863471985
1789223138490555600,0.4415556640625,0.16000577807426453,1.9742653369903564,0.4852748215198517
1789223138500550000,0.4515498046875,-0.0951884314417839,0.9389275312423706,0.6365293264389038
1789223138510544000,0.4615439453125,-0.24817167222499847,-0.5610624551773071,0.4520087242126465
1789223138520537900,0.471537841796875,-0.24834103882312775,-1.0579817295074463,0.02143816277384758
1789223138530531600,0.481531494140625,0.027129121124744415,-1.0458085536956787,-0.4712364375591278
1789223138540525600,0.491525634765625,0.43847909569740295,-0.9448297023773193,-0.9839562177658081
1789223138550519800,0.501519775390625,0.5884407162666321,0.11020003259181976,-0.9480799436569214
1789223138560513800,0.511513671875,0.3806438446044922,1.5454732179641724,-0.3187803328037262
1789223138570507800,0.5215078125,0.06892146170139313,1.3401321172714233,0.3383769094944
1789223138580501800,0.531501708984375,-0.2701314389705658,-0.17745397984981537,0.8419271111488342
1789223138590495700,0.541495849609375,-0.6891511678695679,-0.7330520749092102,1.1419758796691895
1789223138600488700,0.55148876953125,-0.9270196557044983,-0.5411105751991272,0.9568710327148438
1789223138610482700,0.561482666015625,-0.8556064963340759,-0.40070512890815735,0.45198002457618713
1789223138620476700,0.5714765625,-0.6418777108192444,0.17314431071281433,-0.12605376541614532
1789223138630470700,0.581470703125,-0.37256383895874023,0.652920663356781,-0.7800753712654114
1789223138640465000,0.59146484375,-0.07161756604909897,-0.1794508546590805,-1.0558276176452637
1789223138650459000,0.601458984375,0.15344136953353882,-1.1965171098709106,-0.9654217958450317
1789223138660452900,0.611452880859375,0.22573447227478027,-1.1049381494522095,-0.49798932671546936
1789223138670446600,0.621446533203125,0.1765349805355072,-0.030551090836524963,-0.03418911248445511
1789223138680440600,0.631440673828125,0.000001218169927597046,1.168541431427002,0.35331255197525024
1789223138690434800,0.641434814453125,-0.3490105867385864,1.8196817636489868,0.9163135886192322
1789223138700427800,0.651427734375,-0.6204769611358643,1.2372101545333862,0.9695289134979248
1789223138710421800,0.661421875,-0.6457438468933105,-0.25085723400115967,0.7080804109573364
1789223138720415700,0.671415771484375,-0.4092857539653778,-1.3090076446533203,0.16654127836227417
1789223138730409700,0.68140966796875,-0.02914341352880001,-1.1878010034561157,-0.6353155374526978
1789223138740403700,0.69140380859375,0.3028009831905365,-0.892521858215332,-0.6318947076797485
1789223138750397700,0.701397705078125,0.4204322397708893,-0.14821498095989227,-0.4352838397026062
1789223138760391700,0.7113916015625,0.31239578127861023,0.851536750793457,-0.503739595413208
1789223138770385700,0.7213857421875,0.02386276237666607,0.8879638910293579,-0.167772114276886
1789223138780379600,0.731379638671875,-0.3486921489238739,0.4350155293941498,0.08720745146274567
1789223138790374000,0.741373779296875,-0.5783461332321167,-0.1849096566438675,0.41355425119400024
1789223138800367900,0.751367919921875,-0.5059869885444641,-0.5802229046821594,0.5979030728340149
1789223138810360600,0.761360595703125,-0.132581889629364,-0.4944482743740082,0.4099830687046051
1789223138820354800,0.771354736328125,0.26237210631370544,0.08438471704721451,0.1375502198934555
1789223138830348800,0.781348876953125,0.49565181136131287,0.40800926089286804,-0.1743536740541458
1789223138840342800,0.7913427734375,0.4799562096595764,0.2812374532222748,-0.3998318016529083
1789223138850336800,0.801336669921875,0.2400754690170288,0.14475926756858826,-0.4051162898540497
1789223138860330800,0.811330810546875,-0.003673000494018197,-0.08191622048616409,-0.3674674332141876
1789223138870324700,0.82132470703125,-0.08351247757673264,-0.4231286644935608,-0.18595083057880402
1789223138880318700,0.831318603515625,-0.04531235992908478,-0.2934737205505371,0.13154563307762146
1789223138890312700,0.841312744140625,0.08773770928382874,0.3051580786705017,0.11740943044424057
1789223138900306700,0.851306640625,0.28114017844200134,0.31686854362487793,0.2974388599395752
1789223138910301200,0.86130126953125,0.3352690041065216,0.11868230998516083,0.5086992979049683
1789223138920294400,0.87129443359375,0.2717142701148987,0.11980216950178146,0.21846425533294678
1789223138930288000,0.8812880859375,0.16387303173542023,0.10136744379997253,-0.032946329563856125
1789223138940282000,0.8912822265625,0.11413423717021942,-0.021798159927129745,-0.31502196192741394
1789223138950276000,0.901276123046875,0.15403982996940613,-0.0441335029900074,-0.5731284022331238
1789223138960270000,0.91127001953125,0.3370967209339142,-0.19723330438137054,-0.3521536588668823
1789223138970264300,0.921264404296875,0.5728511810302734,-0.043529439717531204,-0.15625987946987152
1789223138980258300,0.93125830078125,0.6676029562950134,0.5082559585571289,0.09720008075237274
1789223138990252300,0.941252197265625,0.6199074983596802,0.6428510546684265,0.5692099928855896
1789223139000246300,0.951246337890625,0.44789499044418335,0.5527187585830688,0.6425265669822693
1789223139010240000,0.961239990234375,0.18197298049926758,0.5964381098747253,0.4869706928730011
1789223139020234000,0.97123388671875,0.014764819294214249,0.29592961072921753,0.3035145699977875
1789223139030227200,0.981227294921875,0.07733503729104996,-0.24513602256774902,-0.12386544793844223
1789223139040221200,0.99122119140625,0.35058653354644775,-0.26868823170661926,-0.638247549533844
1789223139050215200,1.001215087890625,0.7874677777290344,0.039635512977838516,-0.836032509803772
1789223139060209200,1.011209228515625,1.139794945716858,0.39228811860084534,-0.6804046034812927
1789223139070203400,1.021203369140625,1.1885507106781006,0.5923294425010681,-0.05856168270111084
1789223139080197000,1.031197021484375,0.9666652083396912,0.7955981492996216,0.42776721715927124
1789223139090191000,1.041191162109375,0.5891799330711365,0.9794043898582458,0.6235179901123047
1789223139100185000,1.05118505859375,0.21775470674037933,0.8410747647285461,0.7000308632850647
1789223139110179000,1.061178955078125,-0.011272905394434929,0.5888184905052185,0.29622122645378113
1789223139120173300,1.07117333984375,0.05364777147769928,0.33864033222198486,-0.24006962776184082
1789223139130167300,1.081167236328125,0.44117364287376404,0.0422736331820488,-0.44043663144111633
1789223139140160000,1.091159912109375,0.9689573049545288,0.07591068744659424,-0.6163930296897888
1789223139150154200,1.101154296875,1.3411577939987183,0.3625011444091797,-0.528390109539032
1789223139160148200,1.111148193359375,1.3708664178848267,0.6841856837272644,-0.03931976854801178
1789223139170142200,1.12114208984375,1.0072057247161865,1.2295782566070557,0.39866673946380615
1789223139180136200,1.13113623046875,0.49078065156936646,1.3713270425796509,0.3795822560787201
1789223139190130200,1.141130126953125,0.031400587409734726,0.7537795901298523,0.5335602760314941
1789223139200124200,1.151124267578125,-0.19262132048606873,0.21680372953414917,0.41348689794540405
1789223139210118400,1.161118408203125,-0.05822260305285454,0.16615641117095947,0.048158422112464905
1789223139220112100,1.171112060546875,0.3529103398323059,0.26639965176582336,-0.15701790153980255
1789223139230106000,1.181106201171875,0.7387874126434326,0.5700668096542358,-0.33844736218452454
1789223139240100000,1.19110009765625,0.7893062829971313,0.938188910484314,-0.14495886862277985
1789223139250093300,1.20109326171875,0.4642050862312317,1.1486287117004395,0.10260804742574692
1789223139260087300,1.21108740234375,-0.09129969775676727,0.8365298509597778,0.19473209977149963
1789223139270081300,1.221081298828125,-0.7131018042564392,0.26998278498649597,0.37009939551353455
1789223139280075300,1.2310751953125,-1.2154200077056885,0.16363638639450073,0.4431925117969513
1789223139290069000,1.241069091796875,-1.4088302850723267,0.2204742729663849,0.34687599539756775
1789223139300063200,1.251063232421875,-1.254681944847107,0.06524606794118881,0.1495991200208664
1789223139310057200,1.26105712890625,-0.9166185259819031,-0.15196242928504944,-0.10117096453905106
1789223139320051200,1.27105126953125,-0.6484366059303284,-0.15704986453056335,-0.3046151399612427
1789223139330045200,1.281045166015625,-0.6271200180053711,0.15035384893417358,-0.354060560464859
1789223139340039200,1.2910390625,-0.8011716604232788,0.05789608508348465,-0.31441912055015564
1789223139350033400,1.301033447265625,-1.0884300470352173,-0.4746021032333374,-0.007385654374957085
1789223139360026000,1.311026123046875,-1.417675256729126,-0.4417056739330292,0.2598276734352112
1789223139370020000,1.32102001953125,-1.6055623292922974,0.0497993566095829,0.3026120662689209
1789223139380014000,1.33101416015625,-1.5701323747634888,0.026658348739147186,0.2988000214099884
1789223139390008300,1.34100830078125,-1.4336981773376465,-0.37218454480171204,0.24237050116062164
1789223139400002300,1.351002197265625,-1.3190045356750488,-0.4855097830295563,0.3299565315246582
1789223139409996300,1.360996337890625,-1.2251089811325073,0.03549879789352417,0.015013245865702629
1789223139419990300,1.370990234375,-1.103486180305481,-0.010252447798848152,-0.4064922034740448
1789223139429984000,1.38098388671875,-1.1156727075576782,-0.5603706240653992,-0.43783366680145264
1789223139439978200,1.390978271484375,-1.3089162111282349,-0.6718899607658386,-0.2548539936542511
1789223139449972200,1.40097216796875,-1.4948647022247314,-0.6444479823112488,0.027359506115317345
1789223139459965200,1.410965087890625,-1.5514411926269531,-0.56635582447052,0.12719635665416718
1789223139469959200,1.420959228515625,-1.5320955514907837,-0.16607248783111572,0.10407820343971252
1789223139479953400,1.430953369140625,-1.4424644708633423,0.003157550934702158,0.421630859375
1789223139489947100,1.440947021484375,-1.261682152748108,-0.35610854625701904,0.6377809047698975
1789223139499941000,1.450941162109375,-1.0053874254226685,-0.9409653544425964,0.46677637100219727
1789223139509935000,1.46093505859375,-0.7971574664115906,-1.1181093454360962,0.1813194900751114
1789223139519929000,1.47092919921875,-0.628473162651062,-0.8655340671539307,-0.23520289361476898
1789223139529923300,1.48092333984375,-0.4249866306781769,-0.9675025343894958,-0.5862864851951599
1789223139539917300,1.490917236328125,-0.36897850036621094,-0.8905230760574341,-0.4421173930168152
1789223139549911300,1.500911376953125,-0.5134408473968506,-0.18096396327018738,-0.10924530774354935
1789223139559905300,1.5109052734375,-0.6305747032165527,0.1430431306362152,0.29716986417770386
1789223139569899000,1.52089892578125,-0.5750995874404907,-0.2274559736251831,0.6402981281280518
1789223139579892200,1.530892333984375,-0.49426785111427307,-0.1761922538280487,0.7071323394775391
1789223139589886200,1.54088623046875,-0.4416925311088562,0.25343233346939087,0.51557457447052
1789223139599880200,1.550880126953125,-0.28870299458503723,-0.007871691137552261,0.11097755283117294
1789223139609874200,1.560874267578125,-0.0223931223154068,-0.9791956543922424,-0.2594768702983856
1789223139619868200,1.5708681640625,0.13998672366142273,-1.327701449394226,-0.5104774236679077
1789223139629862400,1.5808623046875,0.12076245993375778,-0.9189473390579224,-0.3985520005226135
1789223139639856000,1.590856201171875,-0.0031277909874916077,-0.3917165994644165,0.04385097697377205
1789223139649850000,1.60085009765625,-0.13277772068977356,0.11490099877119064,0.26382380723953247
1789223139659844000,1.610843994140625,-0.22570261359214783,0.3095698356628418,0.4086659252643585
1789223139669838000,1.620838134765625,-0.2469862550497055,0.06755246967077255,0.42073488235473633
1789223139679832300,1.630832275390625,-0.10222534835338593,-0.6716363430023193,0.29975253343582153
1789223139689825300,1.6408251953125,0.12286297231912613,-1.1400197744369507,0.20216603577136993
1789223139699819000,1.650819091796875,0.34642574191093445,-0.8412752151489258,-0.1124667376279831
1789223139709813000,1.66081298828125,0.5296173095703125,-0.5218191146850586,-0.20273958146572113
1789223139719807200,1.67080712890625,0.5890433192253113,-0.23267459869384766,-0.09449860453605652
1789223139729801200,1.68080126953125,0.5257757902145386,0.30587637424468994,-0.12921178340911865
1789223139739795200,1.690795166015625,0.46537986397743225,0.3169868290424347,-0.02487633004784584
1789223139749789200,1.7007890625,0.41724279522895813,-0.12180723994970322,0.1419418901205063
1789223139759783200,1.710783203125,0.3460160195827484,-0.16987144947052002,0.25939422845840454
1789223139769777400,1.72077734375,0.40037035942077637,-0.02510835789144039,0.18215803802013397
1789223139779771100,1.730771240234375,0.6167375445365906,-0.05210588872432709,0.026412641629576683
1789223139789765000,1.74076513671875,0.8803892731666565,-0.08187009394168854,-0.15666191279888153
1789223139799758000,1.750758056640625,1.0633151531219482,0.04172961041331291,-0.3936081528663635
1789223139809752300,1.76075244140625,1.1007952690124512,0.021716944873332977,-0.23052123188972473
1789223139819746300,1.770746337890625,0.9715198874473572,0.10788698494434357,0.04518890380859375
1789223139829740300,1.780740234375,0.8285472393035889,0.19994018971920013,0.09568633884191513
1789223139839734000,1.790734130859375,0.674246072769165,0.4325268566608429,0.3655921220779419
1789223139849728000,1.80072802734375,0.5676760077476501,0.7687307596206665,0.3916507363319397
1789223139859722200,1.81072216796875,0.5619544982910156,0.567926824092865,0.06773363798856735
1789223139869716200,1.82071630859375,0.5861258506774902,0.0326915942132473,0.03539443016052246
1789223139879710200,1.830710205078125,0.6263020634651184,-0.04426603764295578,-0.2809837758541107
1789223139889704200,1.8407041015625,0.7610809803009033,-0.17459224164485931,-0.6209077835083008
1789223139899698200,1.8506982421875,0.8991957306861877,-0.4628322720527649,-0.43234822154045105
1789223139909692200,1.860692138671875,0.920474112033844,-0.2293388545513153,-0.23623642325401306
1789223139919684400,1.870684326171875,0.8052729368209839,0.16796216368675232,0.17870298027992249
1789223139929678000,1.880677978515625,0.5971760153770447,0.611867368221283,0.308881014585495
1789223139939672300,1.89067236328125,0.3718845844268799,0.7804560661315918,0.27043747901916504
1789223139949666300,1.900666259765625,0.2365262806415558,0.2783927023410797,0.45527514815330505
1789223139959660300,1.910660400390625,0.2910342514514923,-0.3670126795768738,0.3327692151069641
1789223139969654300,1.920654296875,0.523442268371582,-0.3857056498527527,-0.2586217522621155
1789223139979648300,1.930648193359375,0.820304274559021,0.1423501819372177,-0.7163808345794678
1789223139989642500,1.940642578125,0.9774879217147827,0.7287562489509583,-0.7951817512512207
1789223139999636500,1.950636474609375,0.8531614542007446,1.1182390451431274,-0.46066340804100037
1789223140009630200,1.960630126953125,0.4888671338558197,0.9631347060203552,0.32390260696411133
1789223140019624200,1.970624267578125,0.018986444920301437,0.7102497220039368,0.9139912128448486
1789223140029617400,1.980617431640625,-0.3563705086708069,0.6356760263442993,0.8726295828819275
1789223140039611400,1.990611328125,-0.518356442451477,0.48437681794166565,0.543076753616333
1789223140049605400,2.00060546875,-0.4647694230079651,0.18262602388858795,0.015459795482456684
1789223140059599400,2.010599365234375,-0.1947038322687149,-0.2561050057411194,-0.3393925726413727
1789223140069593300,2.02059326171875,0.1832272857427597,-0.5744938254356384,-0.4521082639694214
1789223140079587300,2.03058740234375,0.47391051054000854,-0.4022592604160309,-0.6162175536155701
1789223140089581300,2.040581298828125,0.46301624178886414,0.10834459215402603,-0.3881601095199585
1789223140099575300,2.0505751953125,0.14003846049308777,0.4524194002151489,0.22286038100719452
1789223140109569300,2.0605693359375,-0.3315076529979706,0.6319857835769653,0.3847699463367462
1789223140119563300,2.070563232421875,-0.745154619216919,0.5675668716430664,0.19108492136001587
1789223140129557200,2.08055712890625,-0.9274955987930298,0.0992116779088974,0.25079572200775146
1789223140139551500,2.090551513671875,-0.7972989678382874,-0.33395546674728394,0.1753436028957367
1789223140149544200,2.100544189453125,-0.4252701699733734,-0.41726619005203247,-0.19952930510044098
1789223140159538200,2.1105380859375,-0.03555808216333389,-0.1922975331544876,-0.3653041422367096
1789223140169532400,2.120532470703125,0.17085197567939758,0.03893401473760605,-0.18191294372081757
1789223140179526400,2.1305263671875,0.06548827141523361,0.1079876497387886,0.12260699272155762
1789223140189520400,2.140520263671875,-0.36157795786857605,0.3312022089958191,0.09859312325716019
1789223140199514400,2.150514404296875,-0.9353227615356445,0.5293179750442505,0.07534398883581161
1789223140209508400,2.16050830078125,-1.2662562131881714,-0.013299205340445042,0.14888224005699158
1789223140219502300,2.17050244140625,-1.1022899150848389,-1.0183846950531006,0.0269230417907238
1789223140229496300,2.180496337890625,-0.5467014312744141,-1.3853200674057007,-0.09014275670051575
1789223140239490300,2.190490234375,-0.048475950956344604,-0.48854881525039673,-0.024168003350496292
1789223140249484300,2.200484375,0.1025853380560875,0.6205745935440063,-0.01351514458656311
1789223140259478300,2.210478271484375,-0.11943014711141586,0.9684039354324341,-0.16270434856414795
1789223140269471500,2.220471435546875,-0.5329408645629883,0.27823156118392944,-0.1293836086988449
1789223140279465500,2.230465576171875,-0.8740057349205017,-0.8164209127426147,0.1064440906047821
1789223140289459200,2.240459228515625,-0.9297109842300415,-1.4638477563858032,0.32338663935661316
1789223140299453200,2.250453125,-0.6937146782875061,-0.9005154967308044,0.25976982712745667
1789223140309447200,2.260447265625,-0.3199421167373657,0.31580933928489685,0.1256585419178009
1789223140319441400,2.27044140625,-0.017756711691617966,0.8629677891731262,0.012168203480541706
1789223140329435400,2.280435302734375,0.04497683420777321,0.5471130609512329,-0.07035261392593384
1789223140339429400,2.290429443359375,-0.06466151028871536,-0.24907836318016052,-0.17074686288833618
1789223140349423400,2.30042333984375,-0.09568027406930923,-1.328941822052002,-0.21691983938217163
1789223140359417300,2.310417236328125,-0.04162902012467384,-1.435865879058838,-0.25542834401130676
1789223140369411300,2.320411376953125,-0.014231489971280098,-0.13242940604686737,-0.10953948646783829
1789223140379405300,2.3304052734375,-0.004356754943728447,1.0566017627716064,0.2896025776863098
1789223140389399300,2.3403994140625,0.01605510339140892,1.0391732454299927,0.7210084199905396
1789223140399392300,2.350392333984375,0.03846214339137077,0.315429151058197,0.6061111688613892
1789223140409386500,2.360386474609375,0.1379820853471756,-0.5224087834358215,-0.15243206918239594
1789223140419380500,2.37038037109375,0.31821149587631226,-1.2849167585372925,-0.5753263235092163
1789223140429374200,2.380374267578125,0.4607788324356079,-1.0973588228225708,-0.6074228286743164
1789223140439368200,2.3903681640625,0.539668619632721,0.10157416760921478,-0.4866340756416321
1789223140449362200,2.400362060546875,0.519120454788208,1.0264300107955933,0.024984348565340042
1789223140459356400,2.4103564453125,0.37817904353141785,0.9979784488677979,0.40536150336265564
1789223140469350400,2.420350341796875,0.07262204587459564,0.49227479100227356,0.5500972270965576
1789223140479344400,2.430344482421875,-0.20914997160434723,-0.26339343190193176,0.5157339572906494
1789223140489338400,2.44033837890625,-0.24169953167438507,-0.9321799278259277,0.06251739710569382
1789223140499332400,2.450332275390625,-0.025027409195899963,-1.07242751121521,-0.45363330841064453
1789223140509326300,2.460326416015625,0.27621906995773315,-0.4794791042804718,-0.6102702021598816
1789223140519319300,2.4703193359375,0.4821394681930542,0.2786637246608734,-0.4865967333316803
1789223140529313300,2.480313232421875,0.5134962201118469,0.4430193305015564,-0.16210341453552246
1789223140539307300,2.490307373046875,0.34332987666130066,0.09144347161054611,0.13630299270153046
1789223140549301500,2.500301513671875,0.023710794746875763,-0.26020920276641846,0.3172502815723419
1789223140559295500,2.51029541015625,-0.2543863356113434,-0.5940151810646057,0.47695842385292053
1789223140569289200,2.520289306640625,-0.34658193588256836,-0.5336308479309082,0.3826698660850525
1789223140579283200,2.530283203125,-0.22439824044704437,0.00231754407286644,0.02884094789624214
1789223140589277200,2.540277099609375,-0.031248023733496666,0.44796422123908997,-0.06531982868909836
1789223140599271400,2.550271484375,0.116462342441082,0.4564538300037384,-0.13169646263122559
1789223140609265400,2.560265380859375,0.14579223096370697,0.08453349769115448,-0.2048196792602539
1789223140619259400,2.57025927734375,0.125388965010643,-0.5932218432426453,-0.07662096619606018
1789223140629253400,2.58025341796875,-0.01893414370715618,-0.7219757437705994,0.024662181735038757
1789223140639246300,2.590246337890625,-0.16736915707588196,-0.34342336654663086,0.14061115682125092
1789223140649240300,2.600240234375,-0.1275467723608017,0.7173891663551331,0.14922218024730682
1789223140659234300,2.610234375,-0.0837247222661972,0.7425086498260498,0.11897265911102295
1789223140669228300,2.620228271484375,-0.06602517515420914,-0.1599252074956894,0.015562770888209343
1789223140679222300,2.63022216796875,-0.02513047680258751,-0.7275257706642151,-0.055854953825473785
1789223140689216300,2.64021630859375,0.14401085674762726,-0.0995655432343483,0.02450438216328621
1789223140699210500,2.65021044921875,0.26832693815231323,0.6003409028053284,0.029041076079010963
1789223140709204500,2.66020458984375,0.28451770544052124,0.2881295382976532,-0.0541192963719368
1789223140719198200,2.6701982421875,0.13898420333862305,-0.5039172172546387,0.03589687868952751
1789223140729192200,2.680192138671875,-0.03242400288581848,-0.6726521253585815,0.03664001449942589
1789223140739186200,2.690186279296875,-0.0696246400475502,0.0534486398100853,-0.01425059512257576
1789223140749180400,2.700180419921875,0.007934560999274254,0.46961843967437744,-0.07143966108560562
1789223140759174400,2.71017431640625,0.15473279356956482,-0.27405065298080444,-0.017361242324113846
1789223140769167400,2.72016748046875,0.23904946446418762,-0.7321485280990601,-0.09722307324409485
1789223140779161000,2.7301611328125,0.28054603934288025,-0.2537371814250946,-0.1466934233903885
1789223140789155300,2.7401552734375,0.29244691133499146,0.545823872089386,-0.034636661410331726
1789223140799149300,2.7501494140625,0.24255286157131195,0.022681616246700287,0.07426239550113678
1789223140809143300,2.760143310546875,0.040056049823760986,-0.3011046051979065,0.3497045636177063
1789223140819137300,2.77013720703125,-0.10778108239173889,-0.32583364844322205,0.5551120638847351
1789223140829131300,2.78013134765625,-0.001979280263185501,-0.10086742788553238,0.06346763670444489
1789223140839125500,2.79012548828125,0.21572135388851166,0.10717525333166122,-0.4516795873641968
1789223140849119500,2.800119384765625,0.39263075590133667,0.10856989026069641,-0.6796801090240479
1789223140859113200,2.81011328125,0.5366287231445312,-0.40981733798980713,-0.38802802562713623
1789223140869107200,2.820107177734375,0.5393884181976318,-0.6646535396575928,-0.006398088298738003
1789223140879101200,2.83010107421875,0.30004000663757324,0.18499548733234406,0.11969353258609772
1789223140889095400,2.840095458984375,0.04076848179101944,0.8308560252189636,0.331560343503952
1789223140899088400,2.85008837890625,-0.10466274619102478,0.655319333076477,0.42815613746643066
1789223140909082400,2.860082275390625,-0.05337788909673691,0.03516988456249237,0.11530228704214096
1789223140919076900,2.870076904296875,0.10334381461143494,-0.3321404755115509,-0.02784767933189869
1789223140929070800,2.88007080078125,0.33465805649757385,-0.2920840382575989,-0.2614102363586426
1789223140939065000,2.890065185546875,0.5183583498001099,0.02146855555474758,-0.4891054630279541
1789223140949059000,2.90005908203125,0.4892798662185669,0.5114315748214722,-0.30538204312324524
1789223140959053000,2.910052978515625,0.3278355896472931,0.522946834564209,-0.019823551177978516
1789223140969047000,2.920047119140625,0.14417123794555664,-0.049438897520303726,0.24481317400932312
1789223140979041000,2.930041015625,-0.07616965472698212,-0.058099500834941864,0.21417057514190674
1789223140989035000,2.940034912109375,-0.2410067319869995,0.29699018597602844,0.18910029530525208
1789223140999029000,2.950029052734375,-0.19943559169769287,0.14000511169433594,0.20747318863868713
1789223141009023000,2.96002294921875,0.07090644538402557,-0.1457490772008896,-0.11888643354177475
1789223141019017000,2.970016845703125,0.2509816586971283,0.20189596712589264,-0.25313103199005127
1789223141029010200,2.98001025390625,0.19081470370292664,0.7966613173484802,-0.3000321686267853
1789223141039004200,2.990004150390625,0.06984220445156097,0.40574443340301514,-0.24631966650485992
1789223141048998000,2.999997802734375,0.0032644886523485184,-0.683436393737793,0.12715542316436768
1789223141058991900,3.009991943359375,-0.240587055683136,-0.402434766292572,0.25802475214004517
1789223141068985900,3.01998583984375,-0.4371190667152405,0.10150853544473648,0.07322730869054794
1789223141078980000,3.02997998046875,-0.3924602270126343,-0.12516722083091736,0.13360115885734558
1789223141088974000,3.03997412109375,-0.10718023777008057,-0.08028941601514816,0.09387774765491486
1789223141098968000,3.049968017578125,0.2526434361934662,0.4778686761856079,-0.1636134386062622
1789223141108962000,3.059962158203125,0.40557751059532166,1.0244719982147217,-0.4663331210613251
1789223141118956000,3.0699560546875,0.3677257299423218,0.5021811127662659,-0.3327271342277527
1789223141128949800,3.07994970703125,0.204956516623497,-0.526677131652832,0.1559624820947647
1789223141138944000,3.089944091796875,-0.04324716329574585,-0.38727259635925293,0.13609929382801056
1789223141148938000,3.09993798828125,-0.17837923765182495,0.42355355620384216,0.013429704122245312
1789223141158931000,3.109930908203125,-0.11196746677160263,0.5760221481323242,0.2713749408721924
1789223141168925000,3.119925048828125,0.03994546830654144,0.6321060657501221,0.21176254749298096
1789223141178919200,3.129919189453125,0.2835690677165985,0.5566539168357849,-0.09790397435426712
1789223141188913000,3.139912841796875,0.5074244737625122,-0.09870315343141556,0.04580232873558998
1789223141198907000,3.149906982421875,0.4907757639884949,-0.27541348338127136,0.00211290642619133
1789223141208900900,3.15990087890625,0.28273603320121765,0.146774023771286,-0.08719778060913086
1789223141218894800,3.169894775390625,-0.01806613802909851,0.6727688312530518,0.19014114141464233
1789223141228889000,3.17988916015625,-0.2084251195192337,0.5871673822402954,0.2098986655473709
1789223141238883000,3.189883056640625,-0.32339245080947876,0.204351007938385,0.29477521777153015
1789223141248877000,3.199876953125,-0.2819408178329468,-0.14125531911849976,0.3813932538032532
1789223141258871000,3.20987109375,-0.0014588232152163982,-0.21076861023902893,-0.3147922158241272
1789223141268864800,3.21986474609375,0.3654039800167084,-0.19789709150791168,-0.7515586018562317
1789223141278859000,3.22985888671875,0.47341006994247437,0.4465777575969696,-0.5706663131713867
1789223141288853000,3.23985302734375,0.32645073533058167,0.9712300300598145,-0.022679362446069717
1789223141298846000,3.249845947265625,0.11265269666910172,0.5418767929077148,0.4059358835220337
1789223141308840000,3.25983984375,-0.18538740277290344,0.23135708272457123,0.43668806552886963
1789223141318834200,3.269834228515625,-0.5585108995437622,0.5837489366531372,0.2715395987033844
1789223141328828200,3.279828125,-0.7505266070365906,0.2999751567840576,0.1472870111465454
1789223141338822000,3.28982177734375,-0.6180236339569092,-0.6307828426361084,-0.10244425386190414
1789223141348816000,3.29981591796875,-0.4121595025062561,-0.5792152881622314,-0.18683670461177826
1789223141358809900,3.309809814453125,-0.20653259754180908,0.20538608729839325,-0.36452600359916687
1789223141368804000,3.31980419921875,-0.0652177706360817,0.26231276988983154,-0.35699760913848877
1789223141378798000,3.329798095703125,-0.1705860048532486,-0.037298187613487244,0.02478783391416073
1789223141388792000,3.3397919921875,-0.46877220273017883,-0.08499976247549057,0.29696276783943176
1789223141398786000,3.3497861328125,-0.7847272753715515,-0.0066671427339315414,0.26681339740753174
1789223141408780000,3.359780029296875,-0.8906587362289429,-0.1940770447254181,0.030266238376498222
1789223141418774000,3.36977392578125,-0.8381505608558655,-0.3790663480758667,0.20362763106822968
1789223141428768000,3.37976806640625,-0.6770554184913635,-0.10048315674066544,0.10397784411907196
1789223141438761000,3.389760986328125,-0.4480070471763611,0.330694317817688,-0.34399887919425964
1789223141448755000,3.3997548828125,-0.32100149989128113,0.27285638451576233,-0.11677233874797821
1789223141458749000,3.4097490234375,-0.3502728343009949,-0.1809380054473877,0.21181192994117737
1789223141468743200,3.4197431640625,-0.4938969314098358,-0.5121517777442932,0.12807711958885193
1789223141478737000,3.42973681640625,-0.690222978591919,-0.22726812958717346,-0.10717508941888809
1789223141488731000,3.43973095703125,-0.7240864634513855,-0.20982924103736877,-0.08616488426923752
1789223141498724900,3.449724853515625,-0.5138543844223022,-0.9812434315681458,0.24456456303596497
1789223141508718800,3.45971875,-0.23839963972568512,-0.9060604572296143,0.19278627634048462
1789223141518713000,3.469713134765625,-0.06933046132326126,0.25617715716362,-0.0035773799754679203
1789223141528707000,3.47970703125,-0.03752860054373741,0.7206743955612183,-0.0466829352080822
1789223141538701000,3.489701171875,-0.0714639350771904,0.09594021737575531,-0.316654771566391
1789223141548695000,3.499695068359375,-0.1715954691171646,-0.5897250771522522,-0.0884823128581047
1789223141558688800,3.509688720703125,-0.295282781124115,-0.4326688349246979,0.19018179178237915
1789223141568682000,3.519681884765625,-0.227942556142807,-0.2446264624595642,0.1127704456448555
1789223141578676000,3.529676025390625,-0.11095788329839706,-0.07203472405672073,0.2412080466747284
1789223141588670000,3.539669921875,-0.03367973864078522,0.20692861080169678,0.20189878344535828
1789223141598664000,3.549663818359375,0.0578342005610466,0.028135698288679123,0.014359244145452976
1789223141608658200,3.559658203125,0.16747944056987762,-0.4161587059497833,-0.24398161470890045
1789223141618652200,3.569652099609375,0.22881364822387695,-0.44889137148857117,-0.43891966342926025
1789223141628646000,3.57964599609375,0.1675642877817154,-0.033540837466716766,-0.10252684354782104
1789223141638639900,3.589639892578125,0.14793013036251068,0.21624475717544556,0.09142345190048218
1789223141648633900,3.5996337890625,0.1781596690416336,0.008556338027119637,0.2972761392593384
1789223141658628000,3.609628173828125,0.13725058734416962,0.001211339607834816,0.17747971415519714
1789223141668622000,3.6196220703125,0.07769005000591278,0.05290992930531502,-0.05518851801753044
1789223141678616000,3.629615966796875,0.0863029807806015,-0.1398129165172577,-0.010928645730018616
1789223141688610000,3.639610107421875,0.1960829198360443,-0.2946670651435852,-0.1753251999616623
1789223141698603800,3.649603759765625,0.3253397047519684,-0.35347020626068115,-0.01659519597887993
1789223141708598000,3.659597900390625,0.33738911151885986,-0.04369083046913147,0.1754760593175888
1789223141718591000,3.669591064453125,0.24514760076999664,0.26115429401397705,0.11155804991722107
1789223141728585000,3.6795849609375,0.14371126890182495,0.13813842833042145,0.027782849967479706
1789223141738579000,3.689578857421875,0.06866606324911118,-0.07254345715045929,-0.04643971845507622
1789223141748573200,3.6995732421875,0.03907502442598343,-0.2760307192802429,-0.24316395819187164
1789223141758567200,3.709567138671875,0.18482796847820282,-0.799270749092102,-0.30390268564224243
1789223141768561000,3.719560791015625,0.38911008834838867,-0.6290102005004883,-0.21262294054031372
1789223141778555000,3.729554931640625,0.4979172646999359,0.3246523141860962,-0.1580055058002472
1789223141788548900,3.739548828125,0.39332062005996704,0.9431185126304626,0.16815216839313507
1789223141798543000,3.749543212890625,0.18495117127895355,0.6686493754386902,0.2497767210006714
1789223141808537000,3.759537109375,0.0191615279763937,-0.1548248529434204,0.3393252491950989
1789223141818531000,3.769531005859375,-0.029407605528831482,-0.6999720931053162,0.12421374022960663
1789223141828525000,3.779525146484375,0.11960335075855255,-0.9799977540969849,-0.24660137295722961
1789223141838519000,3.78951904296875,0.3606939911842346,-0.8386043906211853,-0.03700155392289162
1789223141848512800,3.7995126953125,0.4817694127559662,0.3443114459514618,0.07880515605211258
1789223141858507000,3.809507080078125,0.45613887906074524,1.4645345211029053,-0.32506030797958374
1789223141868500000,3.8195,0.280234158039093,0.9774933457374573,0.056289345026016235
1789223141878494000,3.829493896484375,0.010510258376598358,-0.14558666944503784,0.33527490496635437
1789223141888488000,3.839488037109375,-0.17723245918750763,-0.7985993027687073,0.10829727351665497
1789223141898482200,3.849482177734375,-0.1764950305223465,-0.6716413497924805,0.02761014737188816
1789223141908476000,3.859475830078125,-0.07477298378944397,0.04245270788669586,0.028979413211345673
1789223141918469400,3.869469482421875,0.08835256099700928,0.36846330761909485,0.05909177288413048
1789223141928463000,3.879463134765625,0.19906741380691528,0.3517587184906006,0.03809234872460365
1789223141938457300,3.889457275390625,0.21943260729312897,0.19780831038951874,-0.2483716458082199
1789223141948451300,3.899451416015625,0.17188327014446259,-0.37187135219573975,-0.3637539744377136
1789223141958445300,3.9094453125,-0.025018075481057167,-0.7166212797164917,-0.007795592769980431
1789223141968439300,3.919439208984375,-0.2013380378484726,-0.5633601546287537,0.11049027740955353
1789223141978433300,3.929433349609375,-0.22137139737606049,-0.13653908669948578,0.16001708805561066
1789223141988427500,3.939427490234375,-0.093668133020401,0.18998806178569794,0.21357294917106628
1789223141998421500,3.94942138671875,0.008826809003949165,0.5196653008460999,-0.028191743418574333
1789223142008414200,3.959414306640625,0.11311439424753189,0.07309164106845856,-0.008685288950800896
1789223142018408200,3.969408203125,0.24453367292881012,-0.6500282287597656,0.020096823573112488
1789223142028402400,3.97940234375,0.2788364291191101,-0.3601030111312866,-0.1394207924604416
1789223142038396400,3.989396484375,0.16451521217823029,0.6385626196861267,-0.2013198584318161
1789223142048390400,3.999390380859375,0.051282018423080444,0.56511390209198,0.059761080890893936
1789223142058384400,4.00938427734375,0.04998612403869629,-0.4877079427242279,0.37169554829597473
1789223142068378000,4.019378173828125,0.025659848004579544,-0.3870086669921875,0.09326022118330002
1789223142078372400,4.029372314453125,-0.002973661758005619,0.3755640685558319,-0.24523288011550903
1789223142088366300,4.039366455078125,0.07773060351610184,0.2047107219696045,-0.06972668319940567
1789223142098360300,4.0493603515625,0.19086940586566925,-0.11653921753168106,0.14207132160663605
1789223142108354300,4.059354248046875,0.29763543605804443,0.20309072732925415,0.02878396026790142
1789223142118348300,4.069348388671875,0.34955480694770813,0.36025533080101013,0.015951786190271378
1789223142128342300,4.07934228515625,0.1871907263994217,0.3424599766731262,0.033109549432992935
1789223142138336500,4.08933642578125,-0.06732332706451416,0.10025877505540848,0.05317060649394989
1789223142148330200,4.099330322265625,-0.2333579659461975,-0.1568402796983719,0.001588054932653904
1789223142158323200,4.1093232421875,-0.13585165143013,-0.5420918464660645,-0.25009265542030334
1789223142168317400,4.1193173828125,0.002312848810106516,-0.128300279378891,-0.4684106409549713
1789223142178311400,4.1293115234375,0.0903252586722374,0.4436444342136383,-0.20998944342136383
1789223142188305400,4.139305419921875,0.10464532673358917,0.49281853437423706,0.14780908823013306
1789223142198299400,4.14929931640625,0.035040952265262604,0.34402480721473694,0.0725867822766304
1789223142208293400,4.15929345703125,-0.11330711841583252,0.10562866926193237,0.19509059190750122
1789223142218287000,4.169287109375,-0.20356938242912292,-0.156942218542099,0.05663738027215004
1789223142228281300,4.17928125,-0.1679554581642151,-0.4842250347137451,0.010186524130403996
1789223142238275300,4.189275390625,-0.13166828453540802,-0.05677355080842972,0.1838802844285965
1789223142248269300,4.199269287109375,0.019706763327121735,0.3707273304462433,0.13305263221263885
1789223142258263300,4.20926318359375,0.11177676916122437,0.27200552821159363,0.21874463558197021
1789223142268257300,4.21925732421875,-0.07293985784053802,0.779335618019104,-0.21475572884082794
1789223142278251500,4.22925146484375,-0.28562790155410767,0.6394898295402527,-0.47673434019088745
1789223142288245200,4.239245361328125,-0.35458579659461975,-0.5911847352981567,0.10082533955574036
1789223142298239200,4.2492392578125,-0.3103243112564087,-0.8721551299095154,0.02859828807413578
1789223142308233200,4.259233154296875,-0.16697810590267181,-0.2581021785736084,-0.08348564803600311
1789223142318226400,4.269226318359375,-0.07811694592237473,0.3413410186767578,0.2624403238296509
1789223142328220400,4.279220458984375,-0.1136990413069725,0.7117578387260437,0.201930969953537
1789223142338214400,4.28921435546875,-0.2616799771785736,0.4839974045753479,0.08485574275255203
1789223142348208400,4.29920849609375,-0.3761533796787262,-0.2847912311553955,-0.04049395024776459
1789223142358202000,4.3092021484375,-0.4253379702568054,-0.7140573859214783,-0.2833246886730194
1789223142368196400,4.3191962890625,-0.3914779722690582,-0.6106088161468506,-0.3087080419063568
1789223142378190300,4.3291904296875,-0.2832076847553253,-0.28872182965278625,-0.15183426439762115
1789223142388184300,4.339184326171875,-0.23214542865753174,0.2524545192718506,0.03571651875972748
1789223142398178300,4.34917822265625,-0.2996267080307007,0.6585919260978699,0.2193254828453064
1789223142408172300,4.35917236328125,-0.3612481951713562,0.22170016169548035,0.30584365129470825
1789223142418166300,4.369166259765625,-0.3364852964878082,-0.6295574307441711,0.1703667789697647
1789223142428160500,4.379160400390625,-0.24291038513183594,-0.8523606657981873,-0.0013128998689353466
1789223142438154200,4.389154296875,-0.1557464599609375,-0.3294239640235901,0.0412587933242321
1789223142448148200,4.399148193359375,-0.11415755748748779,0.41727694869041443,-0.02836405485868454
1789223142458142200,4.40914208984375,-0.09091641753911972,0.4366852641105652,0.024256279692053795
1789223142468136200,4.41913623046875,-0.10578694939613342,-0.1048189178109169,0.2273462414741516
1789223142478129400,4.42912939453125,-0.11240676790475845,-0.5267099738121033,-0.09547388553619385
1789223142488123400,4.439123291015625,-0.06248187646269798,-0.5403801202774048,-0.39766088128089905
1789223142498117000,4.4491171875,-0.02527964487671852,-0.10982977598905563,-0.18443623185157776
1789223142508111400,4.459111328125,0.03641166910529137,0.21857239305973053,0.08686073869466782
1789223142518105300,4.469105224609375,0.16720935702323914,0.07059171795845032,0.24204127490520477
1789223142528099300,4.479099365234375,0.22971923649311066,0.04760032147169113,0.24568916857242584
1789223142538093300,4.48909326171875,0.08568163961172104,0.42307114601135254,0.11395324766635895
1789223142548087300,4.49908740234375,-0.11311198025941849,0.4109688401222229,0.0018000425770878792
1789223142558081300,4.509081298828125,-0.1720069944858551,-0.1835363358259201,-0.06478457897901535
1789223142568075500,4.519075439453125,-0.060927290469408035,-0.6786119341850281,-0.07432086765766144
1789223142578069200,4.5290693359375,0.14443092048168182,-0.46689003705978394,-0.24586518108844757
1789223142588063200,4.539063232421875,0.3195399045944214,0.1183503270149231,-0.29748982191085815
1789223142598057200,4.54905712890625,0.270779013633728,0.6969809532165527,-0.04084310308098793
1789223142608051200,4.55905126953125,0.08254214376211166,0.6835991740226746,0.13878600299358368
1789223142618045400,4.56904541015625,-0.05207771435379982,-0.10879428684711456,0.22274453938007355
1789223142628039400,4.579039306640625,-0.08511436730623245,-0.7401142716407776,0.30666986107826233
1789223142638032400,4.589032470703125,-0.02569684386253357,-0.5547532439231873,0.11397230625152588
1789223142648026000,4.599026123046875,0.1283092051744461,-0.05157773569226265,-0.09455443918704987
1789223142658020400,4.609020263671875,0.31732916831970215,0.4200201630592346,-0.29690462350845337
1789223142668014300,4.619014404296875,0.3613235652446747,0.6945549845695496,-0.22425001859664917
1789223142678008300,4.62900830078125,0.2280840426683426,0.6055697202682495,-0.11305370926856995
1789223142688002300,4.639002197265625,0.12388798594474792,-0.2760346829891205,0.037161096930503845
1789223142697996300,4.648996337890625,0.06732644140720367,-0.9366278052330017,0.2905091941356659
1789223142707990500,4.658990478515625,0.04302550107240677,-0.44375699758529663,0.15793858468532562
1789223142717984500,4.668984619140625,0.01571531593799591,0.40392106771469116,0.20112201571464539
1789223142727978200,4.678978271484375,0.04231003299355507,0.6157717108726501,0.3276880979537964
1789223142737972200,4.68897216796875,0.15368317067623138,0.28750380873680115,0.13913364708423615
1789223142747966200,4.69896630859375,0.2442566603422165,-0.06303148716688156,-0.07092541456222534
1789223142757960200,4.708960205078125,0.40381675958633423,-0.5762034058570862,-0.5235022306442261
1789223142767954400,4.718954345703125,0.39202752709388733,-0.5635133981704712,-0.5236307382583618
1789223142777948400,4.728948486328125,0.22860264778137207,0.08848622441291809,-0.2719212472438812
1789223142787942400,4.7389423828125,0.17592184245586395,0.364298552274704,-0.12349327653646469
1789223142797936000,4.74893603515625,0.25126293301582336,-0.11929365992546082,0.28413575887680054
1789223142807929300,4.758929443359375,0.24656087160110474,0.04144388809800148,0.2241753339767456
1789223142817923300,4.76892333984375,0.16635632514953613,0.08909529447555542,0.4443359375
1789223142827917300,4.778917236328125,0.14625538885593414,-0.1489155888557434,0.4014768898487091
1789223142837911300,4.788911376953125,0.16873964667320251,0.3096439838409424,-0.007301270496100187
1789223142847905300,4.7989052734375,0.2229975014925003,0.6756307482719421,-0.039956603199243546
1789223142857899500,4.8088994140625,0.25084295868873596,0.5268785357475281,-0.4264686107635498
1789223142867893200,4.818893310546875,0.2574906051158905,-0.3295287489891052,-0.41294753551483154
1789223142877887200,4.82888720703125,0.2475293129682541,-0.8493900299072266,0.02772197313606739
1789223142887881200,4.838881103515625,0.3103697896003723,-0.59943687915802,-0.1510286033153534
1789223142897875200,4.848875244140625,0.3131197690963745,0.19027182459831238,-0.402976393699646
1789223142907869400,4.858869384765625,0.10545635223388672,0.9962719678878784,-0.046532269567251205
1789223142917863400,4.868863525390625,-0.008965030312538147,0.5347144603729248,0.2548571228981018
1789223142927857400,4.878857421875,0.04953230917453766,-0.5740349888801575,0.45012664794921875
1789223142937851400,4.888851318359375,0.10115102678537369,-0.35594549775123596,0.314531534910202
1789223142947845400,4.898845458984375,0.0885934829711914,0.4506051540374756,0.05857231467962265
1789223142957839400,4.90883935546875,0.14252543449401855,0.01766733080148697,0.05704418942332268
1789223142967832300,4.918832275390625,0.2215065062046051,-0.3251172602176666,-0.2877536416053772
1789223142977826300,4.928826416015625,0.22159172594547272,0.16098418831825256,-0.4513638913631439
1789223142987820300,4.9388203125,0.220963716506958,0.24507245421409607,-0.30298298597335815
1789223142997814500,4.948814453125,0.2541499137878418,-0.2548750340938568,-0.22384582459926605
1789223143007808500,4.95880859375,0.2779983878135681,-0.41310715675354004,-0.03884325921535492
1789223143017802500,4.968802490234375,0.19732725620269775,0.22976182401180267,0.11205490678548813
1789223143027796200,4.978796142578125,0.05268901586532593,0.836260199546814,0.16833075881004333
1789223143037790200,4.988790283203125,0.013888087123632431,0.4690779149532318,0.32193976640701294
1789223143047784400,4.998784423828125,0.11441580206155777,-0.27203214168548584,0.20855814218521118
1789223143057778400,5.0087783203125,0.25201067328453064,-0.34091266989707947,-0.13718008995056152
1789223143067772400,5.0187724609375,0.32892560958862305,0.28520363569259644,-0.12477915734052658
1789223143077766400,5.028766357421875,0.2253139764070511,0.9835089445114136,0.2609999477863312
1789223143087760400,5.038760498046875,0.06680323928594589,1.0348646640777588,0.23960457742214203
1789223143097754400,5.04875439453125,-0.12423063069581985,0.5939258337020874,0.09889566153287888
1789223143107748400,5.058748291015625,-0.30782365798950195,-0.0017633698880672455,0.21123571693897247
1789223143117742300,5.068742431640625,-0.4604129493236542,-0.26294490694999695,0.09420976042747498
1789223143127736300,5.078736328125,-0.4657273590564728,-0.5176816582679749,0.022686388343572617
1789223143137730300,5.088730224609375,-0.3710876703262329,-0.45451226830482483,-0.0038123291451483965
1789223143147723500,5.0987236328125,-0.25250011682510376,0.01671532355248928,-0.3313509225845337
1789223143157717500,5.108717529296875,-0.15746097266674042,0.0433698371052742,-0.4316785931587219
1789223143167711200,5.118711181640625,-0.21270708739757538,-0.27481502294540405,-0.0976097360253334
1789223143177705200,5.128705322265625,-0.47835955023765564,-0.06552466005086899,-0.08325396478176117
1789223143187699200,5.13869921875,-0.7352373600006104,-0.10090815275907516,0.020352086052298546
1789223143197693400,5.148693359375,-0.7921493649482727,-0.4288977384567261,0.2784382402896881
1789223143207687400,5.1586875,-0.5452730059623718,-0.6524562239646912,0.1976766437292099
1789223143217681400,5.168681396484375,-0.17567791044712067,-0.41225776076316833,-0.008739378303289413
1789223143227675400,5.17867529296875,0.023552944883704185,0.3142904043197632,-0.05755506083369255
1789223143237669400,5.18866943359375,0.06515498459339142,0.5830973386764526,-0.004412212409079075
1789223143247663400,5.198663330078125,-0.07729997485876083,0.32909005880355835,0.10140777379274368
1789223143257657300,5.2086572265625,-0.30133387446403503,0.028815720230340958,-0.01696840114891529
1789223143267651300,5.2186513671875,-0.43581029772758484,-0.5020836591720581,0.1994723677635193
1789223143277645300,5.228645263671875,-0.46400517225265503,-0.6026757955551147,0.23478055000305176
1789223143287639300,5.238639404296875,-0.3927222490310669,0.053512655198574066,-0.41295644640922546
1789223143297633500,5.248633544921875,-0.35912540555000305,0.5953210592269897,-0.3688387870788574
1789223143307627500,5.25862744140625,-0.3412128686904907,0.12188941240310669,0.09509995579719543
1789223143317621500,5.26862158203125,-0.30940672755241394,-0.9278773069381714,0.10103880614042282
1789223143327614200,5.2786142578125,-0.34563449025154114,-0.9437637329101562,-0.06273316591978073
1789223143337608400,5.2886083984375,-0.4308958649635315,0.25729769468307495,0.005272245965898037
1789223143347602400,5.2986025390625,-0.3867546021938324,0.5988132953643799,0.24831873178482056
1789223143357596400,5.308596435546875,-0.2019764930009842,-0.2644026577472687,-0.05421530455350876
1789223143367590400,5.31859033203125,-0.15893913805484772,-0.7161881327629089,-0.019686786457896233
1789223143377584400,5.32858447265625,-0.27553790807724,0.0359727144241333,0.040483344346284866
1789223143387578400,5.338578369140625,-0.17535389959812164,-0.03966112434864044,-0.27982789278030396
1789223143397572400,5.348572265625,-0.05537690222263336,-0.5493267774581909,-0.09769991785287857
1789223143407566300,5.35856640625,-0.08478203415870667,0.24566587805747986,-0.07344084978103638
1789223143417560300,5.368560302734375,-0.09814897179603577,0.6182157397270203,0.15503466129302979
1789223143427554300,5.37855419921875,-0.0954013392329216,0.003144301939755678,0.24170170724391937
1789223143437548300,5.38854833984375,-0.07107416540384293,-0.6188353896141052,-0.02065214142203331
1789223143447542500,5.39854248046875,-0.052157796919345856,-0.6845577359199524,0.14260520040988922
1789223143457536500,5.40853662109375,0.04234474152326584,-0.17763034999370575,-0.041568104177713394
1789223143467530200,5.4185302734375,0.2503470480442047,0.12056772410869598,-0.34257322549819946
1789223143477524200,5.428524169921875,0.31069934368133545,0.3614107072353363,-0.019279835745692253
1789223143487518200,5.438518310546875,0.12078043818473816,1.003218173980713,0.0124287074431777
1789223143497511400,5.448511474609375,-0.03532634302973747,0.3372795879840851,0.09231102466583252
1789223143507505400,5.45850537109375,-0.06553942710161209,-1.0102630853652954,0.2519170939922333
1789223143517499400,5.46849951171875,-0.045893825590610504,-0.8804627656936646,0.061614785343408585
1789223143527493400,5.478493408203125,-0.021792294457554817,0.1365053355693817,0.2844477593898773
1789223143537487400,5.4884873046875,0.10043960809707642,0.647442638874054,0.019549258053302765
1789223143547481300,5.4984814453125,0.2521861493587494,0.1996256560087204,-0.2175201028585434
1789223143557475300,5.508475341796875,0.21402864158153534,0.06003659963607788,-0.09812632948160172
1789223143567469300,5.51846923828125,0.02470119670033455,0.47032278776168823,-0.33123260736465454
1789223143577463300,5.52846337890625,-0.06384118646383286,-0.2392546534538269,-0.014939886517822742
1789223143587457500,5.53845751953125,-0.0019199955277144909,-0.9654978513717651,0.09072264283895493
1789223143597451500,5.548451416015625,0.024406149983406067,-0.37031781673431396,0.26745080947875977
1789223143607445500,5.558445556640625,0.006270861718803644,0.8293723464012146,0.23705606162548065
1789223143617439200,5.568439208984375,0.07813519984483719,0.7433985471725464,-0.07199127227067947
1789223143627433200,5.57843310546875,0.13717801868915558,-0.3014601469039917,0.08732791990041733
1789223143637427500,5.588427490234375,0.03417385742068291,-0.31353360414505005,0.03734225407242775
1789223143647421400,5.59842138671875,-0.003312322311103344,-0.11283920705318451,-0.19557474553585052
1789223143657415400,5.60841552734375,0.06534956395626068,-0.3630983233451843,0.12860944867134094
1789223143667409400,5.618409423828125,0.12169036269187927,-0.06399571150541306,0.3108336925506592
1789223143677403400,5.6284033203125,0.19345855712890625,0.42857563495635986,0.015028413385152817
1789223143687396400,5.638396240234375,0.29873043298721313,0.035782624036073685,-0.28808215260505676
1789223143697390300,5.648390380859375,0.25658565759658813,-0.20173458755016327,-0.4997749924659729
1789223143707384300,5.65838427734375,0.01992940902709961,0.3018510043621063,-0.1366306096315384
1789223143717378300,5.66837841796875,-0.10375764220952988,0.3385680317878723,0.11988293379545212
1789223143727372300,5.678372314453125,0.020416028797626495,-0.5145158767700195,0.12138748914003372
1789223143737366500,5.688366455078125,0.09073653072118759,-0.2154466062784195,0.20592421293258667
1789223143747360500,5.698360595703125,0.06094253063201904,0.9383953809738159,0.11387176811695099
1789223143757354200,5.708354248046875,0.13444949686527252,0.5815645456314087,-0.11121754348278046
1789223143767348200,5.71834814453125,0.2121163308620453,-0.5825508236885071,-0.24395135045051575
1789223143777342200,5.72834228515625,0.07514889538288116,-0.44593995809555054,-0.22758756577968597
1789223143787336400,5.73833642578125,-0.08796779811382294,0.044448480010032654,-0.16717948019504547
1789223143797330400,5.748330322265625,-0.09409333765506744,-0.11070462316274643,-0.17251138389110565
1789223143807324400,5.758324462890625,-0.05094153434038162,-0.08532755821943283,0.0222804956138134
1789223143817318400,5.768318359375,-0.05260814353823662,0.41693049669265747,0.18990597128868103
1789223143827312400,5.7783125,-0.022998370230197906,0.19280701875686646,0.1742394119501114
1789223143837306400,5.788306396484375,0.06316526979207993,-0.6160421371459961,0.02279157191514969
1789223143847300400,5.79830029296875,0.0505104698240757,-0.6573903560638428,0.09216931462287903
1789223143857294300,5.80829443359375,-0.010913478210568428,0.05364059656858444,0.06403248757123947
1789223143867288300,5.818288330078125,0.059713736176490784,0.3350363075733185,-0.22431644797325134
1789223143877281500,5.828281494140625,0.1433982402086258,0.18914861977100372,-0.16568881273269653
1789223143887275500,5.838275634765625,0.0424775630235672,0.5061428546905518,0.024391554296016693
1789223143897269200,5.848269287109375,-0.10926403105258942,0.43041056394577026,0.13994558155536652
1789223143907263200,5.85826318359375,-0.13544850051403046,-0.40977388620376587,0.2232399433851242
1789223143917257500,5.868257568359375,-0.06202700734138489,-0.8784415125846863,0.26402172446250916
1789223143927251500,5.87825146484375,-0.028665829449892044,-0.17365768551826477,0.08774881064891815
1789223143937245400,5.888245361328125,-0.01065060868859291,0.4328322410583496,0.0817151591181755
1789223143947239400,5.898239501953125,0.07103148102760315,0.13716378808021545,0.06483501940965652
1789223143957233400,5.9082333984375,0.14941710233688354,-0.22104549407958984,-0.17152078449726105
1789223143967227400,5.918227294921875,0.14526422321796417,-0.2141033113002777,-0.16493187844753265
1789223143977221400,5.928221435546875,0.026439299806952477,0.016190875321626663,-0.10790348798036575
1789223143987215600,5.938215576171875,-0.09024859964847565,-0.04337196797132492,-0.07767774164676666
1789223143997209600,5.948209716796875,-0.12812674045562744,-0.1654139906167984,0.07505587488412857
1789223144007203600,5.95820361328125,-0.09337297081947327,-0.046505458652973175,0.2790716588497162
1789223144017197300,5.968197265625,0.03543747216463089,-0.1264660656452179,0.1027994230389595
1789223144027191300,5.97819140625,0.15250861644744873,-0.3766724467277527,-0.09907587617635727
1789223144037185500,5.988185546875,0.1377485692501068,-0.2568850517272949,0.06902018934488297
1789223144047179500,5.998179443359375,0.07686423510313034,0.2863033711910248,-0.08037775754928589
1789223144057173500,6.008173583984375,0.047283705323934555,0.3808668851852417,-0.13801681995391846
1789223144067167500,6.01816748046875,0.10908816009759903,-0.20981062948703766,0.010260277427732944
1789223144077160700,6.02816064453125,0.15766023099422455,-0.45890459418296814,-0.33644014596939087
1789223144087154400,6.038154541015625,0.14386112987995148,-0.5270074605941772,-0.462188184261322
1789223144097148400,6.0481484375,-0.06405505537986755,-0.015253853984177113,-0.030780073255300522
1789223144107142400,6.058142333984375,-0.2927187383174896,0.6775354743003845,0.30273813009262085
1789223144117136400,6.068136474609375,-0.2869117259979248,0.27375710010528564,0.42428213357925415
1789223144127130600,6.078130615234375,-0.08697769045829773,-0.5198392271995544,0.2817302644252777
1789223144137124600,6.08812451171875,0.1383070945739746,-0.5240411758422852,0.10608574748039246
1789223144147118600,6.09811865234375,0.3326775133609772,-0.17130428552627563,0.1650049388408661
1789223144157112600,6.108112548828125,0.47619232535362244,0.2671063542366028,-0.24121235311031342
1789223144167106300,6.118106201171875,0.4543066918849945,0.3177140951156616,-0.5220140814781189
1789223144177100500,6.1281005859375,0.2047021985054016,0.15989412367343903,-0.35652872920036316
1789223144187094500,6.138094482421875,-0.08467613160610199,0.15171049535274506,-0.25511491298675537
1789223144197088500,6.148088623046875,-0.1318628191947937,-0.25136080384254456,0.1196293905377388
1789223144207082500,6.15808251953125,0.028695330023765564,-0.3743879795074463,0.3262655735015869
1789223144217076500,6.168076416015625,0.2447703629732132,0.17256110906600952,0.1429748386144638
1789223144227070500,6.178070556640625,0.35656365752220154,0.6824805736541748,0.22425828874111176
1789223144237064700,6.188064697265625,0.3409886956214905,0.6049330234527588,0.1475997269153595
1789223144247058400,6.198058349609375,0.2522302567958832,-0.0742931067943573,0.10918382555246353
1789223144257052400,6.208052490234375,0.10651407390832901,-0.46542200446128845,0.22606118023395538
1789223144267046400,6.21804638671875,-0.005465422756969929,-0.21911470592021942,0.15226739645004272
1789223144277039600,6.22803955078125,-0.011327573098242283,0.201772078871727,0.03563426062464714
1789223144287033600,6.23803369140625,0.06325387209653854,0.6671780347824097,-0.2130827009677887
1789223144297027600,6.248027587890625,0.20088976621627808,0.33763477206230164,-0.2925458252429962
1789223144307021300,6.258021240234375,0.13345152139663696,-0.033805519342422485,-0.30051881074905396
1789223144317015300,6.268015380859375,-0.10882610082626343,-0.1781350076198578,-0.2817496359348297
1789223144327009500,6.278009521484375,-0.29116231203079224,-0.6955903768539429,0.2292420119047165
1789223144337003500,6.28800341796875,-0.30608880519866943,-0.8102067112922668,0.378705233335495
1789223144346997500,6.29799755859375,-0.20415541529655457,-0.022005680948495865,0.019252970814704895
1789223144356991500,6.307991455078125,-0.03321829438209534,0.47853943705558777,-0.12334972620010376
1789223144366985500,6.3179853515625,0.16070617735385895,0.07470541447401047,-0.06784757971763611
1789223144376979700,6.327979736328125,0.18281173706054688,-0.06953298300504684,0.006388305686414242
1789223144386973400,6.337973388671875,0.12797202169895172,0.10666342824697495,-0.23542198538780212
1789223144396967400,6.347967529296875,0.058499474078416824,-0.22843573987483978,-0.15728750824928284
1789223144406961400,6.35796142578125,-0.08660911023616791,-0.473471462726593,0.06416253000497818
1789223144416955400,6.367955322265625,-0.19679446518421173,-0.2640913426876068,0.10526895523071289
1789223144426949400,6.377949462890625,-0.15604205429553986,0.029419558122754097,0.05201848968863487
1789223144436943600,6.387943603515625,-0.08053876459598541,0.448230117559433,0.062265802174806595
1789223144446937600,6.3979375,-0.06737083941698074,0.9394754767417908,-0.0049625784158706665
1789223144456931600,6.407931640625,-0.021409740671515465,0.396720826625824,0.1946498602628708
1789223144466925300,6.41792529296875,0.0815918818116188,-0.7336439490318298,0.4295586049556732
1789223144476918500,6.42791845703125,0.15184953808784485,-0.8105776309967041,0.1362047642469406
1789223144486912500,6.43791259765625,0.22303326427936554,-0.3405812382698059,-0.31482067704200745
1789223144496906500,6.447906494140625,0.19609884917736053,0.0447520911693573,-0.45759275555610657
1789223144506900500,6.457900390625,0.0011293953284621239,0.4341028332710266,-0.2573488652706146
1789223144516894500,6.46789453125,-0.2393694967031479,0.5223575830459595,0.2005220353603363
1789223144526888400,6.477888427734375,-0.28953495621681213,0.034070950001478195,0.3280016779899597
1789223144536882400,6.48788232421875,-0.13653209805488586,-0.3504919111728668,0.13309849798679352
1789223144546876400,6.49787646484375,0.052775442600250244,-0.23172350227832794,0.15743640065193176
1789223144556870400,6.507870361328125,0.24409161508083344,-0.029540833085775375,0.1331624984741211
1789223144566864400,6.517864501953125,0.363021582365036,0.10818011313676834,-0.07820477336645126
1789223144576858600,6.527858642578125,0.2555561363697052,0.4954327642917633,-0.18995580077171326
1789223144586852600,6.5378525390625,0.10406647622585297,0.3370979428291321,-0.2641908526420593
1789223144596846600,6.5478466796875,0.027699004858732224,-0.2429092675447464,-0.2199978232383728
1789223144606840300,6.55784033203125,0.0870366171002388,-0.4431608021259308,-0.1621534675359726
1789223144616834300,6.567834228515625,0.2338569462299347,-0.15502622723579407,-0.09316028654575348
1789223144626828500,6.57782861328125,0.3994429111480713,0.1201363205909729,-0.15261952579021454
1789223144636822500,6.587822509765625,0.3675291836261749,0.3501037359237671,-0.03709959611296654
1789223144646816500,6.59781640625,0.12844030559062958,0.4634437561035156,0.28494641184806824
1789223144656810500,6.607810546875,-0.07642735540866852,0.19835616648197174,0.35728558897972107
1789223144666804500,6.617804443359375,-0.1495407074689865,0.011922603473067284,0.29822656512260437
1789223144676798500,6.627798583984375,-0.08142662048339844,0.34078413248062134,-0.0318959504365921
1789223144686792400,6.63779248046875,0.16137978434562683,0.43880224227905273,-0.384077787399292
1789223144696785400,6.647785400390625,0.38182002305984497,0.04974209517240524,-0.19814784824848175
1789223144706779400,6.657779296875,0.476891428232193,-0.10421955585479736,-0.23085463047027588
1789223144716773600,6.667773681640625,0.4090692400932312,-0.2195086032152176,-0.023527275770902634
1789223144726767600,6.677767578125,0.1613091081380844,0.012217510491609573,0.06569013744592667
1789223144736761600,6.68776171875,-0.08962377160787582,0.2824460566043854,-0.012474974617362022
1789223144746755600,6.697755615234375,-0.2659234404563904,0.2901841402053833,0.17354336380958557
1789223144756749300,6.707749267578125,-0.2803513705730438,0.4433598518371582,-0.014853443950414658
1789223144766743300,6.717743408203125,-0.10882122069597244,0.33979207277297974,-0.13492976129055023
1789223144776737500,6.727737548828125,0.0878782570362091,0.03831557184457779,-0.05082341656088829
1789223144786731500,6.7377314453125,0.19739773869514465,-0.023622656241059303,-0.11480246484279633
1789223144796725500,6.7477255859375,0.11562538146972656,0.07938308268785477,0.17891064286231995
1789223144806719500,6.757719482421875,-0.0499776229262352,0.06316076219081879,0.384781152009964
1789223144816713500,6.76771337890625,-0.2216753512620926,-0.001543138176202774,0.46200963854789734
1789223144826707700,6.777707763671875,-0.33088794350624084,0.11819566786289215,0.23490534722805023
1789223144836701400,6.787701416015625,-0.32865142822265625,0.17360912263393402,-0.09162084013223648
1789223144846695400,6.7976953125,-0.2297356277704239,0.030317891389131546,-0.21273256838321686
1789223144856689400,6.807689453125,-0.08911620080471039,-0.04031739383935928,-0.1372908055782318
1789223144866683400,6.817683349609375,0.03189530968666077,0.06292043626308441,-0.10645012557506561
1789223144876677600,6.827677734375,0.18136441707611084,-0.21250875294208527,-0.2969582676887512
1789223144886671600,6.837671630859375,0.20530067384243011,-0.4329763352870941,-0.43021395802497864
1789223144896665600,6.84766552734375,-0.022373229265213013,0.02580321580171585,-0.08147726953029633
1789223144906659600,6.85765966796875,-0.3440018594264984,0.7995873689651489,0.39419791102409363
1789223144916654000,6.867654052734375,-0.4239150583744049,0.724940299987793,0.3249964714050293
1789223144926647300,6.877647216796875,-0.25249144434928894,-0.4657666087150574,0.45762282609939575
1789223144936641000,6.88764111328125,-0.05447689816355705,-0.8522374033927917,0.2803633511066437
1789223144946635000,6.897635009765625,0.03700590133666992,-0.1340533047914505,0.19818803668022156
1789223144956629000,6.90762890625,0.1461172103881836,0.5839349031448364,-0.18838630616664886
1789223144966623000,6.917623046875,0.15935911238193512,0.6221420764923096,-0.4476340711116791
1789223144976617200,6.9276171875,-0.0030780029483139515,0.4233831763267517,-0.5093259215354919
1789223144986611200,6.937611083984375,-0.24519851803779602,0.08751030266284943,-0.39406776428222656
1789223144996605200,6.947605224609375,-0.4546779692173004,-0.40303730964660645,0.0577780082821846
1789223145006599200,6.95759912109375,-0.5199506282806396,-0.30097851157188416,0.3074834644794464
1789223145016593000,6.967593017578125,-0.3636172413825989,-0.04874546825885773,0.3901924788951874
1789223145026587100,6.977587158203125,-0.12765014171600342,0.029114242643117905,0.24674564599990845
1789223145036581000,6.9875810546875,0.05420088768005371,-0.1036912053823471,0.0048754895105957985
1789223145046575000,6.9975751953125,0.07958976924419403,-0.011890823021531105,-0.036973997950553894
1789223145056569000,7.007569091796875,0.020416196435689926,0.18676075339317322,-0.22800520062446594
1789223145066563000,7.01756298828125,-0.06942332535982132,0.09728401899337769,-0.3322780728340149
1789223145076557000,7.02755712890625,-0.12224339693784714,-0.048039354383945465,-0.18055486679077148
1789223145086551000,7.037551025390625,-0.05983714386820793,-0.23489859700202942,0.17127181589603424
1789223145096545000,7.047544921875,0.01834341138601303,-0.05094713717699051,0.20150455832481384
1789223145106539000,7.0575390625,0.09382175654172897,0.13932624459266663,0.142507866024971
1789223145116533000,7.067532958984375,0.07250101864337921,0.2529369592666626,0.39642563462257385
1789223145126527000,7.07752685546875,0.0922505259513855,0.18040527403354645,0.07153250277042389
1789223145136521200,7.087521240234375,0.17733213305473328,-0.3146502673625946,-0.26810920238494873
1789223145146514200,7.09751416015625,0.20353476703166962,-0.40330174565315247,-0.35098132491111755
1789223145156508000,7.1075078125,0.17997696995735168,-0.1490473598241806,-0.17157268524169922
1789223145166502000,7.117501953125,0.17502616345882416,-0.02067878469824791,0.06148245185613632
1789223145176496000,7.12749609375,0.17751222848892212,0.15350419282913208,0.03156689926981926
1789223145186490000,7.137489990234375,0.1803351491689682,0.15473425388336182,-0.0116595309227705
1789223145196484000,7.147484130859375,0.10231012105941772,0.139682337641716,0.10629879683256149
1789223145206478000,7.15747802734375,0.06255258619785309,-0.04015451669692993,0.027218474075198174
1789223145216472000,7.16747216796875,0.16965161263942719,-0.4600468873977661,-0.04098667949438095
1789223145226466300,7.17746630859375,0.28411078453063965,-0.40750032663345337,0.1278224140405655
1789223145236460000,7.1874599609375,0.21681375801563263,0.5825839042663574,0.09161646664142609
1789223145246454000,7.1974541015625,0.1164928525686264,0.8437764048576355,0.020480705425143242
1789223145256448000,7.207447998046875,0.04730019345879555,-0.030057072639465332,0.3578893542289734
1789223145266442000,7.21744189453125,-0.031060121953487396,-0.34002530574798584,0.08928560465574265
1789223145276436000,7.22743603515625,0.06364801526069641,-0.3877459466457367,-0.5414090156555176
1789223145286430200,7.23743017578125,0.27596643567085266,-0.6558852195739746,-0.5021872520446777
1789223145296424200,7.247424072265625,0.33238792419433594,-0.00624354463070631,-0.30739620327949524
1789223145306418200,7.257418212890625,0.23406077921390533,0.5526918768882751,0.17645178735256195
1789223145316412000,7.267411865234375,0.10389718413352966,0.3686661422252655,0.4001828730106354
1789223145326406000,7.277406005859375,-0.11169977486133575,0.2779240012168884,0.4386523962020874
1789223145336400100,7.287400146484375,-0.28765085339546204,0.36039942502975464,0.2877710163593292
1789223145346394000,7.29739404296875,-0.1343846172094345,-0.345611035823822,-0.1472247689962387
1789223145356388000,7.30738818359375,0.1947125941514969,-0.9080783128738403,-0.3287397027015686
1789223145366382000,7.317382080078125,0.3975057303905487,-0.11531374603509903,-0.38411906361579895
1789223145376376000,7.3273759765625,0.4134087860584259,0.8107030391693115,-0.32228073477745056
1789223145386369000,7.337369140625,0.3548177480697632,0.5276095867156982,-0.1128266230225563
1789223145396363000,7.347363037109375,0.11845394223928452,0.08846095204353333,0.21025875210762024
1789223145406357000,7.35735693359375,-0.15603220462799072,0.04949813708662987,0.21459288895130157
1789223145416351000,7.36735107421875,-0.2175280600786209,-0.26863136887550354,0.2777681350708008
1789223145426345200,7.37734521484375,-0.10718661546707153,-0.19330808520317078,0.23854084312915802
1789223145436339200,7.387339111328125,0.14306050539016724,0.1434640735387802,-0.04856708645820618
1789223145446333200,7.397333251953125,0.36711037158966064,0.31112658977508545,-0.13755463063716888
1789223145456327000,7.407326904296875,0.41278359293937683,0.4817854166030884,-0.24526777863502502
1789223145466321000,7.41732080078125,0.21643191576004028,0.6116102337837219,-0.15988683700561523
1789223145476315100,7.427315185546875,-0.005974782630801201,0.017871294170618057,-0.023537786677479744
1789223145486309000,7.43730908203125,-0.08234728872776031,-0.8216238617897034,0.11505206674337387
1789223145496303000,7.44730322265625,-0.10929447412490845,-0.5508072972297668,0.19954989850521088
1789223145506297000,7.457297119140625,-0.12644413113594055,0.42977452278137207,0.13933877646923065
1789223145516291000,7.467291015625,-0.033582378178834915,0.6531904935836792,0.09393933415412903
1789223145526285000,7.47728515625,0.11882171779870987,0.11839064955711365,0.11613050103187561
1789223145536279000,7.487279052734375,0.16745877265930176,-0.07858926057815552,-0.09485816955566406
1789223145546273000,7.49727294921875,0.12034107744693756,-0.06502361595630646,-0.2498679906129837
1789223145556267000,7.50726708984375,0.0633358582854271,-0.3949381113052368,0.08500242978334427
1789223145566261000,7.517260986328125,0.03384912759065628,-0.3168339133262634,0.024616453796625137
1789223145576255000,7.5272548828125,-0.040067173540592194,0.512123703956604,-0.23276980221271515
1789223145586249200,7.537249267578125,-0.03255368769168854,0.6818572282791138,-0.13553982973098755
1789223145596243200,7.5472431640625,-0.014249250292778015,0.03212367370724678,-0.015416070818901062
1789223145606237200,7.5572373046875,-0.07437463849782944,-0.47716355323791504,0.10300084948539734
1789223145616231000,7.56723095703125,-0.1273539662361145,-0.29215294122695923,0.27116456627845764
1789223145626225000,7.577224853515625,-0.09688330441713333,0.23887215554714203,0.32569989562034607
1789223145636218000,7.587218017578125,-0.06647986173629761,0.8340029120445251,0.0036217302549630404
1789223145646212000,7.597212158203125,-0.026132572442293167,0.526669442653656,0.018690219148993492
1789223145656206000,7.6072060546875,-0.02831130474805832,-0.20137540996074677,0.32198911905288696
1789223145666200000,7.617199951171875,0.01448199711740017,-0.40160274505615234,-0.23700253665447235
1789223145676194000,7.627194091796875,0.1019977256655693,-0.4547109603881836,-0.5252289772033691
1789223145686188000,7.63718798828125,0.004860365763306618,-0.08848761022090912,-0.25108325481414795
1789223145696182000,7.64718212890625,-0.22503355145454407,0.4070872366428375,-0.07212895900011063
1789223145706176000,7.657176025390625,-0.39506101608276367,0.4777347445487976,0.15152472257614136
1789223145716170000,7.667169921875,-0.40889373421669006,0.23320461809635162,0.35974904894828796
1789223145726164200,7.677164306640625,-0.39829733967781067,0.3368755578994751,0.09777384996414185
1789223145736158200,7.687158203125,-0.2689979374408722,-0.13362058997154236,-0.016325822100043297
1789223145746152200,7.697152099609375,-0.041381459683179855,-0.8949099183082581,0.09945065528154373
1789223145756146000,7.70714599609375,0.10826236754655838,-0.6328868269920349,-0.11053959280252457
1789223145766140000,7.717139892578125,-0.02051132172346115,0.6052017211914062,-0.29114165902137756
1789223145776134000,7.7271337890625,-0.31819307804107666,1.188078761100769,-0.06477722525596619
1789223145786128100,7.737128173828125,-0.5074855089187622,0.30216559767723083,0.03981151431798935
1789223145796122000,7.7471220703125,-0.5091665983200073,-0.7603997588157654,-0.019542360678315163
1789223145806116000,7.7571162109375,-0.39469608664512634,-0.7643411159515381,0.05147247016429901
1789223145816110000,7.767110107421875,-0.2326672077178955,-0.21665936708450317,0.14274032413959503
1789223145826104000,7.77710400390625,-0.09684879332780838,0.012538520619273186,0.14072957634925842
1789223145836098000,7.78709814453125,-0.043373845517635345,0.23815220594406128,-0.1463722288608551
1789223145846092000,7.797092041015625,-0.125091090798378,0.39745745062828064,-0.12779629230499268
1789223145856086000,7.8070859375,-0.2628726661205292,0.2784535884857178,-0.11605841666460037
1789223145866080000,7.817080078125,-0.3019130527973175,-0.3367511034011841,-0.1753050982952118
1789223145876074000,7.827073974609375,-0.24729828536510468,-0.8061082363128662,0.013061347417533398
1789223145886067200,7.837067138671875,-0.2247089147567749,-0.07105162739753723,0.0661865696310997
1789223145896061200,7.847061279296875,-0.2242836058139801,0.7125028371810913,0.2839154303073883
1789223145906055000,7.857054931640625,-0.09715870022773743,0.18598730862140656,0.3495047092437744
1789223145916049000,7.867048828125,-0.02141866832971573,-0.24660860002040863,0.11365489661693573
1789223145926043000,7.87704296875,-0.02099759131669998,0.14215010404586792,-0.22989073395729065
1789223145936036900,7.887036865234375,-0.044477615505456924,0.1366826295852661,-0.2384599894285202
1789223145946030800,7.89703076171875,-0.0670565739274025,-0.32216012477874756,-0.17683309316635132
1789223145956024800,7.90702490234375,-0.14963826537132263,-0.09441191703081131,-0.08494525402784348
1789223145966018800,7.917018798828125,-0.19979867339134216,0.3530840575695038,-0.03650274500250816
1789223145976012800,7.9270126953125,-0.20405013859272003,0.26982855796813965,-0.05088221654295921
1789223145986006800,7.9370068359375,-0.1600574404001236,-0.13482339680194855,-0.00926966778934002
1789223145996000800,7.947000732421875,-0.01903161220252514,-0.7508648037910461,0.14356061816215515
1789223146005994800,7.956994873046875,0.022776801139116287,-0.4130934476852417,0.09384927898645401
1789223146015988700,7.96698876953125,-0.037162698805332184,0.5299326777458191,-0.03547621890902519
1789223146025983000,7.97698291015625,-0.12087418138980865,0.647260308265686,0.23735326528549194
1789223146035977000,7.98697705078125,-0.15961730480194092,0.0015545492060482502,0.35427188873291016
1789223146045971000,7.996970947265625,-0.11355564743280411,-0.3982557952404022,0.2886744737625122
1789223146055964700,8.006964599609375,0.09763062745332718,-0.5937368869781494,-0.04737251624464989
1789223146065958700,8.016958740234376,0.3877047598361969,-0.6715614199638367,-0.5241248607635498
1789223146075953000,8.026952880859374,0.4087147116661072,0.2666449248790741,-0.4378781020641327
1789223146085947000,8.03694677734375,0.2352292835712433,1.1622587442398071,-0.11431693285703659
1789223146095940900,8.04694091796875,0.12380155920982361,0.4215283989906311,0.1761002540588379
1789223146105934800,8.056934814453125,0.050264932215213776,-0.5375359058380127,0.4085215926170349
1789223146115928800,8.0669287109375,-0.07953913509845734,-0.02826840430498123,0.33170217275619507
1789223146125922800,8.0769228515625,-0.08735860884189606,0.4439205229282379,0.18302686512470245
1789223146135916800,8.086916748046875,0.10735148936510086,0.14366215467453003,-0.022574495524168015
1789223146145910800,8.096910888671875,0.3566865622997284,-0.08053385466337204,-0.16844138503074646
1789223146155904800,8.10690478515625,0.49212321639060974,0.006957382895052433,-0.3721785545349121
1789223146165898800,8.116898681640626,0.2932167649269104,0.36164891719818115,-0.3970009684562683
1789223146175892000,8.12689208984375,-0.045990072190761566,0.3246757388114929,-0.06294387578964233
1789223146185886000,8.136885986328124,-0.30459699034690857,0.13482464849948883,0.18394775688648224
1789223146195880000,8.1468798828125,-0.32077276706695557,-0.26288384199142456,0.29544392228126526
1789223146205873700,8.156873779296875,-0.24630491435527802,0.08432795107364655,-0.29382508993148804
1789223146215867600,8.16686767578125,-0.16420072317123413,-0.16825848817825317,-0.026501506567001343
1789223146225862000,8.17686181640625,-0.1212153360247612,-0.4230193495750427,0.3584214746952057
1789223146235856000,8.18685595703125,-0.09305853396654129,0.145508274435997,0.06024198979139328
1789223146245849900,8.196849853515625,-0.12180399149656296,0.5666497945785522,-0.017763907089829445
1789223146255843800,8.20684375,-0.20751090347766876,0.2846122682094574,-0.11780555546283722
1789223146265837800,8.216837890625,-0.3281533718109131,-0.31857016682624817,-0.08325754851102829
1789223146275832000,8.22683203125,-0.3866289258003235,-0.6209588050842285,0.032290615141391754
1789223146285825800,8.23682568359375,-0.32681429386138916,-0.5213872194290161,0.06665659695863724
1789223146295819800,8.24681982421875,-0.2813469469547272,0.04887603595852852,0.1026739850640297
1789223146305813800,8.256813720703125,-0.1597689986228943,0.057941291481256485,0.011889960616827011
1789223146315807700,8.266807861328125,-0.0662907063961029,-0.253060519695282,0.009155426174402237
1789223146325801700,8.2768017578125,-0.06302695721387863,-0.01527833379805088,-0.2016473114490509
1789223146335796000,8.2867958984375,-0.13410139083862305,0.08594708889722824,0.005676587112247944
1789223146345790000,8.2967900390625,-0.17583201825618744,-0.3135969936847687,0.16620874404907227
1789223146355783700,8.30678369140625,-0.09471160173416138,-0.6183955073356628,-0.20860694348812103
1789223146365777700,8.316777587890625,-0.02608969621360302,-0.4058707654476166,-0.09971392154693604
1789223146375771600,8.326771728515626,-0.053023308515548706,0.13598264753818512,0.127515509724617
1789223146385766000,8.336765869140624,0.00749586895108223,0.045520536601543427,-0.02972487360239029
1789223146395759900,8.346759765625,0.15357717871665955,-0.41490060091018677,-0.039986032992601395
1789223146405753900,8.35675390625,0.17900559306144714,-0.11223556101322174,0.09857172518968582
1789223146415747800,8.366747802734375,0.03966792672872543,0.5863627195358276,-0.021020449697971344
1789223146425741800,8.376741943359375,-0.07908657938241959,0.15147925913333893,0.33615678548812866
1789223146435735800,8.38673583984375,-0.055926933884620667,-0.593484103679657,0.4394051432609558
1789223146445729800,8.396729736328124,0.05129124969244003,-0.38602688908576965,-0.12483105808496475
1789223146455723800,8.406723876953125,0.13964533805847168,0.25755608081817627,-0.5874966979026794
1789223146465717800,8.4167177734375,0.1642734259366989,0.36649182438850403,-0.3607640564441681
1789223146475711000,8.4267109375,0.2425551861524582,-0.3799986243247986,0.010643291287124157
1789223146485705000,8.436705078125,0.2736094892024994,-0.799721360206604,0.08041102439165115
1789223146495699000,8.446698974609374,0.10116925835609436,-0.11086622625589371,0.10285907238721848
1789223146505692700,8.456692626953124,-0.16862818598747253,0.5246850848197937,0.4098840057849884
1789223146515686700,8.466686767578125,-0.26474112272262573,0.45057356357574463,0.1750379353761673
1789223146525681000,8.476680908203125,-0.0747063010931015,-0.3912210464477539,-0.1146462932229042
1789223146535675000,8.4866748046875,0.20851609110832214,-0.8548682928085327,-0.21893274784088135
1789223146545668900,8.4966689453125,0.316285103559494,-0.03766253590583801,-0.3890756070613861
1789223146555662800,8.506662841796874,0.27662718296051025,0.5868825912475586,-0.19020217657089233
1789223146565656800,8.51665673828125,0.16945767402648926,0.492912232875824,0.033138688653707504
1789223146575650800,8.52665087890625,0.019995752722024918,0.21746492385864258,0.164234921336174
1789223146585644800,8.536644775390625,-0.11339545994997025,-0.14773127436637878,0.3154583275318146
1789223146595638800,8.546638671875,-0.08175018429756165,-0.7455211877822876,0.2541710138320923
1789223146605632800,8.5566328125,0.08630484342575073,-0.6995620131492615,0.034120138734579086
1789223146615626800,8.566626708984375,0.1570919305086136,0.26285722851753235,0.000573363620787859
1789223146625620700,8.576620849609375,0.1261487603187561,0.9815254807472229,-0.09391234815120697
1789223146635615000,8.586614990234375,0.014790814369916916,0.8475333452224731,-0.06256242096424103
1789223146645609000,8.59660888671875,-0.09385904669761658,0.06586038321256638,-0.022799238562583923
1789223146655603000,8.60660302734375,-0.1848592609167099,-0.6690421104431152,-0.016018563881516457
1789223146665596700,8.6165966796875,-0.2801813781261444,-0.8404654264450073,0.15350690484046936
1789223146675590700,8.626590576171875,-0.3151353597640991,-0.37337732315063477,0.16349323093891144
1789223146685585000,8.6365849609375,-0.2274821549654007,0.11754236370325089,0.02302125282585621
1789223146695579000,8.646578857421876,-0.13014280796051025,0.3098936975002289,-0.12154951691627502
1789223146705572900,8.65657275390625,-0.07146040350198746,0.09939875453710556,-0.20274163782596588
1789223146715566800,8.66656689453125,0.0026228814385831356,-0.676123321056366,-0.11975780129432678
1789223146725560800,8.676560791015625,-0.026431705802679062,-0.8383290767669678,-0.02012895978987217
1789223146735554800,8.686554931640625,-0.15609222650527954,-0.03194412216544151,0.009374604560434818
1789223146745548800,8.696548828125,-0.2939208745956421,0.43579989671707153,0.3054957985877991
1789223146755542800,8.706542724609376,-0.3643367290496826,0.4110647141933441,0.1403326690196991
1789223146765536800,8.716536865234374,-0.3556998670101166,0.241318017244339,-0.21372118592262268
1789223146775530000,8.726530029296875,-0.1688343733549118,-0.5778527855873108,-0.012561969459056854
1789223146785524000,8.73652392578125,0.10422590374946594,-1.254432201385498,0.11548719555139542
1789223146795518000,8.74651806640625,0.1855258196592331,-0.6123917698860168,0.049708180129528046
1789223146805511700,8.75651171875,0.03658125177025795,0.529496967792511,0.08099974691867828
1789223146815505700,8.766505615234376,-0.21539293229579926,0.8100290298461914,0.2911852300167084
1789223146825499600,8.776499755859374,-0.3817925751209259,0.22081927955150604,0.2564004957675934
1789223146835494000,8.786493896484375,-0.22675584256649017,-0.7833141684532166,-0.2161305844783783
1789223146845487900,8.79648779296875,0.07135887444019318,-1.1164828538894653,-0.43024662137031555
1789223146855481900,8.80648193359375,0.17853006720542908,-0.20038339495658875,-0.3086285889148712
1789223146865475800,8.816475830078126,0.1865040808916092,0.30206769704818726,-0.020377902314066887
1789223146875469800,8.8264697265625,0.12794968485832214,-0.09261490404605865,0.2597983479499817
1789223146885463800,8.8364638671875,-0.1412835270166397,0.006129056215286255,0.1801382154226303
1789223146895457800,8.846457763671875,-0.4876457452774048,0.3196030855178833,0.07374627888202667
1789223146905451800,8.85645166015625,-0.535110592842102,-0.4079155921936035,0.0874452292919159
1789223146915445800,8.86644580078125,-0.20215578377246857,-1.0908139944076538,-0.05098374933004379
1789223146925439700,8.876439697265624,0.2884398400783539,-0.810925304889679,-0.06869997829198837
1789223146935434000,8.88643408203125,0.5286833047866821,0.3977958858013153,-0.285229355096817
1789223146945428000,8.896427978515625,0.4945467412471771,0.6827487945556641,-0.1481272578239441
1789223146955422000,8.906421875,0.27606046199798584,0.17352314293384552,0.23965854942798615
1789223146965415700,8.916415771484376,0.04226231575012207,-0.113177590072155,0.2509913444519043
1789223146975409700,8.92640966796875,0.0640546977519989,-0.3403407037258148,-0.09532054513692856
1789223146985404000,8.93640380859375,0.2290097028017044,-0.2947656214237213,-0.26964071393013
1789223146995398000,8.94639794921875,0.41372787952423096,-0.10781039297580719,-0.21607205271720886
1789223147005392000,8.956391845703125,0.5536943674087524,0.1938784122467041,-0.07527944445610046
1789223147015385900,8.9663857421875,0.5192141532897949,0.7287085056304932,0.1608571857213974
1789223147025379800,8.9763798828125,0.37766245007514954,0.8220282196998596,0.024637950584292412
1789223147035373800,8.986373779296875,0.261107861995697,-0.2131214439868927,0.013109393417835236
1789223147045367800,8.996367919921875,0.2271936982870102,-0.9751766324043274,-0.01459326408803463
1789223147055361800,9.00636181640625,0.2681792080402374,-0.528911292552948,0.001751620089635253
1789223147065355800,9.016355712890626,0.3490961790084839,0.4410000145435333,0.08036921173334122
1789223147075349800,9.026349853515624,0.3607879877090454,1.0328150987625122,-0.03743891045451164
1789223147085343700,9.03634375,0.3281937837600708,0.5496217608451843,-0.0016114343889057636
1789223147095338000,9.046337890625,0.2707903981208801,-0.28087756037712097,0.12752072513103485
1789223147105332000,9.05633203125,0.1891028881072998,-0.4788338541984558,-0.03733420372009277
1789223147115326000,9.066325927734376,0.05998858064413071,-0.028489600867033005,-0.11413072049617767
1789223147125319700,9.076319580078126,-0.014227100647985935,0.46055862307548523,-0.006033704150468111
1789223147135313000,9.08631298828125,-0.008958835154771805,0.5358747243881226,0.14547139406204224
1789223147145307000,9.096306884765625,0.01601720042526722,0.21549861133098602,0.09762752056121826
1789223147155300900,9.10630078125,0.12019073963165283,-0.40030568838119507,-0.15715071558952332
1789223147165294800,9.116294921875,0.20527124404907227,-0.8718626499176025,-0.1662527322769165
1789223147175288800,9.126288818359376,0.20306961238384247,-0.654836893081665,-0.04497263953089714
1789223147185282800,9.13628271484375,0.0003180522471666336,0.78659987449646,0.17629776895046234
1789223147195276800,9.14627685546875,-0.17575284838676453,1.5498660802841187,0.4996713101863861
1789223147205270800,9.156270751953125,-0.1775551736354828,0.4537506401538849,0.6645013093948364
1789223147215264800,9.1662646484375,-0.11260785162448883,-0.711879312992096,0.19098198413848877
1789223147225258800,9.1762587890625,-0.00639835512265563,-0.8776432871818542,-0.21560882031917572
1789223147235252700,9.186252685546876,0.1899637132883072,-0.6881343126296997,-0.3381386995315552
1789223147245247000,9.1962470703125,0.39425796270370483,-0.34728726744651794,-0.4202154576778412
1789223147255241000,9.206240966796875,0.41584450006484985,0.41749563813209534,-0.3054654598236084
1789223147265234700,9.216234619140625,0.3165634572505951,0.7327819466590881,-0.17609362304210663
1789223147275228700,9.226228759765625,0.10384505987167358,0.4118342995643616,0.04797276109457016
1789223147285222700,9.23622265625,-0.10865212231874466,0.06541737914085388,0.3328135013580322
1789223147295217000,9.246216796875,-0.10651280730962753,-0.24909262359142303,0.47574561834335327
1789223147305211000,9.2562109375,0.14477422833442688,-0.3527565002441406,0.23787961900234222
1789223147315204900,9.266204833984375,0.40164729952812195,0.378346711397171,-0.1205376386642456
1789223147325198800,9.27619873046875,0.4531553387641907,1.1198378801345825,-0.18104779720306396
1789223147335192800,9.28619287109375,0.3078330159187317,0.8956453800201416,-0.09369025379419327
1789223147345186800,9.296186767578124,0.11361581832170486,0.1269696056842804,-0.1772388219833374
1789223147355180800,9.306180908203125,-0.00795828364789486,-0.6623268723487854,-0.13056932389736176
1789223147365174800,9.3161748046875,-0.03142733871936798,-0.7539709210395813,-0.2399139106273651
1789223147375168800,9.326168701171875,0.02869964763522148,-0.21103495359420776,-0.19251950085163116
1789223147385162800,9.336162841796876,0.13283798098564148,0.4286193549633026,0.1270737498998642
1789223147395156700,9.34615673828125,0.17338301241397858,0.7497289776802063,0.2066766917705536
1789223147405151000,9.35615087890625,0.07964824885129929,0.6902779936790466,0.12611448764801025
1789223147415145000,9.36614501953125,-0.07012607157230377,0.19567230343818665,0.21905668079853058
1789223147425138700,9.376138671875,-0.17725339531898499,-0.33470189571380615,0.22996842861175537
1789223147435132700,9.386132568359375,-0.188086599111557,-0.30144166946411133,-0.07114028185606003
1789223147445126700,9.396126708984376,-0.052120670676231384,-0.16303788125514984,-0.2475253939628601
1789223147455121000,9.406120849609374,0.077785924077034,-0.13879938423633575,-0.09020660072565079
1789223147465115000,9.416114990234375,0.1844453066587448,0.06927420198917389,-0.25876134634017944
1789223147475108900,9.42610888671875,0.2563527822494507,0.28129804134368896,-0.3502470552921295
1789223147485102800,9.436102783203125,0.2399279922246933,0.06720177084207535,0.07609594613313675
1789223147495096800,9.446096923828126,0.06024663895368576,0.15433001518249512,0.17928224802017212
1789223147505090800,9.4560908203125,-0.08574584871530533,0.09818455576896667,0.11670498549938202
1789223147515084800,9.466084716796875,-0.1002960279583931,-0.17739348113536835,0.1857636719942093
1789223147525078800,9.476078857421875,-0.05636877194046974,0.07848114520311356,-0.07455191761255264
1789223147535072800,9.48607275390625,0.04377327486872673,0.1860523372888565,-0.19527274370193481
1789223147545066000,9.49606591796875,0.22880971431732178,-0.215796560049057,-0.19674865901470184
1789223147555060000,9.50606005859375,0.3473070561885834,-0.12748561799526215,-0.21928539872169495
1789223147565053700,9.5160537109375,0.23658587038516998,0.5966337323188782,-0.05987789109349251
1789223147575047700,9.526047607421875,-0.009398776106536388,0.7631040811538696,0.24320624768733978
1789223147585041700,9.536041748046875,-0.12440495193004608,-0.0940026044845581,0.40433111786842346
1789223147595036000,9.546035888671875,-0.13997672498226166,-0.5647509098052979,0.2405022233724594
1789223147605030000,9.55602978515625,-0.08888118714094162,-0.24572725594043732,-0.2661720812320709
1789223147615023900,9.56602392578125,0.003402675036340952,0.02702862024307251,-0.25076836347579956
1789223147625017900,9.576017822265625,0.06569048017263412,0.31700819730758667,0.020552974194288254
1789223147635011800,9.58601171875,0.1639840304851532,0.21830426156520844,-0.1016395092010498
1789223147645005800,9.596005859375,0.19667163491249084,-0.2375466525554657,-0.10668700933456421
1789223147654999800,9.605999755859376,-0.007375241257250309,-0.12833841145038605,0.19412687420845032
1789223147664993800,9.615993896484374,-0.2609012722969055,0.29229581356048584,0.23462116718292236
1789223147674987800,9.62598779296875,-0.3038788437843323,0.2729162573814392,-0.10510922968387604
1789223147684981800,9.635981689453125,-0.17180569469928741,-0.08031812310218811,-0.08432869613170624
1789223147694975700,9.645975830078125,-0.02327534556388855,-0.019344255328178406,-0.026128243654966354
1789223147704970000,9.655969970703126,0.17840316891670227,-0.11604134738445282,-0.032311275601387024
1789223147714964000,9.6659638671875,0.31519219279289246,-0.2592472434043884,0.0648629441857338
1789223147724957700,9.675957763671875,0.21326300501823425,0.2993376553058624,0.032352037727832794
1789223147734951700,9.68595166015625,-0.01134800910949707,0.738212525844574,-0.11540333181619644
1789223147744945700,9.695945556640625,-0.12232108414173126,0.21351464092731476,-0.12917344272136688
1789223147754940000,9.70593994140625,-0.12441565841436386,-0.3970027565956116,0.10380282253026962
1789223147764934000,9.715933837890624,-0.1227107122540474,-0.08449678868055344,0.24265669286251068
1789223147774928000,9.725927978515625,-0.023957237601280212,0.2636513411998749,0.19163106381893158
1789223147784921900,9.735921875,0.07953304052352905,0.3159942626953125,0.16717597842216492
1789223147794915800,9.745915771484375,0.07533963024616241,0.5721762776374817,0.036168694496154785
1789223147804909800,9.755909912109376,-0.00469875056296587,0.5894303321838379,-0.05638840049505234
1789223147814903800,9.76590380859375,-0.05005611106753349,-0.16199496388435364,-0.10589150339365005
1789223147824897800,9.775897705078124,-0.06663442403078079,-0.7628918886184692,-0.20065748691558838
1789223147834891800,9.785891845703125,-0.12112189829349518,-0.35579681396484375,0.049012795090675354
1789223147844885800,9.7958857421875,-0.11949905753135681,0.3270932734012604,0.11793801933526993
1789223147854879700,9.805879638671875,-0.06636021286249161,0.47686466574668884,-0.004540756344795227
1789223147864874000,9.8158740234375,-0.07876840978860855,0.36824682354927063,-0.08442173898220062
1789223147874868000,9.825867919921874,-0.2319640815258026,0.3350502550601959,0.07666435092687607
1789223147884861700,9.83586181640625,-0.3399522304534912,-0.09852660447359085,0.14927417039871216
1789223147894855700,9.845855712890625,-0.29632991552352905,-0.6077669262886047,0.07568863034248352
1789223147904849700,9.855849609375,-0.18113617599010468,-0.34523510932922363,0.061843644827604294
1789223147914844000,9.865843994140626,-0.06280394643545151,0.2667670249938965,-0.11097127199172974
1789223147924837400,9.87583740234375,0.004762186203151941,0.3617525100708008,-0.2492554485797882
1789223147934831400,9.885831298828125,-0.03599775955080986,0.05791725963354111,-0.08469338715076447
1789223147944825300,9.895825439453125,-0.2153325080871582,0.06515338271856308,0.04537427797913551
1789223147954819300,9.9058193359375,-0.37491604685783386,-0.12487274408340454,0.1765514761209488
1789223147964813600,9.9158134765625,-0.4073801636695862,-0.5478896498680115,0.3914357125759125
1789223147974807600,9.9258076171875,-0.38339200615882874,-0.2266482561826706,0.20447221398353577
1789223147984801500,9.935801513671874,-0.2929524779319763,0.40401268005371094,-0.3527010679244995
1789223147994795500,9.94579541015625,-0.1573600322008133,0.31086838245391846,-0.5598622560501099
1789223148004789200,9.955789306640625,-0.09391392022371292,-0.20183642208576202,-0.20940715074539185
1789223148014783500,9.965783447265625,-0.07423209398984909,-0.48584499955177307,0.03335009887814522
1789223148024777500,9.975777587890626,-0.042011260986328125,-0.606113076210022,0.21380460262298584
1789223148034771500,9.985771484375,-0.23439055681228638,0.1790214329957962,0.39063581824302673
1789223148044765400,9.995765380859375,-0.5423964262008667,1.066980242729187,0.3287779986858368
1789223148054759400,10.005759521484375,-0.6411429643630981,0.5617854595184326,0.05643090605735779
1789223148064752400,10.01575244140625,-0.4738805294036865,-0.7396829724311829,0.031645096838474274
1789223148074746400,10.025746337890626,-0.17912717163562775,-0.9101071953773499,-0.181531623005867
1789223148084740400,10.035740234375,0.04613726586103439,0.06390129029750824,-0.394032746553421
1789223148094734300,10.045734375,0.20389173924922943,0.28891175985336304,-0.2766296863555908
1789223148104728600,10.055728515625,0.10829528421163559,0.058615539222955704,-0.04042362421751022
1789223148114722600,10.06572265625,-0.2502242624759674,0.27810847759246826,-0.004474945366382599
1789223148124716500,10.075716552734375,-0.5117228627204895,-0.006368681788444519,0.12411796301603317
1789223148134710500,10.08571044921875,-0.44053736329078674,-0.8918337821960449,0.2579188942909241
1789223148144704300,10.095704345703124,-0.25404834747314453,-0.38250732421875,0.10852934420108795
1789223148154698500,10.105698486328125,-0.027229052037000656,0.6974449157714844,-0.08521082997322083
1789223148164692500,10.1156923828125,0.05820012092590332,1.0145339965820312,0.06125171110033989
1789223148174686500,10.1256865234375,0.03296879678964615,0.5129715800285339,-0.032582636922597885
1789223148184680400,10.135680419921876,-0.01952480897307396,-0.5814576745033264,-0.011264462023973465
1789223148194674400,10.14567431640625,-0.12255372107028961,-0.9282166957855225,-0.1616840660572052
1789223148204668400,10.15566845703125,-0.20586082339286804,-0.32417070865631104,-0.23386317491531372
1789223148214662700,10.16566259765625,-0.1916416734457016,0.19603411853313446,-0.00005546817556023598
1789223148224656400,10.175656494140625,-0.08062960207462311,0.4066009521484375,-0.14707255363464355
1789223148234650400,10.185650390625,-0.06686611473560333,0.5095702409744263,-0.09608420729637146
1789223148244644400,10.195644287109374,-0.17081238329410553,0.33959782123565674,0.0012043071910738945
1789223148254638300,10.205638427734375,-0.21315450966358185,-0.5273172855377197,0.1533067524433136
1789223148264632600,10.215632568359375,-0.26379233598709106,-0.7347303628921509,0.33753082156181335
1789223148274626600,10.22562646484375,-0.2987881302833557,-0.02768772840499878,0.22064122557640076
1789223148284620500,10.23562060546875,-0.28708958625793457,0.47941339015960693,0.12164732068777084
1789223148294614500,10.245614501953124,-0.2301626205444336,0.40980100631713867,-0.14801931381225586
1789223148304608300,10.255608154296874,-0.1644454151391983,-0.12310253083705902,-0.34354367852211
1789223148314602500,10.2656025390625,-0.16128583252429962,-0.48709166049957275,-0.3366256058216095
1789223148324596500,10.275596435546875,-0.19296640157699585,-0.5633948445320129,-0.13721972703933716
1789223148334590500,10.285590576171876,-0.1777227222919464,-0.7519391775131226,0.32343605160713196
1789223148344584400,10.29558447265625,-0.20644429326057434,-0.24504660069942474,0.5615670084953308
1789223148354578400,10.305578369140624,-0.2495720535516739,0.6256054639816284,0.3754056692123413
1789223148364572400,10.315572509765625,-0.1947641223669052,0.5122265219688416,0.007963113486766815
1789223148374566700,10.325566650390625,-0.0436829999089241,-0.3670573830604553,-0.4705571234226227
1789223148384560400,10.335560302734375,0.02424595132470131,-0.603395938873291,-0.30505844950675964
1789223148394554400,10.345554443359376,-0.017279120162129402,-0.09132066369056702,-0.033477552235126495
1789223148404548400,10.35554833984375,0.05110093578696251,-0.19186411798000336,0.0933631882071495
1789223148414542300,10.365542236328125,0.17101748287677765,-0.4486200213432312,0.25283193588256836
1789223148424536600,10.37553662109375,0.09352545440196991,0.326754629611969,0.21503479778766632
1789223148434530600,10.385530517578125,-0.09050136804580688,0.8749285340309143,-0.00042877369560301304
1789223148444524500,10.395524658203126,-0.14667578041553497,0.006122274324297905,-0.010927807539701462
1789223148454518500,10.4055185546875,-0.07974281162023544,-0.8212997913360596,-0.04508018493652344
1789223148464512300,10.41551220703125,0.09368178993463516,-0.5976418852806091,-0.21284449100494385
1789223148474506500,10.425506591796875,0.2564659118652344,0.16919828951358795,-0.22803302109241486
1789223148484500500,10.43550048828125,0.25443199276924133,0.6444419622421265,0.01254173181951046
1789223148494494500,10.445494384765626,0.14889384806156158,0.2572905421257019,0.3325386345386505
1789223148504488400,10.455488525390624,-0.04492637515068054,-0.08104244619607925,0.3120688796043396
1789223148514482400,10.465482421875,-0.15072843432426453,-0.32161056995391846,0.05239573121070862
1789223148524476400,10.475476318359375,-0.08586293458938599,-0.5778465867042542,-0.13771937787532806
1789223148534470700,10.485470703125,0.03776659443974495,-0.19884337484836578,-0.21190784871578217
1789223148544464400,10.49546435546875,0.11867056041955948,0.4767138361930847,-0.10488416999578476
1789223148554458400,10.505458251953126,0.15057575702667236,0.375751256942749,0.10973865538835526
1789223148564452400,10.515452392578124,0.1505921632051468,-0.24821731448173523,0.13992151618003845
1789223148574446300,10.5254462890625,0.1161564290523529,-0.5656599998474121,0.14333222806453705
1789223148584440600,10.535440673828125,0.048362329602241516,-0.38152116537094116,0.09535117447376251
1789223148594434600,10.5454345703125,-0.019038815051317215,0.006627368740737438,-0.04998097941279411
1789223148604428500,10.555428466796876,-0.03239862620830536,0.16980823874473572,0.018533335998654366
1789223148614422500,10.565422607421874,0.09854207187891006,-0.12969884276390076,-0.1757999211549759
1789223148624416300,10.575416259765625,0.24272462725639343,-0.3231159448623657,-0.44073486328125
1789223148634410500,10.585410400390625,0.26225361227989197,-0.28125104308128357,-0.07029900699853897
1789223148644404500,10.595404541015625,0.1266302466392517,0.050223562866449356,0.35979950428009033
1789223148654398500,10.6053984375,0.0184414554387331,0.27831530570983887,0.20157763361930847
1789223148664392400,10.615392333984374,-0.017016759142279625,-0.013686568476259708,0.10354703664779663
1789223148674386400,10.625386474609375,-0.05159258097410202,-0.22043202817440033,0.06051700934767723
1789223148684380400,10.63538037109375,0.03766855224967003,-0.3803359568119049,-0.29532620310783386
1789223148694374700,10.645374755859375,0.23254989087581635,-0.6301013231277466,-0.33613649010658264
1789223148704368400,10.655368408203126,0.2840326726436615,-0.07519058883190155,-0.12180840224027634
1789223148714362400,10.6653623046875,0.12952031195163727,0.7581695318222046,0.17669974267482758
1789223148724356400,10.6753564453125,0.026100043207406998,0.27312493324279785,0.5992602705955505
1789223148734349600,10.685349609375,0.050811517983675,-0.7047401666641235,0.47668159008026123
1789223148744343600,10.695343505859375,0.074135921895504,-0.5575507879257202,-0.19636878371238708
1789223148754338600,10.705338623046876,0.036915309727191925,0.1684814989566803,-0.5117126107215881
1789223148764331300,10.715331298828126,0.015240440145134926,0.2831250727176666,-0.2584826946258545
1789223148774325200,10.7253251953125,0.08858390152454376,-0.07974261045455933,0.021497799083590508
1789223148784319500,10.735319580078125,0.2615981101989746,-0.4584469497203827,0.19340290129184723
1789223148794313500,10.7453134765625,0.3829338550567627,-0.41735464334487915,0.2858489453792572
1789223148804307500,10.755307373046875,0.2613932490348816,0.23490455746650696,0.1853923499584198
1789223148814301400,10.765301513671876,0.07432910054922104,0.5632731318473816,0.0095973564311862
1789223148824295400,10.77529541015625,-0.00618164986371994,0.019723867997527122,-0.05037099868059158
1789223148834289700,10.78528955078125,0.007336822338402271,-0.35015588998794556,-0.2229267954826355
1789223148844283400,10.795283447265625,0.1146889179944992,-0.12782786786556244,-0.3962169289588928
1789223148854277400,10.80527734375,0.29557693004608154,-0.25210773944854736,0.028137538582086563
1789223148864271400,10.815271240234376,0.3974556028842926,-0.1378675401210785,0.26198825240135193
1789223148874265300,10.825265380859374,0.3290501534938812,0.2803211808204651,0.44292527437210083
1789223148884259600,10.835259521484375,0.21928060054779053,0.39611947536468506,0.19867095351219177
1789223148894253600,10.845253662109375,0.14516375958919525,0.036236658692359924,-0.14860126376152039
1789223148904247600,10.85524755859375,0.08766655623912811,-0.12003618478775024,-0.1888863891363144
1789223148914241500,10.865241455078126,0.12479075789451599,-0.019221950322389603,-0.15709944069385529
1789223148924235500,10.875235595703124,0.23961743712425232,0.10215026885271072,-0.02143923006951809
1789223148934229500,10.8852294921875,0.2808804512023926,0.423298180103302,0.15197329223155975
1789223148944223700,10.8952236328125,0.27200329303741455,0.31036898493766785,0.1609322875738144
1789223148954217700,10.9052177734375,0.21630141139030457,-0.09424110502004623,0.10109878331422806
1789223148964211700,10.915211669921876,0.07650706171989441,-0.04911431670188904,0.10405049473047256
1789223148974205400,10.925205322265626,-0.029024694114923477,0.11417341232299805,-0.07008668035268784
1789223148984199400,10.935199462890624,0.08697699010372162,-0.3632621765136719,-0.281830757856369
1789223148994193700,10.945193603515625,0.22613726556301117,-0.5273613929748535,-0.14267313480377197
1789223149004187600,10.955187744140625,0.2157268524169922,0.26472008228302,-0.2298700213432312
1789223149014181600,10.965181640625,0.16115735471248627,0.5497409105300903,-0.14247839152812958
1789223149024175600,10.975175537109376,0.09554231911897659,0.0844288244843483,0.19199848175048828
1789223149034169600,10.985169677734374,-0.0036388635635375977,-0.10854489356279373,0.04456163942813873
1789223149044163600,10.99516357421875,-0.06081476807594299,-0.12472116202116013,-0.10716769099235535
1789223149054157600,11.005157470703125,0.02987358719110489,-0.32329389452934265,-0.06571824848651886
1789223149064151600,11.015151611328125,0.19531573355197906,-0.33413058519363403,-0.19011907279491425
1789223149074145500,11.0251455078125,0.2282680869102478,0.2697222828865051,-0.27800098061561584
1789223149084139500,11.035139404296874,0.09857931733131409,0.9037476181983948,-0.13436700403690338
1789223149094133500,11.045133544921875,0.005221934523433447,0.38690048456192017,0.18772368133068085
1789223149104127700,11.055127685546875,-0.04095887765288353,-0.4706658720970154,0.3777673840522766
1789223149114121700,11.065121826171875,-0.06807198375463486,-0.3047184348106384,0.16954149305820465
1789223149124115700,11.07511572265625,0.005416215863078833,0.14874529838562012,-0.14328226447105408
1789223149134109400,11.085109375,0.04753011092543602,0.4111654758453369,-0.2713422179222107
1789223149144103400,11.095103515625,0.0318174883723259,0.4326671063899994,-0.29864269495010376
1789223149154097700,11.10509765625,-0.01798522099852562,0.03013801947236061,0.16214889287948608
1789223149164091600,11.115091552734375,-0.02182413637638092,-0.3612651228904724,0.24612103402614594
1789223149174085600,11.125085693359376,-0.04626796022057533,-0.10654788464307785,-0.01931329444050789
1789223149184079600,11.13507958984375,-0.11894688010215759,0.2530135214328766,0.024050330743193626
1789223149194073600,11.145073486328124,-0.15034928917884827,0.1130303293466568,-0.11239166557788849
1789223149204067600,11.155067626953125,-0.21053415536880493,-0.12184245139360428,-0.19885164499282837
1789223149214061600,11.1650615234375,-0.3063032925128937,0.05132559686899185,-0.05623297765851021
1789223149224055600,11.1750556640625,-0.2872525453567505,0.0998956561088562,0.09457613527774811
1789223149234049500,11.185049560546876,-0.10417833924293518,-0.20622538030147552,0.19624604284763336
1789223149244043500,11.19504345703125,-0.0009246733970940113,-0.053943783044815063,0.1505294293165207
1789223149254037500,11.20503759765625,-0.05780686438083649,0.2454914003610611,0.1827526092529297
1789223149264031700,11.21503173828125,-0.14649102091789246,0.1181490495800972,0.11661908030509949
1789223149274025700,11.225025634765625,-0.2021300494670868,-0.1883735954761505,-0.022144390270113945
1789223149284019700,11.235019775390626,-0.18540513515472412,-0.21385739743709564,-0.29304540157318115
1789223149294013400,11.245013427734374,-0.12801587581634521,0.00124692777171731,-0.3334157168865204
1789223149304007400,11.25500732421875,-0.12866687774658203,0.25341325998306274,0.012941095978021622
1789223149314001700,11.265001708984375,-0.16818366944789886,0.4698246419429779,0.17546236515045166
1789223149323995600,11.27499560546875,-0.16200880706310272,0.12214957177639008,0.2672320008277893
1789223149333989600,11.28498974609375,-0.14806902408599854,-0.3549351990222931,0.2733873724937439
1789223149343983600,11.294983642578124,-0.10723413527011871,-0.4286753535270691,0.0018977023428305984
1789223149353977600,11.3049775390625,0.003734455443918705,-0.14797259867191315,-0.2928314208984375
1789223149363971600,11.3149716796875,0.1217174381017685,-0.0001604100689291954,-0.22766895592212677
1789223149373965600,11.324965576171875,0.06782890856266022,0.3235774338245392,-0.2398047149181366
1789223149383959600,11.33495947265625,-0.0738978311419487,0.34571295976638794,-0.23380661010742188
1789223149393953500,11.34495361328125,-0.11808526515960693,-0.2527419328689575,0.14524616301059723
1789223149403947500,11.354947509765625,-0.14965815842151642,-0.34304821491241455,0.32672765851020813
1789223149413941500,11.36494140625,-0.10096705704927444,0.1348634958267212,0.07331696897745132
1789223149423935700,11.374935791015625,0.016372378915548325,0.28144994378089905,0.12335179001092911
1789223149433929700,11.3849296875,0.0925116240978241,0.23242035508155823,-0.029622050002217293
1789223149443923700,11.394923828125,0.14726582169532776,0.12470237910747528,-0.43880510330200195
1789223149453917400,11.40491748046875,0.10271219909191132,-0.11400500684976578,-0.1979120671749115
1789223149463911400,11.414911376953125,0.00008915970101952553,-0.09013404697179794,-0.01589711382985115
1789223149473905700,11.42490576171875,-0.01824563927948475,-0.24918387830257416,0.35797715187072754
1789223149483899600,11.434899658203125,-0.04117452725768089,-0.08061710000038147,0.749366819858551
1789223149493893600,11.4448935546875,-0.029160741716623306,0.4187423884868622,0.4947774112224579
1789223149503887600,11.4548876953125,0.08101657032966614,0.45855626463890076,-0.16784706711769104
1789223149513881600,11.464881591796875,0.2076733112335205,0.004203960299491882,-0.6214883327484131
1789223149523875800,11.474875732421875,0.19656407833099365,0.059513941407203674,-0.701880693435669
1789223149533869600,11.48486962890625,0.14214158058166504,0.08788380026817322,-0.19541004300117493
1789223149543863600,11.494863525390626,0.18876807391643524,-0.34259501099586487,0.4380359351634979
1789223149553857500,11.504857421875,0.2331019788980484,-0.17423290014266968,0.3814491033554077
1789223149563851500,11.5148515625,0.12031510472297668,0.5740044713020325,0.2800122797489166
1789223149573845500,11.524845458984375,-0.08085102587938309,0.8868129849433899,0.2540765404701233
1789223149583839700,11.53483984375,-0.1214824914932251,0.0406498908996582,0.029205534607172012
1789223149593833700,11.544833740234376,-0.06393104791641235,-0.4971030354499817,-0.20422612130641937
1789223149603827700,11.55482763671875,0.03709527105093002,-0.02999526634812355,-0.41048774123191833
1789223149613821400,11.564821533203125,0.1606539636850357,0.2923755943775177,-0.3032499849796295
1789223149623815400,11.5748154296875,0.24795664846897125,0.0786743238568306,0.017915254458785057
1789223149633809700,11.5848095703125,0.1542341411113739,0.1527179330587387,0.20373225212097168
1789223149643803600,11.5948037109375,-0.06655127555131912,0.33345723152160645,0.16376431286334991
1789223149653797600,11.604797607421874,-0.18538524210453033,-0.1604190468788147,0.11196557432413101
1789223149663791600,11.61479150390625,-0.23331905901432037,-0.3057209551334381,0.021561184898018837
1789223149673785600,11.62478564453125,-0.23177656531333923,0.31533247232437134,-0.19544143974781036
1789223149683779800,11.63477978515625,-0.18095141649246216,0.6789189577102661,-0.14869815111160278
1789223149693773600,11.644773681640626,-0.017157698050141335,0.05835957080125809,0.06366764008998871
1789223149703767600,11.654767578125,0.054958444088697433,-0.49893102049827576,0.25331127643585205
1789223149713761500,11.664761474609374,-0.015266183763742447,-0.35635948181152344,0.09056443721055984
1789223149723755500,11.674755615234375,-0.06942187994718552,-0.2391413301229477,0.022535299882292747
1789223149733749500,11.68474951171875,-0.12547795474529266,-0.056578174233436584,0.20706146955490112
1789223149743743700,11.69474365234375,-0.18541935086250305,0.5218159556388855,-0.07944181561470032
1789223149753737700,11.70473779296875,-0.1266481727361679,0.5082940459251404,-0.5364341139793396
1789223149763731700,11.714731689453124,-0.03708883002400398,-0.33937105536460876,-0.2029624730348587
1789223149773725400,11.724725341796875,-0.024530958384275436,-0.6219180822372437,0.0695074051618576
1789223149783719400,11.734719482421875,-0.043010175228118896,-0.29138946533203125,0.24509558081626892
1789223149793713700,11.744713623046875,0.020413808524608612,0.045841559767723083,0.28240540623664856
1789223149803707600,11.754707763671876,0.02284124493598938,0.5290230512619019,0.01829063519835472
1789223149813701600,11.76470166015625,-0.07804461568593979,0.618740439414978,-0.1538425087928772
1789223149823695600,11.774695556640625,-0.08984161913394928,-0.2917975187301636,-0.14089728891849518
1789223149833689600,11.784689697265625,-0.018436411395668983,-0.9318459033966064,-0.08755096793174744
1789223149843683800,11.794683837890625,0.051275502890348434,-0.3407140374183655,-0.15426385402679443
1789223149853677600,11.804677490234376,0.1164579689502716,0.3852253258228302,-0.10567260533571243
1789223149863671600,11.814671630859374,0.07728362083435059,0.5095047354698181,0.321952223777771
1789223149873665500,11.82466552734375,-0.045494236052036285,0.2861086130142212,0.4365762770175934
1789223149883659500,11.834659423828125,-0.07725555449724197,-0.20006629824638367,-0.038850825279951096
1789223149893653500,11.844653564453125,-0.05538913607597351,-0.5149043798446655,-0.10937905311584473
1789223149903647700,11.854647705078126,-0.0730230063199997,0.05038432776927948,-0.18838973343372345
1789223149913641700,11.864641845703124,-0.024478638544678688,0.21320706605911255,-0.1925051063299179
1789223149923636500,11.874636474609375,0.01581922359764576,0.018035121262073517,0.04184013977646828
1789223149933630200,11.884630126953125,0.027393056079745293,0.19511295855045319,-0.010415075346827507
1789223149943624200,11.894624267578125,0.09233363717794418,-0.02979237399995327,-0.10856365412473679
1789223149953618200,11.9046181640625,0.14431241154670715,-0.4779674708843231,-0.3273961544036865
1789223149963612400,11.9146123046875,0.01613376848399639,-0.3432766795158386,0.011660804972052574
1789223149973606400,11.9246064453125,-0.1463981568813324,0.1902540773153305,0.1419501006603241
1789223149983600400,11.934600341796875,-0.18199437856674194,0.38365504145622253,0.07297135889530182
1789223149993594400,11.944594482421875,-0.09002983570098877,0.21303190290927887,0.14705757796764374
1789223150003588400,11.95458837890625,0.026105443015694618,0.11121918261051178,0.028736460953950882
1789223150013582300,11.964582275390624,0.08647264540195465,-0.03167858347296715,-0.07180638611316681
1789223150023576300,11.974576416015625,0.09058576822280884,-0.2035810947418213,0.035468876361846924
1789223150033570300,11.9845703125,0.046100322157144547,-0.19907528162002563,0.19364333152770996
1789223150043564300,11.994564208984375,-0.04178793355822563,0.24388600885868073,-0.07087138295173645
1789223150053558300,12.004558349609376,-0.13166722655296326,0.571566104888916,-0.3791152238845825
1789223150063552300,12.01455224609375,-0.22574566304683685,0.4052409529685974,-0.17261552810668945
1789223150073545200,12.024545166015624,-0.24034111201763153,-0.053575363010168076,0.09759704768657684
1789223150083539200,12.034539306640625,-0.14197134971618652,-0.5980372428894043,0.34105950593948364
1789223150093534200,12.0445341796875,-0.033615048974752426,-0.6518546938896179,0.34685614705085754
1789223150103528200,12.054528076171875,-0.05021585524082184,-0.03364896774291992,0.24662557244300842
1789223150113522200,12.064522216796876,-0.11550271511077881,0.37018823623657227,0.24507135152816772
1789223150123515400,12.074515380859374,-0.17553335428237915,0.2902488708496094,0.19872726500034332
1789223150133509400,12.08450927734375,-0.160340815782547,-0.04057645425200462,-0.1702052354812622
1789223150143503400,12.09450341796875,-0.0880989208817482,-0.38752809166908264,-0.48654940724372864
1789223150153498400,12.104498291015625,-0.15992596745491028,-0.20592154562473297,-0.4904669225215912
1789223150163492000,12.1144921875,-0.2562294006347656,-0.12297217547893524,-0.23905573785305023
1789223150173485300,12.1244853515625,-0.21391814947128296,-0.42742395401000977,0.1409485936164856
1789223150183479300,12.134479248046874,-0.14717474579811096,-0.29256048798561096,0.2600955069065094
1789223150193473300,12.144473388671875,-0.19017601013183594,0.3208637833595276,-0.022806767374277115
1789223150203467300,12.15446728515625,-0.16974644362926483,-0.09209436923265457,0.10894230008125305
1789223150213461500,12.16446142578125,-0.09889331459999084,-0.6230112314224243,0.3922421634197235
1789223150223455500,12.17445556640625,-0.13200826942920685,0.23501402139663696,0.11021137237548828
1789223150233449200,12.18444921875,-0.18269434571266174,1.000634789466858,-0.20596922934055328
1789223150243443200,12.194443115234375,-0.19682852923870087,0.20041592419147491,0.18752840161323547
1789223150253437200,12.204437255859375,-0.11011200398206711,-0.9532894492149353,0.12806932628154755
1789223150263431400,12.214431396484375,0.04697484150528908,-1.0948164463043213,-0.3166564404964447
1789223150273425400,12.22442529296875,0.11314001679420471,-0.30403202772140503,-0.3355843126773834
1789223150283419400,12.23441943359375,0.0035302769392728806,0.4070770740509033,-0.20063284039497375
1789223150293413400,12.244413330078125,-0.16540256142616272,0.3923255503177643,0.041423726826906204
1789223150303407400,12.254407470703125,-0.2874794006347656,0.3305719792842865,0.18000918626785278
1789223150313401300,12.2644013671875,-0.259056031703949,0.062007371336221695,0.3305363655090332
1789223150323395300,12.274395263671876,-0.1601446270942688,-0.017474455758929253,-0.15218566358089447
1789223150333389300,12.284389404296874,-0.021512193605303764,-0.5458517074584961,-0.28428566455841064
1789223150343383300,12.29438330078125,-0.013318056240677834,-0.8217891454696655,0.262989342212677
1789223150353377300,12.304377197265625,-0.057859160006046295,-0.12046405673027039,0.18809567391872406
1789223150363371300,12.314371337890625,-0.034831929951906204,0.45506811141967773,-0.18742965161800385
1789223150373365500,12.324365478515626,-0.044462185353040695,0.25377950072288513,-0.18221117556095123
