time,seconds_elapsed,z,y,x
1789317783088050200,0.05305029296875,7.216572716522216,3.7288194480895993,-0.9735422500610351
1789317783098083300,0.063083251953125,7.503278365325928,3.298760974884033,-1.4291887535095213
1789317783108116200,0.0731162109375,7.87856947555542,3.79870020904541,-1.2797007873535156
1789317783118149000,0.083149169921875,7.931541187286377,4.131194964599609,-0.8066963218688964
1789317783128182300,0.093182373046875,8.109310660552978,4.223222090911865,-0.8614636848449706
1789317783138215200,0.103215087890625,8.629301333618164,4.288464086151123,-1.007360348510742
1789317783148248300,0.113248291015625,9.593416414642334,4.531176279449463,-1.084722989654541
1789317783158281000,0.123281005859375,10.432883371734619,4.4373535018920895,-0.9440636421203613
1789317783168314000,0.133314208984375,10.752359655761719,4.1103953376770015,-0.7701847465515136
1789317783178347000,0.143346923828125,10.653898112487793,3.974225118255615,-0.8065466842651366
1789317783188380200,0.153380126953125,9.952097750854492,3.8613983650207517,-0.9243114784240722
1789317783198413000,0.1634130859375,9.477147996520996,4.070292459869385,-1.5019126289367675
1789317783208446200,0.1734462890625,9.01536635131836,4.357147746276855,-2.7371710479736326
1789317783218479000,0.18347900390625,8.209118942260742,4.576516473388671,-3.842095114135742
1789317783228512000,0.193511962890625,7.025036583709716,4.821622868347168,-4.23923331451416
1789317783238545200,0.203545166015625,6.873453691101074,4.799326865386963,-4.872948566436767
1789317783248578000,0.213578125,7.7890861885070795,4.139574670410156,-5.313481671905517
1789317783258611200,0.223611083984375,8.42699129333496,3.527407233428955,-4.784213467407226
1789317783268644000,0.23364404296875,9.370007472229004,3.602525310516357,-3.603423136138916
1789317783278677200,0.24367724609375,9.608829087829589,4.291157563018799,-1.9041385078430175
1789317783288710100,0.253710205078125,9.92067385406494,5.521477941131591,-1.0631751747131346
1789317783298743300,0.263743408203125,9.624241761016846,6.0896519226074215,-1.120486376953125
1789317783308776200,0.273776123046875,8.814403049468993,4.461145880889893,-0.8670002761840819
1789317783318809000,0.28380908203125,9.363573055267333,4.703109886169433,-2.4078186820983887
1789317783328842200,0.29384228515625,9.851990193939208,4.680813883209228,-2.854636566925049
1789317783338875100,0.303875244140625,10.568754315948485,5.181202030181884,-2.9248166030883787
1789317783348908300,0.313908203125,10.359860221099852,5.7323173248291015,-2.3223756103515623
1789317783358941200,0.323941162109375,8.671798413085938,5.223998384857177,-0.934037922668457
1789317783368974300,0.333974365234375,7.670124293518066,4.056376162719726,0.06688800888061523
1789317783379007000,0.344007080078125,8.224232340240478,4.301332920074462,-0.3628711891174316
1789317783389040000,0.3540400390625,8.59982272567749,4.959139826202392,-1.0791863983154297
1789317783399073000,0.364072998046875,8.355015605926512,5.227290412139892,-1.2856862915039062
1789317783409106200,0.374106201171875,8.08237589187622,5.130624520111084,-1.8044798637390136
1789317783419139000,0.38413916015625,6.796240687561035,4.7478515296936035,-3.0361469802856442
1789317783429173200,0.39417333984375,6.669347999572754,5.527463445281982,-3.0334535034179684
1789317783439206100,0.4042060546875,8.029404180145264,5.9688943763732905,-2.087145297241211
1789317783449239300,0.4142392578125,9.207949947357177,6.25036270904541,-0.5175964714050293
1789317783459272700,0.424272705078125,10.38724390258789,6.748356654357909,0.5805939025878906
1789317783469305600,0.4343056640625,9.719112001800536,6.67159256362915,0.7326257080078125
1789317783479338500,0.44433837890625,8.085967194366454,6.405087991333008,0.34326866302490233
1789317783489371600,0.45437158203125,7.384765383148193,6.621164691162109,-0.07317278823852538
1789317783499404500,0.464404541015625,7.970147689056396,6.336553968811034,-0.3468599655151367
1789317783509437400,0.4744375,8.70845962600708,5.819256772613525,0.08245031967163086
1789317783519470300,0.48447021484375,8.042572289276123,5.216666142272949,2.454056701660156
1789317783529503500,0.49450341796875,7.390750887298584,4.120271419525146,4.266317720794677
1789317783539536400,0.504536376953125,6.932111631774902,2.874239093017578,4.983830030822753
1789317783549569500,0.514569580078125,4.865466686248779,2.398391513061523,6.086060620117187
1789317783559602400,0.5246025390625,2.93678761138916,2.932298483276367,5.589862326049804
1789317783569635600,0.534635498046875,3.326743206787109,6.702717185211181,-8.009203103637695
1789317783579668500,0.54466845703125,4.679167869567871,12.209829916381835,-14.194473455047607
1789317783589701400,0.554701416015625,5.312284571075439,14.306103107452392,-7.544428706359863
1789317783599734500,0.564734619140625,7.575852603149413,8.622268366241455,2.1779753227233885
1789317783609767400,0.574767333984375,8.799439289093018,6.1465142120361325,2.609829447174072
1789317783619800600,0.584800537109375,8.205677277374267,6.6011132522583,0.35449148330688474
1789317783629833500,0.59483349609375,6.905176863098144,6.453420937347412,-0.23223756103515625
1789317783639866600,0.60486669921875,6.4092778442382805,6.462997743988037,0.3781342247009277
1789317783649899500,0.6148994140625,7.310994044494628,7.1483379692077635,1.1595417915344237
1789317783659932700,0.6249326171875,8.58770207977295,7.732373536682128,2.5758617111206052
1789317783669965600,0.634965576171875,9.329455681610106,8.08252552947998,2.175132208251953
1789317783679998700,0.644998779296875,8.88144069595337,7.9086466339111325,1.5592238311767577
1789317783690031600,0.655031494140625,7.819911534881592,7.203554244995117,1.478569162750244
1789317783700064500,0.665064453125,7.752873888397216,7.56522833328247,1.4387655601501463
1789317783710097700,0.67509765625,7.363217568206787,8.31940185623169,1.563563321685791
1789317783720130600,0.685130615234375,5.945101997375488,8.441805416107178,1.565957523345947
1789317783730163500,0.69516357421875,5.022586170196533,8.345139524078368,0.751480046081543
1789317783740196400,0.7051962890625,5.3405660781860345,8.135796516418457,-0.1409586227416992
1789317783750229500,0.7152294921875,5.679495250701904,8.26687905731201,0.32935236587524414
1789317783760262400,0.725262451171875,5.557241328430176,8.320449319458007,0.8631096984863281
1789317783770296600,0.735296630859375,4.001010249328613,8.434173898315429,0.35314474487304687
1789317783780329500,0.74532958984375,2.7506384323120114,8.422502165222168,0.15607202072143553
1789317783790362600,0.755362548828125,3.0062194595336913,8.53562819366455,0.7950245887756348
1789317783800395500,0.7653955078125,3.6329017440795894,8.237998999786376,0.6998550727844238
1789317783810428700,0.7754287109375,5.03725065536499,7.927052059173583,0.30885201416015623
1789317783820461600,0.785461669921875,5.540631554412841,7.9472531356811515,0.2659060218811035
1789317783830494500,0.795494384765625,4.286369159698486,8.502259008026122,0.7577648254394531
1789317783840527600,0.805527587890625,2.7992706535339353,9.069086251068114,0.8696937530517578
1789317783850560500,0.815560546875,2.149693815612793,9.319280324554443,0.8985738105773925
1789317783860593700,0.82559375,2.2789807052612305,9.207650672149658,0.6163572898864745
1789317783870626600,0.83562646484375,2.645592834472656,8.945036677551268,0.28909985046386716
1789317783880659500,0.845659423828125,2.573617147064209,8.568099553680419,0.5653308670043945
1789317783890692400,0.8556923828125,2.145503962707519,8.477269528198242,2.5622446891784665
1789317783900725500,0.8657255859375,2.7934347869873046,7.751078237152099,-0.8041524826049804
1789317783910758400,0.87575830078125,1.2448352256774902,7.526771469116211,-0.33833062210083004
1789317783920791600,0.88579150390625,-0.31393969268798827,7.422922972106933,-1.9042881454467773
1789317783930824400,0.895824462890625,0.41045594711303707,7.242011109161377,-2.996941928100586
1789317783940857300,0.905857421875,0.10070610733032226,6.255899300384521,-0.9075520668029785
1789317783950890500,0.915890380859375,0.06988076095581054,5.004629657745361,2.2864625854492187
1789317783960923400,0.92592333984375,0.8098387115478515,4.949563019561768,-0.01601122360229492
1789317783970956500,0.93595654296875,1.608155327606201,5.6434325881958,-2.0280384437561034
1789317783980989400,0.945989501953125,2.0898387741088866,6.245723943328857,-2.257881803131103
1789317783991022600,0.956022705078125,2.7257985900878903,6.994959425354003,-1.41093296585083
1789317784001055500,0.966055419921875,2.55386498336792,6.885574337005615,-0.11133037719726561
1789317784011088600,0.976088623046875,-4.261379679870605,4.657320779418945,-1.179293955230713
1789317784021121500,0.98612158203125,-8.396315584564208,2.0548235748291015,-2.263418394470215
1789317784031154700,0.99615478515625,-5.20274984512329,-0.9267056800842285,-2.3582886352539063
1789317784041187600,1.0061875,2.8713959785461425,-4.4577042160034175,-1.8204910873413085
1789317784051220500,1.016220458984375,6.513425616455078,-3.258658097076416,3.245639625549316
1789317784061253600,1.026253662109375,11.489474491882323,-1.0639233627319336,6.917147871398925
1789317784071286500,1.03628662109375,11.9258177444458,0.7448959915161132,8.422352527618408
1789317784081319700,1.046319580078125,8.864531646728516,0.853532891845703,8.9891797706604
1789317784091352600,1.0563525390625,4.877886607360839,0.41808746490478516,9.722553666687011
1789317784101385500,1.066385498046875,3.122338240051269,0.3112462158203125,9.387814347076416
1789317784111418400,1.07641845703125,4.149001839447021,-0.040402153015136714,8.938901535797118
1789317784121451500,1.086451416015625,6.625354544067382,-1.7479168495178221,9.166350693511962
1789317784131484400,1.096484375,8.179640334320068,-4.408174169158936,9.757119953155517
1789317784141517600,1.106517578125,7.683741315460205,-6.2769982025146485,9.955838690948486
1789317784151550500,1.116550537109375,5.373037438201904,-6.293009426116943,9.802609784698486
1789317784161583400,1.126583251953125,3.4406174232482907,-5.5829789962768555,9.087192401123046
1789317784171616500,1.136616455078125,3.0072669227600097,-4.994753575897216,10.523414122009276
1789317784181649400,1.1466494140625,2.6631004341125486,-4.922927526092529,13.083563884735106
1789317784191682600,1.1566826171875,3.2300773147583004,-4.305522772979736,16.614712058258057
1789317784201715500,1.166715576171875,4.033331971740722,-1.6115969924926756,17.9024932762146
1789317784211748600,1.17674853515625,4.425382493591308,1.8158523216247557,15.78167951812744
1789317784221781500,1.186781494140625,4.971859022521972,2.789544209289551,13.411868787384032
1789317784231814700,1.196814697265625,3.245190712738037,1.0175357055664063,11.250353601074218
1789317784241847600,1.20684765625,1.443404325866699,-1.7690157516479492,10.594791259002685
1789317784251880400,1.21688037109375,1.1788450424194334,-4.075380138397216,11.762413481140136
1789317784261913600,1.22691357421875,1.769165389251709,-4.368969116973877,11.948861935424803
1789317784271946500,1.236946533203125,1.792059942626953,-4.116081566619873,10.669759698486327
1789317784281980400,1.24698046875,3.1548096000671384,-4.645649046325683,9.75562357711792
1789317784292013300,1.257013427734375,4.069394634246826,-4.96033692703247,8.693645503234864
1789317784302046500,1.26704638671875,2.9589339767456053,-4.152144229125977,9.753379013061522
1789317784312079400,1.277079345703125,3.5803789451599117,-3.0545524055480957,9.548674771118163
1789317784322112500,1.287112548828125,3.4885014564514156,-2.43879366607666,9.945214421081543
1789317784332145400,1.2971455078125,3.6355952209472653,-1.590947003173828,9.587879823303222
1789317784342178600,1.307178466796875,4.113837002563477,-1.1079168182373047,9.108889853668213
1789317784352211500,1.31721142578125,5.15875638961792,-1.1908160507202148,9.566930558776855
1789317784362244600,1.32724462890625,7.260266896820068,-1.3379098152160644,10.223390726470946
1789317784372277500,1.337277587890625,9.42926396331787,-1.795950520324707,9.98501802368164
1789317784382310700,1.347310546875,10.586710828399658,-2.2659622337341307,9.27543650665283
1789317784392343600,1.357343505859375,9.822810861206055,-2.26641114654541,7.932289375305175
1789317784402376400,1.36737646484375,8.384643851470948,-2.3335984306335447,7.217919454956054
1789317784412409600,1.37740966796875,7.086088726043701,-2.9218238510131833,7.1668930320739745
1789317784422442500,1.3874423828125,6.088155546569824,-3.5685575744628903,7.460631648254394
1789317784432475600,1.3974755859375,5.65675033493042,-3.9827544616699218,8.548048114776611
1789317784442508500,1.407508544921875,4.676025479888915,-4.164115237426757,7.119757186889648
1789317784452541700,1.417541748046875,3.6171897956848142,-3.988141415405273,6.561010374450683
1789317784462574000,1.427573974609375,3.732710025787353,-4.330063339996338,7.255179218292236
1789317784472607000,1.43760693359375,4.087500784301757,-5.099948811340331,6.913556568908691
1789317784482640100,1.44764013671875,4.7664065925598145,-5.595548554992676,6.9354036590576165
1789317784492673000,1.457673095703125,5.8363154594421385,-5.670965907287598,7.562385218811035
1789317784502706200,1.4677060546875,6.415562623596191,-5.378125116729736,8.039579537200927
1789317784512738800,1.47773876953125,6.523900248718261,-4.820874680328369,8.351573941040039
1789317784522771700,1.487771728515625,6.209062730407714,-4.142417784881592,7.461978386688232
1789317784532804900,1.497804931640625,5.276970096588134,-3.8411972885131833,5.668870980834961
1789317784542837800,1.507837646484375,4.074631950378418,-3.8156092582702636,4.891503629302978
1789317784552871000,1.517870849609375,3.647865504455566,-4.50050057067871,4.875193130493164
1789317784562903800,1.52790380859375,3.9695863525390624,-4.809801497650146,5.932233163452148
1789317784572937000,1.53793701171875,4.106504759979248,-4.797381576538085,7.1221513885498045
1789317784582969900,1.547969970703125,4.526986426544189,-4.087201509094238,8.193406993865967
1789317784593003000,1.5580029296875,4.9528550468444825,-3.69664736328125,9.151087657928466
1789317784603036000,1.568035888671875,5.03066660079956,-4.262576780700683,9.814730430603026
1789317784613068800,1.57806884765625,4.783614916992187,-4.841823944854736,10.171466477966309
1789317784623102000,1.58810205078125,4.496460355377197,-5.204844771575927,9.689334118652344
1789317784633134800,1.598134765625,5.212775564575195,-5.609614489746093,8.728361427307128
1789317784643168000,1.60816796875,6.8381392166137696,-6.12870733718872,7.876624186706542
1789317784653201000,1.618200927734375,8.408585868072509,-6.479906793212891,7.614309467315674
1789317784663234000,1.628234130859375,9.573664250946045,-6.900837372589111,8.162880922698974
1789317784673267000,1.638266845703125,9.93952819213867,-6.797138513183594,8.862885633087158
1789317784683300000,1.648300048828125,9.22575682220459,-6.17344898071289,7.89742381362915
1789317784693333000,1.6583330078125,7.376834590148925,-5.411943215179443,7.089979303741455
1789317784703366100,1.6683662109375,6.074688162231445,-4.648941073608398,7.836521308898925
1789317784713399000,1.67839892578125,5.606921012878417,-3.7816415222167965,8.857199404144287
1789317784723432000,1.688431884765625,6.044910279083251,-2.729389892578125,9.471611405181884
1789317784733464800,1.69846484375,5.543474668884277,-2.045396405792236,9.977236868286132
1789317784743497700,1.708497802734375,3.8798037902832028,-2.5954642372131347,9.092280079650878
1789317784753531000,1.71853076171875,3.1931168266296384,-3.4536358947753905,7.482029825592041
1789317784763563800,1.728563720703125,3.974674031066894,-4.457255303192138,7.50821640625
1789317784773597000,1.738596923828125,5.061342309570312,-4.904971013641357,8.760533512115478
1789317784783629800,1.7486298828125,4.529979178619384,-5.875969424438476,8.22288560180664
1789317784793663000,1.7586630859375,3.6837785293579097,-5.254823731231689,8.042422651672362
1789317784803695900,1.76869580078125,3.8597523513793943,-4.219930063629151,8.01907918548584
1789317784813729000,1.77872900390625,3.1241338912963865,-4.077175789642334,7.678204724121093
1789317784823763000,1.788762939453125,2.6904841156005856,-3.7406408187866207,7.994538618469238
1789317784833796000,1.798796142578125,2.880523872375488,-3.649212242889404,9.382128118133544
1789317784843829000,1.8088291015625,2.965667668914795,-3.681234690093994,9.553912087249754
1789317784853862100,1.818862060546875,3.319261326599121,-3.1208418640136717,8.609549169921875
1789317784863895000,1.82889501953125,4.567388579559326,-2.093430076599121,7.730278610229492
1789317784873928000,1.838927978515625,5.84215132598877,-1.7555483673095702,7.042993096160888
1789317784883961000,1.848961181640625,5.641038386535644,-2.124255422973633,6.095487789154053
1789317784893993700,1.85899365234375,3.692607147979736,-2.588281632232666,8.167220413208007
1789317784904027000,1.86902685546875,-1.5378256538391113,-4.301931470489501,16.4200335357666
1789317784914059800,1.879059814453125,9.420136069488525,-4.594921898651123,4.472817613983154
1789317784924093000,1.889093017578125,5.652410844421387,-7.191732874298095,18.710087423706053
1789317784934125800,1.899125732421875,5.512200409698486,-5.42017328338623,6.916998233795166
1789317784944159000,1.909158935546875,4.262277505493164,-5.393088877105712,3.997867859649658
1789317784954192000,1.91919189453125,5.942857433319092,-6.7936968482971185,5.989544365692138
1789317784964225000,1.92922509765625,7.349151633453369,-6.948571768188476,6.291662687683105
1789317784974258000,1.9392578125,7.773074964904785,-6.628048020935058,6.65932228012085
1789317784984290800,1.949290771484375,7.664587702178955,-6.18631781463623,6.4543187629699705
1789317784994324000,1.959323974609375,7.319972300720214,-5.665429315948486,5.814618006896972
1789317785004356900,1.96935693359375,6.891559841156005,-5.606771375274658,5.565770671844482
1789317785014390000,1.97939013671875,6.3907227813720695,-5.546317783355713,5.284152701568603
1789317785024423000,1.9894228515625,6.054935998535156,-5.157708926391601,4.944026428222656
1789317785034456000,1.9994560546875,5.64373186340332,-4.886415950775146,5.114164383697509
1789317785044489000,2.009489013671875,4.726154077148437,-4.292803576660156,4.668693237304687
1789317785054522000,2.019522216796875,3.6378397850036617,-3.298760974884033,3.3393127655029295
1789317785064555000,2.029554931640625,3.297563874053955,-3.30714068069458,4.345027100372314
1789317785074588000,2.039587890625,3.6791397636413574,-4.159626109313964,6.987028632354736
1789317785084621000,2.04962109375,4.99280828704834,-5.978471183013916,10.54077208404541
1789317785094654000,2.059654052734375,7.242160746765136,-7.668927192687987,10.970830557250975
1789317785104686800,2.069686767578125,8.290821073913573,-8.093598712158203,8.463802143859862
1789317785114719700,2.0797197265625,7.161655715942382,-7.455095056915283,6.255899300384521
1789317785124753000,2.0897529296875,5.701043065643311,-6.887968538665771,5.20918426208496
1789317785134785800,2.099785888671875,4.657919329833984,-6.547692627716064,4.985176769256592
1789317785144819000,2.10981884765625,4.819228666687011,-6.472125637817382,4.913799632263183
1789317785154851800,2.119851806640625,5.458031597137451,-6.494720915985107,5.0945618576049805
1789317785164885000,2.129885009765625,5.800851347351074,-5.769128175354004,6.213551858520508
1789317785174918000,2.13991796875,5.320963552093506,-5.295375521850586,6.471676725006103
1789317785184950800,2.14995068359375,4.945672441864013,-4.975300687408447,6.027851592254638
1789317785194984000,2.15998388671875,5.06867455215454,-4.093935201263427,5.170577760314941
1789317785205016800,2.170016845703125,4.923675714111328,-4.121618157958984,5.155464362335205
1789317785215050000,2.180050048828125,5.408052637481689,-4.812046061706543,6.100425830078125
1789317785225083000,2.190082763671875,6.526444087982178,-5.634753607177734,6.821230167388916
1789317785235116000,2.200115966796875,6.573579933166504,-6.7751417854309075,7.0275804229736325
1789317785245149000,2.21014892578125,5.315875873565673,-6.797437788391113,6.1842228881835934
1789317785255182000,2.22018212890625,5.07555788192749,-6.344335124206543,5.658396348571777
1789317785265215000,2.230215087890625,5.5744496528625485,-5.940762506866455,6.1176341545104975
1789317785275248000,2.240248046875,5.424961686706543,-5.38156678161621,6.337601432037353
1789317785285281000,2.250281005859375,5.496189186096191,-5.213823027801514,6.201431212615966
1789317785295314000,2.26031396484375,5.7338137008666985,-5.019294142913818,6.1732993431091305
1789317785305347000,2.27034716796875,5.628019915008545,-4.952106858825683,6.095038876342773
1789317785315380000,2.2803798828125,5.679345613098144,-4.944026428222656,6.05239215927124
1789317785325412900,2.290412841796875,5.660940187835693,-4.958690913391113,6.095038876342773
1789317785335446800,2.30044677734375,5.612756879425048,-5.025728559875488,6.245424668121338
1789317785345480000,2.31047998046875,5.614253255462646,-5.0580502822875975,6.142773271942138
1789317785355512800,2.320512939453125,5.683086553192139,-4.580706326293945,5.743091232299804
1789317785365546000,2.3305458984375,5.724087256622314,-4.535066857147217,5.9868508888244625
1789317785375579000,2.340578857421875,5.801000984954833,-4.586691830444336,5.96964256439209
1789317785385612000,2.350612060546875,5.832125606536865,-4.619312828063965,5.888389345550537
1789317785395645000,2.36064501953125,5.757755717468261,-4.606294356536865,5.89886397781372
1789317785405678000,2.370677978515625,5.646425340270996,-4.580556688690185,6.0613704154968255
1789317785415711000,2.3807109375,5.694309373474121,-4.183568125915527,6.1279591491699215
1789317785425744100,2.390744140625,5.6489691795349115,-4.293701402282714,6.112845751190185
1789317785435777000,2.400777099609375,5.683984378814697,-4.602104503631591,6.255300749969482
1789317785445810000,2.410809814453125,5.896020863342285,-4.8618753837585444,6.1744964439392085
1789317785455844000,2.420843994140625,6.160280871582031,-5.0391959442138665,6.031293257141113
1789317785465877000,2.430876953125,6.463446656799316,-5.027524211120605,5.643282950592041
1789317785475910100,2.44091015625,6.42304450378418,-4.927865567016601,5.435735594177245
1789317785485943000,2.450943115234375,6.424840155029297,-4.840626844024658,5.4129906784057615
1789317785495976200,2.46097607421875,6.408529656219482,-4.9257706405639645,5.625326438140869
1789317785506009000,2.471009033203125,6.150554427337646,-4.975450325012207,5.5844753723144525
1789317785516042200,2.481042236328125,5.823596263122559,-5.028272399139404,5.653009394836426
1789317785526075100,2.4910751953125,5.89901361541748,-5.161300228881836,5.89916325302124
1789317785536108300,2.5011083984375,5.768529624938965,-5.202450569915771,5.6675242424011225
1789317785546141200,2.51114111328125,6.187814190673827,-5.531952573394775,5.885097318267822
1789317785556174000,2.521174072265625,6.365733301544189,-5.819107135009765,5.8457426284790035
1789317785566207200,2.531207275390625,6.310517025756836,-5.948094749450683,5.768529624938965
1789317785576240000,2.541240234375,6.181379773712158,-5.870881745910644,5.860107838439941
1789317785586273300,2.551273193359375,6.13544102935791,-5.727828196716308,6.038775137329101
1789317785596306200,2.56130615234375,6.004358488464355,-5.586719936370849,6.256048937988281
1789317785606339300,2.57133935546875,5.890035359191894,-5.299565374755859,6.239738439178466
1789317785616372200,2.581372314453125,5.894225212097168,-4.925471365356445,6.239439163970947
1789317785626405000,2.591405029296875,6.005555589294433,-4.733785594940185,6.2487166954040525
1789317785636438000,2.60143798828125,6.161926885223388,-4.786906944274902,6.308122824096679
1789317785646471200,2.61147119140625,6.069450846099853,-4.737676172637939,6.321141295623779
1789317785656504000,2.621504150390625,6.182127961730957,-4.7753848487854,6.0054059516906735
1789317785666537000,2.631536865234375,6.034435646820068,-4.841674307250976,5.679345613098144
1789317785676570000,2.641570068359375,6.014384207916259,-4.929661218261718,5.971587853240966
1789317785686603000,2.65160302734375,6.0425160774230955,-4.950610482788085,6.215946060180664
1789317785696636200,2.66163623046875,5.871480296325683,-4.94148258895874,6.22432576599121
1789317785706669000,2.6716689453125,6.142174721527099,-5.004330382537842,6.293607976531982
1789317785716702200,2.6817021484375,6.251410172271728,-4.996848502349853,6.0811225791931145
1789317785726735000,2.691735107421875,6.114491764831542,-4.887613051605224,5.524171417999267
1789317785736768300,2.701768310546875,5.960813945770263,-4.975599962615966,5.313182396697997
1789317785746801200,2.71180126953125,6.0522425216674804,-5.123890827941894,5.776460417938232
1789317785756834000,2.721833984375,6.063315704345703,-5.3202153640747065,6.2487166954040525
1789317785766867200,2.7318671875,5.946149460601807,-5.484367815399169,6.424989792633056
1789317785776900000,2.741900146484375,5.866841530609131,-5.444414575195312,6.484994471740722
1789317785786933200,2.751933349609375,5.9102364356994626,-5.164143343353271,6.284480082702636
1789317785796966100,2.761966064453125,5.94375525894165,-5.008370597839355,5.8548705223083495
1789317785806999300,2.771999267578125,6.017676235198974,-4.976797063446044,5.83526799621582
1789317785817032200,2.7820322265625,6.131999364471435,-4.909160866546631,6.046855567932129
1789317785827065300,2.7920654296875,6.180930860900879,-4.983381118011474,6.364685838317871
1789317785837098200,2.80209814453125,6.080673666381836,-4.927715929412842,6.558167259979248
1789317785847132200,2.812132080078125,5.879111814117431,-4.9534535972595215,6.473023463439941
1789317785857165000,2.8221650390625,5.802946273803711,-5.016600666046142,6.23749387512207
1789317785867198200,2.8321982421875,5.842600238800048,-5.014206464385986,5.974131692504883
1789317785877231000,2.842231201171875,5.874622686004638,-5.019892693328857,5.879411089324951
1789317785887264300,2.85226416015625,5.891232460021972,-4.976497788238525,5.895123037719726
1789317785897297200,2.862297119140625,5.998821897125244,-4.900481885528564,6.02710340423584
1789317785907330000,2.872330078125,6.004059213256836,-4.920234049224853,6.011241818237305
1789317785917363200,2.88236328125,5.838260748291015,-5.039794494628906,5.9208607055664055
1789317785927396000,2.89239599609375,5.657797798156738,-5.053860429382324,5.801898810577392
1789317785937429200,2.90242919921875,5.506663818359375,-4.971559747314453,5.748777461242676
1789317785947462100,2.912462158203125,5.5829789962768555,-4.910507604980468,5.691615896606445
1789317785957495300,2.922495361328125,5.66946953125,-4.920682962036133,5.610063402557373
1789317785967528200,2.932528076171875,5.915623389434814,-5.007472772216796,5.612457604217529
1789317785977561300,2.942561279296875,6.14157617111206,-4.936544548034668,5.7912745407104484
1789317785987594200,2.95259423828125,6.274155088043212,-4.914547820281983,6.080374391174316
1789317785997627100,2.962627197265625,6.2295630821228025,-5.042188696289062,6.033837096405029
1789317786007660000,2.972659912109375,5.933879177093505,-5.141548065185547,6.060173314666748
1789317786017693000,2.98269287109375,5.756558616638183,-5.129577056884766,6.285078633117675
1789317786027726000,2.99272607421875,5.575946028900146,-4.86486813583374,6.245424668121338
1789317786037759000,3.002759033203125,5.623381149291992,-4.534019393920898,6.486041934967041
1789317786047792000,3.012792236328125,5.983259586334228,-4.517259982299804,7.143100653076171
1789317786057825000,3.022824951171875,6.106860247039794,-4.643404482269287,7.29692810974121
1789317786067858200,3.032858154296875,6.273257262420654,-4.717026183319091,7.1398086257934565
1789317786077891000,3.04289111328125,6.308122824096679,-4.480898044586182,7.002590943145751
1789317786087924200,3.05292431640625,6.23090982055664,-4.49436542892456,6.750451580810546
1789317786097957000,3.06295703125,6.091597211456299,-4.514865780639648,6.056133099365234
1789317786107990300,3.072990234375,5.84828646774292,-4.402188665008545,5.478831224060058
1789317786118023200,3.083023193359375,5.824045175933837,-4.199728987121582,5.622483323669433
1789317786128056000,3.09305615234375,5.957821193695068,-4.37315896987915,5.999719722747803
1789317786138089200,3.103089111328125,6.10970336151123,-4.553921195220947,6.165967100524902
1789317786148122000,3.1131220703125,6.067655194854736,-4.338443045806884,6.348674614715576
1789317786158155300,3.1231552734375,5.584924285125732,-4.027196829986572,6.364087287902832
1789317786168188200,3.133188232421875,5.319167900848388,-4.040664214324951,5.888838258361816
1789317786178221300,3.14322119140625,5.635651432800293,-4.065504056549072,5.49693737411499
1789317786188254200,3.153254150390625,6.178835934448242,-4.394557147216797,5.419724370574951
1789317786198287400,3.163287353515625,6.429478920745849,-4.709693940734863,5.371391424560547
1789317786208320300,3.1733203125,6.65887336730957,-4.921580787658691,5.428852264404297
1789317786218353200,3.183353271484375,6.766163529205322,-4.867411975097656,6.172850430297851
1789317786228386000,3.193385986328125,7.021744556427001,-4.9360956352233885,6.340893459320068
1789317786238419000,3.2034189453125,7.023240932464599,-5.174468338012695,5.820453873443603
1789317786248452000,3.2134521484375,6.969969945526123,-5.268291115570068,5.355829113769531
1789317786258485000,3.223485107421875,6.507589749908447,-4.983081842803955,5.290736756134033
1789317786268518100,3.23351806640625,5.988197627258301,-4.821173955535889,5.578040955352783
1789317786278551000,3.243551025390625,5.738153191375732,-5.063586873626709,5.987299801635742
1789317786288584200,3.253584228515625,5.744138695526122,-5.319018263244629,5.93747047958374
1789317786298617000,3.2636171875,5.500977589416504,-5.036203192138672,5.810727429199218
1789317786308650200,3.273650146484375,5.480327600097656,-4.708197564697265,5.928791498565674
1789317786318684200,3.28368408203125,5.552303287506104,-5.000140529632568,5.841253500366211
1789317786328717300,3.29371728515625,5.801300260162353,-5.185990433502197,5.576095666503906
1789317786338750200,3.303750244140625,6.228665256500244,-5.183745869445801,6.277447115325927
1789317786348783400,3.313783447265625,6.030395431518555,-5.364059181976318,6.881983034515381
1789317786358816300,3.323816162109375,5.7052329185485835,-5.356876576995849,6.763170777130126
1789317786368849200,3.33384912109375,5.845592990875244,-5.232228453063964,6.015730946350097
1789317786378882000,3.343882080078125,5.928192948150635,-5.135113648223877,6.600963614654541
1789317786388915000,3.3539150390625,6.659471917724609,-4.695777643585205,7.087884377288818
1789317786398948000,3.363947998046875,5.805939025878906,-4.576965386199951,6.672191114044189
1789317786408981000,3.37398095703125,5.705681831359863,-5.048772750854492,6.477961504364013
1789317786419014100,3.38401416015625,5.721094504547119,-5.353734187316895,6.8691142005920405
1789317786429047000,3.394047119140625,5.544222856903076,-5.36316135635376,6.784568954467773
1789317786439080200,3.404080078125,5.288941104888916,-5.264699813079834,6.1845221633911125
1789317786449113000,3.414113037109375,5.406256986236572,-5.262754524230957,6.350320628356934
1789317786459145200,3.424145263671875,5.966051261901855,-5.257068295288086,6.827066033935546
1789317786469178000,3.43417822265625,5.6955064743041985,-5.096207871246338,6.091297936248779
1789317786479211300,3.444211181640625,5.316025511169434,-4.902127899169922,5.599738407897949
1789317786489244200,3.454244140625,5.574748928070068,-4.92232897567749,6.539612197113037
1789317786499277300,3.46427734375,5.647921716308593,-5.161300228881836,7.0753148185729975
1789317786509310200,3.474310302734375,5.438728346252441,-5.401767858123779,5.936572653961181
1789317786519343400,3.48434326171875,5.775712229919433,-5.5467666961669915,5.999420447540283
1789317786529376300,3.494376220703125,6.356156494903564,-5.114912571716308,6.6899979888916015
1789317786539409400,3.504409423828125,6.1176341545104975,-4.847210898590087,6.497713668060302
1789317786549442300,3.5144423828125,6.038625499725342,-4.717175820922852,5.439626171875
1789317786559475500,3.524475341796875,5.597942756652832,-4.683806635284424,5.755211878204346
1789317786569508400,3.53450830078125,5.817012208557129,-4.993406837463379,6.9333087326049805
1789317786579541200,3.544541259765625,5.758204630279541,-5.239859970855712,6.762123313903809
1789317786589574400,3.554574462890625,5.379771130371093,-5.15247161026001,6.341342372131347
1789317786599607300,3.564607177734375,5.250184965515136,-5.072415492248535,7.028478248596191
1789317786609640400,3.574640380859375,5.0297687751770015,-5.064035786437988,7.151181083679199
1789317786619673300,3.58467333984375,4.748001167297363,-5.2816088623046875,6.7471595535278315
1789317786629706500,3.59470654296875,5.127631768035888,-5.48451745300293,6.4080807434082026
1789317786639739400,3.604739501953125,5.118653511810303,-5.410147563934326,6.842777982330322
1789317786649772300,3.614772216796875,5.577442404937744,-5.068375276947021,6.378751773071289
1789317786659805200,3.62480517578125,5.7411459434509275,-5.245845475006103,5.740248117828369
1789317786669838300,3.63483837890625,6.204423964691162,-5.4710500686645505,5.703137992095947
1789317786679871200,3.644871337890625,6.08381605606079,-5.00477929534912,5.588665225219726
1789317786689904000,3.654904052734375,5.975029518127441,-4.663156645965576,6.152499716186523
1789317786699937300,3.664937255859375,6.106261696624755,-4.250156859588623,6.6723407516479485
1789317786709970200,3.67497021484375,6.266972483062744,-3.883694367980957,6.753893245697021
1789317786720003300,3.68500341796875,6.5868976799011225,-3.6186861717224117,6.515370905303954
1789317786730036200,3.6950361328125,6.50579409866333,-3.2995091629028317,5.989993278503418
1789317786740069400,3.7050693359375,6.063614979553222,-3.21780703125,5.917419040679931
1789317786750102300,3.715102294921875,6.491279251098632,-3.1796494422912596,5.747879635620117
1789317786760136400,3.725136474609375,6.657676266479492,-3.5139398490905758,6.00136573638916
1789317786770169300,3.73516943359375,7.161805353546142,-3.9715316413879393,5.690269158172607
1789317786780202500,3.745202392578125,6.95874712524414,-4.276642715454101,5.030516963195801
1789317786790235400,3.7552353515625,7.536797188568115,-4.271704674530029,4.439298790740967
1789317786800268300,3.765268310546875,7.889642658233642,-3.903895444488525,3.862894741058349
1789317786810301200,3.77530126953125,8.6949922416687,-4.038569287872314,3.591601765441894
1789317786820334000,3.785333984375,8.704269773101807,-3.995324020385742,2.7659014678955076
1789317786830367200,3.7953671875,8.703970497894286,-4.27110612411499,2.7813141410827633
1789317786840400100,3.805400146484375,8.496572779083252,-4.365228176879882,3.3372178390502927
1789317786850433300,3.815433349609375,7.902661129760742,-4.242674979400634,2.8501474388122556
1789317786860466200,3.825466064453125,7.454646144104004,-4.533570481109619,2.5227403617858886
1789317786870499300,3.835499267578125,8.347384088134765,-4.791695347595215,2.9357401481628416
1789317786880532200,3.8455322265625,8.377161971282959,-4.811896424102783,2.494159579467773
1789317786890565400,3.8555654296875,8.036437147521973,-4.652981288909912,1.4031518104553222
1789317786900598300,3.865598388671875,8.250718196105957,-4.823418519592285,1.6558897232055663
1789317786910631400,3.87563134765625,8.51108762664795,-5.585373197937011,3.032106764984131
1789317786920664300,3.885664306640625,7.853430358123779,-6.029048693084716,3.615543782043457
1789317786930697200,3.895697265625,7.5534069625854485,-5.68188945236206,4.140023583221435
1789317786940730400,3.90573046875,7.914033587646484,-4.991611186218261,5.432593204498291
1789317786950763300,3.91576318359375,8.06965669555664,-4.639663542175293,4.780771802520752
1789317786960796400,3.92579638671875,7.295581371307373,-4.649689261627197,3.1675287963867187
1789317786970829300,3.935829345703125,7.262810736083984,-4.951059395599365,2.953995935821533
1789317786980862500,3.945862548828125,7.328800919342041,-4.927117378997803,4.312705377960205
1789317786990895400,3.955895263671875,8.127716085815429,-5.341014990997314,5.349394696807861
1789317787000928500,3.965928466796875,6.879588832855224,-5.306149429321289,4.927416654205322
1789317787010961400,3.97596142578125,6.0707975845336914,-5.191975937652588,5.13945313873291
1789317787020994300,3.985994384765625,6.225672504425049,-5.8743234107971185,6.267122120666504
1789317787031027200,3.996027099609375,5.964554885864257,-6.450278547668456,6.655282064819335
1789317787041060000,4.00606005859375,5.7703252761840815,-6.00151537399292,5.5081601943969725
1789317787051093200,4.01609326171875,7.145045941925049,-5.314229859924316,4.432714736175537
1789317787061126100,4.026126220703125,7.025485496520996,-5.533000036621093,6.187664553070068
1789317787071159300,4.0361591796875,7.29767629776001,-6.0425160774230955,5.615450356292724
1789317787081192200,4.046192138671875,6.662165394592285,-5.10114591217041,4.881028997039794
1789317787091225300,4.056225341796875,6.539013646697998,-4.8798318962097165,5.4013189453125
1789317787101258200,4.06625830078125,6.22507395401001,-4.791994622802734,6.602759265899658
1789317787111291400,4.07629150390625,5.936273378753662,-5.010465524291992,6.46060354232788
1789317787121324300,4.08632421875,5.859060375213622,-5.306299066925049,5.989394728088379
1789317787131357400,4.096357421875,5.85412233428955,-5.68847350692749,6.4457894195556635
1789317787141390300,4.106390380859375,6.227019242858886,-5.749675286865234,7.47619395904541
1789317787151423200,4.11642333984375,6.216993523406982,-5.080795198059081,7.147440143585205
1789317787161456400,4.126456298828125,6.573579933166504,-4.828955110931396,5.909488247680664
1789317787171489300,4.1364892578125,6.304830796813964,-4.849156187438965,4.917390934753418
1789317787181523200,4.146523193359375,6.606350568389892,-4.668543599700928,4.99235937423706
1789317787191556000,4.15655615234375,7.741202155303955,-4.274697426605225,5.805939025878906
1789317787201589200,4.16658935546875,7.8609122383117676,-4.214094197082519,6.12287147064209
1789317787211622100,4.1766220703125,7.739705779266357,-4.608987833404541,5.200505281066894
1789317787221655300,4.1866552734375,7.419331669616699,-5.590760151672363,5.007323134613037
1789317787231688200,4.196688232421875,8.063820829010009,-5.843198789215087,5.312733483886719
1789317787241721300,4.206721435546875,8.170362802886963,-5.708375308227539,5.11356583328247
1789317787251754200,4.216754150390625,7.914332862854003,-5.8077346771240235,4.663455921173095
1789317787261787400,4.226787353515625,7.143399928283691,-5.848585742950439,4.347870214843749
1789317787271820300,4.2368203125,7.353341486358642,-5.142745166015625,4.122366345977783
1789317787281853200,4.246853271484375,7.180809329223632,-4.047996456909179,3.743633570861816
1789317787291886300,4.25688623046875,7.031770275878906,-3.44106633605957,3.1700726356506346
1789317787301919200,4.266919189453125,6.853102976989746,-3.6692636817932125,3.0410850212097165
1789317787311952400,4.276952392578125,6.063465341949462,-4.490025938415527,3.2098762382507324
1789317787321985300,4.2869853515625,5.767033248901367,-4.8141409881591795,3.301903364562988
1789317787332018400,4.297018310546875,6.391022056579589,-5.162946242523193,3.834313958740234
1789317787342051300,4.30705126953125,6.898892083740234,-5.239411058044433,4.399495188140869
1789317787352084500,4.31708447265625,7.05466482925415,-5.474042820739745,4.342183985900879
1789317787362117400,4.327117431640625,7.518242125701904,-5.492747521209717,4.200177899932861
1789317787372150500,4.337150634765625,7.898172001647949,-5.454440294647217,4.331110803222656
1789317787382183400,4.347183349609375,7.5718123878479,-5.054758255004883,4.107103310394287
1789317787392216300,4.35721630859375,7.379677704620361,-4.8804304466247554,3.6553473846435547
1789317787402249200,4.367249267578125,7.0096239105224605,-5.115361484527588,3.612850305175781
1789317787412282000,4.3772822265625,6.653486413574218,-5.570110162353515,4.056525800323486
1789317787422315300,4.387315185546875,6.595726298522949,-5.820453873443603,4.426130681610108
1789317787432348200,4.39734814453125,6.677278792572021,-5.682338365173339,4.715529807281494
1789317787442381300,4.40738134765625,6.524049886322021,-5.727977834320068,5.327547606658936
1789317787452414200,4.417414306640625,6.6708443756103515,-6.016928047180175,5.067178176116943
1789317787462447000,4.427447021484375,6.613233898162841,-5.896020863342285,4.421940828704834
1789317787472480300,4.437480224609375,6.88901600189209,-5.88000963973999,4.4750621780395505
1789317787482513200,4.44751318359375,7.277475221252441,-5.712116248321533,4.87115291519165
1789317787492546300,4.45754638671875,6.619518677520752,-5.600336958312988,4.600308852386474
1789317787502579200,4.4675791015625,6.358550696563721,-5.778704981994629,4.608987833404541
1789317787512612400,4.4776123046875,6.49891076889038,-6.089352647399902,5.556044227600097
1789317787522645200,4.487645263671875,6.7185787712097165,-6.224475403594971,5.665429315948486
1789317787532678400,4.497678466796875,6.34568186264038,-6.1462149368286125,5.036352829742431
1789317787542711300,4.507711181640625,6.929567792510986,-6.02036971206665,4.9646764175415035
1789317787552744400,4.517744384765625,6.935104383850097,-5.6012347839355465,4.690540327453613
1789317787562777300,4.52777734375,6.787860981750488,-5.721992330169678,4.528183527374267
1789317787572810200,4.537810302734375,7.190535773468017,-5.753565864562988,4.15004930267334
1789317787582844200,4.54784423828125,7.248146250915527,-5.757456442260742,4.351311879730225
1789317787592877300,4.557877197265625,7.104344513702392,-5.717952114868163,4.648043247985839
1789317787602910200,4.56791015625,6.789656632995605,-5.749376011657715,4.23309817276001
1789317787612943000,4.577943115234375,6.710797615814209,-5.984755962371826,3.974823668670654
1789317787622976300,4.587976318359375,6.917447146606445,-5.890633909606933,4.144811986541748
1789317787633009200,4.598009033203125,6.818686328125,-5.661688375854492,4.36043977355957
1789317787643042300,4.608042236328125,7.202955694580078,-5.556343502807617,4.752041382598876
1789317787653075200,4.6180751953125,7.4691609916687005,-5.6383449096679685,4.770895720672607
1789317787663108400,4.6281083984375,7.461679111480713,-5.577592042541504,4.507084625244141
1789317787673141200,4.638141357421875,7.4031708084106445,-5.367201571655273,4.3628339752197265
1789317787683174400,4.64817431640625,7.047182949066162,-5.03111551361084,3.9649475868225097
1789317787693207300,4.658207275390625,6.902932299041748,-5.065981075286865,3.8036382499694823
1789317787703240200,4.668240234375,6.89500150604248,-5.2630537994384765,3.9049429077148434
1789317787713273300,4.6782734375,7.133972759246825,-5.266794739532471,4.143764523315429
1789317787723306200,4.68830615234375,6.985382618713379,-5.276072270965576,4.513219766998291
1789317787733339400,4.69833935546875,7.047482224273681,-5.316923336791992,4.299237993621826
1789317787743372300,4.708372314453125,6.501155332946777,-5.501426502227783,3.5384804161071775
1789317787753405400,4.718405517578125,6.625354544067382,-5.523273592376708,3.5488054107666014
1789317787763438300,4.728438232421875,6.733392893981933,-5.673060833740234,3.9686885269165035
1789317787773471200,4.73847119140625,6.501005695343017,-5.750124199676513,4.039018200683594
1789317787783504100,4.748504150390625,6.724564275360107,-5.8262897399902345,4.377498460388184
1789317787793537300,4.758537353515625,7.0004960166931145,-6.00136573638916,5.223399834442138
1789317787803570200,4.768570068359375,6.912359468078613,-6.006154139709472,5.037849205780029
1789317787813603000,4.77860302734375,6.6252049064636225,-6.052990709686279,4.320935446166992
1789317787823636200,4.78863623046875,6.627599108123779,-5.909488247680664,3.94549469833374
1789317787833669000,4.798669189453125,6.491279251098632,-5.462670362854004,4.144363073730468
1789317787843702300,4.808702392578125,6.479008967590332,-5.327846881866455,4.745756603240967
1789317787853735200,4.818735107421875,6.1738978935241695,-5.116558585357666,4.323180010223388
1789317787863768300,4.828768310546875,5.951386776733398,-5.271283867645264,4.7758337615966795
1789317787873801200,4.83880126953125,6.520159308624267,-5.434089580535888,5.007921685028076
1789317787883834400,4.84883447265625,6.328024625396728,-5.239859970855712,4.498405644226074
1789317787893867300,4.8588671875,6.56968935546875,-5.287145453643799,4.4665328346252435
1789317787903900400,4.868900390625,7.258770520782471,-5.462969638061523,5.1042883018493646
1789317787913933300,4.878933349609375,7.382371181488037,-5.457881959533691,5.444264937591552
1789317787923966200,4.88896630859375,7.370549810791015,-5.46461565170288,5.383960983276367
1789317787933999400,4.898999267578125,6.992415586090088,-5.20948353729248,5.218162518310547
1789317787944032300,4.9090322265625,6.552780306243896,-4.638167166137695,4.875193130493164
1789317787954066200,4.919066162109375,6.78606533050537,-4.357596659088134,4.567238941955567
1789317787964098300,4.929098388671875,6.668001261138915,-4.25808765258789,4.000411698913574
1789317787974132200,4.93913232421875,6.865971810913085,-4.048146094512939,3.7490205245971677
1789317787984165000,4.9491650390625,6.6982280570983885,-3.5449148330688476,3.8851907440185545
1789317787994198300,4.9591982421875,7.134870584869384,-3.6475662292480466,4.132541703033447
1789317788004231200,4.969231201171875,7.989750215148925,-4.1840170387268065,4.491671952056884
1789317788014264300,4.979264404296875,8.288576509857178,-4.467879573059082,4.6179660896301264
1789317788024297200,4.989297119140625,8.415618835449218,-4.547187503051758,5.205144046783447
1789317788034330400,4.999330322265625,8.557624921417236,-4.262127867889404,4.700865322113037
1789317788044363300,5.00936328125,8.803030591583251,-4.134636629486084,4.356100283050536
1789317788054396200,5.019396240234375,8.870217875671386,-3.941155207824707,3.810671217346191
1789317788064429300,5.02942919921875,8.404096739959716,-3.685723818206787,2.8932430686950683
1789317788074462200,5.039462158203125,8.702923034667968,-3.7102643852233883,2.9435213035583496
1789317788084495400,5.049495361328125,8.912415679931641,-3.656993398284912,2.788796021270752
1789317788094528300,5.0595283203125,8.305335921478271,-4.248211570739746,2.4588451049804685
1789317788104561400,5.0695615234375,8.387038053131104,-4.98562568206787,2.3127988037109373
1789317788114594300,5.07959423828125,8.437166650390624,-5.511901134490967,2.267009696960449
1789317788124627500,5.08962744140625,8.706364699554443,-6.044611003875732,2.3279122016906735
1789317788134660400,5.099660400390625,8.583811502075195,-6.191704768371582,1.8276736923217773
1789317788144693200,5.109693359375,8.337657643890381,-6.274753638458251,2.1710919929504393
1789317788154726100,5.11972607421875,8.04361975250244,-5.901258179473877,2.3906103576660156
1789317788164759000,5.129759033203125,7.668179004669189,-5.717503202056885,2.375646597290039
1789317788174792200,5.139792236328125,7.763797433471679,-5.853074871063232,2.3677158042907713
1789317788184825000,5.1498251953125,7.682394577026367,-5.746981809997559,2.9646202056884765
1789317788194858200,5.159858154296875,7.4980410491943355,-5.819107135009765,3.1585505401611327
1789317788204891100,5.16989111328125,7.211036125183105,-5.562029731750488,3.1405940277099607
1789317788214924300,5.17992431640625,7.06139852142334,-5.272630606079101,4.026897554779053
1789317788224957200,5.189957275390625,7.066785475158691,-5.233724829101562,4.80725765838623
1789317788234990300,5.199990234375,6.6510922119140625,-5.170128847503662,4.509927739715576
1789317788245023200,5.210023193359375,6.442347754669189,-4.87145219039917,4.60345124206543
1789317788255056400,5.220056396484375,7.1592615142822265,-4.661061719512939,5.528361270904541
1789317788265089300,5.23008935546875,7.219864743804931,-4.933252520751953,5.339817890167236
1789317788275122200,5.2401220703125,7.011868474578857,-5.229983889007568,4.888211602020263
1789317788285155300,5.2501552734375,7.15686731262207,-5.209034624481201,5.590760151672363
1789317788295188200,5.260188232421875,6.70346537322998,-5.079448459625244,5.842300963592529
1789317788305221400,5.270221435546875,6.604255641937256,-4.961384390258789,5.749076736450195
1789317788315255000,5.280255126953125,6.471527087402343,-5.212177014160156,6.014384207916259
1789317788325288200,5.2902880859375,6.430526383972167,-5.409100100708008,6.498761131286621
1789317788335321000,5.300321044921875,6.1818286865234375,-5.341314266204834,6.488735411834717
1789317788345354200,5.310354248046875,5.901258179473877,-4.833294601440429,5.945101997375488
1789317788355387100,5.32038720703125,5.877316162872314,-4.983979668426513,6.155193193054199
1789317788365420300,5.330420166015625,6.20547142791748,-5.513696785736084,6.309768837738036
1789317788375453200,5.340453125,7.422922972106933,-6.0236617393493646,6.512827066040039
1789317788385486300,5.350486328125,8.393322832489012,-6.313509777832031,7.00992318572998
1789317788395519200,5.360519287109375,7.994239343261718,-5.855917985534668,6.3842883644104
1789317788405552400,5.370552490234375,7.211036125183105,-5.211129550933838,5.147982482147216
1789317788415585300,5.380585205078125,7.229142275238036,-4.8494554626464845,3.669562957000732
1789317788425618200,5.3906181640625,7.700500727081298,-4.380640850067138,2.818723542022705
1789317788435651300,5.4006513671875,8.249820370483398,-4.109647149658203,2.450914311981201
1789317788445684200,5.410684326171875,7.595305491638183,-3.859303438568115,2.2667104217529297
1789317788455717400,5.42071728515625,6.457161877441406,-4.332756816864014,2.863914098358154
1789317788465750800,5.430750732421875,6.039972238159179,-5.0748096939086915,3.4714427696228025
1789317788475783700,5.44078369140625,5.8636991409301755,-5.534197137451171,3.8371570732116695
1789317788485816800,5.45081689453125,5.827636478424072,-5.795763668823242,4.657919329833984
1789317788495849700,5.460849609375,5.755660791015624,-5.823745900726318,4.7104421287536615
1789317788505882600,5.470882568359375,5.673509746551513,-5.799504608917236,4.76924970703125
1789317788515915500,5.48091552734375,6.053289984893799,-6.070348671722412,4.955099610900879
1789317788525948700,5.49094873046875,6.207715991973877,-5.825391914367676,4.8235681571960445
1789317788535981600,5.500981689453125,6.624905631256103,-5.196016152954101,4.291606475830078
1789317788546014700,5.5110146484375,7.193378887939453,-4.83942974319458,3.958812445068359
1789317788556047600,5.521047607421875,7.120804650115966,-5.200355643463134,4.371961869049072
1789317788566080500,5.53108056640625,7.171082884979247,-5.517886638641357,4.441842630004882
1789317788576113700,5.54111376953125,7.0744169929504395,-5.307645805358886,4.623053768157959
1789317788586146600,5.551146484375,7.3359835243225096,-5.224148022460938,5.779303532409668
1789317788596179700,5.5611796875,7.436988906860351,-5.518485189056396,6.155193193054199
1789317788606212600,5.571212646484375,6.684910310363769,-5.827636478424072,5.1882349975585935
1789317788616245800,5.581245849609375,6.757334910583496,-5.522226129150391,4.867411975097656
1789317788626278700,5.591278564453125,7.200860768127441,-5.130624520111084,5.949591125488281
1789317788636311800,5.601311767578125,6.7160349319458,-5.450998629760742,5.689072057342529
1789317788646344700,5.6113447265625,6.445340506744384,-5.776310780334472,4.789450783538818
1789317788656377900,5.6213779296875,6.789506995391846,-5.651961931610107,5.1146132965087885
1789317788666411500,5.63141162109375,6.797288150787353,-5.367500846862793,5.4707507934570305
1789317788676444700,5.641444580078125,6.456264051818847,-5.728277109527587,4.751442832183837
1789317788686477600,5.6514775390625,6.120177993774414,-5.933130989074707,3.984849388122558
1789317788696510700,5.6615107421875,6.296301453399658,-5.816712933349609,4.286967710113525
1789317788706543600,5.671543701171875,6.405237628936767,-5.504868167114258,5.20948353729248
1789317788716576500,5.681576416015625,6.383240901184082,-5.913079550170898,5.298068998718262
1789317788726609700,5.691609619140625,6.550984654998779,-6.285976458740234,4.870554364776611
1789317788736642600,5.701642578125,6.795642137145996,-5.985204875183105,4.804863456726074
1789317788746675700,5.71167578125,6.872106952667236,-5.661389100646972,5.06253941040039
1789317788756708600,5.72170849609375,7.021146006011962,-5.598242031860352,4.472219063568115
1789317788766741800,5.73174169921875,7.055263379669189,-5.7052329185485835,4.087201509094238
1789317788776774700,5.741774658203125,7.151929271697997,-5.457133771514893,4.5313259170532225
1789317788786807800,5.751807861328125,7.381772631072997,-5.031265151214599,5.455487757873535
1789317788796840700,5.7618408203125,7.311293319702148,-5.026776023101807,5.574300015258789
1789317788806873900,5.771873779296875,6.564152764129639,-5.4141877792358395,5.107131416320801
1789317788816906800,5.78190673828125,6.468983248138428,-5.4619221748352045,4.655375490570068
1789317788826939600,5.791939697265625,6.225822142028808,-5.049072026062011,4.822520693969726
1789317788836972800,5.801972900390625,6.656628803253174,-4.987421333312988,5.383212795257568
1789317788847005700,5.812005615234375,6.270713423156738,-5.147683206939697,5.041590145874023
1789317788857038800,5.822038818359375,6.013037469482422,-5.062240135192871,4.652382738494873
1789317788867071700,5.83207177734375,6.094440325927734,-4.697872570037841,5.2356701179504395
1789317788877104600,5.842104736328125,6.553378856658935,-4.635623326873779,5.910984623718261
1789317788887137500,5.852137451171875,6.158185945129394,-4.9066170272827145,4.910058692169189
1789317788897170700,5.862170654296875,6.328772813415527,-5.728127471923828,4.548983154296875
1789317788907203600,5.87220361328125,5.86055675125122,-5.6678235176086424,4.436306038665771
1789317788917236700,5.88223681640625,5.970989302825927,-5.633556506347656,5.411045389556884
1789317788927269600,5.89226953125,6.244826117706299,-5.743091232299804,5.250783515930175
1789317788937302500,5.902302490234375,6.239139888763427,-5.680393076324463,5.065232887268066
1789317788947335700,5.912335693359375,5.964255610656738,-5.448454790496826,5.4147863296508785
1789317788957368600,5.92236865234375,6.060921502685546,-4.970661921691894,5.198111079406738
1789317788967401700,5.932401611328125,6.5482911781311035,-4.9999908920288085,5.099948811340331
1789317788977434600,5.9424345703125,7.212083588409423,-5.033060802459716,5.4233156730651855
1789317788987467800,5.9524677734375,7.029974624633788,-5.137507849884033,5.524321055603027
1789317788997500700,5.962500732421875,6.843226895141601,-5.2076878860473625,6.159831958770751
1789317789007534800,5.972534912109375,7.391648712921143,-4.675127654266357,6.578368336486816
1789317789017567700,5.982567626953125,7.4594345474243156,-4.397549899291992,6.739528035736083
1789317789027600600,5.9926005859375,7.04149672012329,-4.183119213104248,5.54766452178955
1789317789037633500,6.002633544921875,7.034164477539062,-3.697844464111328,4.477007466888428
1789317789047666700,6.012666748046875,7.2708911666870115,-3.3348236373901363,3.91362188873291
1789317789057699600,6.022699462890625,7.541136679077148,-3.165433869934082,3.6679169433593746
1789317789067732500,6.032732421875,8.091204510498047,-3.172317199707031,3.6510078941345214
1789317789077765600,6.042765625,8.118588191986083,-3.2564135330200195,3.2077813117980956
1789317789087798500,6.052798583984375,8.43297679748535,-3.603872048950195,3.2234932601928707
1789317789097831700,6.062831787109375,8.387935878753662,-3.7569513175964353,3.8892309593200682
1789317789107864600,6.072864501953125,8.017133896636963,-3.886836757659912,4.240131140136718
1789317789117897700,6.082897705078125,7.504325828552246,-4.16875400314331,3.6475662292480466
1789317789127930600,6.0929306640625,7.547571096038818,-4.676175117492676,4.43047017211914
1789317789137963800,6.1029638671875,7.831882543182372,-5.046228911590576,5.354482375335693
1789317789147996700,6.11299658203125,7.655609445953369,-5.396530541992187,4.999691616821289
1789317789158029800,6.12302978515625,7.45704034576416,-5.8734255851745605,4.235642012023925
1789317789168062700,6.133062744140625,7.265803488159179,-5.651064105987548,3.628861528778076
1789317789178095600,6.143095703125,7.397035666656493,-5.26739328994751,3.832518307495117
1789317789188128800,6.153128662109375,7.792677490997314,-5.0757075195312495,3.6164416076660153
1789317789198161700,6.16316162109375,7.599345706939697,-4.815338088989257,2.599654090118408
1789317789208194800,6.17319482421875,7.944559658813476,-4.227262306213379,2.410661796569824
1789317789218227700,6.183227783203125,7.685836241912841,-3.4229601860046386,2.7946318878173826
1789317789228260900,6.1932607421875,7.29109224319458,-2.905363714599609,3.0033763450622555
1789317789238293800,6.203293701171875,6.796390325164794,-2.788796021270752,2.8775311203002927
1789317789248326700,6.21332666015625,7.002590943145751,-3.305195391845703,3.6590883247375485
1789317789258359600,6.223359619140625,7.189637947845458,-3.8111201301574704,4.0222587890625
1789317789268392700,6.233392822265625,7.2046017082214355,-4.23938295211792,3.7868788383483882
1789317789278425600,6.243425537109375,7.322067227172851,-4.413112210083008,4.0903438987731935
1789317789288458500,6.25345849609375,7.653514519500732,-4.2229228157043455,4.493766878509521
1789317789298491600,6.26349169921875,7.347355982208252,-4.229506870269775,4.559457786560058
1789317789308524500,6.273524658203125,7.624484824371337,-4.886715225982666,5.284302339172363
1789317789318557700,6.2835576171875,7.589020712280273,-5.550806911468506,5.9956795074462885
1789317789328590600,6.293590576171875,7.524077992248535,-6.022015725708007,6.017676235198974
1789317789338623700,6.303623779296875,7.67985073776245,-5.883600942230224,5.796062944030761
1789317789348656600,6.31365673828125,7.498190686798095,-5.434538493347167,5.445162763214111
1789317789358690800,6.32369091796875,7.385214295959472,-5.620238759613037,4.670488888549804
1789317789368723700,6.3337236328125,7.569418186187744,-5.261258148193359,3.520972816467285
1789317789378756900,6.3437568359375,7.691372833251953,-4.4476784965515135,4.2329485351562495
1789317789388789800,6.353789794921875,7.264007836914062,-4.404283591461182,4.035726173400879
1789317789398823000,6.363822998046875,6.187814190673827,-5.036502467346191,3.0015806938171385
1789317789408855600,6.37385546875,6.286275733947754,-6.143970372772216,3.5473090347290035
1789317789418888400,6.383888427734375,6.008997254180908,-6.814795750427246,5.003133281707763
1789317789428921600,6.393921630859375,5.883002391815185,-7.426514274597167,6.009745442199707
1789317789438954500,6.40395458984375,5.478831224060058,-7.288249128723144,7.821856823730468
1789317789448987600,6.413987548828125,5.437830520629882,-6.726509564208984,9.681552963256836
1789317789459020300,6.424020263671875,5.184793332672119,-6.571185731506347,7.777414455413818
1789317789469053400,6.434053466796875,5.22235237121582,-6.276399652099609,7.008875722503662
1789317789479086300,6.44408642578125,6.334309404754638,-5.083638312530518,8.450035484313965
1789317789489119500,6.454119384765625,6.65887336730957,-6.131550451660156,7.374590026092529
1789317789499152400,6.46415234375,6.991517760467529,-6.345083312225341,6.414664797973632
1789317789509185500,6.474185546875,7.766790185546874,-5.162796604919433,6.493972727966308
1789317789519218400,6.484218505859375,8.024466139221191,-4.4376527770996095,5.130025969696044
1789317789529251300,6.494251220703125,7.951293350982666,-4.083310931396484,3.2516251296997067
1789317789539284500,6.504284423828125,7.006182245635986,-3.3954268669128416,2.640654793548584
1789317789549317400,6.5143173828125,6.515670180511474,-2.946962968444824,4.2229228157043455
1789317789559350500,6.5243505859375,6.048501581573486,-2.5287258659362792,4.833593876647949
1789317789569383400,6.534383544921875,6.51192924041748,-3.0584429832458495,4.66734649887085
1789317789579416600,6.54441650390625,7.555202613830566,-4.185513414764404,5.155015449523925
1789317789589449500,6.554449462890625,7.842057900238037,-4.41161583404541,4.569184230804443
1789317789599482600,6.564482666015625,7.848641954803466,-3.755305303955078,3.852869021606445
1789317789609515500,6.574515625,8.482656481933594,-3.0117560508728025,3.7988498466491696
1789317789619548400,6.58454833984375,9.022548956298827,-3.3144729232788084,3.9463925239562987
1789317789629581600,6.59458154296875,8.892064965820312,-2.8417677330017086,4.262876055908203
1789317789639614500,6.604614501953125,8.053795109558106,-2.3738509460449215,4.180126461029053
1789317789649647400,6.6146474609375,7.934683576965331,-2.5336639068603515,4.340388334655762
1789317789659680300,6.62468017578125,7.593060927581787,-3.1196447631835937,3.699640115356445
1789317789669713400,6.63471337890625,7.64214206161499,-4.033182334136963,3.44106633605957
1789317789679746300,6.644746337890625,7.810484365844726,-4.540154535675049,2.8878561149597166
1789317789689779500,6.654779541015625,7.5439797935485835,-4.719420384979248,2.6774656440734863
1789317789699813400,6.6648134765625,7.68703334274292,-4.89689058303833,3.4255040252685545
1789317789709846500,6.674846435546875,7.331045483398437,-4.839579380798339,3.9284360115051267
1789317789719879400,6.68487939453125,7.474996858215332,-5.313930584716797,4.769997895050048
1789317789729912600,6.69491259765625,7.6867340675354,-5.883750579833984,5.443067836761474
1789317789739945500,6.704945556640625,7.526322556304931,-6.470329986572265,5.307945080566406
1789317789749978600,6.714978515625,6.977302188110351,-6.627299832916259,4.439448428344726
1789317789760011500,6.725011474609375,7.13726478652954,-6.719775872039794,4.267365184020996
1789317789770044400,6.73504443359375,7.533804436492919,-6.910264541625976,5.635501795196533
1789317789780077600,6.74507763671875,7.362170104980469,-6.86267978363037,5.187786084747314
1789317789790110500,6.7551103515625,6.32039310760498,-6.8493620368957515,4.276941990661621
1789317789800143400,6.765143310546875,5.66917025604248,-6.2210337387084955,4.911255792999268
1789317789810176300,6.77517626953125,5.809380690765381,-5.959467207336425,6.188113465881347
1789317789820209400,6.78520947265625,5.669768806457519,-6.2021794006347655,6.449530359649658
1789317789830242300,6.7952421875,5.398326193237304,-6.732943981170654,6.536918720245361
1789317789840275500,6.805275390625,5.162198054504394,-6.556221971130371,7.0355112159729
1789317789850308400,6.815308349609375,5.020790518951416,-6.593032821655273,7.401973707580566
1789317789860341500,6.825341552734375,4.924872814941406,-6.485742659759521,7.543680518341064
1789317789870374400,6.83537451171875,5.3576247650146485,-6.024858840179443,6.791302646636963
1789317789880407300,6.8454072265625,5.431396103668212,-5.973832417297363,6.414964073181152
1789317789890440400,6.8554404296875,6.029946518707275,-6.605602380371093,6.240336989593506
1789317789900473300,6.865473388671875,6.469282523345947,-6.396409010314941,5.312284571075439
1789317789910506500,6.875506591796875,6.659920830535889,-6.340893459320068,5.10743069152832
1789317789920539400,6.885539306640625,6.319794557189941,-5.915623389434814,5.195118327331543
1789317789930572500,6.895572509765625,6.049997957611084,-5.847687917327881,4.66734649887085
1789317789940605400,6.90560546875,6.2304609077453605,-6.472275275421143,4.817732290649414
1789317789950638600,6.915638671875,5.7131637115478515,-6.655581340026855,4.936993460845947
1789317789960671500,6.92567138671875,5.45848050994873,-6.676979517364502,4.9461213546752925
1789317789970704600,6.93570458984375,5.327248331451416,-6.747907741546631,4.8877626892089845
1789317789980737500,6.945737548828125,5.64373186340332,-6.777835262298583,4.358943397521973
1789317789990770400,6.9557705078125,6.9354036590576165,-6.818835965728759,4.355352095031738
1789317790000803600,6.965803466796875,6.877793181610107,-6.809708071899414,4.030189582061768
1789317790010836500,6.97583642578125,6.847865660858154,-6.558017622375488,3.150470109558105
1789317790020869400,6.985869384765625,7.146991230773925,-6.48664048538208,3.2644939636230466
1789317790030902300,6.99590234375,7.917175977325439,-6.806565682220459,3.2263363746643066
1789317790040936400,7.0059365234375,8.362647123718261,-6.9606924140930175,3.1489737335205077
1789317790050969300,7.01596923828125,8.169165702056885,-6.3435869361877435,2.729988442993164
1789317790061002500,7.02600244140625,7.624185549163818,-5.4053591606140134,3.549104685974121
1789317790071035400,7.036035400390625,7.102848137664795,-5.200505281066894,4.1463083625793455
1789317790081068500,7.046068603515625,6.488885049438476,-5.431246466064453,4.420294815063476
1789317790091101400,7.056101318359375,5.511152946472167,-5.092317293548584,4.5784617622375485
1789317790101134600,7.066134521484375,5.144540817260742,-4.413411485290527,5.004928932952881
1789317790111167500,7.07616748046875,5.04338579711914,-3.903446531677246,5.700743790435791
1789317790121200400,7.086200439453125,4.863222122192383,-3.6604350631713864,5.014505739593505
1789317790131233500,7.096233642578125,5.1529205230712885,-4.268412647247314,5.479429774475097
1789317790141266400,7.106266357421875,5.7429415946960445,-4.356399558258056,6.599616876220702
1789317790151299600,7.116299560546875,5.455188482666015,-4.5684360427856445,6.813299374389648
1789317790161332500,7.12633251953125,5.47763412322998,-5.462221450042724,6.693738928985596
1789317790171365400,7.136365478515625,5.9299885993957515,-6.065260993194579,7.026233684539794
1789317790181398300,7.146398193359375,5.645377877044678,-5.657797798156738,7.242460021972656
1789317790191431400,7.156431396484375,4.862623571777344,-5.584774647521972,6.578218698883056
1789317790201464300,7.16646435546875,4.9354970848083495,-5.913079550170898,5.812074167633057
1789317790211497500,7.17649755859375,5.5659203094482415,-6.110451549530029,6.260538066101073
1789317790221530400,7.1865302734375,5.672611920928955,-6.112995388793945,6.156839206695556
1789317790231563300,7.196563232421875,5.221753820800781,-5.890334634399414,4.7083472023010255
1789317790241596400,7.206596435546875,5.19047956161499,-5.334879849243164,4.374206433105469
1789317790251629300,7.21662939453125,5.72034631652832,-4.869656539154052,5.3299418083190915
1789317790261662500,7.226662353515625,6.2864253715515135,-4.741267475128174,5.865943704986572
1789317790271695400,7.2366953125,6.4938230903625485,-4.504989698791504,5.744437970733642
1789317790281728500,7.246728515625,6.457610790252685,-4.072237748718261,5.996128420257568
1789317790291761400,7.256761474609375,6.925976490020751,-3.467851467132568,6.129754800415038
1789317790301794600,7.266794677734375,7.151181083679199,-2.966864769744873,5.96964256439209
1789317790311827500,7.276827392578125,6.8326026252746574,-2.9556419494628905,6.261286254119873
1789317790321860600,7.286860595703125,5.908440784454346,-2.57286895904541,6.063764617156982
1789317790331893500,7.2968935546875,5.974879880523681,-2.6786627449035643,6.794145761108398
1789317790341926400,7.306926513671875,6.772597946166992,-2.9746459251403805,7.602039183807372
1789317790351959600,7.31695947265625,6.92702395324707,-3.49852717590332,7.304260352325439
1789317790361993500,7.326993408203125,6.950517057037353,-4.094234476470947,5.999121172332764
1789317790372026400,7.3370263671875,6.896048969268798,-4.351760792541504,5.1234419151306145
1789317790382059300,7.347059326171875,7.212831776428223,-4.5504795303344725,5.236717581176758
1789317790392092400,7.357092529296875,6.874650791931152,-4.659266068267822,4.768651156616211
1789317790402125300,7.367125244140625,6.476165853118896,-4.59656791229248,4.200477175140381
1789317790412158500,7.377158447265625,6.740874774169922,-4.3622354248046875,5.304054502868652
1789317790422191400,7.38719140625,6.9415388008117676,-4.302230745697021,5.754463690185546
1789317790432224500,7.397224609375,6.568492254638672,-3.9900867042541504,5.518934101867676
1789317790442257400,7.40725732421875,7.072322066497803,-3.2225954345703123,5.454739569854736
1789317790452290600,7.41729052734375,7.089081478118896,-2.0540753868103026,6.214748959350586
1789317790462324000,7.427323974609375,6.963385890960693,-1.1840823585510254,6.878691007232666
1789317790472356900,7.43735693359375,7.231237201690673,-0.2647089210510254,7.305307815551758
1789317790482390000,7.44739013671875,8.205527639770507,-0.48243163452148435,8.207622566223144
1789317790492423000,7.4574228515625,8.1594392578125,-1.3385083656311034,7.240514733123779
1789317790502456000,7.4674560546875,8.03239693222046,-2.587383806610107,6.341940922546386
1789317790512489000,7.477489013671875,7.767388735961914,-3.318513138580322,5.9868508888244625
1789317790522521900,7.48752197265625,6.924330476379394,-4.905120651245117,6.1571384819030754
1789317790532554800,7.4975546875,5.962310321807861,-5.7146600875854485,5.783343747711181
1789317790542588000,7.507587890625,5.65001664276123,-5.4872109298706055,5.43304211730957
1789317790552620800,7.517620849609375,5.953481703186035,-6.181080498504638,5.350292522430419
1789317790562653700,7.52765380859375,6.283133344268799,-7.9004165657043455,5.651513018798828
1789317790572686800,7.537686767578125,6.637624827575683,-7.798812632751464,4.872649291229248
1789317790582719700,7.5477197265625,6.402394514465332,-6.362890187072754,5.189881011199951
1789317790592753000,7.5577529296875,6.585550941467285,-6.0996776420593255,5.913678100585937
1789317790602785800,7.567785888671875,6.808660608673096,-4.566640391540527,6.248267782592773
1789317790612819000,7.57781884765625,6.543502774810791,-3.3361703758239742,6.793996123504638
1789317790622851800,7.587851806640625,5.801300260162353,-2.353051319122314,6.4475850708007805
1789317790632885000,7.597885009765625,6.806864957427978,-2.4042273796081544,7.279719785308838
1789317790642918000,7.60791796875,6.846668560028076,-2.093579714202881,7.483226926422119
1789317790652951000,7.617950927734375,6.222829389953613,-1.6769886253356932,6.93929423675537
1789317790662984000,7.62798388671875,5.906046582794189,-1.3479355346679687,7.334187873077392
1789317790673016800,7.638016845703125,5.397428367614745,-1.6690578323364256,8.179191421508788
1789317790683050000,7.648050048828125,5.316324786376953,-2.497750881958008,7.265953125762939
1789317790693084000,7.658083984375,6.418256100463867,-3.6146459564208984,7.264456749725341
1789317790703116800,7.66811669921875,6.641365767669678,-4.020912050628662,7.1401079010009765
1789317790713149700,7.678149658203125,5.983558861541748,-4.058620726776123,5.708225670623779
1789317790723182800,7.688182861328125,6.44174920425415,-4.215141660308838,6.481702444458008
1789317790733215700,7.6982158203125,6.460304267120361,-3.6276644279479977,6.892607304382324
1789317790743249000,7.708248779296875,6.3147068786621094,-3.7333085762023925,7.6279264892578125
1789317790753281800,7.71828173828125,5.842450601196289,-3.6278140655517577,7.099107197570801
1789317790763315000,7.72831494140625,6.994660150146484,-3.864241479492187,6.30168840713501
1789317790773347800,7.738347900390625,8.13953745651245,-3.834164321136474,6.677129154968261
1789317790783381000,7.748381103515625,8.06965669555664,-3.456030096435547,6.822427268218994
1789317790793414000,7.758413818359375,7.09940647277832,-2.680009483337402,6.387131478881836
1789317790803447000,7.768447021484375,6.8302084236145015,-1.8953098892211913,5.831227780914307
1789317790813480000,7.77847998046875,7.425616448974609,-1.9758149200439452,7.204152795410156
1789317790823512800,7.788512939453125,7.7608046813964835,-1.848323681640625,7.006631158447266
1789317790833546000,7.7985458984375,7.895777799987792,-1.3569137908935547,5.071816941833496
1789317790843579000,7.808578857421875,8.1081135597229,-0.9879074600219726,4.4565071151733395
1789317790853612000,7.818612060546875,8.693046952819824,-0.5981015022277831,5.087079977416992
1789317790863645000,7.82864501953125,8.712499841308594,-1.3076830192565918,4.944176065826416
1789317790873678000,7.838677978515625,8.087762845611572,-1.7892168281555174,4.20107572555542
1789317790883711000,7.8487109375,7.798214082336425,-1.8994997421264648,4.467580297851562
1789317790893743900,7.858743896484375,7.4317515907287595,-2.005293527984619,4.6064439941406246
1789317790903776800,7.86877685546875,6.675932054138183,-2.002300775909424,3.8214451248168944
1789317790913810000,7.878809814453125,6.964134078979492,-2.2028151649475096,3.8411972885131833
1789317790923842800,7.8888427734375,7.209240473937988,-2.5755624359130858,4.287266985321045
1789317790933875700,7.898875732421875,7.874529260253905,-2.6786627449035643,4.518756358337402
1789317790943908900,7.908908935546875,8.17844323348999,-2.2105963203430172,4.271255761718749
1789317790953941800,7.918941650390625,8.172906642150878,-1.5548843406677244,4.834790977478027
1789317790963975000,7.928974853515625,8.457966277313233,-1.2198457458496093,5.322011015319824
1789317790974007800,7.9390078125,8.628403507995605,-0.611568886566162,5.734711526489257
1789317790984041000,7.949041015625,8.56720172805786,-0.11148001480102539,6.234650760650634
1789317790994073900,7.959073974609375,8.53547855606079,0.603338818359375,6.646752721405029
1789317791004107000,7.96910693359375,8.655039001464843,1.0133458526611328,4.9622822158813475
1789317791014141000,7.979140869140625,8.192808443450927,1.5619173080444335,4.415356774139404
1789317791024174000,7.989174072265625,7.937077778625488,2.0067899040222166,4.506785350036621
1789317791034207000,7.99920703125,7.767089460754394,0.5828384666442871,6.353762293243408
1789317791044240000,8.009239990234375,8.80437733001709,-1.2189479202270508,7.874828535461425
1789317791054272800,8.019272705078125,10.023624525451659,-2.7253496772766113,8.768464305114746
1789317791064305700,8.0293056640625,9.513809209442138,-3.030760026550293,9.545981294250488
1789317791074338800,8.0393388671875,8.46619634552002,-1.610100616455078,8.189965328979492
1789317791084371700,8.049371826171875,7.551611311340332,-0.9573813888549804,6.9354036590576165
1789317791094404900,8.05940478515625,6.967426106262207,-0.5428852264404297,5.8940755744934075
1789317791104437800,8.069437744140625,6.7167831199645995,-0.9192237998962401,5.786186862182617
1789317791114471000,8.079470947265625,6.309170287322997,-0.5940612869262695,6.865971810913085
1789317791124503800,8.08950390625,6.085611707305908,-0.3755903854370117,6.6516907623291015
1789317791134537000,8.099536865234375,6.369025328826904,-1.7163433151245115,5.446958414459228
1789317791144569900,8.10956982421875,7.051672077178955,-2.370409281158447,4.2402807777404785
1789317791154603000,8.11960302734375,7.294533908081054,-2.026392430114746,4.004900827026367
1789317791164636000,8.129635986328125,7.912986124420166,-1.6020201858520506,4.470273774719238
1789317791174668800,8.139668701171875,7.7410525177001945,-1.5511434005737303,3.976170407104492
1789317791184702000,8.149701904296874,7.601590270996093,-1.466448516845703,4.086602958679199
1789317791194734800,8.15973486328125,8.265981231689453,-1.4879963317871092,5.797559320068359
1789317791204768000,8.16976806640625,8.157045056152343,-1.0143933158874512,6.83739102859497
1789317791214801000,8.17980078125,7.196970190429687,-0.6232406196594238,6.393565895843506
1789317791224834000,8.189833984375,7.073219892120361,-0.2507926239013672,6.945130103302001
1789317791234867000,8.199866943359375,7.588122886657715,0.044292730712890624,7.678204724121093
1789317791244900000,8.209900146484374,7.387458860015869,0.2319382858276367,7.396736391448974
1789317791254933000,8.21993310546875,7.538293564605713,0.20006547622680662,6.892457666778564
1789317791264966000,8.2299658203125,7.666682628631591,-0.3576338729858398,6.255899300384521
1789317791274998800,8.239998779296876,7.339125914001464,-0.21113865890502928,6.217741711425781
1789317791285031700,8.25003173828125,7.133374208831786,-0.6370072792053222,5.939565406036377
1789317791295064800,8.26006494140625,7.344961780548095,-1.3997101455688477,5.76523759765625
1789317791305097700,8.27009765625,7.349301271057128,-1.6871639823913573,5.556792415618896
1789317791315131000,8.280130859375,8.145074047851562,-1.5505448501586914,6.814945388031005
1789317791325163800,8.290163818359375,7.722647092437744,-1.622221262359619,7.079504671478271
1789317791335197000,8.300197021484376,7.088333290100097,-1.1555015762329102,5.542876118469238
1789317791345230800,8.31023095703125,7.393594001770019,-1.2421417488098143,5.888987895965576
1789317791355264000,8.320263916015625,7.677755811309814,-0.8348281913757324,6.506542286682128
1789317791365297000,8.330296875,7.275679570007323,-0.8683470146179199,6.359448522186279
1789317791375330000,8.340330078125,6.630142947387695,-0.9009680122375487,6.519411120605469
1789317791385363000,8.350363037109375,6.210559106445312,-1.163133094024658,7.564480145263672
1789317791395396000,8.36039599609375,6.190208392333984,-1.4053963745117186,7.727136220550537
1789317791405429000,8.370428955078125,6.031293257141113,-1.6632219657897949,7.4232222473144525
1789317791415462000,8.3804619140625,5.551405461883545,-1.5690999130249021,7.60982033920288
1789317791425494800,8.390494873046874,5.5063645431518555,-2.021304751586914,8.195801195526123
1789317791435527700,8.400527587890625,5.361066429901123,-2.608632346343994,8.55508108215332
1789317791445560800,8.410560791015625,5.277718284606934,-3.153313224029541,8.757091847229004
1789317791455593700,8.42059375,5.118803149414062,-3.7976527458190916,8.793902697753905
1789317791465626600,8.430626708984375,5.1514241470336914,-4.442291542816162,8.263437392425537
1789317791475659500,8.440659423828125,4.469226311492919,-4.653579839324951,7.7681369239807125
1789317791485692700,8.450692626953124,4.153490967559814,-4.661660269927978,7.789834376525879
1789317791495725600,8.4607255859375,4.346373838806152,-4.7661073173522945,7.926154233551025
1789317791505758700,8.4707587890625,4.269759385681152,-5.440224722290039,7.984213623809814
1789317791515791600,8.48079150390625,4.0738837623596185,-5.480776512908935,7.624335186767578
1789317791525824500,8.490824462890625,4.697124382019043,-5.544522132110595,7.044339834594727
1789317791535857700,8.500857666015625,5.061491947174072,-5.468057316589356,6.93974314956665
1789317791545890600,8.510890625,4.617068264007568,-5.289090742492675,6.897844620513916
1789317791555923700,8.520923828125,4.474912540435791,-4.789001870727539,6.854599353027344
1789317791565956600,8.53095654296875,5.091868380737305,-4.480449131774902,6.917596784210205
1789317791575989800,8.54098974609375,5.602581522369384,-4.5693338684082025,7.018901441955566
1789317791586022700,8.551022705078125,6.3150061538696285,-4.332607179260254,7.259518708801269
1789317791596055800,8.561055908203125,6.458508615875243,-3.4193688835144043,6.565200227355956
1789317791606088700,8.571088623046874,6.003460662841796,-2.990357873535156,5.967846913146972
1789317791616121600,8.58112158203125,5.715109000396728,-2.9122470443725583,6.734141082000732
1789317791626154800,8.59115478515625,5.716006826019287,-3.163338943481445,7.293785720062256
1789317791636187600,8.601187744140624,5.653607945251465,-3.274519683074951,7.526172918701171
1789317791646220800,8.611220703125,5.7131637115478515,-3.743633570861816,7.788188362884521
1789317791656254500,8.62125439453125,6.244826117706299,-3.778199857330322,7.694814498138427
1789317791666287600,8.63128759765625,6.712892542266846,-3.525162669372558,6.779630913543701
1789317791676320500,8.641320556640625,6.65932228012085,-3.282001563262939,6.183773975372314
1789317791686353700,8.651353759765625,6.308122824096679,-2.983324906158447,5.820154598236083
1789317791696386600,8.661386474609374,6.029497605895996,-2.8067525337219235,5.729474210357665
1789317791706419700,8.671419677734375,5.781398458862304,-2.7932851493835447,6.158185945129394
1789317791716452600,8.68145263671875,6.077381639099121,-3.103334264373779,7.665784803009033
1789317791726485800,8.69148583984375,6.385186190032958,-3.1563059761047363,7.946056034851074
1789317791736518700,8.7015185546875,6.198438460540771,-2.985419832611084,7.292438981628417
1789317791746551800,8.7115517578125,6.593781009674072,-3.122338240051269,7.676409072875976
1789317791756584700,8.721584716796874,6.434566599273682,-2.9734488243103026,7.727585133361816
1789317791766617600,8.73161767578125,6.175843182373047,-2.803909419250488,7.507168943023681
1789317791776650800,8.741650634765625,5.889137533569335,-2.7639561790466307,7.640496047973633
1789317791786683600,8.75168359375,5.467009853363037,-2.8383260681152342,8.196250108337402
1789317791796716800,8.761716796875,5.858312187194824,-3.0979473106384274,8.371176467132567
1789317791806749700,8.771749755859375,5.967996550750732,-3.2001497940063475,7.77591807937622
1789317791816782600,8.781782470703124,6.082469317626953,-3.312078721618652,7.301417237854004
1789317791826815500,8.7918154296875,6.249764158630371,-3.142240041351318,6.587945143127441
1789317791836848600,8.8018486328125,6.022913551330566,-3.21137261428833,6.2201359130859375
1789317791846881500,8.811881591796874,5.408351912689208,-3.2200515953063964,6.046705930328369
1789317791856914700,8.821914794921875,4.963180041503906,-3.3253964683532713,6.2976481918334954
1789317791866947600,8.831947509765625,5.658994898986816,-3.7898715904235836,7.949198424530029
1789317791876980500,8.84198046875,5.839158573913574,-3.8830958175659176,8.800037839508056
1789317791887013600,8.852013671875,5.399074381256103,-3.7997476722717285,8.004265062713623
1789317791897046500,8.862046630859375,5.3281461570739745,-3.2493805656433103,7.410353413391113
1789317791907079700,8.87207958984375,6.035333472442627,-2.794482250213623,7.945607122039794
1789317791917112600,8.882112548828125,6.411672045898437,-2.7914894981384277,7.674613421630859
1789317791927145700,8.892145751953125,5.889436808776855,-2.914341970825195,6.7848682296752925
1789317791937178600,8.9021787109375,5.626074626159667,-3.1528643112182615,7.006631158447266
1789317791947211800,8.912211669921875,6.001814649200439,-3.2501287536621093,7.785494886016846
1789317791957244700,8.92224462890625,6.030096156311035,-3.5416228057861328,8.225130165863037
1789317791967278600,8.932278564453124,5.925349833679199,-3.689464758300781,7.512555896759033
1789317791977311500,8.9423115234375,5.389048661804199,-3.725976333618164,6.605303105163574
1789317791987344600,8.9523447265625,5.418227994537353,-3.7134067749023436,6.344634399414062
1789317791997377500,8.96237744140625,5.777058968353271,-3.4222119979858396,6.171802967071533
1789317792007410700,8.97241064453125,5.969044013977051,-3.666420567321777,6.656329528045654
1789317792017443600,8.982443603515625,6.065560268402099,-3.8308722938537594,6.860135944366455
1789317792027476500,8.9924765625,5.973383504486083,-3.44106633605957,6.650344023895263
1789317792037509600,9.002509521484376,6.710348703002929,-3.3327287109375,7.781604308319092
1789317792047542500,9.01254248046875,7.0084268096923825,-3.106027741241455,8.015637520599364
1789317792057575700,9.02257568359375,6.672041476440429,-3.2583588218688964,6.98433515548706
1789317792067608600,9.032608642578126,6.303035145568847,-3.10273571395874,6.379350323486328
1789317792077641700,9.042641845703125,5.941959607696533,-3.05799407043457,7.098508647155762
1789317792087674600,9.052674560546874,7.357980252075195,-3.2516251296997067,8.301894256591796
1789317792097707800,9.062707763671876,7.209988661956786,-3.4575264724731443,7.358728440093993
1789317792107740700,9.07274072265625,6.512527790832519,-3.7065234451293945,6.663961045837402
1789317792117773600,9.082773681640624,6.704063923645019,-4.1088989616394045,6.806266407012939
1789317792127806700,9.092806640625,6.508337937927246,-4.20107572555542,6.000467910766601
1789317792137839600,9.102839599609375,6.020070436859131,-4.367023828124999,5.604227536010741
1789317792147872800,9.112872802734374,6.104914958190918,-4.375553171539306,6.496217292022704
1789317792157905700,9.12290576171875,6.254552561950684,-4.46862776107788,6.911312004852294
1789317792167938800,9.132938720703125,6.2867246467590325,-4.970811559295654,7.672069582366943
1789317792177971700,9.1429716796875,6.065260993194579,-4.827009822082519,7.332691497039795
1789317792188004600,9.153004638671876,6.140977620697021,-4.518905995941162,6.556072333526611
1789317792198037500,9.16303759765625,6.113893214416503,-4.668693237304687,6.204872877502441
1789317792208070700,9.173070556640624,5.696553937530517,-4.274547789001464,5.691017346191406
1789317792218103600,9.183103515625,5.3499932472229,-4.068945721435546,5.638793822479248
1789317792228136400,9.193136474609375,4.783315641784668,-4.034529072570801,5.6961050247192375
1789317792238169600,9.203169677734374,5.103091201019287,-4.035726173400879,6.900089184570312
1789317792248202500,9.213202392578125,5.318569350433349,-3.8501755447387693,7.518391763305663
1789317792258235600,9.223235595703125,5.5918076148986815,-3.737348791503906,6.875099704742431
1789317792268268500,9.2332685546875,5.955426992034912,-3.630208267211914,5.927744035339355
1789317792278302700,9.243302734375,6.026055941009521,-3.5607764190673827,5.314379497528076
1789317792288335600,9.253335693359375,6.783521491241455,-4.129399313354492,6.296002178192138
1789317792298368800,9.26336865234375,6.732046155548096,-4.172494943237305,6.37171880569458
1789317792308401700,9.273401611328126,6.293009426116943,-4.094084838867187,6.294505802154541
1789317792318434800,9.283434814453125,6.34643005065918,-3.5627217079162596,6.6157777374267575
1789317792328467700,9.2934677734375,6.4475850708007805,-2.8034605064392086,6.017676235198974
1789317792338500900,9.3035009765625,6.8511576881408685,-2.7085902656555176,5.435137043762206
1789317792348533500,9.313533447265625,7.402422620391845,-2.449717211151123,4.920533324432372
1789317792358566700,9.323566650390624,7.582735932922363,-2.0483891578674314,4.953004684448242
1789317792368599600,9.333599609375,7.722946367645263,-2.231246309661865,6.4281321823120114
1789317792378632400,9.343632568359375,8.163180197906494,-2.1465514259338376,7.09925683517456
1789317792388665600,9.35366552734375,8.02566324005127,-1.81944362411499,7.243956398010253
1789317792398698500,9.363698486328126,7.741800705718994,-1.7669208251953124,7.132476383209228
1789317792408731600,9.373731689453125,7.642740612030029,-2.020706201171875,7.364265031433105
1789317792418764500,9.3837646484375,7.958475955963134,-2.5445874519348144,6.803273654937744
1789317792428797700,9.393797607421876,7.668179004669189,-2.844161934661865,5.944952359771728
1789317792438830600,9.40383056640625,7.231237201690673,-3.2134675407409667,5.9774237197875975
1789317792448863700,9.41386376953125,6.6714429260253905,-3.558681492614746,5.79696076965332
1789317792458896600,9.423896728515626,6.255151112365723,-4.085405857849121,5.3865048225402825
1789317792468930000,9.433929931640625,5.876567974853515,-4.313004653167725,5.176413626861572
1789317792478963200,9.443963134765625,5.858461824798583,-4.341884710693359,5.737255365753174
1789317792488996000,9.45399609375,5.692812997436523,-4.165611613464355,6.12257219543457
1789317792499029000,9.464029052734375,6.068852295684814,-4.036923274230957,6.334907955169677
1789317792509062100,9.474062255859375,6.10326894454956,-3.6501100685119625,6.440701741027832
1789317792519095000,9.484094970703126,5.670217719268798,-3.2721254814147946,6.5874962303161615
1789317792529128200,9.494128173828125,5.971887128448486,-3.226486012268066,7.230937926483154
1789317792539161000,9.5041611328125,5.982661035919189,-2.826504697418213,7.1686886833190915
1789317792549194000,9.514194091796876,5.59869094467163,-2.412756723022461,7.423970435333252
1789317792559227000,9.524226806640625,5.7046343681335445,-2.2016180641174317,8.123376595306397
1789317792569260000,9.534260009765624,6.33924744567871,-2.210147407531738,8.240093926239012
1789317792579294000,9.5442939453125,6.497863305664062,-2.110788038635254,8.601169464111328
1789317792589327000,9.5543271484375,6.18601853942871,-2.2192753013610838,9.146299254608154
1789317792599360000,9.564360107421875,5.682936915588378,-2.2834698333740233,8.404246377563476
1789317792609393200,9.57439306640625,5.804143374633789,-3.0080151107788082,7.877222737121581
1789317792619426000,9.584426025390625,6.317849268341064,-3.7898715904235836,8.55493144454956
1789317792629459000,9.594458984375,5.931484975433349,-4.306270960998535,7.386261759185791
1789317792639492000,9.6044921875,5.536292063903808,-4.5516766311645505,6.103119306945801
1789317792649525000,9.61452490234375,6.033837096405029,-4.857984806060791,6.725462100982666
1789317792659558100,9.62455810546875,6.25679712600708,-5.135412923431396,7.109132917022705
1789317792669591000,9.634591064453126,5.807884314727783,-5.007023859405518,6.661417206573486
1789317792679624200,9.644624267578125,5.225644398498535,-5.058948107910156,6.313060865020751
1789317792689657000,9.654656982421875,5.428253713989258,-5.297470448303223,6.241983003234863
1789317792699690000,9.66468994140625,7.825448126220703,-5.883002391815185,6.526743363189697
1789317792709723000,9.674722900390625,7.323264328002929,-5.35642766418457,4.86486813583374
1789317792719756000,9.684756103515625,5.223549472045898,-4.139574670410156,4.043956241607666
1789317792729789000,9.694788818359376,3.4382232215881348,-3.320458427429199,5.3378726013183595
1789317792739821800,9.70482177734375,3.6076129890441893,-3.9139211639404294,7.634959456634521
1789317792749855000,9.71485498046875,3.4555811836242674,-3.883544730377197,7.829338703918457
1789317792759888000,9.724887939453126,4.489427388000488,-3.1579519897460937,8.450185121917723
1789317792769921000,9.734921142578125,6.815394300842285,-2.9755437507629394,10.000131421661376
1789317792779954000,9.744953857421875,6.592434271240234,-2.339284659576416,8.033294757843016
1789317792789987000,9.754987060546876,4.496161080169678,-2.1909937942504882,7.382221543884277
1789317792800020000,9.76502001953125,3.5447651954650876,-2.0401590896606443,8.148964625549317
1789317792810053000,9.77505322265625,4.1003696182250975,-2.9569886878967284,7.696310874176025
1789317792820086000,9.7850859375,5.690867708587646,-3.9215526817321775,7.153425647735595
1789317792830119200,9.795119140625,6.867617824554443,-4.482394420623779,8.564508251190185
1789317792840152000,9.805152099609375,6.6258034568786615,-4.613476961517334,9.308955329895019
1789317792850185000,9.81518505859375,5.9246016456604,-4.499453107452393,6.442347754669189
1789317792860218000,9.825218017578125,6.901884835815429,-4.76910006942749,5.649118817138672
1789317792870251000,9.8352509765625,7.2806176109313965,-4.390367294311523,6.550685379791259
1789317792880284200,9.8452841796875,6.040271513366699,-4.179827185821533,6.0778305519104
1789317792890317000,9.855317138671875,4.523694399261474,-4.280533293151855,4.342333623504638
1789317792900350200,9.86535009765625,4.876839144134522,-4.531026641845703,5.194669414520264
1789317792910383900,9.8753837890625,5.566668497467041,-4.030638494873046,6.7742439598083495
1789317792920417000,9.8854169921875,5.7237879814147945,-3.7491701622009277,6.36558366394043
1789317792930450000,9.895449951171875,5.846490816497802,-3.6469676788330077,5.971438215637207
1789317792940483000,9.905483154296874,6.619817952728271,-3.426401850891113,6.406135454559326
1789317792950516000,9.915515869140625,7.713818473815918,-3.155707425689697,7.575852603149413
1789317792960549000,9.925549072265625,7.933486476135253,-2.9234698646545407,6.993612686920166
1789317792970582000,9.93558203125,6.9339072830200195,-2.4358009140014647,6.389974593353271
1789317792980615200,9.945615234375,6.570736818695068,-1.9910779556274414,7.3036618019104
1789317792990648000,9.95564794921875,6.185120713806152,-1.6525976959228514,7.6279264892578125
1789317793000681000,9.965680908203124,5.510105483245849,-1.1896189498901366,6.909965266418457
1789317793010714000,9.975714111328125,5.533598587036132,-0.7510311332702636,7.6002435325622555
1789317793020747000,9.9857470703125,5.7423430442810055,-1.1656769332885741,8.52275935974121
1789317793030780200,9.9957802734375,6.049997957611084,-1.988085203552246,8.70157629623413
1789317793040813000,10.00581298828125,6.262034442138671,-2.578405550384521,8.204330538940429
1789317793050846200,10.01584619140625,6.197690272521973,-3.4262522132873534,7.800608283996581
1789317793060879000,10.025879150390624,5.857863274383544,-4.096030127716064,7.200711130523681
1789317793070912000,10.035912109375,5.695656111907959,-4.23923331451416,7.0355112159729
1789317793080945000,10.04594482421875,5.51609098739624,-4.13044677658081,7.240514733123779
1789317793090977800,10.055977783203126,6.001964286804199,-4.190451455688477,7.566874346923828
1789317793101011000,10.066010986328125,6.416909362030029,-4.311209001922607,7.0658876495361325
1789317793111043800,10.0760439453125,6.52464843673706,-4.1624692237854,6.218040986633301
1789317793121077000,10.086076904296876,6.5105825019836425,-4.20736050491333,5.9187657791137696
1789317793131110000,10.09610986328125,6.643460694122314,-4.0714895606994626,5.188534272766113
1789317793141143000,10.10614306640625,7.110928568267822,-4.121618157958984,5.3296425331115715
1789317793151176000,10.116176025390626,6.819284878540039,-3.8468835174560545,5.796511856842041
1789317793161209000,10.126208984375,6.022015725708007,-3.586214811706543,6.245723943328857
1789317793171242000,10.136241943359375,5.460575436401367,-3.2791584487915038,7.045088022613525
1789317793181275100,10.146275146484374,5.239411058044433,-2.4601918434143064,7.7322238990783685
1789317793191308000,10.15630810546875,5.268141477966308,-1.9565116691589355,6.777835262298583
1789317793201342200,10.16634228515625,5.718999578094482,-1.8487725944519042,7.050774251556396
1789317793211374000,10.1763740234375,6.5126774284362785,-1.4510358436584472,6.270114872741699
1789317793221408300,10.186408203125,6.924031201171875,-1.0688614036560058,5.48451745300293
1789317793231441000,10.19644091796875,7.439532746124267,-1.9147627777099607,6.029497605895996
1789317793241473800,10.206473876953124,7.221660395050049,-2.5502736808776856,6.918494609832763
1789317793251507000,10.2165068359375,6.711396166229248,-3.103483901977539,7.059902145385742
1789317793261539800,10.226539794921875,6.75464143371582,-3.4961329742431637,6.688501612854004
1789317793271573000,10.236572998046874,7.045387297821044,-4.326621675109863,6.6252049064636225
1789317793281606000,10.24660595703125,6.977302188110351,-4.253598524475097,5.874173773193359
1789317793291639000,10.25663916015625,6.4831988204956055,-4.0222587890625,6.228814894104003
1789317793301672000,10.266671875,6.453271299743652,-4.524741862487793,6.552331393432617
1789317793311705000,10.276705078125,6.5786676116943354,-4.838232642364502,6.948422130584716
1789317793321738000,10.286738037109375,7.3846157455444335,-4.976348150634766,8.015487882995606
1789317793331771100,10.296771240234374,8.630049521636963,-5.003582194519042,8.31865366821289
1789317793341804000,10.306803955078125,8.556727095794677,-4.883572836303711,6.515819818115234
1789317793351837000,10.3168369140625,7.413944715881347,-4.075829051208496,5.252728804779053
1789317793361870000,10.3268701171875,7.322067227172851,-3.0123546012878415,5.272032055664062
1789317793371903000,10.336903076171875,7.148188331604003,-2.481590020751953,5.861454576873779
1789317793381936000,10.34693603515625,6.469881073760986,-2.588281632232666,6.437260076141357
1789317793391969000,10.356968994140624,6.115090315246582,-2.482188571166992,7.001842755126953
1789317793402002200,10.367002197265625,5.708375308227539,-1.9617489852905272,6.88243194732666
1789317793412035000,10.37703515625,5.89901361541748,-1.5110405227661132,7.6647373397827145
1789317793422068200,10.387068115234374,6.126911685943603,-1.0488099647521971,7.05481446685791
1789317793432101000,10.39710107421875,5.3752820022583006,-0.48407764816284177,5.982661035919189
1789317793442134000,10.407134033203125,5.4890065811157225,-0.963366893005371,5.678747062683105
1789317793452167000,10.4171669921875,6.595277385711669,-1.9373580558776855,6.533626692962646
1789317793462199800,10.42719970703125,7.908945909118652,-2.893991256713867,7.257423782348632
1789317793472232400,10.437232421875,7.602637734222411,-2.8803742347717285,6.282834069061279
1789317793482265600,10.447265625,7.624933737182617,-3.4879029060363766,5.888090070343017
1789317793492298200,10.45729833984375,7.897872726440429,-3.906588921356201,6.723666449737548
1789317793502331400,10.467331298828125,7.7250412940979,-3.658789049530029,6.478709692382812
1789317793512365300,10.477365234375,6.85011022491455,-3.377919267272949,6.242581553649902
1789317793522398500,10.4873984375,6.32652824935913,-3.2206501457214354,6.809259159088135
1789317793532431400,10.497431396484375,5.564573571014404,-2.880673509979248,6.883180135345459
1789317793542464500,10.507464599609374,5.326649781036377,-2.5522189697265625,6.305728622436523
1789317793552497400,10.517497314453125,5.270535679626464,-2.069787335205078,5.988197627258301
1789317793562530300,10.5275302734375,5.3679497596740715,-1.6971897018432616,6.246621768951416
1789317793572563500,10.5375634765625,5.896469776153564,-1.587206063079834,6.931961994171142
1789317793582596400,10.547596435546875,6.3886278549194335,-1.9313725517272948,7.0187518043518065
1789317793592629500,10.55762939453125,6.439055727386474,-2.36861362991333,7.41828420639038
1789317793602662400,10.567662353515624,6.524349161529541,-2.569576931762695,7.854926734161377
1789317793612695600,10.577695556640625,5.607669200897217,-2.2233155166625975,7.562235581207275
1789317793622728400,10.587728515625,4.939238024902344,-2.0718822616577146,6.742670425415039
1789317793632761600,10.59776171875,5.314379497528076,-2.476502342224121,7.593210565185546
1789317793642794500,10.60779443359375,5.693112272644043,-3.203142546081543,8.277353689575195
1789317793652827400,10.617827392578125,5.781548096466064,-3.694402799224853,7.800907559204101
1789317793662860300,10.6278603515625,5.4427685615539545,-3.528005783843994,6.526144812774658
1789317793672893200,10.63789306640625,6.061819328308105,-3.9701849029541014,7.24620096206665
1789317793682926300,10.64792626953125,6.437858626556396,-4.155735531616211,6.7544917961120605
1789317793692959200,10.657959228515624,5.877615438079833,-4.201225363159179,6.0704983093261715
1789317793702992400,10.667992431640625,5.703586904907226,-4.269011197662353,6.778134537506103
1789317793713025300,10.678025390625,6.141127258300781,-3.9962218460083005,7.719355065155029
1789317793723058400,10.688058349609374,6.574477758789062,-4.259883303833008,7.427861013031006
1789317793733091300,10.69809130859375,6.426486168670654,-4.164564150238037,6.63986939163208
1789317793743124500,10.70812451171875,6.443395217895508,-3.469796755981445,6.082469317626953
1789317793753157400,10.718157470703124,6.65273822555542,-3.1413422157287596,6.7462617279052735
1789317793763190500,10.7281904296875,6.58195963897705,-2.600402278137207,6.729651953887939
1789317793773223400,10.738223388671875,6.031742169952392,-2.3190835830688474,7.184699906921386
1789317793783256300,10.74825634765625,5.964704523468018,-2.8063036209106444,7.676409072875976
1789317793793289500,10.75828955078125,6.673088939666748,-3.4433109001159665,7.484274389648437
1789317793803323400,10.768323486328125,6.751199768829346,-3.448697853851318,6.354660118865967
1789317793813356300,10.778356201171874,5.948094749450683,-3.018489743041992,5.962310321807861
1789317793823389200,10.78838916015625,6.377255397033691,-2.91763399810791,6.075286712646484
1789317793833422300,10.79842236328125,6.6519900375366205,-3.220949420928955,6.594229922485352
1789317793843455200,10.808455322265624,6.93345837020874,-3.7440824836730955,6.844872908782959
1789317793853488400,10.81848828125,6.953210533905029,-3.5992332832336422,7.080851409912109
1789317793863521300,10.828521240234375,6.705560299682617,-2.920327474975586,6.691344727325439
1789317793873554400,10.838554443359374,6.293757614135742,-2.4133552734375,6.302735870361328
1789317793883587300,10.84858740234375,6.922235549926757,-2.497002693939209,6.1070098846435545
1789317793893620500,10.858620361328125,6.604405279541015,-1.8854338073730468,5.660790550231933
1789317793903653400,10.8686533203125,6.648847647857665,-2.0361188743591305,7.025934409332275
1789317793913686500,10.8786865234375,6.593781009674072,-1.6059107635498047,7.236324880218506
1789317793923719400,10.888719482421875,6.5862991294860835,-1.7407342445373535,6.271910523986816
1789317793933752300,10.89875244140625,7.740603604888916,-1.8804957664489745,6.772298670959472
1789317793943785500,10.908785400390625,7.53320588607788,-1.20667763671875,6.462848106384277
1789317793953818400,10.918818359375,7.0661869247436515,-1.1483189712524413,6.4828995452880855
1789317793963851500,10.9288515625,7.358578802490234,-1.6277578536987303,7.378779878997802
1789317793973884400,10.938884521484376,7.174973462677001,-1.3135188858032225,7.599345706939697
1789317793983917600,10.94891748046875,6.950965969848633,-1.5155296508789062,7.734169187927246
1789317793993950500,10.958950439453124,7.164199555206299,-1.3958195678710936,8.006509626770018
1789317794003983600,10.968983642578126,6.993014136505127,-1.4751274978637694,6.855197903442383
1789317794014016500,10.9790166015625,6.631040773010254,-1.16193599319458,5.281159949493408
1789317794024049400,10.98904931640625,7.3475056198120114,-1.4170681076049805,6.037278761291503
1789317794034082300,10.999082275390625,7.247547700500488,-2.0150199722290036,7.061697796630859
1789317794044115200,11.009115234375,6.5886933311462395,-3.1352070739746094,6.067056644439697
1789317794054148400,11.0191484375,7.2170216293334954,-4.206313041687012,6.74192223739624
1789317794064181200,11.02918115234375,9.121459412384032,-5.078400996398925,8.373271393585204
1789317794074214400,11.03921435546875,8.333018878173828,-4.497358180999756,7.7519760627746574
1789317794084247300,11.049247314453124,4.763264202880859,-2.7736826232910157,4.630236373138428
1789317794094281500,11.059281494140626,3.342904067993164,-3.277961347961426,4.92891303024292
1789317794104314400,11.069314453125,3.5474586723327635,-3.812915781402588,6.389376042938232
1789317794114347500,11.079347412109374,4.491671952056884,-4.91619383392334,6.463895569610595
1789317794124380400,11.08938037109375,5.685929667663574,-4.202871376800537,5.731419499206543
1789317794134413600,11.09941357421875,6.341342372131347,-3.4192192459106443,5.185541520690918
1789317794144446500,11.109446533203124,8.460510116577147,-4.009838867950439,6.915801132965088
1789317794154479600,11.119479736328126,10.194510668945313,-5.192873763275146,7.344363230133056
1789317794164512500,11.129512451171875,10.408342804718018,-4.625447969818115,6.798036338806152
1789317794174545400,11.13954541015625,9.489717555236815,-3.4362779327392574,7.434744342803954
1789317794184578300,11.149578369140626,9.171887284851074,-3.0142998901367184,8.805424793243407
1789317794194611200,11.159611083984375,6.700173345947265,-1.930025813293457,8.062324452972412
1789317794204644400,11.169644287109374,3.8090252037048336,-0.5657797798156738,5.965602349090576
1789317794214677200,11.17967724609375,2.711283742523193,-0.20994155807495116,6.106560971832275
1789317794224710400,11.18971044921875,3.3304841468811035,-0.7474398307800293,6.445939057159423
1789317794234743300,11.199743408203124,3.7735610916137694,-1.7348983779907226,6.332813028717041
1789317794244776400,11.2097763671875,4.024802628326416,-1.5735890411376952,6.156988844299316
1789317794254809300,11.219809326171875,4.953303959655761,-1.605012937927246,5.706130744171142
1789317794264842500,11.229842529296874,6.495618741607665,-2.6235961067199707,6.493673452758789
1789317794274875400,11.23987548828125,8.130858475494385,-3.1501708343505856,7.152078909301758
1789317794284908300,11.249908203125,8.43387462310791,-3.011456775665283,7.1589622390747065
1789317794294941400,11.25994140625,8.408585868072509,-2.9713538978576657,7.276427758026123
1789317794304974300,11.269974365234376,8.008006002807617,-3.231723328399658,6.931961994171142
1789317794315007500,11.280007568359375,7.915978876495361,-3.7270237968444824,6.808959883880615
1789317794325040400,11.290040283203124,7.7976155319213865,-3.553294538879394,6.784718592071533
1789317794335073500,11.300073486328126,7.727585133361816,-3.675249185943603,6.994510512542724
1789317794345106400,11.3101064453125,6.97176559677124,-4.042160590362548,6.5954270233154295
1789317794355139600,11.3201396484375,6.286575009155273,-3.950582376861572,5.861903489685059
1789317794365172500,11.33017236328125,6.330418827056884,-3.543717732238769,6.002712474822998
1789317794375205400,11.340205322265625,6.3441854866027825,-3.1515175727844236,6.152499716186523
1789317794385238500,11.350238525390624,6.525845537567139,-2.6767174560546874,6.788609169769287
1789317794395272400,11.3602724609375,5.935824465942383,-1.773504879760742,7.22674807357788
1789317794405305300,11.370305419921875,4.899883335113525,-0.9753379013061523,6.209661280822753
1789317794415338200,11.380338134765625,4.68620083694458,-0.5370493598937988,5.84828646774292
1789317794425371400,11.390371337890626,4.885218849945068,-0.18390461502075195,5.986701251220703
1789317794435404300,11.400404296875,5.38874938659668,-0.22475568084716796,5.418826544952393
1789317794445437400,11.4104375,5.2816088623046875,-0.860565859222412,5.658845261383056
1789317794455470300,11.42047021484375,7.523928354644775,-1.8505682456970214,7.236175242614745
1789317794465503500,11.43050341796875,9.213636176300048,-2.69422505569458,7.534402986907959
1789317794475536400,11.440536376953125,9.682450788879393,-3.2404023094177243,8.397363047790527
1789317794485569500,11.450569580078126,9.395745140075682,-2.5637410652160644,8.64396581878662
1789317794495602400,11.4606025390625,9.814580792999267,-3.5110967346191404,8.586504978942871
1789317794505635600,11.470635498046875,10.145579172515868,-4.4853871726989745,9.643395374298095
1789317794515668500,11.48066845703125,8.641122704315185,-3.107823392486572,8.648454946899413
1789317794525701400,11.490701416015625,6.532728867340087,-1.7152958518981933,6.319644919586182
1789317794535734500,11.500734619140625,4.783166004180908,-1.4504372932434082,4.789750058746337
1789317794545767400,11.510767333984376,3.674650635528564,-1.4701894569396972,4.444685744476318
1789317794555800300,11.52080029296875,2.5954642372131347,-1.8905214859008788,5.606472100067139
1789317794565833200,11.530833251953124,2.4492682983398435,-1.7322049011230467,6.402544152069091
1789317794575866400,11.540866455078126,2.821267381286621,-2.38776724319458,6.720823335266113
1789317794585899300,11.550899169921875,4.138826482391357,-3.0828339126586912,6.615328824615478
1789317794595932400,11.560932373046874,5.055955355834961,-2.582595403289795,6.463745932006836
1789317794605965300,11.57096533203125,6.375459745788574,-3.2332197044372557,7.050474976348877
1789317794615998500,11.58099853515625,7.268048052215576,-3.527856146240234,8.358906183624267
1789317794626031400,11.59103125,7.80195502243042,-3.47308878326416,8.755894746398925
1789317794636064300,11.601064208984376,8.915558069610595,-3.803787887573242,7.968052762603759
1789317794646097400,11.611097412109375,8.929025453948974,-3.938461730957031,7.934833214569092
1789317794656130300,11.62113037109375,7.754968814849853,-3.306392492675781,8.24862326965332
1789317794666163500,11.63116357421875,6.382941625976562,-3.0174422798156737,7.27852268447876
1789317794676196400,11.6411962890625,4.644601583099365,-3.012653876495361,6.087257720947266
1789317794686230500,11.65123046875,4.503493322753906,-3.892373348999023,6.781276927185059
1789317794696263400,11.661263427734376,4.637119702911376,-3.617339433288574,7.203404607391357
1789317794706296300,11.67129638671875,5.060743759155273,-3.259406285095215,6.589142243957519
1789317794716329200,11.6813291015625,6.585102028656006,-3.93891064376831,6.48589229736328
1789317794726362400,11.6913623046875,7.526472193908691,-3.450792780303955,5.767482161712646
1789317794736395300,11.701395263671875,8.09524472579956,-3.132064684295654,5.701043065643311
1789317794746428400,11.711428466796875,8.50405465927124,-3.379864556121826,5.333533110809326
1789317794756461300,11.72146142578125,7.302315063476562,-3.357418915557861,5.655702871704102
1789317794766494500,11.731494384765625,6.583156739807128,-3.72208575592041,6.7824740280151365
1789317794776527400,11.74152734375,4.845265609741211,-3.3729812263488768,6.532878504943847
1789317794786560300,11.751560302734376,3.8156092582702636,-2.977189764404297,5.98834726486206
1789317794796593400,11.761593505859375,3.956867156219482,-3.2722751190185546,5.34984360961914
1789317794806626300,11.771626220703125,4.712836330413818,-3.3159692993164063,5.002983644104003
1789317794816659500,11.781659423828126,5.497386286926269,-3.1988030555725095,5.063287598419189
1789317794826692400,11.7916923828125,6.883030497741699,-2.8067525337219235,6.015282033538818
1789317794836725500,11.8017255859375,8.387636603546142,-3.3915362892150878,6.529436840057373
1789317794846758400,11.81175830078125,7.313388246154784,-3.1844378456115723,5.098003522491455
1789317794856791600,11.82179150390625,6.705410662078857,-2.6042928558349607,5.313332034301758
1789317794866824400,11.831824462890625,7.420678408050537,-2.494907767486572,6.826766758728027
1789317794876857300,11.841857421875,7.678803274536133,-2.3912089080810546,6.885723974609375
1789317794886890500,11.851890380859375,8.653841900634765,-2.8043583320617675,6.200234111785888
1789317794896923400,11.86192333984375,7.907150257873535,-2.699163096618652,5.626074626159667
1789317794906956500,11.87195654296875,8.45916337814331,-2.6418518943786617,7.209240473937988
1789317794916989400,11.881989501953125,8.251017471313476,-1.6850690559387207,7.452401580047607
1789317794927022300,11.892022216796875,7.653215244293213,-1.2823942642211914,6.663212857818603
1789317794937055200,11.90205517578125,8.431181146240235,-1.7010802795410156,6.536020894622802
1789317794947088400,11.91208837890625,9.722553666687011,-2.326565463256836,8.609998082733155
1789317794957121300,11.922121337890625,8.838045790863037,-2.0669442207336424,7.789984014129638
1789317794967155500,11.932155517578124,7.852083619689941,-1.9422960968017577,6.329670639038086
1789317794977188400,11.942188232421875,7.839065148162842,-2.8383260681152342,6.871807677459716
1789317794987221500,11.952221435546875,7.4217258712768555,-2.827103247833252,7.599794619750976
1789317794997254400,11.96225439453125,6.067655194854736,-2.5622446891784665,6.508786850738525
1789317795007287600,11.97228759765625,4.688744676208496,-2.2870611358642576,5.191227749633788
1789317795017320400,11.982320556640625,4.268113372039795,-2.5139117431640625,5.6012347839355465
1789317795027353300,11.992353271484374,4.731241755676269,-2.391657820892334,5.951536414337157
1789317795037386500,12.002386474609375,6.124667121887207,-2.402431728363037,6.16117869720459
1789317795047419400,12.01241943359375,6.883180135345459,-2.458695467376709,4.991311911010742
1789317795057452500,12.02245263671875,6.429927833557128,-2.0485387954711913,5.199906730651855
1789317795067485400,12.0324853515625,7.626130838012695,-2.335394081878662,6.331316652679443
1789317795077518300,12.042518310546875,6.806565682220459,-2.150890916442871,6.282684431457519
1789317795087551200,12.05255126953125,7.259518708801269,-2.739565249633789,7.172579261016845
1789317795097584400,12.06258447265625,7.620594246673583,-2.5477298416137693,8.24203921508789
1789317795107617300,12.0726171875,6.852205151367187,-2.4486697479248045,6.778733087921142
1789317795117650400,12.082650390625,5.882553479003906,-2.3885154312133787,5.4607250740051265
1789317795127683300,12.092683349609375,6.569838993072509,-2.627187409210205,6.8773442687988275
1789317795137716200,12.10271630859375,6.921188086700439,-2.0675427711486813,7.17617056350708
1789317795147749400,12.112749267578126,6.379200685882568,-1.740434969329834,6.8882678138732905
1789317795157782300,12.1227822265625,5.411943215179443,-1.843086365509033,6.842478707122802
1789317795167815400,12.1328154296875,5.102193375396729,-2.139967371368408,7.876923461914062
1789317795177848300,12.142848388671876,5.333682748413086,-2.4703672004699704,7.69286920928955
1789317795187881500,12.152881591796875,5.569062699127197,-3.303250102996826,6.198139185333251
1789317795197914400,12.162914306640625,6.2475195945739745,-4.046200805664062,6.644657794952392
1789317795207947500,12.172947509765624,7.288099491119384,-4.031536320495605,7.652167781066894
1789317795217980400,12.18298046875,7.585878322601318,-3.6577415863037106,7.012467024993896
1789317795228013600,12.193013671875,7.013664125823974,-3.7077205459594724,5.802347723388672
1789317795238046500,12.20304638671875,6.889764189910888,-3.533542375183105,5.9385179428100585
1789317795248079400,12.213079345703125,6.649296560668945,-3.2134675407409667,7.066635837554931
1789317795258112500,12.223112548828125,6.661566844177246,-3.3725323135375973,7.45045629119873
1789317795268145400,12.2331455078125,6.878391732025146,-3.820397661590576,7.238569444274902
1789317795278179300,12.243179443359375,6.86312869644165,-3.4757822601318358,7.6756608848571775
1789317795288212200,12.253212158203125,7.542483417510986,-3.244442524719238,8.061576264953613
1789317795298245400,12.263245361328124,7.046584398651123,-3.1090204933166503,6.8210805297851556
1789317795308278300,12.2732783203125,6.993313411712646,-3.0617350105285643,6.3886278549194335
1789317795318311400,12.2833115234375,6.883778685760498,-2.3313538665771483,7.199663667297363
1789317795328344300,12.29334423828125,6.686107411193848,-2.504484574127197,6.969820307922363
1789317795338377500,12.30337744140625,6.650044748687744,-3.3092356071472167,6.611737522125244
1789317795348410400,12.313410400390625,5.777358243560791,-2.775178999328613,6.506841561889648
1789317795358443500,12.323443603515624,6.003759938049316,-2.8675054008483887,7.763498158264159
1789317795368476400,12.333476318359375,5.321861377716064,-3.005171996307373,7.123797402191162
1789317795378509300,12.34350927734375,5.502773240661621,-3.4944869606018063,7.185747370147705
1789317795388542500,12.35354248046875,6.515670180511474,-3.700537940979004,8.66356834487915
1789317795398575400,12.363575439453125,5.813869818878174,-3.2213983337402343,6.824222919464111
1789317795408608500,12.3736083984375,5.801599535369872,-3.1193454879760742,6.016928047180175
1789317795418641400,12.383641357421874,6.845321821594238,-3.5995325584411617,6.726958477020263
1789317795428674600,12.393674560546875,6.843675807952881,-4.0066964782714845,6.406135454559326
1789317795438707500,12.40370751953125,6.133196465301514,-3.540126429748535,6.248567057800293
1789317795448740600,12.41374072265625,5.584176097106933,-3.342904067993164,6.752845782470703
1789317795458773200,12.423773193359375,5.868487544250488,-3.3378163894653317,7.199065116882323
1789317795468806700,12.433806640625,6.4351651496887206,-3.8206969367980954,6.567893704223632
1789317795478839600,12.443839599609374,6.36513475112915,-4.063409130096435,5.952434239959716
1789317795488872700,12.453872802734375,6.68386284713745,-3.8251860649108886,6.527940464019775
1789317795498905600,12.463905517578125,7.572410938262939,-3.5066076065063476,6.465391945648193
1789317795508938800,12.473938720703124,8.55493144454956,-3.9739258430480953,6.4089785690307615
1789317795518971600,12.4839716796875,9.038111267089842,-4.1100960624694824,5.7511716629028315
1789317795529004500,12.494004638671875,8.014590057373047,-3.440467785644531,5.223399834442138
1789317795539037700,12.50403759765625,7.228693362426758,-3.2882863426208493,5.632957955932617
1789317795549070600,12.514070556640625,6.178536659240723,-3.443759812927246,6.301089856719971
1789317795559104800,12.524104736328125,5.72034631652832,-3.3432033432006834,7.575852603149413
1789317795569137700,12.5341376953125,4.518905995941162,-3.2517747673034667,7.453897956085204
1789317795579170800,12.5441708984375,3.3023522773742675,-2.2477064460754392,6.8302084236145015
1789317795589203700,12.55420361328125,3.610755378723144,-2.3847744911193844,7.055263379669189
1789317795599236600,12.564236572265624,3.6789901260375975,-2.487276249694824,5.395931991577148
1789317795609269500,12.57426953125,4.348618402862549,-2.5936685859680173,4.976497788238525
1789317795619302700,12.584302734375,6.314557241058349,-3.347243558502197,5.208136798858642
1789317795629335600,12.59433544921875,7.135618772888183,-3.974674031066894,5.823446625518798
1789317795639368700,12.60436865234375,8.435969549560546,-3.2525229553222657,5.374234539031982
1789317795649401600,12.614401611328125,9.644442837524414,-4.326920950317382,7.144746666717529
1789317795659434800,12.624434814453124,10.237606298828124,-4.6444519454956055,8.039878812408446
1789317795669467600,12.634467529296876,9.86336265182495,-4.446780670928955,7.904456781005859
1789317795679500500,12.64450048828125,8.428338031768797,-3.7924154296875,6.887220350646972
1789317795689533700,12.65453369140625,7.157465863037109,-3.366247534179687,7.085939088439941
1789317795699566600,12.664566650390626,6.5114803276062005,-3.187580235290527,7.7504796867370604
1789317795709599700,12.674599853515625,6.019022973632812,-3.1471780822753903,6.855197903442383
1789317795719632600,12.684632568359374,5.108927067565918,-3.2070331237792966,6.394164446258545
1789317795729665800,12.694665771484376,3.9056910957336424,-2.9349919601440426,6.1179334297180175
1789317795739698700,12.70469873046875,3.700537940979004,-2.289904250335693,6.042665715026855
1789317795749731800,12.71473193359375,4.617517176818847,-2.9046155265808102,6.783222216033935
1789317795759764700,12.7247646484375,5.701491978454589,-3.2638954132080076,6.076483813476562
1789317795769798000,12.7347978515625,5.86669189300537,-2.6864439002990723,5.705981106567383
1789317795779830800,12.744830810546874,6.341940922546386,-3.203741096496582,5.88659369430542
1789317795789863700,12.75486376953125,7.431901228332519,-3.205985660552978,6.545448063659667
1789317795799896800,12.764896728515625,7.926752783966064,-2.522441086578369,7.0470333114624015
1789317795809929700,12.7749296875,7.854028908538818,-2.4883237129211424,7.31638099822998
1789317795819962600,12.784962646484376,7.315034259796142,-2.805106520080566,7.587374698638915
1789317795829995500,12.79499560546875,7.247098787689208,-2.728492066955566,7.579144630432128
1789317795840028700,12.805028564453124,6.450727460479736,-2.213439434814453,6.619069764709472
1789317795850061600,12.8150615234375,5.608567026519775,-1.9315221893310546,5.513098235321045
1789317795860095700,12.825095703125,6.271162335968017,-2.638559867095947,5.908889697265625
1789317795870128600,12.835128662109375,7.500884163665771,-2.9058126274108886,6.58195963897705
1789317795880161800,12.845161865234376,7.619247508239746,-2.0655974822998044,5.804891562652587
1789317795890194700,12.855194580078125,7.415141816711425,-2.4040777420043944,5.704185455322265
1789317795900227800,12.865227783203125,8.22902074356079,-3.095852384185791,6.016479134368896
1789317795910260700,12.8752607421875,7.815721681976318,-2.071732624053955,7.323264328002929
1789317795920293600,12.885293701171875,7.653963432312011,-1.7808371223449706,8.514678929138183
1789317795930326800,12.895326904296875,6.664260321044922,-2.3132477165222167,7.812280017089844
1789317795940359700,12.905359619140626,6.507140837097167,-3.2007483444213864,7.971644065093994
1789317795950392800,12.915392822265625,6.12287147064209,-3.118148387145996,8.102128055572509
1789317795960425700,12.92542578125,4.680215332794189,-2.8247090461730955,7.16973614654541
1789317795970458600,12.935458740234376,3.9194577552795407,-2.7703905960083004,6.299294205474853
1789317795980491500,12.945491455078125,3.9577649818420406,-3.435529744720459,6.810156984710693
1789317795990524700,12.955524658203124,4.871901103210449,-3.384952234649658,7.463774037933349
1789317796000557600,12.9655576171875,4.4187984390258785,-2.9357401481628416,6.719626234436035
1789317796010590700,12.9755908203125,4.6264954330444334,-2.937386161804199,5.965901624298096
1789317796020623600,12.98562353515625,5.643133312988281,-3.2167595680236816,6.599317601013183
1789317796030656500,12.995656494140626,6.396109735107421,-3.1932664642333983,7.088782202911377
1789317796040689700,13.005689697265625,7.938274879455566,-3.965246862030029,7.762001782226562
1789317796050722600,13.01572265625,8.327931199645995,-3.6463691284179687,6.710348703002929
1789317796060755700,13.025755615234376,9.164106129455567,-3.102137163543701,7.023989120483398
1789317796070788600,13.03578857421875,9.090783703613281,-2.549226217651367,6.409427481842041
