seconds_elapsed,z,y,x
0.0,-2.6336481296569105,-2.379911853519082,0.8603058931119739
0.01,2.1325927904649262,-1.7109182730101873,-1.378674655485722
0.02,2.725573456402087,3.9853398620037366,-0.25233268991584656
0.03,-4.293201385410911,2.082851186075556,1.1220036621659457
0.04,-5.769393522917514,-6.740531172940323,-0.881764335572122
0.05,1.594790789677764,-1.3458307107099312,-1.721892294369603
0.06,3.864335708447386,5.6253848898435095,-0.5573882222732541
0.07,2.464170362611714,-1.1181845206697025,-1.246767480305108
0.08,2.2163047873624513,-1.2481146319795773,-1.6709206476719338
0.09,-1.851885729934595,4.349128511567485,-0.06997197784746607
0.1,-4.727661606606761,0.9979620304988507,-0.06824614576973341
0.11,-1.7136579361656807,-1.4397751698658916,-0.21881319772410854
0.12,1.5236932019339802,0.10768088949105598,0.6193491682398817
0.13,-2.0677344561466886,-3.2248811975247604,0.049890513996386665
0.14,-1.46971542296723,-0.2788493865937612,-0.8861398909442886
0.15,2.9737884435225665,3.4866739557257627,-0.9544840692955434
0.16,4.1020176233964,-2.968641957395823,-0.7337004319925003
0.17,2.234070355776613,2.9750683284216333,-0.41429005750943115
0.18,-5.018512796159981,1.103151308489322,1.1340355930852002
0.19,-4.994220620473507,-3.5830700060774863,2.162655095488768
0.2,4.76601982040106,1.2008764660831646,1.027009206123802
0.21,6.450561666565211,3.9346830456228825,-0.3376181948675784
0.22,-2.5693423858107614,-0.1504761576202302,0.5383496880712502
0.23,-4.659947772819092,-1.8773357145737188,1.8266322155722379
0.24,0.30843284498305057,2.1152951444231607,-0.1818075745613597
0.25,-2.222519135843486,0.23083312483084437,-1.0941829094172948
0.26,-1.9067561284705983,-0.028604708420965175,1.5783651987051397
0.27,1.0959043416969474,-0.23584125869089462,1.2558466352775854
0.28,0.8009506012315563,-0.2341920007300602,-0.9321869727339137
0.29,-2.149058709724507,2.299522498658503,0.7387154526944038
0.3,-8.211138837737085,-4.128027310524233,3.00331969881203
0.31,2.0169860925019436,-0.26504538254163207,0.6894346976762203
0.32,17.982963887372897,7.903566880677807,-2.3859996361060074
0.33,9.86357133059738,1.091715845180724,-1.528121863402113
0.34,-12.969432709595113,-1.8981213065562672,2.0188887469603842
0.35,-23.314056812722846,-3.625121514094892,2.987317085480726
0.36,-0.7835909100769133,-4.025090007480177,0.3560859097215963
0.37,16.358704961787407,1.3993172328789192,-0.08274039043181446
0.38,14.53001487234127,2.635634047517778,-0.3670358981877446
0.39,4.120115477720927,4.6325974683503475,-1.8663215384205345
0.4,-6.589345783193315,2.548543804113937,-1.5808063480591075
0.41,-17.298714562125234,-5.998690403303108,0.4443354145121377
0.42,-8.760457413149554,-6.634275652230284,1.9147612950774486
0.43,12.105996334297828,6.131561848144905,0.10591621878183932
0.44,10.356093534857566,4.759994299873113,-1.1625520113988284
0.45,-7.125989602733103,-8.698854530754266,0.9313060345800933
0.46,-7.564394385161384,-1.0398175003922738,1.6227917425010434
0.47,2.105988445149373,7.307898341612098,-1.187552003605585
0.48,3.400859337045263,-4.234918392916383,-1.749002515920532
0.49,6.575421540145612,-3.9441055480822005,0.7043519122283708
0.5,9.376529280890043,10.38319718921986,0.053264914197306605
0.51,-2.8857411114258498,2.0999230540581544,-0.36306164628834353
0.52,-13.307138324391055,-5.52389613403443,1.766397763836187
0.53,-6.284190609357558,1.7182999160106647,1.4782976834828918
0.54,3.046543259799808,0.21255441598621388,-0.5789322041842325
0.55,2.5361419542939356,-3.525116172590051,0.7025449159315889
0.56,0.6460078971807702,-2.1629428558583745,2.79784220261688
0.57,0.4857300620726009,6.011456803503297,0.7947414870467425
0.58,2.1579202175636487,-3.776432037143784,-0.6359023713359989
0.59,4.959323464429364,-0.19424856978856356,2.6647861686693846
0.6,1.7442294631399984,5.682732240361198,2.2384821483014505
0.61,-4.029133437125462,-8.53306930580764,0.9037560154406242
0.62,-1.8213046829883408,4.729568607712096,1.7399996311470842
0.63,-0.9252232244361775,2.085550405356529,0.3485757914961716
0.64,4.324223221872631,-6.510204799390906,-1.650769973511871
0.65,7.17382306388242,7.333919494510437,0.3969141714191182
0.66,-3.7592214318945993,3.024145482693088,1.196003538934497
0.67,-15.449323587835655,-8.93240451590703,1.1894067191854818
0.68,-3.381205006537052,2.679043394596797,2.9334820837534745
0.69,10.78423390939138,6.003357093529689,0.8694593413559613
0.7,4.133126177230804,-2.0314904354101415,-0.7563155722579805
0.71,-6.600528826784511,-2.065522968738956,1.2242884072566946
0.72,-1.5649257023629433,2.9058570561006873,0.9388809374801336
0.73,1.8967500534042632,2.3675579795826147,-1.493999294006139
0.74,-7.193772916722208,-3.8165527980166543,-0.5227206496958301
0.75,-1.403401350326855,-1.3367432389629397,2.80791490100293
0.76,13.276671732901749,9.149932974264258,2.133168258067499
0.77,5.287929517168678,1.6261110991558967,-0.26973081307262425
0.78,-13.10714722014298,-12.557569358548308,1.042515116613844
0.79,-8.650887242465922,4.660281169586458,0.7946832702622902
0.8,6.602392722697358,0.4061997771611391,-4.165817772975475
0.81,8.755059202650974,-1.9884833445793324,-4.120228590298056
0.82,1.8692264015131723,3.130106903490903,0.07246302963227735
0.83,-3.665603224044992,-1.5770757018014463,-0.4279883111859449
0.84,-2.7052112914734896,1.4514762340923566,-1.9174425830529407
0.85,-2.3674685841158505,0.4914905155870024,0.9726578619950278
0.86,-3.658331469431066,-8.604311831943765,0.4835637693099233
0.87,0.21903500702035442,0.5354794893631235,-1.3327634570630027
0.88,2.263392728625868,6.127990244534686,-2.477458722525082
0.89,-0.7808774731485828,-6.066464789973373,-1.4882596721066197
0.9,5.024742090433699,0.8566345703279317,0.022027436299521926
0.91,8.038205557668254,8.608761238726407,-0.7671930147946306
0.92,-1.5732784105320363,-1.577442503094531,-1.6731275685049116
0.93,-9.13890353187575,-3.5513739826102735,0.3039387602520173
0.94,-8.211176169450683,-1.5042256860047196,0.9496963023509666
0.95,-4.920494433336247,-2.1062980813169405,-1.0426339612040325
0.96,1.3464550248975857,-0.3989305239825996,-1.8570038625920946
0.97,7.838100579793091,-0.8369069463282368,-2.1592758458672736
0.98,8.807265902060673,5.498364954085203,-1.329811307214091
0.99,2.425832586435792,4.009119292564266,-1.4333699458954678
1.0,-4.339917177970841,-7.204075966707912,-0.5635001973333454
1.01,-3.3288844738954873,-0.4577426207068734,0.8979048438074217
1.02,-0.9469366843122429,3.0332782021968887,0.18955710280881924
1.03,0.8827350092381481,-1.3239011724035976,0.3152902690582692
1.04,3.8030662329357523,3.7643071185477432,0.07192147594832804
1.05,1.9724482712273712,-3.660715874855206,-2.2008074845448773
1.06,-1.3626504367052228,-0.22746674898271163,-3.354975443157093
1.07,-4.638031742118699,1.8873848240649642,-2.044974255044651
1.08,-5.9879710014512995,-4.128285438834328,-0.17172673284042655
1.09,3.7441368331993683,2.018053883212807,-0.1529616968284518
1.1,7.2589476575036205,1.3116795385266733,-0.8607591013823199
1.11,-2.6821522985471113,-3.57708039206853,0.6505416597674142
1.12,-5.896195999124697,-0.07482107159831317,0.9300468087428628
1.13,1.7604829377383602,0.1867388357931475,-0.9330676701292735
1.14,8.39634308018223,2.90586062283235,-2.7158126305828514
1.15,4.924118248074144,1.1850626655456562,-2.3653556906184963
1.16,-5.230090924566613,0.016431413650984245,0.8282740366806112
1.17,-7.8542510591845565,1.3113419416975036,1.5848461917673926
1.18,-1.383933081884031,-2.7074021321303414,0.5949884757548517
1.19,3.134488234566647,-1.1482436643137053,0.8909058340807033
1.2,-1.0744888466788598,-1.876898687859021,-0.9320304109618349
1.21,-2.9880818574441315,-2.6458895080905527,-1.7371505490225527
1.22,2.800390805666313,5.562750808577386,-0.8495534594044211
1.23,4.6588268012957315,3.9683524210335333,-0.9561618181836347
1.24,4.060583411016332,-3.126002748485561,-1.4743300264104975
1.25,-1.4716761559301939,0.863184306140564,0.525854135863111
1.26,-6.131817733291038,1.2448378716197233,2.684204948772542
1.27,-0.7281338160273285,-3.6120267128055508,1.2699478263164465
1.28,3.1511230300044732,0.9614605484325113,-1.633351461134497
1.29,-7.061244471553921,0.26183681242325824,-0.8249069035849046
1.3,-6.487887612634058,-3.4685985758959217,0.4495447656104893
1.31,8.42325000265715,0.24890124109447506,-1.6270451913169657
1.32,13.458057777546706,8.27748156577242,-2.5369006428113705
1.33,-1.7023784043031425,1.2858593163814336,-0.20388918753927593
1.34,-16.39226676112219,-8.953161091341588,2.4022736765341164
1.35,-7.532548006029741,3.155853341337713,1.9402269581785994
1.36,7.083265045440112,-0.007840915062559841,-1.3426111993536485
1.37,7.138855567671683,-4.4929781873434225,-2.1867048480711038
1.38,-0.8294716159281835,4.241379354754275,-0.052839160647286464
1.39,-5.985686554848021,0.08903467283812243,-0.4303215186917611
1.4,4.458347019129364,-1.8941901271569215,-2.116676709962808
1.41,12.250513696115995,6.777420494691058,-0.9981338208432967
1.42,-1.568155990698038,2.02091752920745,1.41676443378455
1.43,-18.68287861326197,-7.349665045310509,3.1178821145499254
1.44,-5.031971196142069,-0.23742055481289476,1.65818213459667
1.45,14.663025809255027,4.436292417356775,-2.4655418852384092
1.46,5.088171780059144,0.31478607475819975,-3.517067186534791
1.47,-13.045088364987091,-3.811650116442269,-1.2079470207478176
1.48,-7.654477960051691,0.1634636724054806,-0.01123858856841903
1.49,8.31530246972502,2.00500488199499,-1.7086004558499528
1.5,7.488247769119101,1.6826043853993926,-0.6065036559626146
1.51,-4.4653487854803995,0.17803681653479203,2.9778939021643542
1.52,-6.189074585589461,-0.43001679503567863,3.218852744396592
1.53,4.945248048585475,-0.12559420795864934,-0.5691852238073413
1.54,8.425847392794504,-0.27851753903379806,-4.190583061072048
1.55,-1.4994541422040286,1.3905063451122186,-2.703037105057693
1.56,-8.55767039002179,1.3575766220546353,0.07881451678853953
1.57,-1.9498814511009566,-3.7863616766096393,-0.7189164813465322
1.58,6.7393606866269815,2.77190486848277,-1.2886055596999633
1.59,-1.4665524474077412,0.051482033984511504,2.455119489094811
1.6,-8.081077897821512,-4.488308736634942,4.244804851738207
1.61,1.759228699950026,1.3173282890212588,-0.6507458507160858
1.62,8.737492386824671,1.320807444789702,-3.8009265833227084
1.63,2.201554589122657,2.262311391021559,-1.0425367698426131
1.64,-6.551822429040381,-0.3918788411531202,1.4428775412779904
1.65,-2.3927014216569855,-0.5336797628466886,0.8741262550960888
1.66,5.581263847593365,-0.1690419467159716,-0.06086372437535408
1.67,0.6437669262688206,-0.22948189250099388,0.8157938065860915
1.68,-3.662128124727723,2.898876237012244,2.0561200781643194
1.69,-0.8534391881247568,0.14714607091593304,-0.15228550085701667
1.7,0.7441440748736559,-1.532074251341571,-1.388317297465555
1.71,-1.7093830414748847,2.4458648241973386,0.3617698997973759
1.72,-2.6716770775072476,-1.7131719501666598,1.6592067652084885
1.73,2.129320195600011,-0.01830138801972292,2.202565919107927
1.74,0.297312575380071,0.8671132161631092,1.8102890580903224
1.75,-3.585352628710858,-3.667209963555396,1.8432184126379907
1.76,1.344223583432278,2.0307141452895014,1.8482685437594744
1.77,4.935701338389849,1.9727122651022682,0.09572352479232005
1.78,-0.02929266211873108,-3.078697410225616,-0.3951644154984484
1.79,-2.869745038528353,-1.97683023259596,0.7092469855021529
1.8,-1.2880994725690937,3.0638592948590126,-0.17561627394762613
1.81,1.1087728755101,-0.5416486097775912,0.2141339296773532
1.82,6.79721591846149,0.9472668143651751,0.9493367405443333
1.83,3.106625959406488,-0.021749573006242806,1.5412425935995804
1.84,-6.548348517678027,-2.7085653561075382,2.6701611478521614
1.85,-5.208705753824666,-0.1773028583186338,1.6027445965557756
1.86,6.141992339088528,-0.45598265565356355,-0.22425879886629507
1.87,6.922844857734671,3.3371363209654143,-0.5659899670335111
1.88,-4.971679959132938,-1.164016801692913,-0.1649841280084954
1.89,-7.719239773953076,-3.511458931204028,-0.16809559858318773
1.9,3.4691482296941354,4.24283928295672,-2.131097563979946
1.91,6.416783289362046,-0.216282177800617,-2.8991085324901693
1.92,-2.7725952883608365,-1.3454421200545392,-1.062540783854684
1.93,-7.587219868950407,-0.14947972651785982,0.6798249010138055
1.94,1.1180025162368092,0.5745939729579946,0.6951249529049925
1.95,6.148487166579255,1.5529463620550197,-0.5160948687899326
1.96,-0.2293391960998606,0.588305690592508,0.4452651809883077
1.97,-5.3140669294487815,0.05877176779778201,1.4248787569918702
1.98,-0.8253018946085371,-1.0164613140794738,-0.5235689449476235
1.99,3.4743012441417567,4.554621362553847,-2.1211737502846835
2.0,0.5177511597153531,-1.4989559811086142,-1.6565500758129215
2.01,-3.266810373009011,-1.8127635723934177,-0.136765285916991
2.02,-3.5150034568123476,2.177737703230919,-0.06264805440555912
2.03,-1.2925443340626432,-2.3780101884668667,-1.2705624570168637
2.04,5.098625475057629,2.0094541263944143,-0.9931658135138887
2.05,4.566459820970875,4.254994420151091,0.08811288064518268
2.06,-4.079995801014148,-2.2204393946872596,0.6978277996130224
2.07,-5.1830898724920855,-4.581497926829052,-0.6020717893504858
2.08,1.824061864524172,1.1414382853575948,-1.135271419261559
2.09,3.178172980435935,0.8183508408668834,-0.9119932740161328
2.1,-1.051803558675726,-2.8313446990075954,0.02391666328210598
2.11,-2.523066054298299,0.8507261169013813,1.0506573892900424
2.12,-3.4857541912897627,-2.091534452463068,1.3406584778268065
2.13,0.17375867061355443,-1.2140646214871489,0.5472864490733367
2.14,4.8574478149422164,3.8683229023593655,-1.28301406268896
2.15,2.8504434040952704,-1.2229699075581009,-2.6650767659879735
2.16,-2.5312693149478083,-2.7243201959340384,-1.4504843679140176
2.17,-4.399917758756424,2.792000793707908,0.9818989741836177
2.18,-0.14249391020244573,-0.9414142720878723,1.4046676591735623
2.19,5.1582944713481105,-0.48608645074476914,0.8555327553176193
2.2,2.9546219003938163,2.8468667794637423,0.9057434946394927
2.21,-5.078580978540189,0.7790622484880599,0.07172544056103439
2.22,-7.019001705572573,-4.260729514975113,-1.9430516669100077
2.23,-0.5972480591450043,0.24406553168145026,-1.1286980969147564
2.24,4.259557690513274,3.881293222669917,0.27271030200282187
2.25,3.8942175815867843,-0.7188184715251097,0.4995594313056038
2.26,3.4963373078883455,-0.7552129416637088,1.2199401202661142
2.27,3.517942442085428,3.6020278539190027,1.055961877336394
2.28,-3.891496573961081,1.6079150712601478,0.2294928661330665
2.29,-4.89741747200802,-1.321530182899935,-0.875070219348189
2.3,2.3755689099101924,0.9825627981650035,-1.5979014567354168
2.31,1.1352593922084289,-0.8676671196035582,-0.9025345558318322
2.32,-5.456137761636543,-1.0211096845327683,0.29432638683591505
2.33,-2.558422589470627,-0.6792385707610914,0.26211933456572234
2.34,6.719386260384979,2.2701681653321684,-0.06597782943410661
2.35,5.54580740272442,0.6879319515162451,-0.46348303940344177
2.36,-4.0933078828643845,-3.171609357663611,0.6130083041326146
2.37,-6.600841608993625,2.861276979967325,1.8487451011200349
2.38,2.083230171922919,1.697093912306618,-0.1547277782163637
2.39,7.51190043181845,-1.3063961507719393,-2.5169439412780785
2.4,1.6420319145843012,0.08559973766392354,-2.2410141577039235
2.41,-9.639376119311589,-1.4845811870629895,1.4540305160159106
2.42,-4.610927282376485,-3.064812806412636,2.1526451743206665
2.43,9.559637092781083,-0.15801363002522506,-1.4972413013086947
2.44,9.229051071671822,2.6920968826335963,-1.6952105905042811
2.45,-4.047774585787284,1.6881283704015593,0.6616133039919281
2.46,-9.806445067925752,-1.8022753684837267,1.1922834111399632
2.47,-1.3583376612706957,1.4390735675585644,-0.9135492597256925
2.48,6.890581314159941,-2.883454477695728,-3.2661340646650268
2.49,5.311819136822039,-0.29378764532942886,-1.7555890798163962
2.5,-3.4925717090614414,2.578675761577594,0.43765096812208676
2.51,-5.097694984522242,-4.615189938006764,0.37045026631852596
2.52,2.4358872398096416,2.6767391948856902,-0.6535148275935624
2.53,1.38112938026083,0.8503694998602066,-1.0049560801270576
2.54,-2.5067023723932627,-3.2480677554395148,0.5888716888730484
2.55,1.142284331651933,3.034403477971308,0.9126993751592934
2.56,4.483013522440022,1.3752925028391059,-2.124526731802004
2.57,-0.448830701388741,-0.4665617223416828,-2.305005693218176
2.58,-4.890614642548516,0.09953795836137765,0.5210587057708753
2.59,-1.2826926084217336,0.0034181404328110987,0.13588098023340642
2.6,3.612748311996267,0.18089529863615628,-0.3583381377937329
2.61,-1.0563181174269969,-0.0042889056528665715,1.5544200791571199
2.62,-7.728613396825059,-2.9657380560736173,2.708692788274632
2.63,-3.1740633010861954,1.0073804202128733,1.8735432017341263
2.64,5.102269157406515,1.1053946053551915,-0.6599155450163026
2.65,6.608242366347151,1.217545870509167,-1.6507281123403716
2.66,2.600339075493608,3.1801859124984753,0.8389042675661355
2.67,-3.725354877327318,-0.4325075213392654,1.8663120677038476
2.68,-6.350966258350416,-0.3657238972186875,1.112115903604532
2.69,-0.964454301222005,1.4522983484671503,1.4914003208827693
2.7,3.1697785219423023,-1.2107359363489867,1.5866246404047615
2.71,2.123137077350242,1.0961627137665069,0.6216505305932442
2.72,-3.4584081133291207,0.9756682283131335,0.7053250062774454
2.73,-4.2397183630898745,-3.125729067683101,0.8125836032975392
2.74,1.914424376761774,1.9668055568726892,-1.1509496074796775
2.75,2.5748371155283767,2.428045457321617,-1.5996988188592458
2.76,-3.3487477486503923,-3.9738919559995973,1.4825568371361595
2.77,-1.4069986415458695,-0.6596343461028086,2.9797864029468704
2.78,4.180007397878253,4.591472761320368,1.1366397460365587
2.79,3.522785620113886,0.07579282018474384,-0.5865428351668577
2.8,0.4413577601006118,-2.2848556489841285,0.1177044241555443
2.81,-2.282761587818212,3.619459337060297,0.515800735354031
2.82,-7.358606751347026,-3.9225881256403703,0.0010778297274018872
2.83,-3.3945452073812428,-5.0664597658021115,1.5735725441050228
2.84,9.056374242068795,3.2575246262800106,1.7686686842250305
2.85,8.893978700098918,1.6981729091717195,1.0555702826930171
2.86,-5.175318146365936,0.04502767120650333,1.8707395416594608
2.87,-12.550616858135763,-2.0300840049472795,2.9128689504746976
2.88,1.0415505711059083,1.2872178767032556,1.1102507423344528
2.89,11.569445172744734,3.713307540217801,-2.2009604257658335
2.9,3.243399964687129,-1.3534241624825087,-2.1488154210471797
2.91,-7.4774375879606145,-4.596449211301994,1.5584379273667124
2.92,-1.8208406579341176,3.5640752034716616,3.1070467607524113
2.93,5.852465231567524,2.6547868361212625,1.1038783103544312
2.94,0.8097070323431532,-3.555105442153914,1.553218530009647
2.95,-5.30632148721488,0.9670222972109404,3.4512330904189508
2.96,-5.988854044440903,1.3082982234480265,1.1083973945084564
2.97,-1.9074585503525687,-3.2963347457081804,-1.7562551491778182
2.98,4.926651902667406,1.3824299899511838,-0.07306173618632503
2.99,7.326704494802288,2.0201032692417984,1.6535034851314039
3.0,4.504253964994419,-0.5035448676832969,1.6744514485146766
3.01,-4.491119326121247,-0.06065479188100331,1.5223502014530776
3.02,-6.7570360763280135,-2.870799962906546,0.7990348753860513
3.03,1.7990337280865032,1.8735946549155411,-0.1806443666865092
3.04,3.512673032116559,4.7721989172804316,-0.2538113173178342
3.05,-4.680315203554094,-5.251243730135956,1.1216852900793455
3.06,-2.8016094553532893,-5.520320701936152,3.590087473103764
3.07,8.798719170747592,4.668752730938548,1.594059198106629
3.08,8.33062276063751,-0.6598802811362218,-1.4608376437517392
3.09,-3.2150673199371322,-0.7444376693408665,-0.3693946164536724
3.1,-12.274039809323122,1.7519369619448217,1.383178876394155
3.11,-5.31095530478606,-2.3866096525748683,0.24931523644608902
3.12,9.621236914263996,1.631903780868921,-0.8517409332862228
3.13,11.241195928444757,3.1626373333403883,-0.49470867425374365
3.14,-2.577744016105624,-1.2738361837364485,0.6347362284794548
3.15,-11.962228606791948,-2.455632151793574,1.035578381824018
3.16,-5.668127075835858,-0.27963539640967877,-0.2237666608435489
3.17,6.237307992163037,-0.5818618739990405,-0.05491903794179984
3.18,9.004159140505802,5.238497578187543,0.7797907495321601
3.19,-1.2374182857295728,1.9752320178247154,1.5586113752087736
3.2,-9.765726985505326,-3.0036079301651655,1.9101085456047608
3.21,-3.0497144900656576,2.160360240426225,-0.9417611493379334
3.22,4.5386739517663655,1.0833250443933011,-3.5541806594714624
3.23,2.6613351319990666,-1.1421537156757005,-2.9042809509638587
3.24,-3.585847577229823,-2.0650788631362484,0.3285883631160509
3.25,-4.3446382104594745,-1.3189959806216103,2.736354460969863
3.26,3.616374942143402,0.38657251762608114,1.702806705861177
3.27,6.684175203721723,2.0077319588008673,-0.14361082521620708
3.28,-0.612349532462655,2.0052135874519874,0.44288651500308934
3.29,-5.440757549575859,-0.9122451722649095,-0.7104146556286614
3.3,-1.2593964885302564,-2.3601601677674156,-3.106226191677521
3.31,2.9335501253935075,1.6745347016286047,-3.79000482187413
3.32,0.02493910827749615,-0.9073602037576766,-2.1965943065067646
3.33,-1.1434547484186577,-1.3758352109924916,-0.38688245802385657
3.34,-0.09533754764985651,0.21793388380134934,0.0660780771897009
3.35,-1.9778188661270104,0.0581496996333651,0.46713103116947197
3.36,-1.5335953473814898,-1.393874188665146,0.9526831973127374
3.37,3.755115779296878,-1.613221534497765,-0.03534834499242494
3.38,3.9585670929056374,2.6353075061407436,-1.3159726743373925
3.39,-2.1992023023170324,-0.8527760200177421,-1.8533719771011912
3.4,-1.1037520244745254,-2.3800980189446816,-1.6964616607799359
3.41,5.445044062789696,4.922103559733523,-1.0879909109585904
3.42,1.0525126415823136,1.7290505062415138,-0.6153712236554106
3.43,-8.709715009739426,-4.70669003399665,0.22074537433081207
3.44,-8.345411610815493,-0.8249021583737253,1.1467787839285268
3.45,1.2168917502341887,3.543399189498737,-0.3960522759515266
3.46,7.617677710055587,-0.5990900762481496,-1.8157142402382542
3.47,5.576478703345493,0.4557528448124185,0.19883702005270282
3.48,-4.278761919555688,1.0640499234154523,2.1223466232135713
3.49,-6.9102572253570385,-2.052730909713098,1.769503894895417
3.5,3.7790447733903347,2.697104629142381,0.4100721121765636
3.51,7.7283946776880805,1.965867343803723,-1.059668562931661
3.52,-2.202200531505001,-1.3092092076525308,-1.7198981706865801
3.53,-10.304125953596415,-2.0860065900563782,-1.039989013153819
3.54,-2.8953312989668616,0.08965010763120956,-0.40133946532080994
3.55,7.697955859006766,2.5321239172739394,-1.0033632017799852
3.56,6.754973925717757,-0.2158552765255465,-1.2740700371456113
3.57,-1.9107279590394928,-1.4972191492536178,1.5949739579839914
3.58,-6.26350356771342,0.9019746650530452,3.267249505361004
3.59,-3.2080289558815083,-3.1174541963988567,0.8427848621382356
3.6,2.056245913754716,0.7944154825106106,-1.4379082692678815
3.61,4.78497154224359,1.9750851519029897,-1.8325994925077222
3.62,4.004443414908591,-0.18267458406802214,-1.798688089141443
3.63,-0.33478528545452446,-0.2112117212140175,-1.2221679294646635
3.64,-4.753761640101512,-1.2449773415314553,0.9214231900708331
3.65,-0.46447446232442774,-0.7467750616776208,2.86978033323319
3.66,7.371558851041485,1.010333653553069,1.3954491719898396
3.67,5.300183406663712,-0.46319932777289646,-0.44865069308485267
3.68,-4.499623047011528,-0.2602743636393483,0.02151459357413413
3.69,-9.802567504981505,1.4693404299061665,-0.6031233278462369
3.7,-4.943389258068009,-2.448144545432761,-2.883985966591079
3.71,4.833872021768123,-1.0102108388354623,-3.664091558814295
3.72,6.318097351725496,0.8456755316310393,-2.310809716603666
3.73,-0.9377820060377086,2.0092524631587008,0.5827713203166756
3.74,-5.653079060923561,-0.09807658750157199,2.6232608529220833
3.75,0.672445658055134,0.702213612612395,1.4566687910183274
3.76,8.540573051512652,4.531035824559625,-1.231860493488641
3.77,1.4693782356571743,-1.630431696927981,-2.051029954806934
3.78,-12.56891291327046,-4.2068396859433035,-0.5875476363837505
3.79,-11.36321259442979,-3.235818781598111,-0.007047959318970474
3.8,3.4360967951380066,-0.6560720278533799,-0.5678667674461338
3.81,12.150055578637353,4.745712394789727,-0.7059630480945105
3.82,6.638335283242779,0.371567442551149,0.15345748414592442
3.83,-2.617367823566919,-0.047479647264282936,2.290093555037687
3.84,-6.30865714651537,4.202158363334558,0.8978723165298085
3.85,-4.6987597697425905,-2.2316228811102183,-2.1985465097847587
3.86,2.0894703906112606,-1.083197896022925,-1.194722075975091
3.87,2.6049720151381845,1.5564753321573983,0.47515676912927485
3.88,-1.2189173284204575,-1.5794436372450524,0.40807261114149246
3.89,1.03202341755174,-0.19386613523710225,0.45125607462661305
3.9,5.163215372337133,2.016390531353606,0.3552463662663448
3.91,1.626761867765467,3.6026554239951376,0.8371033721346334
3.92,-7.143066113195524,-1.0108506104607118,1.497749985489035
3.93,-7.442863573066445,-3.228244193839613,1.326135689373653
3.94,1.4952445019721734,1.3074841841462697,-0.596070643777845
3.95,3.9742229375867817,1.545560941387652,-2.1355533611583692
3.96,1.1859282116317342,0.11256195722335746,-2.3558814538952833
3.97,-6.35448046970936e-05,-0.5875112573178782,-2.3684462638472157
3.98,0.09028106420161303,0.020685265605808714,-0.24580285850184203
3.99,-0.36886345923406466,1.8399340438561826,1.7967309840691996
4.0,-3.053861721074919,-2.7375911341958963,1.3436820248871495
4.01,-3.0995350922627214,-0.9176473461444379,1.105968553128142
4.02,0.40945420467569893,1.3847376637429487,-0.5760052306137057
4.03,4.067093964741304,-1.9614621509234877,-3.3260164880149756
4.04,3.7236041531961064,2.7211526786856655,-3.1302995987225706
4.05,-1.8238066530707415,0.7387459037661012,-0.6391983608333955
4.06,-2.085405102409263,-2.3254195629034182,-0.01609848630544532
4.07,4.223731242462134,1.4004547292453564,-0.17092087665007724
4.08,0.8875205393407793,0.917382670106524,0.0810462930680811
4.09,-7.909734559517643,-1.9207595484900521,0.40340154269776674
4.1,-4.819881479982159,1.2049647448640572,-0.5404398095829189
4.11,5.018105349548123,0.7671926889486755,-2.141870826349019
4.12,7.544190395513383,-0.357221004644001,-2.168597367593235
4.13,1.0815563585744514,-0.180416316739461,-0.41746184288367044
4.14,-4.849661076817135,0.489774927147925,1.7784684881450559
4.15,-2.787036357861689,1.0694940135447473,1.3815903780790741
4.16,3.535293731163719,-0.8168971575534967,0.5428970965488966
4.17,3.5217074391250995,3.1359420924618404,1.1823521747497767
4.18,-4.589564683421072,-1.433192316838954,1.3921391743886962
4.19,-5.377377029603998,-2.884177111083684,0.539642423760991
4.2,2.5134741051207175,0.600567439167311,-1.226655902447526
4.21,6.401336031555675,0.9502017179216059,-1.4010776035527062
4.22,1.2032248756260797,1.6559702776499328,0.18505185062982377
4.23,-6.123217949258575,-2.16583058033766,1.5809951553084796
4.24,-2.6700152325922715,0.5303274895187462,2.2307223972980394
4.25,4.053462135987724,0.45220287760964023,0.9200023592220591
4.26,2.0869429852702517,-1.0337807247168211,-0.9686460477353002
4.27,-4.29614477337672,0.8647500157671566,-0.1443419996469453
4.28,-4.567841164427681,-2.849983311748337,0.4046287803415768
4.29,2.281298363641268,-0.9765437685217156,-0.6931308250792222
4.3,5.106591463254352,3.0395998882371305,-0.027574604318334632
4.31,0.5636550628928599,-0.230628372729589,1.4290159533602578
4.32,0.04332450430061447,-0.41449648791695654,1.6877594347090228
4.33,2.554072908439126,2.852698683353908,0.8078451050384797
4.34,0.9055612512743627,-1.863168121643473,-0.77390389014236
4.35,-3.681287945355365,-0.7028089635495932,0.11153561278541968
4.36,-5.528269359214223,0.15673690616022584,0.5617760024495271
4.37,1.1919369211988706,-0.5330104230013563,-1.2114826126911125
4.38,7.2699066777996375,2.2818641725311624,-1.012409839284239
4.39,0.5674094395253063,0.9877810840938999,0.0864267843656758
4.4,-8.30456214283537,-1.3981052279745092,1.4758887776535565
4.41,-3.5075743505223884,0.8231594502891426,2.214867928240923
4.42,5.155808248621561,-0.2563836650932303,0.5657314648995866
4.43,4.772723765905169,1.532098499996493,-0.26089713128100084
4.44,-1.3577828822569236,1.5816963615037674,0.8597223706551564
4.45,-1.5100816866076807,1.0361577286417543,0.6294431245309784
4.46,-0.536515528938479,2.078780184730377,-0.4390025574182223
4.47,-4.199566894210837,-3.0036618683050933,0.8016237136466776
4.48,-2.1724002673428098,-1.743204589269758,1.8201034786639658
4.49,5.625908459073632,3.914736567435737,-0.1437916859640508
4.5,5.071571428989902,2.1149016408283843,-0.9627973920433502
4.51,-5.362778359422193,-1.7332110673125494,1.398660558279699
4.52,-11.356438605607849,-0.40970988689741533,2.685532932047212
4.53,-2.376674062222505,0.18084523970116323,0.2524028653697517
4.54,9.699795472508649,0.529560720370863,-2.608690580231445
4.55,7.317429396693464,0.6073419749736456,-2.5036719961517275
4.56,-5.967696063660962,-1.4056774806202637,0.7716932109176199
4.57,-8.096507726971401,1.1752196531000594,2.1006447931824432
4.58,2.169145957043234,0.3554324837951238,1.4853569810805307
4.59,9.434207920971573,0.5630571437659383,2.316458247045772
4.6,4.100898841512963,1.5721706180686974,1.454064173060024
4.61,-7.609427056928183,-1.4193972307049336,0.44213772484784575
4.62,-10.737471667728673,-0.3692669501836181,0.0125711726855687
4.63,-1.9307536649341746,-4.210520047893067,-1.0801539317609903
4.64,10.42403298872483,3.1478603465730592,-1.3056339717752887
4.65,9.616818491674483,6.4124187674665585,0.14571367973871194
4.66,-1.2084134617468243,-3.784077626587581,2.5433223860884318
4.67,-8.7004240914543,-0.6746592701243822,3.4047356221677156
4.68,-6.752870840147078,1.595081806754583,0.8325306591303103
4.69,2.012402719914088,-2.142845269654663,-1.037471686810136
4.7,4.454157185731016,1.4632820474637036,0.44499303243202165
4.71,-2.9855532083779117,-0.27508847841619066,1.4653179400418248
4.72,-2.9291030677058782,-3.675286670734752,1.0997130059940754
4.73,8.793976845203996,4.8726665963529,0.8956978001878863
4.74,7.901579964041561,4.615832593471673,0.36284258644420714
4.75,-8.647994138113857,-4.5969677672028695,0.09295207367543949
4.76,-14.444430643241763,-4.7183761475894155,1.2496063433935658
4.77,-1.3194240069481251,4.564603942107829,0.42620293924067093
4.78,9.910807046031048,-3.8518655859939304,-0.9916066074291422
4.79,10.990327839706694,1.5035730213017555,0.22047666465279403
4.8,1.1845547268905534,6.468791112516708,2.5790487250083536
4.81,-9.207113301583039,-4.071503757658168,2.5018435145700013
4.82,-5.293727902647349,-5.314919600465311,1.4517412638555596
4.83,2.793893476385881,4.409726164521246,1.190922548460304
4.84,0.7944570229758823,0.8149431477746737,0.18718859566637983
4.85,-2.502349352504136,-4.284512843761415,0.2591198762838393
4.86,1.0606774684310298,4.286765226056979,0.721604401956131
4.87,4.081386317796383,1.6344872095315979,-0.11811235686667511
4.88,0.634608715071992,-2.756021429704645,-0.013629491704175564
4.89,-3.0541746543362205,-1.7250971574813545,1.0323585372448816
4.9,2.074102116447893,-0.14613226190090656,1.9073454466331048
4.91,6.768590301108739,3.5032834965757953,1.5328024142089935
4.92,-3.731093989632791,-0.043053480008768505,1.4723951929508199
4.93,-13.822176271734573,-4.802010051197198,3.0603187648203356
4.94,-1.2221157795664628,-0.7848533880552,1.2209508392835697
4.95,13.40530754560753,0.5267844630946169,-3.589552105764889
4.96,9.222901085531417,2.3563232604421,-3.900920442323569
4.97,-8.27113671752683,1.2853976420977333,-0.0752906785793766
4.98,-16.480530107287375,-4.081812866407231,3.2450052018970714
4.99,-0.2905501648633083,0.4282141282955086,3.015673851533507
5.0,16.03812412604152,0.4325527320494424,0.24509040698563972
5.01,8.559618779777189,0.6407167362220907,-0.1086212108354748
5.02,-13.00513649353187,2.1402268168415586,1.0385238300249944
5.03,-18.10000805201703,-5.745255592113593,0.3649728774163058
5.04,3.661442059148123,0.03197698722291095,-1.406733922773898
5.05,15.000524462095337,3.1800816426693768,-1.6800509504266499
5.06,5.111253768872928,-2.3002802115740337,-0.1125898893294338
5.07,-5.991264518053988,-1.5735764762156605,1.8338507630132468
5.08,-2.069095095334319,2.9850967604871603,0.9523890169568775
5.09,4.935580876788743,2.6799803832147755,-0.35398141841451053
5.1,1.417976019219073,-0.3731290386826084,-0.27469200629510226
5.11,-8.950740805416181,-2.4842293943820164,0.8703345516491391
5.12,-9.189020061325392,-2.1307130445761677,1.4373893164113147
5.13,4.05018307200935,-0.6566383833169354,-1.1815145836520802
5.14,10.25453424746128,2.348504901524633,-2.583933555331659
5.15,4.949495112044477,2.9554228602754127,-0.3811968542723066
5.16,-3.9346090637195434,0.2597707501143106,1.715551135639876
5.17,-4.5115757905737395,-0.9666176932036098,1.2600150445452296
5.18,3.8040310021999604,1.021784621656024,0.09580755066845616
5.19,4.469740128252578,3.455269351755638,0.32381571628117656
5.2,-5.42831783516609,0.04541094493417938,0.3922873848524268
5.21,-9.304010509950787,-4.6615494717828625,-0.666899514040253
5.22,0.2215893819583727,-0.4900955520187983,-2.1118724119663916
5.23,5.904507166634833,2.112221387931932,-1.967288385968026
5.24,1.380140596020943,-1.3903954826236133,-0.5737527624895631
5.25,-2.1702055293788654,-1.5984490318310889,1.240391736566438
5.26,-0.13454133725757314,5.257563306451863,2.6309199022660734
5.27,1.5083276539083719,0.5760621953655805,1.3115009613441373
5.28,0.8764611982046895,-2.3508010076055057,0.0012825628940232557
5.29,0.7962529323903352,1.7820577803563864,-0.37175863999579634
5.3,-1.5221922546994293,1.0838360971175196,-1.4847638348301606
5.31,-0.8779614754131146,-4.300775305240731,-2.0100426827463993
5.32,2.8920805180852005,-1.761921575041582,-0.9808053369481842
5.33,-1.107111405586559,3.0746395613709923,0.5521618402753452
5.34,-4.145251519815518,0.765106311323389,1.2212495966450452
5.35,2.8759362576770715,-1.0620250113622338,0.6335791130535202
5.36,6.762516795120128,0.6469851854948344,-0.03200633789606368
5.37,-2.1752708197309736,0.03282678919325477,-0.2791201956233779
5.38,-9.375036614836654,-2.136775182084429,0.4573545701680671
5.39,-3.0539950183692905,1.1842871956693803,0.888594825532891
5.4,7.931733702123994,-3.022303939957487,-0.523217385809032
5.41,11.642758722966438,-0.7224345913933671,-0.6591204215368548
5.42,3.2517910009052855,7.415888619648352,0.5574904007342109
5.43,-9.139707146387824,-0.23312596730738777,1.0797402054760668
5.44,-8.166051029497769,-7.320253495289518,0.7125106235448971
5.45,3.50250925884284,2.0479351209688192,-0.3303602839199551
5.46,6.24595987918772,5.019614837416592,-0.9930076825065154
5.47,-4.504262288715244,-4.083235500485782,-0.21677620416831841
5.48,-8.278419940178985,-4.892976088706855,0.6518547225543364
5.49,2.8729789429913892,4.842064657436798,-1.2572683520859902
5.5,12.900212588258992,3.1351446886323027,-2.3658043012641596
5.51,9.222535849425112,2.4460908241394588,0.15532480304998555
5.52,-10.57774739748038,-2.558184461765529,2.845994567893507
5.53,-19.768817828000397,-6.5574845746817445,3.676246185839502
5.54,4.301167504133214,2.6227939317639137,1.8004171857509732
5.55,22.980365811934703,5.633908833438623,0.08603006046061396
5.56,9.799360845134192,0.4247085932216791,0.4729137130624788
5.57,-18.79752958150394,-7.160026722532908,0.8529469608474388
5.58,-21.35987135595517,-3.986726726071721,-0.743953686477867
5.59,9.23240820723477,5.621073277485434,-2.5035204699911526
5.6,18.54460495483038,1.4278361895198273,-0.4319985733358546
5.61,3.5172877702831853,-0.43928478680632094,1.1827632994395585
5.62,-13.248982643595,1.478716617354337,1.6990899413037048
5.63,-12.190112927029151,-2.7576649309416177,1.8964768289646614
5.64,5.884895474511385,-0.6070801539042966,0.422076910246646
5.65,13.509223100764396,4.953433779946962,-1.4956323328053602
5.66,0.7000116647646301,1.5633579693332167,-0.9784733502766573
5.67,-13.462680105068369,-5.267823697459315,0.9152990180256756
5.68,-6.184664682900233,1.0049770322407736,-0.3315474223506368
5.69,9.075746665530572,7.104429797525214,-1.5604925646461894
5.7,5.709152433957811,2.7952883064000384,0.3409204810892497
5.71,-5.533039984499922,-4.585299893686496,1.9220458209956035
5.72,-2.071639692413771,-2.8929687795680454,1.0438340339942425
5.73,2.6589290667914227,4.088010021956218,-1.919229027670541
5.74,-5.281000110686172,-0.9453649387321742,-3.0063910195640937
5.75,-6.383010706209475,-3.364160726364474,-1.2346801437966368
5.76,4.752819591295105,-0.14290735976315874,-0.04127883789372455
5.77,8.43280396392987,0.09878517091490767,-1.4840367101462963
5.78,0.5224384612778716,-1.661777068404139,-2.300418773754726
5.79,-6.298782974599645,0.7348180772978263,-0.7409089347830762
5.8,-2.929699470288066,-0.04687375914779991,-0.6627753415581153
5.81,6.9038919952517475,-1.1708565713401622,-2.484902337191193
5.82,10.46305669313014,3.627388992757819,-2.996980583050008
5.83,-1.0066329481090777,0.5723510990293714,-1.6411034066954933
5.84,-15.996259947001198,-5.0822463593439835,-0.035430705637182
5.85,-10.689684636202301,-2.5009190647384556,-0.01517937680355377
5.86,9.15283193473303,1.203209664720293,-1.915343703194327
5.87,12.134659384792787,1.1829515873907797,-2.0970074669798406
5.88,-4.619918035694369,0.7165358409506318,-0.2768724738452525
5.89,-14.413467317451232,-2.9440349035540914,0.5423357814865664
5.9,0.9224384512438731,-1.1479340719773643,-2.0051366150928893
5.91,16.43713593167975,2.5785741197350154,-3.988143154578942
5.92,10.898648779626827,5.6708364463411,-2.29516406663509
5.93,-4.041198110635066,-0.15935538976799468,-0.33180487656577373
5.94,-11.791079417799708,-7.560929831357457,-0.07015600182011121
5.95,-8.58104286901458,-0.15946645388280814,0.5487120462257116
5.96,2.15144942505298,0.2710635866570854,0.5543242149214519
5.97,12.225983249157427,-1.4468410854524607,-0.49332993740870906
5.98,8.836104306972526,8.633431163635265,-1.5548636584158817
5.99,-10.899412756369939,-0.9137541047510895,-1.882055906535099
6.0,-17.208554897281342,-11.253494905086331,-1.4218995254284996
6.01,3.703050549805664,5.0889890385432315,-2.355332076189004
6.02,14.948688852336623,7.090263159749849,-3.3399198603509808
6.03,2.2821772906790496,-6.817462093827293,-1.8937531307658615
6.04,-10.81584082206765,-5.261035961110051,0.282427546569069
6.05,-4.000369443324153,5.980969218663229,-0.15628979074735255
6.06,8.133685792851963,1.0562206419231461,-1.176821052210552
6.07,7.222910357787626,-3.2233403712513993,0.1994056734689964
6.08,-2.6778149763097656,1.2738683842139804,1.6958093019441944
6.09,-6.981423545248534,0.7791297079615018,0.5263903889411333
6.1,-0.7427379650443587,0.6903783463546161,-1.7521401494341369
6.11,4.409521828477306,1.7997682811886502,-2.5048161074749724
6.12,0.6911109150918862,-1.3853625524177664,-1.851064226612482
6.13,-2.950330101742774,-2.339232598774548,-0.501017342987988
6.14,-1.3953344421618865,-1.2841369656649657,-0.16310549381987113
6.15,0.7493176392212095,-2.4591587089133458,-0.17436131136827282
6.16,2.3332501375196726,1.9564329949053683,0.25790605515118903
6.17,2.4170034668501046,3.6716501220999027,0.735374557068893
6.18,0.1873135640593827,-2.148875236379326,0.09494623583510693
6.19,-1.5655403416679046,-2.156679823732143,-1.3193022837449078
6.2,-1.928708516337389,1.8315669819151428,-1.2507933453678166
6.21,-2.006691374493583,1.0349355162423766,-0.7709077827815414
6.22,1.2463965042494587,-2.144759822904627,-1.1187574865414815
6.23,5.398290015748773,2.3624417581464763,-0.9665740821215244
6.24,0.8769639118713107,3.65693796037803,0.24083347271636715
6.25,-7.391492973392239,-0.9245781708771844,1.0392827654124264
6.26,-6.326478656533779,-2.2900536284390625,0.02863386308511309
6.27,0.9108394467548552,0.4597431423547832,-1.9795209131970368
6.28,1.8438304107984052,1.9631610986903723,-1.7318726371573927
6.29,-0.6415709774261682,-1.319311001213428,0.4114903438890166
6.3,1.4843254320849597,-0.5104017076641292,1.5516810767470872
6.31,4.3371492783789405,2.321966312531422,1.5427295233008174
6.32,-1.3759775184861256,1.0389972870585573,1.4536946646073183
6.33,-6.514175205613737,-0.6301900025193816,1.6219102044958378
6.34,0.5003131042981612,1.181055467198838,0.7137551100768738
6.35,7.488249493352623,1.5341856187443534,-0.5504409536099163
6.36,1.6697097007269495,0.31071800485290857,-0.26561108655524274
6.37,-7.349458248882574,-2.587672381594225,1.342670027599199
6.38,-3.3621495421576766,-0.47711296956510596,1.7311973679066164
6.39,6.229274666956075,3.8593487522445455,-0.10219654380560862
6.4,4.7212689328067565,-0.5264633455204053,-1.351797652857432
6.41,-4.889612345030597,-2.5756221566699407,0.5980209217351077
6.42,-10.970746670199187,2.0713875324257502,2.1513238825803174
6.43,-5.822372834419441,-0.10594720192118258,-0.4679437625219446
6.44,7.134245453330018,-1.0389352943467682,-2.377337469345299
6.45,10.802258481643221,2.167675194983098,-0.40059219943718405
6.46,2.062557190329605,0.5414825427535183,1.005885067011559
6.47,-6.333460404150146,-1.8015957317480231,0.9539755306958918
6.48,-5.564543662273102,0.11994757389749794,1.6226543319661195
6.49,1.8119455988998299,0.3028628168766613,2.0298238137773756
6.5,6.980757389629917,1.3419595417391315,1.0441768879446482
6.51,2.995334213350812,1.9322563386005842,-0.9803032311571823
6.52,-7.413408477470458,-2.524079139584252,-1.3039325073113983
6.53,-10.258130363597393,-3.033856178641469,-0.050445331022817334
6.54,1.243229387277878,-0.022630525037708096,-0.9752464960029968
6.55,12.625762970339409,1.5387533672574485,-1.9938227671359228
6.56,7.216682281137472,0.6571579524948079,-0.23632075292485627
6.57,-8.663497366594274,-1.1482139248751497,2.0671380549984804
6.58,-10.031992759012068,1.3487147029180013,2.399008166466509
6.59,4.515387246986276,1.7070521490605226,0.6981832112921824
6.6,11.87316717890893,-0.8292767844378721,-1.221071349671778
6.61,1.060336908891228,-0.8156340316357276,-0.7607549574462468
6.62,-12.947599061170331,-1.4912732613435178,1.3886251905876947
6.63,-6.716811884610247,-1.3281021336953631,0.4533313546041884
6.64,12.503668468970497,3.1632367480740418,-2.1569050193301145
6.65,11.224176531524042,3.32906429925963,-1.1631581109619122
6.66,-10.156138844967634,-3.559774507781203,2.062737749000741
6.67,-15.045247525058937,-3.735611533961228,3.0696460041481926
6.68,5.864144698768879,4.770167292988869,1.0062630255059093
6.69,15.515726072666652,2.332063531610121,-0.7706557158649315
6.7,-0.04620203060612662,-3.939416042898802,0.14282342895585556
6.71,-14.483169805745865,-3.208170820178352,1.1324272622909473
6.72,-6.0134932387443,0.4181766455876531,-0.6431126404566446
6.73,10.344485560869636,0.7176794930840906,-2.0486692944703333
6.74,9.629075563105854,1.266587453557141,-0.33597225012654713
6.75,-0.4171789736839449,-0.444480810757601,1.8280722901160102
6.76,-1.5965634648649303,1.1060917295485282,2.108678054557799
6.77,0.3978519412294391,2.0462058636345386,1.1625650338574716
6.78,-5.252655465452871,-3.745335250592609,1.3888608175500878
6.79,-6.265282944900739,-0.671882294725262,1.0314015859376404
6.8,1.0757541001293147,1.4833475154217932,-0.8419584614248556
6.81,6.467942858834748,-3.0400566888308607,-1.7565275744537099
6.82,4.9416834714524445,0.5729701192014741,-1.4714040790262344
6.83,-2.086475934466349,3.175966470466551,-0.5034373340891972
6.84,-6.229725946724697,-1.0508991163070855,0.08139532936417561
6.85,-0.6416813706083232,-3.1185401182670205,-0.16710177159718237
6.86,4.9695144764783254,1.9249820154592787,-0.6193700212796598
6.87,1.342823601395426,4.317751553935125,-0.4301760561045228
6.88,-4.436041739771386,-2.082963534669135,0.6254102763573522
6.89,-2.400400953113532,-3.5717307748503457,0.3741080388602459
6.9,3.1224323938349694,2.413663575553321,-2.0251441058317767
6.91,2.436090155340433,1.7668696337236731,-3.491361187952353
6.92,-1.494955927151373,-0.6383662646546433,-2.23783939951375
6.93,-4.4638780975722465,0.1675372206624187,0.3378230956661537
6.94,-4.312299909311663,-1.1329340495394495,1.9086356588204139
6.95,-0.7215594205056998,1.0402144058142933,1.1140425382098251
6.96,4.1968599010643475,0.24594491845360283,-0.897956968900891
6.97,6.194374769016023,-2.65162896750796,-1.4281139329304513
6.98,2.8129326368120275,2.353153236388499,-1.0447988981105982
6.99,-5.521951064415681,1.6108467909251827,-0.9337114466139409
7.0,-6.5822157167944075,-4.099355160038017,0.566413935499039
7.01,2.682777464511687,1.0042652135147652,1.7496072007239214
7.02,5.263772593811453,1.4475825712698542,0.8741277857392832
7.03,-1.1188978474562792,-1.3040012596873407,0.6355179607087313
7.04,-2.0147753209619226,2.414976937711385,0.28213021972055885
7.05,1.2819072007225847,2.900851140444037,-2.078069650197626
7.06,-0.6732940229002198,-0.6475098870699131,-3.233908873026792
7.07,-4.358251876769119,-2.922505830372559,-0.7432079690111812
7.08,-1.371440628240664,-0.21657208777176767,2.1559523327943806
7.09,3.9474229962940064,2.1036920231587235,2.0139172673775083
7.1,2.365512786180887,-0.5793287094908803,0.7019033729913401
7.11,-2.4872839979296146,0.2362527779527298,0.7747461275338986
7.12,-3.251465851161921,0.7347679881880353,0.4922291214624361
7.13,-0.0386344939949226,-2.9292158124409675,-1.1472207350921593
7.14,3.1018321437859764,0.4652887142108735,-2.157937580405486
7.15,2.3762998056780145,1.8620824058396075,-1.1962758493180383
7.16,0.37051530480092953,-0.6407543222813062,0.5268626848873905
7.17,-0.2554424819401966,1.0523136608104593,0.8669797358106369
7.18,-2.5191057707519615,-0.18959837136003774,0.09004159588335707
7.19,-3.1409816748024024,-1.8083495917759729,-0.5444886510588105
7.2,0.7794266470950402,0.298622319743893,-1.0245995623082955
7.21,2.5489045513831368,2.118841328180309,-0.9093442450273461
7.22,0.9228164074579066,-0.6500316903965554,0.06763866656291573
7.23,1.6978903563069596,-1.8240434591536105,0.5568031913500835
7.24,1.3488344188152206,1.4159526777450535,-0.2520841792016267
7.25,-3.422970645304354,-1.7595727550737512,-0.5878887726509067
7.26,-6.01726259770399,-2.8450023309801358,-0.10035132757333425
7.27,-0.9731879527735338,1.1256813605486873,-0.8484478318520585
7.28,7.413106632234614,2.8466659198308237,-2.5900541645062627
7.29,7.570589668722999,0.8452340068420534,-2.2685092103318483
7.3,-2.6193506097861574,-1.237005356983099,0.3168034065402997
7.31,-7.984388515569789,-0.8164517796232227,0.9566730396171844
7.32,-0.3739736185055167,-0.27699745734745246,-1.1205959227518252
7.33,4.5874972473895825,0.542473971046776,-1.6462183075595436
7.34,-2.0714070517439276,-1.195073212274078,0.04720361904089205
7.35,-4.957008355759515,-1.7736764283902378,1.0483950438700889
7.36,3.4687166673624867,1.9868709064323622,0.0915362914116426
7.37,9.43448964618454,0.697021897156552,-1.5706075428881712
7.38,6.308629902955913,-1.26365886555026,-1.5359105559111779
7.39,-2.3841709758353646,2.4704712277753966,-0.20657083972931634
7.4,-11.699476677691925,0.25035115376108097,0.6542760240694114
7.41,-10.03291336252179,-4.414020398147313,1.3794064358824512
7.42,3.378172191366457,0.3393090566670528,-0.10022543226748787
7.43,9.714585269603402,1.1493201794990213,-2.6453808755833674
7.44,2.2850724354454126,-1.262674004765406,-1.4026472527935905
7.45,-3.657963749244585,-0.6481020159408631,1.1937973881437807
7.46,0.013537610059803688,1.9028254178240052,1.2544890971890075
7.47,2.96596526880726,2.90891850792585,0.30241808160489714
7.48,1.1021352384025633,-0.7126436970533957,0.5398675385843321
7.49,-0.9437123334699224,-0.21076075202398037,1.0685615342490555
7.5,-5.622996466718859,0.7044344175778418,-0.09235857953546675
7.51,-7.847458594378728,-2.637888142125266,-1.486160740894919
7.52,0.31041725432977685,0.3087028833988241,-0.8605249359298379
7.53,7.782007958741626,2.5663868106787873,0.7464613585299587
7.54,3.9842571520882624,-1.116335380531782,2.030785834893345
7.55,-2.983118464622011,0.6117522861317038,2.8165279270017107
7.56,-3.4741098174481193,2.1207090518609237,3.0842385051371943
7.57,2.1620985613723906,0.9149863456818899,1.6671151750360336
7.58,5.432431274671779,1.6205569283492054,-1.1533257503784182
7.59,0.5275264916464136,0.6757402517301255,-1.1999741355446012
7.6,-6.160920100745755,-0.82516560676533,1.2225319731552913
7.61,-5.927145726700984,-1.483179582989119,1.3979557769336588
7.62,-0.7183715009758109,0.5340438387079917,1.0196154734063114
7.63,1.1807541738737692,1.557416481426231,1.9493109390021148
7.64,-0.02751240338602355,-0.7473394496548794,2.0515765917149325
7.65,1.028211569485204,1.197956712456717,1.4720473374517067
7.66,1.8628275537734387,1.533468450667681,1.2167966103677692
7.67,-0.909256807832292,-1.2435978109408055,0.983106199081563
7.68,-1.8096369842213882,-0.965773213820372,0.3151400049341566
7.69,3.310019108991834,0.7354721962882289,-0.23200108222420518
7.7,5.889642939868377,1.0053470465311394,-0.006883134706608858
7.71,-1.5805061934582414,0.20110774288441047,0.9149654499169345
7.72,-8.924400834955517,-0.19136674774426368,1.9172154948487528
7.73,-6.235917312877477,-0.39186459556848946,1.9138992175360423
7.74,1.8039608540024774,-1.4964355842730621,0.2051746010186936
7.75,7.397516155129842,0.5700703371670777,-1.5177322057068234
7.76,5.988794769938084,3.1990695443925916,-1.2169668693588527
7.77,-4.758444258965578,-1.6715132699599593,0.595163697908689
7.78,-9.30637436933573,-5.0731471247779085,1.240607560321913
7.79,2.1883786964057754,-0.5613640365724928,-0.18344249708885962
7.8,9.727372938945322,3.4053906930065505,-0.4960998182224507
7.81,3.8519635697836043,1.963698076851914,0.692622280714837
7.82,-1.4169557674554174,-1.0712179728213485,0.6345456297361936
7.83,-2.5935505911108896,0.9958150290891686,0.2715615230733471
7.84,-6.013173793381272,-1.7469112792550519,0.8762200345895655
7.85,-4.317010578155303,-5.116475943049344,0.13752648043507662
7.86,2.741491142511499,0.45118021986694845,-1.5017767913421547
7.87,3.7236484079738625,1.6904796015999999,-1.4786825356857773
7.88,1.614858003303278,-0.8913735083274608,-0.12206419664926842
7.89,2.948523251014023,3.29056824178039,0.5070245519829073
7.9,2.1623204834573815,2.6195791715867838,-0.15166733487628103
7.91,-1.292754433575577,-4.57955535110189,-0.23829143468327357
7.92,-2.493774536810419,0.653702122230891,-0.3829771930148506
7.93,-3.7922807339743425,2.529483686173008,-1.7963663282868427
7.94,-2.334975036752352,-3.8372286306044385,-2.485323815640881
7.95,3.418911896130468,0.022652626652953478,-0.8119399784231516
7.96,5.714278255354454,2.902760432308331,1.179951345516864
7.97,2.4237044845962608,-2.2354453391385896,1.341605464609318
7.98,-1.2316909535019807,-0.37221439826450503,1.3020017000441049
7.99,-3.0548777939025387,2.6988091390002764,1.2660675348052304
8.0,-2.016423684133825,-2.7482893704775178,0.5148400476664033
8.01,1.6465248535222654,-0.43852297214111974,0.591327743529777
8.02,0.29676180177730216,2.0330572513840717,0.9571975914943018
8.03,-2.0747865790096354,-3.439438098760008,0.5228604950295045
8.04,1.4349006929186725,0.6260709540546243,0.6635666448660504
8.05,1.7418752570540146,3.1595168401342617,0.5057690262032117
8.06,-1.526929773468788,-2.6343210606216947,-0.6018166130602509
8.07,-0.5346609948994114,0.760477522831465,0.29030112119745016
8.08,0.7303172468568896,4.20782952539212,1.9371700722601577
8.09,-0.8475961383976165,-1.0311167279064943,1.3182909974623336
8.1,-1.857607073557188,-2.3826077633021043,0.5600318039558085
8.11,-0.5475071845252323,-0.14648745921334066,0.8042773799995601
8.12,1.7378419128085092,0.8854235985256003,0.450881225496899
8.13,1.6226119748131826,1.3740116413170558,0.2903221529774305
8.14,0.0549502634236704,0.7470542851392759,1.6260948924211633
8.15,-1.3617348918602135,2.097712338332013,2.2819250394921915
8.16,-2.337079565905019,0.7283264032177803,0.8468168161109494
8.17,-0.04895986863753786,-1.3384369666997107,-0.20705615836846586
8.18,3.0291807665196684,1.010816520894778,0.03155469114450656
8.19,1.5532451978077568,-1.572472790619782,0.20828925752826857
8.2,-1.953668528614069,-3.86082051567075,0.6864315856350982
8.21,-0.6188206170559016,0.25692579899265217,1.4677087909186108
8.22,3.6894457534081924,2.774906417249271,1.17017434242196
8.23,3.112711474895366,0.9924027276569092,0.0701170587418801
8.24,-2.033422690826474,0.10830167079274919,-0.7470576155521566
8.25,-5.195244932588102,-0.06794019938734443,-1.1171470885178179
8.26,-4.235896266852018,-1.9473456416729884,-2.031862763728493
8.27,-2.3516471071912974,-1.9589618364343981,-2.5996329736619495
8.28,-0.24261308453795016,0.024734187172004225,-1.1599314432238839
8.29,3.678645724656172,0.20193080673347363,0.5257452588970167
8.3,6.704155981544348,1.7162917602186147,0.4365479929166981
8.31,2.37990067083952,1.8473250463823023,-0.166216418957032
8.32,-4.8520979803717985,-0.9171473422505481,0.553003360857087
8.33,-5.193288936139608,-0.6665255672665522,0.8931533606542326
8.34,0.302427156606929,-0.8865011379474917,-0.6920413881873082
8.35,3.519076105449928,-0.43769986212787987,-1.5746374794632294
8.36,0.09085945637410293,0.04106189353469237,-0.523814831946957
8.37,-2.2845599792071547,-0.35384504529180294,-0.3600671877331822
8.38,0.774230403926458,0.6119968852744282,-1.1573119937561878
8.39,2.5642799515460384,-0.007716394340448295,-1.0795554167012873
8.4,-0.6918045784387019,-3.254225982637551,-0.2583660161860697
8.41,-4.0530889637148535,-1.9043584853992397,1.3232936547003769
8.42,0.2683275581349214,3.002302696294578,1.7528167890702833
8.43,10.505534056893229,2.3857098504321583,-0.36599637966531373
8.44,13.226246653344248,2.066239783983686,-1.9978506117150712
8.45,-3.547292967805681,0.8175587708913352,-0.8956117554250983
8.46,-22.63705853468039,-5.606485523921865,1.005690876922193
8.47,-10.881587803565388,-3.041357766430966,0.49595912679552495
8.48,14.175699593992757,5.891685073162903,-1.044891133467424
8.49,15.352184349559453,4.586996346400743,-0.692364817611319
8.5,-2.20478852806673,-2.9973120327864526,0.43921014308013834
8.51,-12.774594135143541,-1.8561332029486173,0.9842427235423049
8.52,-5.8582132910506575,1.2240421732272415,0.4689938369061681
8.53,4.131040259753459,-1.9391931917294694,0.4543385350191643
8.54,5.542606259190504,1.1380615544151036,1.7545756206074168
8.55,-0.10158402560879731,3.707526963647724,2.050880458373423
8.56,-3.647497752963475,-1.0012010590160507,0.7205148799547054
8.57,0.26945628061204513,-0.5525120916081119,-1.0336140112699312
8.58,3.0184333891491972,2.6231398134112305,-1.8795433185231145
8.59,-1.1890694569760782,-1.5956309849046348,-0.710621848817201
8.6,-4.4995223771518384,-6.474352059961539,1.682730932326438
8.61,1.7401529366817434,-1.2681646620402753,3.0763387866298433
8.62,10.020319478991064,5.380974064311172,2.2898557148859267
8.63,6.377668479234622,2.084763705399995,0.4204102638337482
8.64,-3.3129714394037286,-2.091262145811357,-0.4042645663094092
8.65,-4.234291477446173,-0.4187407474734541,-0.4713314368177823
8.66,-1.093411848856896,0.18767886065355305,-1.553608244456702
8.67,-5.155412214691448,-2.4465605096537844,-1.5332853645250832
8.68,-7.178983205618339,-4.164524000198301,0.0021754550525742485
8.69,1.9896635767825053,-1.0509119835455505,0.7685772753354632
8.7,11.022299992899569,4.9022503137301285,0.36972197459552353
8.71,6.995661897119731,2.124948970824481,-1.4921131068443203
8.72,-2.6843451371298332,-2.2231960505604556,-2.008515007904409
8.73,-3.6692357151726327,2.5297371328862663,-0.19239547190936412
8.74,-0.01189564888588079,1.122427604178581,0.4374292140394995
8.75,-0.7356224723452426,-2.1249126204565174,0.130409222273983
8.76,-6.137094632644576,0.5491675222619791,0.7272190237376049
8.77,-8.451241621147341,-0.4826051524425896,0.3760754602755219
8.78,-1.4408247136074503,-2.534162445044582,-2.3742348369320485
8.79,6.813277451112004,-0.13868650003941577,-4.509123190014108
8.8,5.39249361341327,3.6949982132033448,-2.770836350570809
8.81,-1.5582360515525824,1.2517408194014144,0.502299121253065
8.82,-1.050185637984507,-2.825158994159872,1.7311630889211502
8.83,5.216011444656466,1.0480826260791625,1.7260005207662328
8.84,3.731617659573514,3.3126713808130894,1.9982717544982933
8.85,-3.4884942802465053,-1.4948875462145843,1.336560861062034
8.86,-6.020187416103407,-3.0870307533960544,-1.1162081097774308
8.87,-5.259767731066153,-1.231494959578337,-3.3475038330771065
8.88,-2.325624497156346,0.046561843246794694,-2.550018391830666
8.89,4.530210921950084,1.6247712371970404,-0.41387944574088503
8.9,9.06002204487957,1.2196772967391596,-0.26823748089360255
8.91,4.310222106409958,-0.36227964012920333,0.16144224765047063
8.92,-6.305775318302718,1.4108589180293771,1.852134641149077
8.93,-8.656746180518825,-1.1346234696497743,0.8718609628021011
8.94,1.9683712716199249,-4.006170301102389,-2.018318723069898
8.95,9.644751768030595,1.2325933256420865,-3.141919042225069
8.96,3.0572886818801392,1.9043789821601922,-2.2555176943880424
8.97,-7.637462336577737,-1.7811826046373271,-0.33297923099413634
8.98,-6.9418160419877575,0.7086360714068873,0.5796741576818027
8.99,0.6206672738567376,1.1013856361645284,-0.14187353091305432
9.0,4.049673911419872,-2.3299748138897227,0.22493772609963633
9.01,3.528272814005248,0.023053333738527512,1.1650944398654977
9.02,1.8560971676850544,2.941004496975377,-0.10273255268007693
9.03,0.1376326792531701,1.2733023796161453,-1.2843432205340513
9.04,-2.1847428486848757,0.49844272526788846,0.27343688072732786
9.05,-4.515637921232241,-0.8177139354975907,1.8939770253139903
9.06,-1.0617344629660947,-0.07324464647967217,1.3643926627921057
9.07,4.619590005687148,2.6045412145091564,0.5031161276063908
9.08,2.5563552315165765,0.84028201670897,1.1778421758920712
9.09,-3.9043232233255054,-0.045969360601958956,2.055137176391645
9.1,-5.329891278683331,0.5650586309785416,1.3921114468715907
9.11,-0.9839338061453369,-0.20202449337304054,0.09807917386827006
9.12,1.975665979839603,-1.9951023508402026,-0.24805562537374418
9.13,2.943729260699808,-0.7411325769584385,0.3491117874004088
9.14,2.6829945359596477,2.6210144051874753,0.5953004146893014
9.15,-0.8280707617051691,-0.6630689905786454,1.0565324781780987
9.16,-2.097165163620922,-1.6101132012105108,1.7426076646235864
9.17,1.7827335109022753,1.3824124756255798,1.0045307695105237
9.18,5.344009888280225,1.902973595298033,-0.1579028860904858
9.19,2.079343522081841,-0.2517937582521305,-0.07184483358918899
9.2,-5.337420574126539,-1.6567743628511198,0.8498742062009996
9.21,-7.158040360496075,0.6906603580624832,1.598459030532393
9.22,-1.7225928239011834,-2.254445200688983,0.7201301301361969
9.23,4.634236165330401,-3.193695744885101,-0.40830672391754547
9.24,5.616918790484968,2.079990273470083,0.5871740935728536
9.25,3.0530022094879796,1.988016248789412,1.1681334315168317
9.26,2.733303842155557,1.4896262327581367,0.5011455533878525
9.27,0.42224387870360364,1.2445071916364094,1.0271678561344262
9.28,-5.796168383867154,-2.2172811089980953,1.829073176041769
9.29,-6.690837205061557,-1.726406001770574,1.1811602942782833
9.3,0.7820451691953972,1.7227075073540443,-0.6690028317545421
9.31,7.856660910166229,0.32980772134785863,-2.6121531178232935
9.32,3.4124176018389085,-0.7848499398287154,-2.311699842906465
9.33,-10.292578828344155,-0.8457438710001861,0.33320290853555473
9.34,-12.501937811118394,-3.2616640827687955,1.6223712858477046
9.35,2.053585174698046,0.08383668700018708,0.983663090845824
9.36,14.210655569454905,4.040486638742376,-0.07834565030624625
9.37,10.224841284767994,3.171789018425641,-0.2874216812434031
9.38,-2.3763590486030006,2.511817261995475,0.41284555684998414
9.39,-8.823687107967912,0.7964222064304229,-0.03222290040919598
9.4,-9.16809009387458,-3.2166597923857054,-1.2270838611110821
9.41,-4.28537297698422,-4.757785757240526,-1.276960879942352
9.42,5.35485352862928,-0.5297195907903073,-1.062464088273865
9.43,8.643356607301993,3.8944995650492857,-1.2881212013846568
9.44,2.0891961902331886,1.2016772596262115,-0.29821089624883274
9.45,-2.2969336410998302,0.11003395610800636,1.184618116923924
9.46,-0.9866248713446131,1.978050934821582,1.4101592125657445
9.47,-1.7705118803178013,-0.7623636001980723,0.7569940948639926
9.48,-2.5309751114367445,-2.4930136051330347,-0.8762057724912083
9.49,-1.6971086654853267,-0.8470662091499487,-2.3819218433552853
9.5,-2.910969116199413,0.06285640790905143,-1.9593892391081886
9.51,-1.422130141300466,-1.6265250820415635,-1.1640918377999587
9.52,5.723104679537651,-0.7755383021204384,-1.0296810451076501
9.53,9.155239349543852,2.2950297189349214,-1.1495572505750742
9.54,1.3430978510833966,2.674624832792192,-0.3982140133165352
9.55,-7.298390785061637,0.6082291910839608,0.1946413079811066
9.56,-4.914391265656193,-2.0328732206317395,-0.3720125425986622
9.57,1.8923410629507451,2.041966618811745,-0.7384016097764128
9.58,0.6106543337023735,-0.4024945866287666,-0.8604735745948985
9.59,-4.3246556917361225,-5.875415863832028,-0.982488161495629
9.6,-1.9129999535063282,-0.09147420013456299,-1.5451991978353525
9.61,4.141560215231032,3.3907981921565455,-2.6955857338828135
9.62,5.359379073738216,2.1708708241556365,-3.0544441924812236
9.63,-0.37613559968647753,-0.7946308654630586,-1.1648404200493403
9.64,-4.985554244509358,-2.8703505516445094,1.5991914509204421
9.65,-1.6323210901514018,1.1127728602329128,2.646124273532966
9.66,4.248628145642413,1.5160171155460125,1.0639871037129147
9.67,5.153995413647751,-1.870156069385008,-2.0561742550127486
9.68,-2.014573880614367,-1.5867335876895738,-3.9389293135058963
9.69,-8.879031720903122,1.2480620552721702,-3.0307650791524714
9.7,-3.574799482410711,-0.09530773150808712,-1.479173432279535
9.71,9.46667306290837,0.5597712464535152,-0.8582870294103055
9.72,8.63188919371146,3.5944551701026786,0.744198325915748
9.73,-7.905469003923083,-3.963881582964119,3.5494617140433116
9.74,-10.418930430696104,-3.403950295354527,3.4580481255245656
9.75,4.4821504183711784,4.1098983252930354,-0.5879866666468394
9.76,9.505760813124287,2.5205691682292106,-3.949055508964665
9.77,-0.5879717809692206,-2.4450266432416603,-3.2280577929791012
9.78,-5.439454616478428,-1.9252592526760517,-0.25243067896549887
9.79,2.71585360109535,3.809586609197995,0.31459424503930317
9.8,5.5235536272389085,1.3102979226237477,-0.4254073069390679
9.81,-5.130005437990566,-3.2594058008422913,2.2020077247362067
9.82,-10.393330642645413,-1.4430954898745807,3.77638423252175
9.83,0.30959388937435983,-3.255220057203311,-0.2763226857612916
9.84,10.830592722159924,1.6410873974119153,-3.337300951957493
9.85,5.006934633898168,5.396127207710121,-2.510375837163057
9.86,-8.034741414519159,-4.356690173628498,-0.8486307843711811
9.87,-4.903319377715977,-3.573811628193125,-0.7588293824538586
9.88,9.427025229089063,4.38021124826832,-2.2380950720568418
9.89,7.918042425451933,1.7278053385982683,-1.8042373362788586
9.9,-8.556652675194133,-2.724187111110675,0.8797678840462865
9.91,-12.416157895936262,-0.9091251028835331,1.275300938805254
9.92,-0.10677895626761612,-0.9354635112999745,-1.710971423236675
9.93,7.200771262656176,0.12358624396480465,-3.4243814483520882
9.94,1.970515088214909,1.0860271086247633,-1.8516069109801039
9.95,-2.1389457561612724,-1.1908525043953897,-0.20629268388940497
9.96,2.7641784044307505,1.03796032150783,-0.6311514070043491
9.97,5.608931719421146,2.4440769569964353,-1.497730526043629
9.98,-0.8215612321209509,0.6433974949401869,0.06254874293652708
9.99,-6.670085003868232,-0.5242566110437474,1.6850865253682308
10.0,-3.0292073351597293,-2.0116914437496005,-0.7505937465706854
10.01,1.8339527654369614,-1.0219913138426215,-3.652592315180705
10.02,-0.8658253380766305,-0.025496243113782926,-2.9824019109472313
10.03,-3.2621085071158897,-1.073615620277466,-0.9816306853267431
10.04,2.6220630215633345,1.1508813947991128,0.23910321490131056
10.05,6.6311588456037915,1.9995367205083125,0.5554836921757674
10.06,2.102897798198274,0.24171642480463307,1.4701188143276727
10.07,-3.5385474664827474,4.6326889593880844,2.2604079497125147
10.08,-6.354226632334796,0.15665091570855788,0.37620143851446264
10.09,-4.0269057866627245,-5.017129653358726,-1.554690958652107
10.1,0.046099112494067715,1.5246546861913552,-0.763714961953617
10.11,-0.16105341661732153,0.8177886675304437,0.13050801082304891
10.12,-0.15819957566430817,-1.9902782033140867,-0.28300360662730356
10.13,1.5924588604883523,1.5478325790472034,0.3545104828580664
10.14,2.8698084870764067,2.4578286707492745,1.149445631861494
10.15,1.3704662344546827,1.552986385112058,0.3171025385126291
10.16,-4.079843666290143,0.3657786440477387,0.7565559526085451
10.17,-4.676046529930278,-1.5629211523080326,1.9092909771470536
10.18,3.3730651554881077,-0.16597230815087438,0.2782738364100341
10.19,5.515333597895147,2.4913476194544804,-1.7641444151917616
10.2,-1.614010091806694,-1.5730522740346244,-1.0769634721289763
10.21,-5.287986166325904,-2.8298457935259367,0.7143601874370522
10.22,-2.2783170786035796,0.6340210950660828,1.314111883945702
10.23,2.4530962173305353,-0.19313449670509109,0.8078508517090002
10.24,5.58796943033012,0.06801274362786427,0.3476652536197668
10.25,2.7018359766976636,3.2005606989721613,0.6314094587376914
10.26,-3.321426951556935,0.6080023771886557,0.23694624309892787
10.27,-3.1283733968909053,-1.1951497256826855,-1.3096723908265229
10.28,2.001765060954187,1.4040653169259538,-1.7274523818549328
10.29,3.045951470782557,0.39342096552098554,-0.4137269000196511
10.3,-0.010092690206543502,0.0985160678484196,1.4915964174974752
10.31,-3.4347989703600077,-0.49451538595207,2.5945159773868482
10.32,-5.41794432798487,-2.165022818550443,2.559412483162052
10.33,-2.4745321172118913,-0.4513583224559373,1.1188177014461724
10.34,5.433597324744907,1.7447238406798984,-0.8996687199342239
10.35,8.03230213395099,1.4598450147439188,-1.8263489268275193
10.36,-1.9337309305586192,-2.5848425410115334,-0.9899184617101174
10.37,-9.125869172019385,-0.7236759459944485,-0.03452459225523394
10.38,1.20948643163688,1.6462536466450737,-0.06125791931344681
10.39,12.60760015144339,0.3184135329318584,-0.017872195532715737
10.4,2.9036872315974955,0.30357829093231037,1.501949096998168
10.41,-15.502753427039995,-4.014137622588347,3.1880895218091827
10.42,-10.00483276589019,-2.0919490694209317,1.4929595017408803
10.43,11.087172348409723,3.4534719341934634,-1.14162324546752
10.44,16.21364641840657,2.5372634878121056,-1.9006124750016395
10.45,1.840865656116101,-1.6345435516089872,-1.3730141753155873
10.46,-11.484967005019382,-2.939409553977882,0.35484611815708145
10.47,-4.76542038524543,0.8986007619542341,0.7444061113288803
10.48,7.9054442072896665,1.229224488989074,-0.0357730279541955
10.49,5.873292300307497,0.16155752209757288,1.606442077981685
10.5,-6.183099325559589,0.991180606065329,2.9743722502181074
10.51,-10.141791164894673,-1.1754842824730507,1.1241077100590344
10.52,-1.0701137797588516,-1.5401714103206072,-1.9119815687663881
10.53,7.586424209073488,1.828614071097995,-2.9899638716406067
10.54,5.901155151519783,3.1793233955243374,-1.498518619355783
10.55,-0.6121287614543431,-1.9780741483663646,0.5880217383719376
10.56,-4.101748802728061,-2.5227798751175006,1.9006893839094743
10.57,-4.822169107422903,1.5579848367935205,2.513879041580325
10.58,-1.7152870331076058,1.5743531778296964,2.1915640170370185
10.59,2.3495810391943253,0.698428022051071,0.5915536043983491
10.6,1.9201273827104401,0.06587984216834072,-1.169491192627497
10.61,-0.4506769036255327,2.4909159232095264,-1.3801533364134049
10.62,-1.4043191178721355,2.9616967505589273,-0.9095411931482964
10.63,-1.368181206190386,-1.5329048088678858,0.11506184132895383
10.64,-0.03401695993323794,-0.6345180155463862,1.4212317054521428
10.65,0.15264990658216313,-0.15090011428133082,1.1279975066536323
10.66,-2.2406063025901974,-0.14462817906910883,1.1351502729303775
10.67,-3.6952687443872745,1.7570973793319737,1.8875714352836988
10.68,0.41487900067730277,-1.867996229531172,0.7856772870396728
10.69,7.212606879877978,-0.19125896523745176,-0.8152443457218908
10.7,5.270580180568424,2.9741911588283245,-0.4139655001830058
10.71,-5.500318585725496,-3.5934059425057274,1.1554499264892137
10.72,-8.308722502401352,-2.8339431922189786,2.1590469874212466
10.73,-1.342869393189562,3.27603425837041,1.8803583297917688
10.74,4.563571776334596,-0.2894732665359258,1.1505594298136808
10.75,5.033314853091553,-0.7374018956487194,0.9987075674727915
10.76,0.9655470939717312,1.3689508007626878,0.7332584419444315
10.77,-2.3122414429546896,1.267065317769137,0.0642706684096102
10.78,0.37685282063484193,0.4546086057477273,-0.583345646453051
10.79,3.470907486451711,0.08258186662634709,-0.6468032883015773
10.8,-0.36946730708654946,0.44333338317871956,1.3201861316657508
10.81,-6.045439740167433,1.5430061734201408,3.189832376958873
10.82,-4.62877119739141,-0.03928506612166229,2.168155599679082
10.83,0.6724435199043756,-1.6758890571983671,-0.33728115973022393
10.84,-0.35999067749590014,-1.6918733239392039,-2.1289151314481494
10.85,-3.7572627273870864,-3.627153211194062,-1.829220420998694
10.86,0.8474585748489315,-0.21074917391676262,0.10158537748766783
10.87,10.197395672150385,3.9811892561978843,0.43464297400192875
10.88,10.74964366237988,0.7923614330173034,-0.4929387834460773
10.89,0.2706919800195233,0.03796668740804677,0.9086209132707671
10.9,-13.313037799545024,-2.885398628670202,2.5151763886418284
10.91,-12.149695481083853,-5.305797787078206,0.4069480786973831
10.92,6.43299499452267,1.1044684029465848,-2.332217643685323
10.93,16.523767361621047,5.674206019899388,-3.7481473090938793
10.94,1.146433037271414,-1.6338354416152991,-3.670369294516565
10.95,-14.052936697637962,-5.801127014670371,-1.473483045288852
10.96,-2.338115625909507,2.0206667779641854,-0.6297275147082211
10.97,11.20809455760786,3.9569848546197774,-1.5324226287860163
10.98,0.5734332693242977,-2.5000991843711335,-0.3268018327818337
10.99,-12.866414960741565,-3.086581575846672,2.350532466926971
11.0,-3.8164040541847544,3.034975282454805,1.066795328818863
11.01,10.040537274616213,1.6163044833715088,-3.059803246624398
11.02,9.482109510650245,-0.8167431579469375,-4.749966973928378
11.03,-1.5292501598383765,0.252579077311916,-1.7704142265228058
11.04,-8.224956100966997,0.250061211101159,1.6013791679834788
11.05,-1.8838303970051644,-3.8115328734345972,0.9068167041143362
11.06,6.867919504360913,-1.3121772556508609,-0.25103498079983766
11.07,4.922350828359852,3.383407791448723,-0.06533570947090289
11.08,-2.0829659076466807,0.5778079188939149,-0.5292401624118931
11.09,-3.311069221800759,0.5914561141160515,-1.5284454490225439
11.1,-0.7439547098416623,0.09944318234795718,-2.109318094721405
11.11,1.1199295722472018,0.26624268602777396,-1.2292317178859455
11.12,1.0565419543817143,0.1566247378092825,0.6878002895166492
11.13,-0.6109929432757863,-2.950829706288126,2.165117736608968
11.14,-0.6899168792996633,1.3018339172201234,2.3479593917954187
11.15,-0.13407839889100576,2.8894714352620214,0.24500096170866825
11.16,-1.7782396771473639,-2.677730638967156,-1.4273855418374495
11.17,-2.167387055141252,-1.4078909127046957,-1.3477930355285714
11.18,0.3225767093574766,-0.16927927282822047,-1.131182545741559
11.19,4.347871785277083,4.279314904500288,-0.280745730123357
11.2,-0.34517131283205077,1.5963115490240103,1.187712448480738
11.21,-6.569991287937965,-5.590438363734271,2.9081605432612014
11.22,-0.11084169340797971,3.4206193211281626,3.132205187986296
11.23,6.625175199512145,5.993875226564306,0.3608818813767046
11.24,1.7400064103176898,-2.8174920690349614,-2.131063983775758
11.25,-6.295149990597824,-2.0093536602980113,0.28479406164613696
11.26,-5.744833043676316,1.7280545132689542,2.8185219132842505
11.27,1.406128889404593,-0.651429813021642,2.155523361398022
11.28,6.764297572255395,1.8924859344889837,1.6117361763743185
11.29,3.3107615132424155,1.281311244529217,1.820386832468277
11.3,-2.849657943847307,0.5465454780962679,1.6678242328728405
11.31,-3.9976832486691474,2.0188923927239792,0.13152271723295184
11.32,-3.5805728155562924,-3.33340801767499,-1.0654177380734788
11.33,-2.5635109948643513,-1.9645732117117543,0.8176055164801743
11.34,-0.09134782084457845,1.6742929447148356,2.0524291355967725
11.35,5.180945983549646,-1.2598203983135876,0.43964641160762413
11.36,8.582241226312926,2.111927186182733,0.17947118358664735
11.37,1.7151256875319818,3.380307010419833,1.0215139747058621
11.38,-8.882710255121804,-1.3200620573199167,0.5401502689187998
11.39,-8.399497857639279,-1.5288340879465399,0.7964146850363163
11.4,-0.20906656329184475,-3.4451145221485793,1.3283402717578625
11.41,3.646821876857686,0.3699299652329494,0.5630153076194695
11.42,1.2788498853241237,2.8595560786980148,0.2543948107730862
11.43,1.7576639619331986,0.7848982446555197,1.6852525384805128
11.44,5.382274958022409,1.8048320391838988,1.4924085064509292
11.45,1.5138498890243064,1.5451600022645182,0.886071337494648
11.46,-4.767753969204168,-3.166382226757077,1.6565547300672645
11.47,-4.714935534089294,-2.595404555670758,1.324629904003787
11.48,-1.066517856761337,2.564642807499404,-0.07453417698314352
11.49,3.016380376788142,1.8359199809539957,-0.7273871391169091
11.5,6.799442717692552,1.7417012746529192,-0.31965462514627124
11.51,1.7958036301379239,2.0439476914567574,0.07901530382049385
11.52,-10.68370628239879,-5.591151904861506,1.0217377661729434
11.53,-9.732080367515229,-3.2206547057356167,1.6880171863860411
11.54,3.699414634393271,4.7375110988865075,0.7580740074606701
11.55,10.205490075714842,0.4047445489999293,-0.1038666988057429
11.56,5.881847189503322,-3.771832508854249,1.450871966863501
11.57,-3.0969483206919888,0.8037204520185668,2.924538525395288
11.58,-7.694595159954885,0.9078237084723245,1.8631770507217893
11.59,1.2217160603422756,-2.853089745803122,-0.5953185927649548
11.6,10.194786960230752,1.406147890731602,-1.1560746610742318
11.61,3.5460325610641554,4.242920259798395,-0.43234113855248074
11.62,-10.45743795122446,-3.5803294240653094,-0.014963300201625828
11.63,-6.109930560603919,-2.564040095142999,0.7257503369796497
11.64,6.424062975433867,4.204414366788676,0.5196976660466919
11.65,0.9846242951780155,-1.596177271488737,-0.3899863446428548
11.66,-8.919111971980504,-4.8529142530891045,0.3553989068115419
11.67,-2.8013502235088805,0.8648779501605963,0.6926755311541152
11.68,7.65899478062024,2.873662467064175,0.02617987242693264
11.69,7.946087021580372,-0.05442056243254943,-0.5003908710555535
11.7,1.125034761217346,-2.141874731691587,0.4188296707266101
11.71,0.7876090110418644,0.934139174094452,1.8251723421920496
11.72,3.1231207396875953,0.49358104493148913,1.1988928327593305
11.73,-0.24678056973648071,-0.47817316522280795,0.4854183467703453
11.74,-6.0264653651022515,-0.303284669044602,0.7243613325874992
11.75,-6.428383753822138,-0.6125722150841405,-0.09210434405275746
11.76,-2.3815690895100294,-1.5242351264385197,-1.581905248658104
11.77,1.1078095033880673,-1.7611639352168158,-2.5940611537749074
11.78,3.019587919699629,0.7142985242059697,-1.9561505373192365
11.79,3.8538128954164317,3.675057008539724,0.5042663319169057
11.8,1.1366396017535514,-1.5439217284426692,1.329677045655078
11.81,-1.7157326413526748,-0.47209326585585765,1.1461478548953552
11.82,-0.6668808684176266,5.445466423677526,1.0077054150668687
11.83,-0.8289645175227165,0.6813995577022092,-0.41510409422013983
11.84,-2.9647413150255475,-2.710238909109881,-1.4578916798049368
11.85,-0.7882694652036049,1.417084528591595,-1.2890383694151015
11.86,2.5417804363699177,2.689298716546097,-0.9904701655491639
11.87,0.5477940532921302,-1.963651430040595,-0.09952626870809322
11.88,-4.628063680800209,-1.328385240128971,2.163375626354601
11.89,-4.26885375125421,0.7116591847713281,2.298140091479607
11.9,0.2048821750847615,1.409628668423972,0.337774892911644
11.91,4.132519698621756,0.42654023008302017,-0.22914350319874904
11.92,5.078612039186681,-0.47151778043595677,-0.33728812621102244
11.93,0.8186981745352407,2.5877797380951817,-0.9234516984447708
11.94,-7.305394675462562,-1.752634481652976,-1.497438032034986
11.95,-5.032336793513228,-4.614042016479166,-1.030750826196412
11.96,6.415294710990077,2.568853892707019,-0.2104554336777144
11.97,8.50014721221629,4.716584264508326,-1.0634545837478548
11.98,-3.7130395379210968,-1.7171775880958091,-0.08306194629183368
11.99,-9.941690739356128,-3.16110871638277,2.8000750172867304
12.0,-1.1346344266094015,-0.9166474615579089,1.830400105870002
12.01,6.302910060668227,1.1930442910012393,-1.7599459845467782
12.02,4.261287410230688,0.27505513234849416,-2.145674448526368
12.03,-0.49128706487278306,-1.1496739053869693,-0.5229936073080829
12.04,-2.2684764967044098,1.5339901097156365,0.005627597692759911
12.05,-3.061244568604337,2.328623970247449,-0.29409621873949604
12.06,-2.0595405718451163,-2.142961672892804,0.45056057093779384
12.07,3.443407762729363,0.1508678804048945,0.47421824070618596
12.08,2.2424034754535205,0.8361818304978422,-1.328467869900477
12.09,-4.560349785925947,-2.2895570798311633,-1.4768945184314377
12.1,-0.9928559878988544,1.1233593740224255,-0.1465266680448182
12.11,6.803899678680619,4.505409604004171,-0.23916739432583473
12.12,3.4806457385760003,-0.9973467783057214,-0.6271228815824677
12.13,-3.9127413262597868,-2.9507069381323507,0.7244375255583035
12.14,-5.322010120202857,-0.3077171875862625,1.3099886566833934
12.15,-2.10499328764533,0.3967125109281037,-1.176884260559795
12.16,3.0137566286671835,0.508690242484139,-2.445288920093759
12.17,5.553117891476664,1.7347366497727696,-0.8271346273080946
12.18,0.04740825920254783,-1.05327092824791,0.48860448442732496
12.19,-5.331095688940324,-2.2622020478532034,0.4705551614776888
12.2,0.24329192529188387,-0.5517469744414212,0.4455649877251396
12.21,5.914642271900933,1.0987752589105384,1.0380782373201243
12.22,-2.3774120044460836,-0.5824835045146523,0.7370566982860108
12.23,-10.787724069479758,-4.9296874978285485,-0.13867843457491696
12.24,-2.245840977533977,-0.20288015457045666,-0.5479829383498322
12.25,11.662196914196567,4.986652373897526,-1.0202136025401276
12.26,12.824184231134044,4.202481353027675,-1.6944125985895901
12.27,-2.403744897688157,-1.2046753553496543,-0.2557964048173646
12.28,-13.402047633628095,-3.744967187946345,2.455068038742315
12.29,-2.524814815141101,-0.3858393168878963,2.423307230510179
12.3,10.901720669188675,3.530417574479414,0.27843208747060993
12.31,5.7677322149662285,1.869773984976596,-0.28425508787304776
12.32,-10.216689297282919,-4.161428410043637,2.1179769625280036
12.33,-10.18778306934535,-0.3691494611776528,1.7409649605594535
12.34,6.495322153995108,1.6167997780547256,-1.0291978079160158
12.35,13.26995888585992,3.705471892034198,-0.9621850928365293
12.36,-1.3813581643240962,-0.43129332014072064,1.4261854144311092
12.37,-14.041077553455754,-3.6405753109636527,3.8049724473134994
12.38,-2.2923773726586902,1.054207611162101,2.4135718074543617
12.39,11.098033519781513,0.11561545462905994,-1.4175481475456204
12.4,4.89876588911289,0.8578023141237614,-1.8929143971431703
12.41,-9.066496104040958,-1.3452868754099083,0.3286686339279392
12.42,-6.497013248267522,-2.0176179905391827,0.03485800104486121
12.43,5.078730404448493,2.1754042664152022,-2.2934140974060315
12.44,5.686173508803496,2.8750928889034437,-1.3939126286759225
12.45,-2.7914175139138107,-0.18234274929895639,1.9348872123740157
12.46,-4.0200696403366925,-0.14714972097326007,2.2658775338708965
12.47,0.8650783218585362,0.6523164847354401,-0.6874172998431219
12.48,-0.9016770078182872,-1.3478094252984096,-1.7165774689447812
12.49,-6.629017687007289,0.12853156788203884,0.20745106066095464
12.5,-2.998818264355599,-0.9920538961668263,0.6145687189491433
12.51,8.123334473862514,-1.2607524582312377,-0.9869132016497173
12.52,10.131747668647055,3.841052613492291,-0.4270259782890749
12.53,-2.818423652960824,2.036474575628081,1.968740694517262
12.54,-11.747557125203164,-3.348878323579591,2.319606316171525
12.55,-1.4680075462720052,-1.4765175378947062,-0.14188552503189264
12.56,8.6919900367452,2.483477609957644,-1.420987196623361
12.57,2.720950477290374,1.8779243268713441,-0.5619107950185489
12.58,-6.946912215685601,-1.3263178258300545,0.34783688911256
12.59,-1.8962283006979577,1.1696921545521293,-0.24115231983111768
12.6,3.644029490843638,-0.8673897590752467,-1.2883193852146326
12.61,-2.1935347372479774,-2.528967280944478,-0.17748012846585315
12.62,-4.507034638228042,1.07324103518938,0.9429957648412236
12.63,2.059176285943553,1.5150038257819183,-0.023297966638178316
12.64,6.449651954939192,0.2201062972349822,-0.4996791104093068
12.65,-0.17220038767236523,-0.0072419768461700175,0.634424570656288
12.66,-6.438637129956576,-0.6031326116039616,1.327564382086721
12.67,-1.9885356385549222,1.873319748362454,-0.2825567777706516
12.68,3.9012323910298217,-1.9790016616304285,-2.1395761435202294
12.69,4.921995953551271,-1.0868831344118506,-1.1148415697560665
12.7,-0.4935966085539423,3.0084241481014007,0.5466636438918967
12.71,-8.055615706129318,-2.3426549238604766,1.700169041672021
12.72,-2.7131909613654495,-0.3200538620144168,1.1931676835780167
12.73,7.054953019363871,0.5165891461910366,-0.4754500025207184
12.74,6.209624558295648,2.497489258035918,-1.1563413520749988
12.75,-4.0456430925857765,-0.7772435166838326,-1.267517396542611
12.76,-6.243949716804422,-2.1173549362495243,0.0972206611244749
12.77,2.251925335106999,2.329522230166958,0.2527422255090407
12.78,4.6365048939204385,-1.3460131629031864,-0.6047765942157516
12.79,-0.7907413166498601,-1.2403068302583484,0.8553560097601093
12.8,-1.4251221864304593,-1.1634024822502826,0.6152195606696506
12.81,2.8308725088733917,-1.0029900045417146,-1.5364314149197982
12.82,2.139590684521186,1.8870232139190455,-2.477247694577825
12.83,-5.764869004829031,-3.360816523206034,-1.1439463974967028
12.84,-6.010240054298933,-2.6384656886892985,1.0139131298377442
12.85,3.1398640669500484,-0.5605783721624558,0.01199051165862154
12.86,10.24905485669656,-0.20976451029384202,-1.5236568368291536
12.87,7.296647253715007,4.892050223350176,-0.3775263883119412
12.88,-2.6901925047490494,1.0433881415117245,-0.0006147641630301065
12.89,-5.490993597753748,-2.0452585190977404,-0.735023551954775
12.9,0.8178767143383484,3.142933455231781,-0.7484079284177649
12.91,1.1281513232280997,-1.7098341745902523,-0.4228964441505985
12.92,-5.128472869136057,-2.8079915767530865,0.6811624298703182
12.93,-4.2776140527683175,1.4386959822116423,0.9139623508338522
12.94,2.411548473208812,0.14329821682108418,-0.9803701893733705
12.95,3.797570350222204,-1.4943673049347457,-0.43710243205268073
12.96,1.441454205141628,1.7723070310823696,1.666432192300461
12.97,1.165161791598151,1.4247633578174133,1.8672078717443406
12.98,1.807768207088484,0.464524508801422,2.1126184790206457
12.99,-1.216742914433654,1.4372146768285219,1.7160717755300492
13.0,-4.7458894859160585,-1.1360561704833254,-1.0663342074479385
13.01,-3.3591657481234622,-1.1185868288878402,-2.7316160998482917
13.02,0.031856584780686634,-0.1753050218852535,-1.6009578017890338
13.03,2.1529287183420567,-0.30591161236905595,-0.9703377270131787
13.04,2.948858201700517,1.9759714213062327,-0.25450034126209786
13.05,0.7834724799561118,2.4727949928898387,2.532964725086526
13.06,-3.281813881266361,0.4565162706069973,3.03137102502152
13.07,-3.9798006775589796,0.26392828259982914,0.3318552147071467
13.08,-2.240695421344494,0.9750838606335271,-1.3989386780332844
13.09,-1.094515966983414,-1.6551631024381501,-1.7146927998221275
13.1,2.0711129983377194,-0.7455328524319674,-1.8054853014178545
13.11,4.711409280191444,-0.4237005797346796,-1.751945146814824
13.12,1.5455531742859652,0.10524142381018305,-0.5179340720519164
13.13,-4.29913256412,1.9668788627295537,1.1255350563383506
13.14,-4.85926546503387,-1.5257252742448744,1.432565119868551
13.15,1.1034883497159476,-1.8838920004409128,0.5541876930312886
13.16,4.49267282602514,1.3741795138467912,-0.48408106502756476
13.17,2.508154040541931,0.7375004854748786,-1.5083755008973296
13.18,2.3081000127538944,0.2486003401704548,-2.1894980951408427
13.19,1.1328149814509252,-0.14704160338097788,-2.1630972107383486
13.2,-6.653163063730944,-1.140028118980387,-0.8264360682236639
13.21,-6.85412126429805,-0.32252116190149166,0.4957895310655164
13.22,4.9289394911265925,-0.19737363633453633,-0.1051332518050758
13.23,10.447919213814302,3.583911958182973,-0.9746981989207293
13.24,-1.4479130697902827,1.4545415886273692,-0.3109551483504171
13.25,-11.959636349123079,-5.494509970182626,1.2675283103945534
13.26,-3.8486980856938877,-0.1364443469521881,0.44354323683135943
13.27,6.510904206429271,0.8699079596047247,-2.367097801188936
13.28,4.813147144622018,-1.9778429175401664,-1.4283000149763043
13.29,-2.5337438415803355,2.147152762475989,1.1690958267310627
13.3,-4.518096541872196,0.8717010895790143,0.7106109968615107
13.31,3.4834496581083094,0.6214910005125849,-0.8474201726229644
13.32,6.888644269673725,2.800128012349604,-0.8360399944717483
13.33,1.1926404359859026,0.20035037896391436,0.4331683381639167
13.34,-5.564217872772709,-1.017830791664635,0.9587040275947832
13.35,-6.799486317428151,-1.716566279917613,-0.06461974866224929
13.36,-3.001214557165138,-1.0718277079577998,-0.8119664765261407
13.37,1.4292327161093512,-0.42309273988275037,-0.6984857414158213
13.38,5.132366869742892,1.4808683400999718,-1.2964724778361938
13.39,3.5926988741224224,1.3734269653727615,-0.8681362282217895
13.4,-0.21877458547855844,-0.6065049747542031,1.1985960472817767
13.41,-2.945920995720522,1.333847863285299,1.8379242791837729
13.42,-2.1114923318231043,0.7266343477148163,0.7355383421585466
13.43,1.9567856476416674,-1.0600640753114203,-0.1826784761506566
13.44,2.5335496973343843,-1.1775439432697041,-0.23676639244784298
13.45,-3.1925041282408864,-1.7121852314513424,-0.5798886245782463
13.46,-4.42864268878849,-1.9280700957402612,-0.18507320740901506
13.47,2.131229600785866,1.9356763422500287,0.3518536341726907
13.48,6.245443501737974,0.49540951449209086,-0.6758456579718696
13.49,5.197242515462092,0.6914873866548369,-0.8472160659352854
13.5,-2.52942193047966,3.0264721652236783,1.6631386227598564
13.51,-6.109973888396546,-1.249286887615187,2.88326280111743
13.52,2.655622292657089,-2.2914270594538824,0.3209787920658577
13.53,5.912645871051508,2.821210878525609,-2.0398355517050146
13.54,-3.169428775575812,-1.1468502151001678,-1.4478762659970446
13.55,-6.349490272139302,-2.6920242217291683,0.07054701491664074
13.56,1.1845977504141534,0.5175921893377868,-0.47809764930264365
13.57,4.553954064856582,1.4489727434552804,-1.8180988436223948
13.58,0.05121650844146785,-0.8924167100708242,0.20622792044049643
13.59,-1.279787781971928,-0.10950553669392532,2.4639908598268425
13.6,-0.29548337466762986,2.22494082691956,1.1502671777490006
13.61,-2.359208618089798,-2.4996832370153856,0.013337872564277155
13.62,-1.8412597380597993,-0.20674478972634713,0.7032569215792558
13.63,-0.6461830036749476,1.078333603653763,0.070298887673254
13.64,1.2108505842385893,-2.283860751092511,-1.2584891558418592
13.65,2.096898913186162,0.4451892878418355,-0.9190230315021354
13.66,-1.361083589695886,1.6114669675336375,0.3717143062081585
13.67,-2.637989253331774,0.22633602958837282,0.7988265054468088
13.68,1.0895174715733735,-0.6117540259175033,0.0017931140957841499
13.69,3.295926519832427,2.120214921472037,-0.4861869475665561
13.7,-0.5277941767586665,0.2875750207122405,-0.8013291099863824
13.71,-3.3801941029406226,-1.2735255923991555,-0.12729948052931409
13.72,-0.48297305858848505,1.9006030116717307,0.12007024824617636
13.73,1.8835810583950658,-0.9917122970148287,-0.21816885108416761
13.74,2.7188793642880555,-0.5600060174240538,0.5186742488917836
13.75,-1.315491922992105,0.3866644016471528,1.7102976004537884
13.76,-5.061914035877924,-1.4577736271237147,2.2475656596730835
13.77,-0.2922112210721027,0.5139826767808315,0.6070577600610078
13.78,6.22937011387913,0.656714516532403,-1.5974986712753587
13.79,3.9383021433591496,1.7388835017433626,-1.2229140620225853
13.8,-3.436364716092919,-0.6279289262473797,0.15458998118518855
13.81,-3.325683711597242,-0.6845066078144945,0.32282590784531234
13.82,-0.034371105934468925,2.6827477938269784,0.440295175914787
13.83,-1.6004119550904876,-0.8399363742609339,1.6115694875182849
13.84,-0.7942188621908733,-1.3052484169332221,1.8010015576432754
13.85,0.6216549679839469,1.399079910228869,0.8071354408401282
13.86,-1.0749139480904912,-0.1825813047696575,0.6333146880711131
13.87,-0.008728010568692636,-2.093140251499914,0.8175772822606909
13.88,3.627407447965219,2.905964029290501,-0.13488508798844032
13.89,0.20751048788326235,0.9897198506968757,-1.2344542678344117
13.9,-3.681076743186967,-2.011793612402596,-0.14704949803405565
13.91,-2.1197116535943232,1.4816898895645143,0.6244436578900799
13.92,-1.4554342642122222,-0.8640661651406736,0.32380299443843763
13.93,0.09766444936653092,-2.6753432482473642,1.4495648153558056
13.94,4.470322390224202,0.3357782199676753,1.2677851198894352
13.95,5.589744973085244,2.433370924968264,-0.241813996061152
13.96,-0.04642947791767945,1.1829000276832375,0.018469929467098977
13.97,-4.629575474264243,-1.366738360591638,0.8863835211029393
13.98,-1.7581079826539578,1.7447655673435851,0.6580982399866095
13.99,2.5579608833068357,0.05295363618986998,-0.13789811592878745
14.0,3.0718610931914587,-0.45715487833507296,-0.17377030218750394
14.01,-1.0649266625096168,2.6613526980853455,0.4587642255568754
14.02,-3.8727638746154347,-1.5385679509151182,0.40333059588140013
14.03,-0.3772828899304288,-2.5418331622156463,0.7869046753027871
14.04,2.806750721068355,2.114125299144196,0.14075256422956103
14.05,0.9791235319652415,-0.44146197991871033,-0.15238528670453533
14.06,-1.2183569440367894,-2.0405126181406317,1.7840500763928318
14.07,-2.732559142990597,0.8339653645278561,1.5254074532719117
14.08,-2.40656250979172,-1.95702860952411,-0.07894614702483518
14.09,2.8459828899142785,0.11266383790957796,0.2569934765949913
14.1,5.620588365389493,0.8245157717548353,0.3880447085752513
14.11,2.790389712814494,-1.3341077951184597,0.4453368443628511
14.12,-0.35005983710074334,0.16374759195206953,1.0267448421087932
14.13,-0.5617834892600623,1.52215203203144,0.8517720466711423
14.14,-0.027393528140409417,-1.0886650014669015,0.38494311616709664
14.15,-1.674316753102747,-0.4550360157068841,0.662759058648849
14.16,-3.974865991134227,-1.3246271847449977,0.695956683289163
14.17,-2.112910059916242,-1.3128376878912749,0.2864629320489153
14.18,2.312399033746576,0.7115502621187704,-0.7508697022481697
14.19,2.583936944780467,-0.8862456936276782,-0.004165273877286762
14.2,0.00883702117208086,1.3980030993033157,1.2698097513228597
14.21,1.6725731712539602,-0.4192952707391283,0.7302420004283553
14.22,4.614633242946021,1.4587456722193266,0.2812087835549812
14.23,0.43832031310072267,2.177030906700888,0.15612819165790687
14.24,-5.725200917423222,-1.2281260035477013,-0.595182022186747
14.25,-3.9175702198954734,-0.4385442052129279,-1.5180954365757582
14.26,0.34976659486580086,-1.5548161238243274,-1.3415906033798968
14.27,-0.9162146476513835,-1.405689797175176,-0.6564238888838965
14.28,-1.9270027643973084,1.4559490295872288,0.30182088176762456
14.29,2.188647037215472,2.1805522521432543,1.0524966052500495
14.3,2.8190497939828147,0.014766160020323015,0.6685208160536057
14.31,-2.475624381749475,-0.3795156734199234,0.04718952825494158
14.32,-4.28144732397442,0.20764247048492157,-0.23387292543037383
14.33,0.3086645024508482,1.9128739619147435,-0.5094777544058199
14.34,2.8737965343258134,-2.0684681000280105,-1.3989265373668869
14.35,3.31618255607189,-3.5890439254944373,-0.8268421034110173
14.36,2.95342207865771,4.779920962142042,-0.41990254213222394
14.37,-2.0707953867622995,2.0210787380559134,-0.3373341327209842
14.38,-4.665563949997946,-1.9718825174815453,1.3771947275921281
14.39,-0.717323297406571,0.8866887816385444,1.9023473753624769
14.4,1.6874946362932486,-0.08324871360140228,-0.4523554739119218
14.41,-2.9280615325624204,-1.652838331892435,-1.4734273849500217
14.42,-4.6273817811018585,-2.120480144756375,-0.7310156772472733
14.43,2.345091302540019,1.4295633352526715,-1.5350738667109245
14.44,8.084285373076385,2.319944351865573,-2.4948435507688935
14.45,4.7872446308607435,0.29889071634629016,-0.9621506717343264
14.46,-5.155855103736711,-1.5524502272826854,1.5722004937886607
14.47,-9.37186482651668,-0.12727278923927887,1.5163050096700363
14.48,-1.7766943541462556,-0.8000322799771238,-0.42023800239990905
14.49,7.891526320314971,-0.5763353782120407,-1.0849601312417494
14.5,7.755460569767467,3.399178054837854,-1.040965002555979
14.51,-2.8813411031046763,-1.028469924723834,-1.1082029231428379
14.52,-7.90846177647496,-0.8378222718086348,-0.09145755045891549
14.53,0.30246079305860096,1.7863827274805668,-0.9330591081473234
14.54,6.6983321759032854,-2.506174886873168,-2.9166604127863596
14.55,0.9998658678039578,0.9927066131988463,-2.7500689708852826
14.56,-8.880027676200736,-1.7930299419180207,1.266985554921463
14.57,-4.068495489652404,-0.5628015015541359,2.6758979884500143
14.58,10.689573357111618,2.7425726204962944,-1.3147460371554056
14.59,11.410919857374655,-0.5464340596562666,-2.5251007039285627
14.6,-6.280722373793948,-1.1263803889707371,-0.006471526557669462
14.61,-13.114480157098019,-1.2910698905676499,0.4131453507638101
14.62,2.1790333550063714,-0.010375981582686659,-2.4142647121723844
14.63,12.034490635126618,3.442394384927324,-3.7627451143939887
14.64,0.4046640551886417,-1.1708325525185475,-1.2669337644094956
14.65,-13.260454740165237,-4.554977793266761,2.0779863103810503
14.66,-4.020487381504623,1.2144792178944575,0.45483261359163174
14.67,9.194490793184759,0.7935189658782399,-3.6284962245351378
14.68,3.552166457184915,-1.7590782686555968,-2.7146554771516933
14.69,-7.228478192584224,0.9640358988704666,1.9702340947240944
14.7,-1.3415392931964716,2.3914942846564164,2.7170702434757072
14.71,9.521686087229865,-0.32353304894911916,-1.2722769116456394
14.72,3.9091813251705183,-0.7417461137427831,-2.32089778920001
14.73,-9.743714255832387,0.04288895894971801,0.27073049895533113
14.74,-7.622426546024732,-2.053816503670302,0.08433764957007737
14.75,6.956352474867912,-0.7117493708833575,-2.65931636721807
14.76,10.662829675502628,1.3580828136823206,-2.4890734408520694
14.77,-1.7471288236323004,1.4165141806532742,1.6107163635064956
14.78,-6.8418550259217055,0.05169715341866711,3.324386792271581
14.79,1.1927779536585956,0.9086964848403862,0.45723049586263187
14.8,3.668447972122102,0.23564245137679765,-2.0860340353449347
14.81,-3.0233435965512214,-1.187582916930967,-1.4979836538187516
14.82,-5.583969642275977,0.09952686308323237,-0.05502956454028445
14.83,0.6395244774023502,-0.5862467160010565,-0.0322275598209856
14.84,4.726391399545629,-3.671066625219134,-0.884426755562459
14.85,1.8459604283840276,3.5419077524682643,1.085676139506133
14.86,-3.7246952112242564,1.5446617900566117,2.550378562139108
14.87,1.184219013612905,-2.7359181193118833,0.7329221694287442
14.88,6.322885586761407,4.3687437576352455,-0.8929997549364148
14.89,0.10375304840544736,1.9600964731685244,-0.7943010413210496
14.9,-9.886398927882286,-2.650211109122497,1.3114598176510615
14.91,-6.5495079730233785,-0.8468398508612945,1.1429749175011037
14.92,2.615544676455281,-0.47085126419154166,-1.0877921980065965
14.93,3.3582471402388623,0.1395365301034818,-1.0017793088341034
14.94,3.1981404165696516,3.2947370279679333,1.064861408286631
14.95,2.338995431631512,1.6619378684665425,1.6803633348538756
14.96,-1.0384125291879254,0.44218134143850235,1.3550819337142024
14.97,-2.9379602360094297,1.6086223533278854,1.4788852588870434
14.98,-1.107470529693217,-0.4241342558459304,1.0170984285816047
14.99,-0.4554528952338111,0.46978804824651277,0.9077055884072666
15.0,-3.3735165528714317,-1.6166011345104525,0.2023119845360398
15.01,-2.5059249034599946,-1.613913439719154,0.21594470255365003
15.02,2.6676425377145225,4.431995386297427,0.6927782454369714
15.03,4.4329243366065425,-0.2928611619932853,0.5855062098406545
15.04,1.350472617338883,-2.821898417110621,1.1620075565818182
15.05,-3.3885307614843283,1.9515564211556018,2.4103189529685016
15.06,-3.629219977474204,1.4704999896765998,1.7546655987729145
15.07,0.3115330624950481,-1.4700880110134573,-0.7705643906275864
15.08,2.7821693661582305,-2.7245426355553772,-1.6920440343804208
15.09,-2.283207130818334,3.228529564796139,-0.39840380204635467
15.1,-7.584801425684172,-5.526846775917955,0.33127438755186694
15.11,0.15238122642627527,-1.0144454774118932,0.5262138948509355
15.12,12.211553723245924,5.930528700047365,0.7122455723137625
15.13,12.09604806845796,2.230727733280793,0.4497600626975961
15.14,-4.671120123096858,1.0675589493631028,1.0462920640754498
15.15,-18.499768161451325,-3.875282446068997,2.1771718082567824
15.16,-3.8763621194552544,-4.372485508249047,0.7164868271150061
15.17,12.770648781637512,2.6600606413392978,-1.4225943560664511
15.18,9.652924381069603,0.9111975837944506,-1.9285424143915135
15.19,-4.044236790981009,-2.807081631024178,-0.08721663587652967
15.2,-8.165727765015802,2.2235779811119287,0.7691425773454019
15.21,-1.1065789082045117,1.196931343704567,0.21914998004087266
15.22,4.910774780831701,-1.638828832054166,-0.217991674708217
15.23,3.886799231026221,-0.8639624495248123,0.293120405090124
15.24,-2.0811939423424213,0.8752122844406393,1.2259992419351444
15.25,-3.8552602229921464,-0.8171274278204799,1.7055525601329344
15.26,1.3597679486875276,-0.01648601739821206,-0.2959689925382059
15.27,4.819815350514897,0.30995812955658886,-1.7391520747727243
15.28,0.7081519307014473,0.368046479787151,-0.4726588142210727
15.29,-5.142081526073769,0.23129927402409506,0.2242773222637033
15.3,-3.9968607841228705,-1.001205883735207,-0.34129917969266355
15.31,3.344805852472668,1.4784153608103618,0.6497563662715006
15.32,2.3551798817709773,1.524363715081178,1.3096758117786946
15.33,-3.7425914781585226,-3.259471475941547,0.4565550463038558
15.34,-2.619306265673795,1.137185404161959,0.4246188660044115
15.35,1.7546811492154433,0.15465081184265553,-0.6948545184277295
15.36,2.1814224005772775,-3.1094034562492183,-2.6239613978748717
15.37,1.7397907640654007,2.3703662498627454,-1.7068906669528998
15.38,-1.0215245182120256,-0.3293280514931682,0.10207183108834496
15.39,0.4850122394357206,0.8145947390867531,0.7580358631036336
15.4,1.9323886585433672,1.84371791231979,0.9559321852038078
15.41,-3.07550325778549,-4.074359640427586,1.8330356746849725
15.42,-4.69072426615159,0.9898181555162452,2.208943035496972
15.43,1.783034933430587,1.0264396509609575,-0.29170843987988776
15.44,7.305782372503201,-0.9073678561624894,-2.4790703328036265
15.45,2.922342160717698,1.2127674303973246,-0.7633868547165717
15.46,-4.128470403204613,-2.037113740110978,1.2137497434208946
15.47,-2.008888754796779,0.7236312000733943,-0.05696526318518356
15.48,4.147692972819021,0.1581073438904689,-0.7218364998019818
15.49,2.5482443004508926,-2.3252740054844825,0.8549116755514928
15.5,-3.8413153238224713,2.159619488905543,1.5801108079863015
15.51,-5.3027796472188715,-1.453594436519764,0.9703985696897477
15.52,0.6650447435212627,-1.6194338242729034,0.6804712857173945
15.53,3.5738807304646403,1.901741913248314,0.5926549546303714
15.54,-1.6632996826119428,1.0235672434394878,0.8161047541492128
15.55,-0.345802435805189,1.1573635808781224,-0.05903782669163434
15.56,6.036259358028812,2.13031545236558,-0.2726771679755847
15.57,-0.7595650059291486,0.9673631834917108,0.42743111069997236
15.58,-11.83215796748904,-3.715509938337071,0.18003154604274912
15.59,-2.4467308738947873,-0.23929638304231565,-0.06164365445344628
15.6,9.614647327619503,5.466459154651764,-0.8588779097417535
15.61,4.925576096257559,-0.47711987668913214,-1.082501181163107
15.62,-4.745508377010561,-1.7098450015250568,0.9518589909678697
15.63,-9.209921473290393,2.8600297310656493,2.236918911807739
15.64,-2.884197506991511,-2.1614232865739473,-0.4357761898718129
15.65,7.30708403622585,-1.6963132093564655,-2.759689500044178
15.66,6.745987821418674,3.646305870956141,-2.527782886108316
15.67,-4.983073391332018,-0.5297376127586048,-0.9816789872358482
15.68,-7.356850334851738,-4.0751808752169305,-0.36616632190483234
15.69,4.378970250780477,1.0486341595341397,-1.7180053041267012
15.7,6.650157841507509,1.0137005927933238,-1.184437376151229
15.71,-2.7583231279021043,-4.396763577013819,0.680690632579242
15.72,-6.1995437695442055,0.19381826028633856,1.028115352666753
15.73,-0.11284053533457554,-1.0192268823766804,-0.05458826706689052
15.74,6.008266498708393,-2.532239967714046,-1.5606017224105093
15.75,4.130817643397155,3.2326838698396143,-0.40816213000868534
15.76,-3.316219878952576,-0.35710807034581393,1.2593123386525986
15.77,-1.761215498301054,-2.285669635562192,-0.5626342787194875
15.78,7.01906148306546,1.6744920537531351,-2.6520384089254416
15.79,8.386599375200234,5.8762077891947575,-2.7826825711974688
15.8,-6.855951572476439,-1.8580103059978044,-1.8944174200834334
15.81,-17.658885781488696,-7.4909218453989,0.8920146775152461
15.82,-1.9640300146864837,3.125106655453684,0.27219282186084237
15.83,15.87906343350513,2.1596321551529107,-2.757547900320228
15.84,7.476921155252574,1.8067764960800339,-1.4285447074788826
15.85,-12.586264300674095,-3.1718272179881217,1.560873033128334
15.86,-7.245552239708573,1.4691328574889704,1.0254949560794007
15.87,11.553387943019946,4.986468093758947,-1.7567015615178696
15.88,7.695268287938044,-1.0238413661938721,-2.2420749515920075
15.89,-10.902730763406902,-3.557853259482131,1.21740675617025
15.9,-10.077531266413505,1.222637677122135,2.4094005297867387
15.91,6.576632807041562,1.6996827731965767,-1.3096763590594047
15.92,10.226215934324195,-1.9860564076509672,-2.9081520886065904
15.93,-5.123338881333338,-1.9374517338960435,0.6134023106406472
15.94,-14.118282588239849,1.278927707520351,3.724504068836746
15.95,1.830480669846113,0.6930798285852162,0.6184807461287525
15.96,16.723218881309688,0.49126141159209025,-1.5651150343095674
15.97,9.541481978279204,6.720659155468575,0.49443866446019313
15.98,-11.241431209490216,-3.1142915552775277,3.3881414820957527
15.99,-14.810538338169092,-3.9143729892942614,2.8244953773985317
16.0,1.595448684559314,-2.066013454487723,-1.5363953248347209
16.01,12.720375978051857,-2.275225792358229,-2.4957515449961654
16.02,8.090968309822696,9.221373461655086,0.6798051535042555
16.03,-5.725546255777143,1.7032431889068622,1.1540337476908096
16.04,-7.60144146922294,-8.954216413940086,0.7575457141782587
16.05,1.8694892014640534,4.731722329976892,0.6613136444479139
16.06,0.7903342431437586,0.8904667317406362,0.4251992490241227
16.07,-1.6479650767888707,-3.358537539807915,0.24750202520602194
16.08,1.6405578626567565,0.23495759264481075,-0.23021938443679227
16.09,1.4623906968078633,0.05943454977561716,1.0439641148333225
16.1,-2.3231209099050667,1.6684632385329545,2.279835734666957
16.11,-2.5200855863788494,-1.5611817874496605,1.554825643518219
16.12,5.086331546683059,0.7980473490690964,-0.7057880210790978
16.13,6.9646514154784365,3.5724090908612305,-1.5889664740160725
16.14,-1.9918989752934793,0.12735278479264625,-1.8782679977086558
16.15,-14.411194167227839,-3.6261915636978053,-0.7467364342411443
16.16,-11.484818987731108,-1.778480107820839,-0.1490578341841681
16.17,5.8526820716124055,-0.1659518029802508,-0.8990914711256096
16.18,17.30273908647153,2.2408292587728313,-1.903230992543862
16.19,8.861856813802271,1.3751721564089545,-1.8592915716551772
16.2,-10.975532585478073,-0.552909839553731,0.37040753945485916
16.21,-13.53897343128579,-0.569772162109069,1.0294243625720156
16.22,4.361066384729148,-1.5097549666979304,0.04598290089839818
16.23,12.430133635881932,2.4716748818311993,0.6176007458832184
16.24,3.724098631353465,1.9913293084793389,1.8500383476558768
16.25,-7.784436827318285,-2.1707484834180932,1.802641327019844
16.26,-8.89295736453534,0.6730507409500879,-0.4234496332027612
16.27,-3.462038598252484,-1.3042088413038373,-2.045668460826273
16.28,0.9319496193704059,-1.9126305017580527,-1.1726816366898651
16.29,4.906239924560312,2.2441567805071077,-0.4561969299369132
16.3,5.229991143784365,-0.5645137139410775,0.8440076476701913
16.31,4.022931883132517,2.928492380578284,2.5383138100423968
16.32,-2.432291498865556,2.369621176788486,1.262455701618708
16.33,-8.854524583594982,-2.2673242451572455,-0.14886097207059265
16.34,-5.406905704989764,-1.0306144195567248,-0.02133640539081193
16.35,3.1465196808544333,-2.2541644990632217,-0.43232942725778445
16.36,4.106695452834878,0.9813078638504336,-0.2514927597365791
16.37,-2.555874962068267,1.4177894582499828,1.4842545016420465
16.38,-0.9727231663551348,0.3744718285130657,2.6618461155436126
16.39,10.141065068422702,3.9247141874843203,1.5302782337750662
16.4,3.9901637217384653,2.7225712974877974,-1.258459942031058
16.41,-15.016529135526433,-8.428290535109507,0.3287614905619341
16.42,-10.104979276998755,0.340003116542298,1.5683833869012207
16.43,11.137981803916034,3.820718815188237,-2.176528840728409
16.44,15.533879506079312,2.6060915407820673,-1.9313177581905094
16.45,-1.4939309733009114,0.1301399851828764,2.413445719552024
16.46,-14.797618046910868,-5.7417760018004556,4.407525080175484
16.47,-4.186357187231301,4.334666046284145,2.6907995601679193
16.48,7.194983955177843,-0.6730509460640701,-1.3515944198461136
16.49,3.4747551635809004,-2.8995591369138807,-0.0033170032080977806
16.5,-5.6781674603001795,5.916249100316758,4.337548024308389
16.51,-6.006905168743986,-5.060000059623049,2.3628791956350463
16.52,7.702724518143725,-1.4791950822831834,-1.900257643415213
16.53,11.364875855104517,6.561309328495801,-3.0141482740598993
16.54,-0.15433845699267784,-1.2456517791229516,-1.240685023918987
16.55,-10.374620748802707,-2.213828553960885,0.9307510805833887
16.56,-9.164721614115148,-2.7750542377364207,0.8097043251570395
16.57,3.4832555542355976,-0.8825622145662662,1.5642622760028833
16.58,10.417857267904015,3.548914635239555,2.4471235085149594
16.59,0.7303996664505944,-1.8043934401737443,1.2382382961288285
16.6,-8.157789580218774,-4.579219670049027,0.37340479269104065
16.61,1.5825051685791995,-0.09688522384481717,-0.5750694641699554
16.62,11.588474780993522,6.811546383301787,-1.522571383438442
16.63,4.953666234147816,3.0293497574877066,-1.433590246189933
16.64,-10.490961826100913,-7.1470542405488855,1.1225763443831216
16.65,-10.555544115072877,-3.416414501977167,3.42934099801844
16.66,2.6756829333560272,0.37198185979824355,0.3430700804179216
16.67,8.649127435691435,1.2225097359625485,-2.7427218962723123
16.68,3.65003420583985,3.634468052995077,-1.882115410906645
16.69,-2.2575784514612747,-1.5534398733195869,-0.6633566050997874
16.7,-2.499778025447372,-2.316442775085894,-0.025902293096710445
16.71,-3.5262958104579383,1.5182027471633004,0.15765926941922523
16.72,0.18588622170708533,0.5925735445630168,-0.24384384463797404
16.73,4.80141894312439,-1.4872338169200188,0.7779901033083092
16.74,3.389249209915808,2.1682344839273835,0.528367843088518
16.75,-3.673236339302063,-0.040083819895389894,-1.198253838077596
16.76,-7.713614394931636,-2.632386172513188,-0.5500052552804784
16.77,-5.344645589612259,0.6118429124662839,-0.8663348458457356
16.78,2.0751601207633894,-2.2830374079781004,-2.158090002306028
16.79,9.418438268547542,3.604952441288101,-1.608169701754931
16.8,4.63432465224679,3.2322475016706655,-0.3359324449583553
16.81,-9.270037450090394,-2.9619964208906002,2.0622683597854574
16.82,-9.330167484183667,1.957491956888543,2.4081671068530675
16.83,6.199427936448357,-3.429367926504769,-0.9143994950324881
16.84,14.81457530205094,-0.10459074242655404,-2.0504940560186045
16.85,-0.8185938654476004,5.074966485827912,-0.8034571807583858
16.86,-16.6804680096184,-5.6413350722291975,0.45907067942387497
16.87,0.430525740294787,-1.1940130400685054,-0.3196115289442091
16.88,16.557845031478504,9.133258495166253,-0.30592309937854273
16.89,4.013679881014546,-0.7586861815475668,1.4388854334499215
16.9,-14.986096112655597,-6.030842962452325,2.4182953440024075
16.91,-10.145098844741012,4.667906110674939,-0.21517271666070334
16.92,5.040789830935088,0.1847291408880188,-2.893203802561792
16.93,9.313304830312997,-0.3155174200788092,-1.9781083105271373
16.94,1.827576226220478,3.871345519678158,0.09699670750436495
16.95,-5.6619129384946305,-5.8196266325297135,0.9411440578240156
16.96,-2.550174784817163,0.23608474470817065,2.156179197109958
16.97,0.6230906657123876,0.7190732187672908,1.4852732512704327
16.98,0.08078506034534672,-5.2049019943775505,0.782107676798732
16.99,3.6141568470950847,8.691247928739376,0.774016953591357
17.0,-1.2915759164428586,1.1232420749614735,0.028642278255527287
17.01,-4.408226817892642,-9.617388292007117,-0.5219454806338073
17.02,4.074095861270735,5.0451539604666875,-0.5854230437254927
17.03,3.0234392851508747,5.198181229101583,0.09862894578255349
17.04,-10.563116417191962,-6.767238941788301,0.91039495590829
17.05,-3.6316130624814913,-3.8231538048142344,0.78304782645545
17.06,14.122524301856496,7.6368411995750565,0.2070040188867096
17.07,11.721304204970806,7.1162973784088885,0.7791028480303298
17.08,-7.909523665357856,-4.552786673443095,0.8185737985394399
17.09,-15.785517978891638,-6.926035921916307,1.1519670516955978
17.1,-0.07536892136623866,5.928643769812506,-0.1533756337211835
17.11,8.056744089944566,-1.5470954510093606,-1.4179428475114761
17.12,3.5945292239310933,-2.2849784870993197,-1.122110205636426
17.13,-5.079890972096146,4.872717063270563,0.6558087103836217
17.14,-7.5993115525678805,-2.4333370959655616,0.7167966552637515
17.15,3.005996552669301,-3.377779235589109,-1.3487483793492385
17.16,11.128717947283183,4.309962336700631,-0.6711177884579804
17.17,0.9217673794429135,1.7603516269164587,-0.12041491549634967
17.18,-11.211229238866219,-6.761728021773545,1.6815519141151476
17.19,1.8080176776764714,4.333171505231014,1.1838750002592078
17.2,11.087954417583191,1.6575062263242437,-2.023547356020723
17.21,-0.7566260356592248,-3.175304470307705,-1.3347826121563346
17.22,-10.949765462220025,1.9578403044631592,1.9696217713638768
17.23,-3.5617320136271706,-1.3585365026390863,0.7664721454283482
17.24,5.7797264450217405,-4.861144529908027,-1.8912418871795653
17.25,2.805587286015199,-2.1199380397724137,-2.021557042969507
17.26,-2.325082421839804,2.391701097788093,0.1250074757723529
17.27,4.280805862607563,0.5745070916099984,-0.06672439071399512
17.28,8.379750615313673,-0.14934955826607918,-1.6913253972628182
17.29,2.924553436900416,1.2654527183628246,-1.2639207755514024
17.3,-5.5803544603961095,3.599853288358946,0.7340186842193605
17.31,-8.475969985894297,-5.172919174744142,-0.06414492419166591
17.32,-0.28869093262410445,-3.6017582567890654,-2.7541263882306457
17.33,3.620479782503256,2.012575784230466,-3.3766701508345345
17.34,-2.788226074231378,-1.0817325198778553,-2.328547492038899
17.35,-3.47069271042297,-1.415175712110208,-0.3915632502436277
17.36,4.338094807416619,2.154955765156655,-0.36166499704529814
17.37,6.330021198498577,0.9622000377238845,-0.685580805679933
17.38,-0.8091861090476878,2.753217017819254,0.6558369641189555
17.39,-6.794271406998258,-0.9932464644564232,0.2939287021689607
17.4,-2.705493023297173,-1.1268790612143675,-1.6723232371213002
17.41,3.519539443909914,2.02560671059527,-3.0911500970774686
17.42,1.8520934544447394,-0.5775272631390377,-1.533495487457952
17.43,-1.0786343311774067,0.527551954614988,0.5501974695389571
17.44,-2.044221978585066,-1.336187389033976,0.6013252210325373
17.45,-0.7316810071415979,1.4766070125007769,0.210540901078104
17.46,1.2338982120110416,1.2686493150899447,-0.48154791468230707
17.47,2.341393013067965,-0.5315270480866194,-0.5846705238256891
17.48,0.1638318170294614,2.5036923750522186,0.5252901364286413
17.49,-3.947733833983598,-1.0148772079251014,2.0689335610856614
17.5,-1.652858700513877,-0.9913717496019,1.4720566868154752
17.51,2.906520639606217,0.2776449949117094,-0.5703608174732286
17.52,1.6076952289024846,-1.629437087960966,-2.0230687977328783
17.53,-2.808033480062273,0.3651460231839733,-1.6164237641927195
17.54,-2.9293022234724084,-0.32085603930204265,-0.08435068539850613
17.55,2.6547009323324837,0.7351851886615759,0.166491341092747
17.56,5.641905826361792,1.317906877521587,-0.35889738642125824
17.57,-0.12447667824314468,-0.13670684337286074,0.5295034580287803
17.58,-3.549267823683223,-1.0801004154056961,-0.011175664155920549
17.59,-3.4954102673663905,0.8185171424576038,-1.5082135429408687
17.6,-2.9604169698865603,-1.5786370272885752,-1.4156438270730576
17.61,-1.392051877780327,-1.9117709230163908,0.08462309794100926
17.62,2.172320959440123,1.3452999564946626,0.4396174149685407
17.63,4.695683578183075,1.8776489166466823,-0.42200078666817853
17.64,3.1641197794780784,0.3409162155905408,-0.2529218064907811
17.65,0.72432866902206,0.8721887260062474,-0.5513250120991559
17.66,-2.9478556764166672,-0.026991959637483277,0.44184427407289534
17.67,-3.339661471814184,-1.774303896295344,0.9208892848207394
17.68,-0.7124888527667748,0.1296161452885759,-0.14831949803036878
17.69,2.2157873326054918,2.752517030891556,-0.22918317812094588
17.7,2.778020966175213,2.4347049804380245,0.4346181942775678
17.71,-0.5108731894835162,0.4977668025850043,1.2465711198545353
17.72,-4.55622549408764,0.5151684441556178,1.4601129857271158
17.73,-3.7825878612578903,-1.0606798061876,0.6696602756877181
17.74,0.7939448603521928,0.7892013455828717,0.44467106871734513
17.75,1.6144669274177348,-0.1432593601568485,0.7593859856754174
17.76,-1.075449892006662,-1.8017621371358186,1.43815281681854
17.77,-0.051930759722685294,1.177570812244672,1.9365623236107685
17.78,2.8690500663097716,1.5472260460174097,0.486746714545131
17.79,4.115790467694215,-1.5227385974993406,-0.27319633947077526
17.8,0.9100498943204072,1.0011379067882058,1.2472054891207027
17.81,-5.480159026160872,-1.0359515496427745,2.332955389165305
17.82,-4.642372500275123,-2.561337218943439,3.486816602190107
17.83,2.9181467525313916,1.9633627279273322,3.463241868555819
17.84,7.024770381033775,-1.8830552001263456,0.7894556683852508
17.85,3.266377581235856,2.8245010172100535,-0.33289262631408184
17.86,-3.873078227801574,2.3635245685818185,-1.4650209244408972
17.87,-5.247773933165597,-2.608347876668066,-2.8520725775058797
17.88,-0.06477130107737308,2.079564136462482,-1.6175144861107178
17.89,0.32216212412824957,0.7552909472890929,0.6095172071862629
17.9,0.4619579548249516,-0.6089447417912394,2.9063312007306434
17.91,1.0730476260863429,0.09598897059208322,3.8107530042800595
17.92,-1.2204709598869812,-1.6272738057027059,3.5917443971361456
17.93,0.04370150396370316,-0.19481508889491692,1.9241726752780781
17.94,2.1430246421459467,-0.08341057758940999,-0.8680030996622203
17.95,0.70141366502782,0.015864968944315393,-1.499692625543421
17.96,-2.6224256420966903,-2.7717150284964447,-0.7937210762226046
17.97,0.22121056552343232,1.5068522883898285,-1.9776124784813596
17.98,2.8215946828009475,4.012035707046523,-2.77183371042113
17.99,-1.1088864588417346,-2.1747586306891895,-1.6330284693884611
18.0,-1.786516990815547,0.09317738829751955,-0.6026184431157843
18.01,0.2352162914387631,0.9948664897690352,-0.26457743449478965
18.02,-0.610212475285315,-3.2722916333003593,0.21389733615303003
18.03,-0.7987953176955979,-2.619032271911354,0.40179473926205483
18.04,0.4050720133147665,-0.46574553471109115,-0.9572752983089007
18.05,2.303804894893002,-1.5003480031041452,-3.8165227775385455
18.06,2.096395265114936,-2.3614407826709995,-5.451794910287156
18.07,-0.14606791701441996,2.9154170156901222,-4.834507777329169
18.08,-0.7958169977352393,-0.20392237642527947,-4.934828734933069
18.09,-0.3647686993095479,-5.800299150080886,-4.421785038387029
18.1,-0.3583849673786924,3.1970014612383335,-1.759766183554001
18.11,-0.6532849185032527,2.5927679710033114,-1.040119251647397
18.12,0.6664625382550721,-4.1857449172191785,-1.6633915055499047
18.13,0.9795190610353105,1.0045417800173575,0.3328548822820409
18.14,-0.036724461359588935,1.847501240307424,0.13964506426056178
18.15,0.6676306217105045,-3.074235282712845,-2.039687077426734
18.16,2.6064211675051787,0.9864220782220323,-1.144834625687222
18.17,-2.4690828861337155,2.0594537914144864,0.9547059133226886
18.18,-5.090179236065393,-0.20373147971527503,0.4269184849608214
18.19,0.2861089295617706,0.7539047077073371,-0.10248513897862513
18.2,1.9730375982706387,3.159528893870144,0.5369640383890727
18.21,-3.088252023569457,0.008586843256209276,0.2760433402351087
18.22,-0.6686329582791811,-1.2787729991839767,-0.7521610797355633
18.23,3.148478599619533,0.3833828362257201,-0.6088181657293519
18.24,2.4441637240673115,-0.6382933538484085,0.6024438724229323
18.25,0.7756505895376261,-0.5875813015035395,0.3051513203795376
18.26,-0.591470487329372,-0.1136872778075777,0.15710693126342792
18.27,-1.7512280374803582,-0.16863601377849055,-0.9248946949966103
18.28,-0.5496015442722292,-1.0646420211223622,-2.572892624849895
18.29,0.47218087898312666,2.693781095220315,-2.1168949348666946
18.3,-0.7886764136807733,0.0336930590425875,-1.801833942207551
18.31,-1.5857436416688138,-2.273639810120362,-0.24700251117649338
18.32,-0.37980992772776634,3.0094959648799455,2.3977908616662273
18.33,0.5015664266569024,-0.48046062381112015,2.095420015104374
18.34,2.989594501726287,0.6083459520272281,1.1683592203676472
18.35,0.5770216003062475,1.7705775089600384,1.912039972097531
18.36,-2.851176756173176,-1.667717525542688,1.3461412584121244
18.37,-0.5517519218761677,-1.0280660418017713,-0.053984765231020554
18.38,2.0647176375224783,0.8292691546876465,-0.8317280082152734
18.39,-1.364935784456642,-1.893040652098316,-0.9735386841761248
18.4,-1.6745695743489952,-0.33190700028166864,-0.6098449675803788
18.41,1.65562439184791,3.004272425001057,-0.2739626406564377
18.42,3.6703762772309627,0.5186082508088198,0.18069080922066103
18.43,-1.2237671009034505,3.3664906172659896,1.9493528232740351
18.44,-7.738236004042192,-1.4896819318726795,3.2307118726579103
18.45,-2.735767327187346,-3.7351457589592947,1.693363159328855
18.46,5.388372656098963,3.64338916369302,-0.5706109208708002
18.47,2.9044495452111456,-2.2348445490923727,-3.3464644435709037
18.48,-1.4613757309248474,-5.472504372988762,-2.036824871668122
18.49,1.3302534127981172,4.411478291054869,1.3665568067579557
18.5,5.978969511378617,-0.46534170857883744,-0.2054369315646133
18.51,6.061325167623785,-6.161251970639248,-1.4531422819709507
18.52,-0.739176132578087,3.276337679378171,-0.04160763265768375
18.53,-8.275441870409283,0.7692795783496365,-1.420386307992483
18.54,-5.79343514920505,-3.735220309321987,-4.30075264909433
18.55,3.4464682811781993,-0.6472763360377014,-5.63646197962
18.56,6.21301579757134,0.32440757456304736,-5.275281025831992
18.57,0.6225769068547161,0.4782909771972631,-2.722096580864774
18.58,-2.946076849538297,-0.5503183165499443,-0.22350302250725748
18.59,-0.016236944034355813,-1.4223288019549043,1.0871726365559327
18.6,2.4988456810476642,3.9252576118506437,1.7152475648069019
18.61,-3.631625438819539,-0.45848184361851424,1.2708788085850913
18.62,-6.961764258984524,-3.1084632781444985,0.2943802951426492
18.63,2.7121860638348867,3.303276828849711,-1.6158266347993526
18.64,7.804755659912267,1.3805625570210642,-3.3212035083263944
18.65,3.556554503696014,1.6599489620921015,-2.2139650188434365
18.66,-5.533053855915143,1.3753819073268594,1.1704994843248402
18.67,-7.376271769104727,-2.316130055744603,3.262361235448936
18.68,0.9721062878133846,2.5454518658802523,2.5183326786962135
18.69,3.2567436718947307,0.4017910859919934,0.0623858693313801
18.7,-3.6808072533629366,-2.8807552156061447,-0.45876681659428314
18.71,-6.647657640575346,0.4980080858763541,0.5391310011343604
18.72,-0.24611398264805848,-2.0199869907948553,-0.7181054560568942
18.73,9.773479446123181,-0.37532785457355883,-1.3522000080896504
18.74,9.388812340890746,5.070694509217397,0.8832025611857691
18.75,-2.3256987464292647,0.005872259830993494,3.0918224048139704
18.76,-7.173788994003415,0.4415015315821509,3.1393809925721334
18.77,-2.496052487102548,3.242986081017435,1.6079556894456002
18.78,-0.49505358499547114,-2.617599184802193,0.6581991276838025
18.79,-0.9118347046161075,-0.7873570718514844,0.9781952694364621
18.8,-2.877623263507765,1.4315650622779184,0.8468754529502105
18.81,-0.35200053841455325,-0.9838933629763116,0.3841526511950745
18.82,4.503789112920897,2.020934120127444,1.0163864552849449
18.83,2.9204727654048734,3.561826894189255,2.045111281965897
18.84,-2.71957365985941,1.4091510118234543,2.639782413326853
18.85,-5.807189862541323,0.982677336089857,3.0970582308403083
18.86,-2.9174089430457295,-2.4516587148955,1.9522538892526442
18.87,2.1134873328943677,1.2769677114445213,-0.3544609358986003
18.88,0.08658092940697246,-0.7019666815712956,-1.0465038140356047
18.89,-2.4088923096590906,-2.4967838792733765,0.5453832567980567
18.9,3.3000967015845397,0.6950937609455285,0.8073509493226964
18.91,7.030567520171868,1.0631650649189353,0.759820998120626
18.92,2.6127960919575273,0.42563019084403164,2.6025588444476
18.93,-6.0755216752537,-0.14784269376209686,3.3302822969192083
18.94,-6.386348542917731,-0.3433323606605385,1.7918163783884549
18.95,2.75973304390141,2.0922869302237426,-0.31657746300557593
18.96,5.134401568593331,-0.2756828801853262,-1.5526207582310252
18.97,-0.7088394507034933,-0.6278346797110498,-0.5540530848100745
18.98,-3.5084829705248097,-0.5307542130686292,0.3962512628379034
18.99,2.160477529517263,1.1292323637619601,-0.2550253217002184
19.0,2.0619200444587364,0.696615491401764,0.4120921000477438
