seconds_elapsed,z,y,x
0.0,-0.1324352324008941,-0.2773168683052063,-0.082509234547615
0.01,0.04963213364066946,-0.23828003873504297,0.11752530070739123
0.02,0.12035746027079477,0.44661469075819726,-0.0107430542416772
0.03,0.11479933665627706,0.23682871689088753,0.3566405398413681
0.04,-0.11558343541408679,-0.04420968267042094,0.5119866700545505
0.05,-0.4048768264464392,0.10174829247532739,-0.05995671658351957
0.06,-0.5482594034065051,-0.025366831827283807,-0.3286064583957678
0.07,-0.4423334112154884,-0.5026995044396544,-0.16058396749413625
0.08,-0.1706195138180141,-0.3072856240009559,-0.32482583148927907
0.09,0.1408237059612553,0.16890658483669543,-0.37420260977637876
0.1,0.20792913930567836,0.5414381771140401,-0.013715602925495023
0.11,-0.03333921535369283,0.8034082451945739,0.2682717718004253
0.12,-0.26381959505735847,0.06228603491058077,0.4843396213715939
0.13,-0.4192515770990794,-0.7890625950025512,0.3777720412457695
0.14,-0.45244564855508096,-0.6791644063722353,-0.15257896092534476
0.15,-0.4241519469116995,-0.11206479137450935,0.038744668498475084
0.16,-0.25870241422125234,0.47444095543280534,-0.009416912996734054
0.17,0.005454064631382902,0.581171698993454,-0.31064382154556214
0.18,0.14307921646388355,0.14059165160802453,-0.1306418340688237
0.19,0.019231086173244653,-0.054080428534563706,0.034449227726301754
0.2,-0.16831751643292217,-0.3148940867325945,-0.005126256323249011
0.21,-0.280912189615722,-0.43937883278421813,-0.08870306446458799
0.22,-0.3325046271599103,-0.10200063467857716,0.05550141533261916
0.23,-0.2357810048853023,0.08454363811101033,-0.0010245135076277611
0.24,0.007886102188404876,-0.4340032830765881,-0.021603212208622363
0.25,0.06464967800075612,0.024347246343266637,0.023249756504914783
0.26,0.0036237987582044356,0.6671390420435416,0.11529204738237153
0.27,0.023201615568411296,0.0519063030642607,0.18702648971117572
0.28,0.07114164659654029,-0.5310989969732252,-0.09962482475223335
0.29,0.05847898711403663,-0.25750367849823036,-0.08836471151638241
0.3,-0.015321247144934875,0.21203577025804565,0.1976722149169921
0.31,-0.006370819442066717,-0.28793110077569384,0.2381464290477726
0.32,0.009468083607727594,-0.7082243017141825,0.42523047029763705
0.33,0.006488442003625321,0.3868016391103163,0.034595424574073934
0.34,0.2604151492592345,1.281462578981306,-0.598697464325151
0.35,0.2868169033798536,0.1903887441996058,-0.38745048794982284
0.36,0.05918980994239121,-0.5629178512158952,0.17843593605467137
0.37,-0.1089796691873778,-0.9463821600946636,0.7935423895657963
0.38,-0.09108998796900152,-0.6109546489397443,0.5554635335900513
0.39,0.07443954776743072,0.31895187534850267,-0.37004235953540715
0.4,0.31173531508253116,0.7854096228528886,-0.935361890879102
0.41,0.316619500764102,0.6016229046233853,-0.5329369963040312
0.42,0.0704274012158819,0.49620460110141607,-0.23661544271405047
0.43,-0.06376848258938088,-0.34961696342262205,-0.014837756208570524
0.44,-0.06384268229656338,-1.066101993285162,0.8053746945574874
0.45,-0.08396213941435468,-0.18984455945000542,0.9523298286982562
0.46,-0.07283140496842849,0.719541548723039,0.032738013634216453
0.47,-0.07251533421306637,0.3488838228098255,-0.308132379802181
0.48,-0.14492827466992522,-0.09157815496095277,0.06231863014850267
0.49,-0.07188550970953406,-0.4036477961552843,-0.40879763118533874
0.5,0.13978166385156693,-0.5991946875765163,-0.9396578937321529
0.51,0.3567531606872048,-0.48576158578543116,-0.4599028791796861
0.52,0.3426167181107645,0.6460992079741313,-0.1888594030264395
0.53,0.12597407829680543,1.026585147786988,0.29752742504040935
0.54,-0.11659504494612727,0.3329007541515229,0.8394727917307577
0.55,-0.32550713054618846,-0.23786415563364968,1.0470678221413519
0.56,-0.26730660458155275,-0.5938436916783845,0.06843714485228385
0.57,-0.004904144988712209,-0.987416343210192,-0.3660114554334058
0.58,0.12720643001238133,-0.15943004168764577,-0.15484763564672524
0.59,0.3444673060265548,0.890062491793387,-0.5634628201958268
0.6,0.4639951836917819,0.4493136932639584,-0.0168802449583893
0.61,0.42901756482143816,-0.13685055946099814,-0.04710665686058908
0.62,0.3522289729898692,-0.4611502565811155,-0.3835746800223893
0.63,0.16043408777341972,-0.6825066042148636,0.36885378219507203
0.64,0.003902041509593757,-0.0462891428276362,0.4060096797672089
0.65,0.005623847964534991,0.9032249380300466,-0.18581403469200897
0.66,0.28617348159099965,0.20910320898821902,-0.08304372891557331
0.67,0.4007546928945477,0.16336567580295205,-0.24820320084414466
0.68,0.40340383935283286,0.30838007642715676,-0.4132650732023629
0.69,0.42965986840627146,-0.24488899916133966,0.0030011741696347924
0.7,0.4514257145755086,-0.30623203575709285,0.37039869973493417
0.71,0.30760061372332115,0.5953352353560862,0.15817719737412417
0.72,0.18645264967134392,0.6366177344706121,-0.17834751401078378
0.73,0.27369672235830506,-0.33949257185997683,-0.17160291679296316
0.74,0.19560818774177668,0.0979952933244982,0.0975501887579463
0.75,0.10387268361906649,0.8583944492072737,0.09172367197544742
0.76,0.2003319591160643,0.42336669135846083,-0.0747149862862196
0.77,0.38976253441576186,-0.8254577628737976,0.6180731642931374
0.78,0.40589826396714357,-0.20341073477927585,0.014602747965439804
0.79,0.3095142608298938,0.2109765806934984,-0.39755280379270286
0.8,0.11363599895567189,0.04423505639334414,-0.029662090288678854
0.81,-0.10931803308208185,0.8179175015988109,-0.14430272337775224
0.82,-0.20398137229146088,1.146957784965173,-0.27536199878895207
0.83,-0.05544484293126866,-0.16912849846517045,-0.35803651748973353
0.84,-0.022357985667490983,-0.5725287693297163,-0.34830066025411355
0.85,-0.1123656992903647,-0.0987423567175606,0.4740719978025986
0.86,-0.2673714832033869,0.5561870670222548,0.7944146162241555
0.87,-0.24986159230436422,0.47120313084305865,0.05895250009458952
0.88,-0.24097859332220165,-0.11621664431056693,-0.03922981489859175
0.89,-0.35327092484923156,-0.11690008601502225,-0.030694253036418238
0.9,-0.3849055329026739,-0.030970477878026276,-0.5125966773694746
0.91,-0.2991071723159667,-0.2596774243997495,-0.5870305010740628
0.92,-0.1676001858180214,-0.353836302815032,-0.18046804822388077
0.93,-0.17837604444382602,0.30430989073020986,0.07639045471693715
0.94,-0.2578552181229694,0.3714595959559105,0.3498812569904009
0.95,-0.4264235101467002,0.05359624441328265,0.4414933318167087
0.96,-0.5992810359815974,-0.37039403660809433,0.6251780448982673
0.97,-0.6435942826835358,-0.4896337322853813,0.43709933153663283
0.98,-0.46918988427615005,-0.18759868366369073,-0.24345669949429868
0.99,-0.2721893642838671,0.23231212285307362,-0.23239607898687384
1.0,-0.11912208801117864,0.6040248086311085,-0.2299473392173522
1.01,0.011223942002089763,0.3151737547021851,-0.5768734478762972
1.02,-0.0732524401286837,-0.31595504180596384,-0.2515019894046515
1.03,-0.2942504447753647,-0.34600046817238933,-0.1041980324983135
1.04,-0.4631151233573268,-0.5178322626278465,0.4722774801301389
1.05,-0.4494074247354256,-0.5757548378069803,0.6985458814647733
1.06,-0.3239423825128537,0.05536762564803465,0.1436166941881357
1.07,-0.233385461455257,0.7548310077858811,-0.06448500937335806
1.08,-0.20503995136199182,0.8702290126112626,-0.30783291546138686
1.09,-0.19150249032954206,-0.07135879546236529,-0.3194365164274053
1.1,-0.17865980301685225,-1.0285417116013886,0.08309624137378507
1.11,-0.22973843824238982,-0.6451689554003487,0.17280736440660155
1.12,-0.35296511560754446,0.28705774499802006,0.22866178482017388
1.13,-0.36932778183824055,0.29510238356324725,0.2198254938853867
1.14,-0.2876161425298955,-0.24335325153307374,0.06996085975544564
1.15,-0.22303739149532664,-0.14593143880413914,-0.2345499642233859
1.16,-0.1151096408355689,0.1349655586626218,-0.6231697354002045
1.17,-0.10684713199290324,-0.001908491980391337,-0.3635080154873115
1.18,-0.2653891655070623,0.004522388605698797,0.25898185574013965
1.19,-0.2797030162335155,-0.5494882566188684,0.6277276659180635
1.2,-0.25335692720582215,-0.8571187987497452,0.7862924996839676
1.21,-0.25244443891732354,-0.07401451491391241,0.16501065656130653
1.22,-0.2190508311290191,0.5702888135204135,-0.4635463346487966
1.23,-0.14963035197320124,0.32929302537039273,-0.387266878284
1.24,0.004029316539534773,-0.22123651390104998,-0.2902013654635782
1.25,0.09670934600043224,-0.1489789350727374,-0.3388885126901615
1.26,0.051775506202643075,0.11814865916359168,0.13102511139184833
1.27,0.0006199471544512608,-0.06893816106079015,0.4202026007977207
1.28,0.05303021468360319,-0.4873804074952705,0.1711502501438374
1.29,0.031788921072447004,-0.09908818013941278,0.07593119606636038
1.3,-0.07925302232084887,0.3614491875393336,0.21782879512983586
1.31,-0.08371377068043069,-0.01893922596085352,0.04171223327359863
1.32,-0.017532222390837342,0.03382947485686014,-0.442562287224654
1.33,0.10604562595098987,0.10495102112004767,-0.1890698588171468
1.34,0.12981650371738437,0.5288898330636831,-0.36611745930379475
1.35,0.02359897722487628,0.317590119000894,-0.17956498032841545
1.36,-0.12028689471685222,-0.559902002690229,0.6836601443194132
1.37,-0.2475967222013159,-0.4671070488929519,0.5984456644319525
1.38,-0.21598696858291944,-0.0037748517724238814,0.07225229947597807
1.39,-0.17952990120152323,0.08872726843642557,0.06464245905512982
1.4,-0.14106061966250064,-0.08719380700551421,-0.08946420329526165
1.41,-0.12451292753398038,0.2568802326383283,-0.4645767336365544
1.42,0.02702439719165928,-0.053240721509984275,-0.32745789364708455
1.43,0.013423649711732736,-0.13979914223329584,-0.15660650615959887
1.44,-0.18334425315450034,-0.3982274459588623,0.13325117805123166
1.45,-0.3089233336262882,-0.9470904649272355,0.40669138421865814
1.46,-0.28394407840952746,-0.6488475003958241,0.45096921281684377
1.47,-0.2534902081416577,0.621160728096149,0.09308653904808921
1.48,-0.2593671898232803,1.0286586219915117,-0.06005432988000605
1.49,-0.2086851021634373,0.20172666636223086,-0.11221220544418664
1.5,-0.096303252041125,-0.5565493296030282,-0.18563905288203295
1.51,-0.020818853588103977,-0.6475769547288638,-0.2015038766380065
1.52,-0.041334393998627456,-0.4508190152481103,0.09459509642694196
1.53,0.016150092970679382,-0.8160797623454191,0.4769309740349331
1.54,0.03612494312365171,-0.4667763591793701,0.3640354942282138
1.55,-0.010471943568933589,0.8248889641251542,-0.3641198976258294
1.56,-0.08174057302147146,0.9553122193989828,-0.40884072696922347
1.57,-0.12265656881878188,-0.07465637946058581,-0.3259593113497595
1.58,-0.11540798270667312,-0.806774862103539,-0.12450878462458338
1.59,-0.12248627782865591,-0.4581697285526724,0.44803906156492995
1.6,-0.04263354615774009,-0.08297715063957191,0.6045286282971563
1.61,0.07311574644945786,-0.5329467660751114,0.593499507433347
1.62,0.11879387659472639,-0.3329167269621702,0.18573163703673676
1.63,0.06507466643535087,0.7967320757024193,-0.48699572267742675
1.64,0.02662384085092294,0.8327817670983154,-0.7597653443187182
1.65,0.03998494253271081,-0.31120012488040905,-0.48998942553421604
1.66,0.11398021127167131,-1.215639582462953,0.09035767710688702
1.67,0.11699214754165552,-0.38800547076140546,0.23309506088180654
1.68,0.12760193038419498,0.5544029797667769,0.2565503450147343
1.69,0.13259315034678298,0.4082531150704952,0.35453845003164586
1.7,0.13903690817831268,-0.014420238259432193,-0.09132053545697874
1.71,0.13631035524676513,-0.23957182698225665,-0.29132347432061984
1.72,0.04802366093417383,0.08668856663815819,-0.20817174132169136
1.73,0.11447434113642564,0.027450056031363974,-0.1108318746195191
1.74,0.2681641868135977,-0.4151877081555304,0.3516701877128773
1.75,0.28007066501822003,-0.06126401747602733,0.35955358139102783
1.76,0.2229845686769619,0.17391610578245678,0.16811820274474423
1.77,0.211254334740256,-0.10540194243057635,0.07154592367589198
1.78,0.22408559550315277,-0.19777000868227781,0.008000719214225203
1.79,0.3329241741958696,-0.05861847924217501,-0.46294012855985606
1.8,0.4174075126465933,0.09854477451673485,-0.37795060139676323
1.81,0.36277499916101313,0.42860403366411776,0.023704200822121303
1.82,0.2439141431359658,0.474856176164717,0.3464061290567747
1.83,0.1622311844739253,0.02207516945186129,0.46931338048584176
1.84,0.15202840378948332,-0.48241409199274904,0.16220837807983557
1.85,0.05663062957677106,-0.5352225829723958,0.008725390164710637
1.86,0.06548570746351312,-0.4106984156984832,-0.13345659955098077
1.87,0.23112707009530803,0.01494880230006045,-0.3474488087846945
1.88,0.41850468820007847,0.1540660331117058,-0.15939239992233714
1.89,0.42911789433488073,0.24923273761368572,-0.2379082335211737
1.9,0.2580570055014381,-0.06231403812771073,0.016125891361732217
1.91,0.02326108147875915,-0.08583358318866852,0.2612131959471511
1.92,-0.10402261308913092,0.17641663289808074,0.1523978257989616
1.93,-0.1812706339944656,0.5254913777134964,0.051102516075517
1.94,-0.09656702613656148,0.09286738496493832,0.007883856606844031
1.95,0.10420063419606544,-0.5496605227229816,-0.01527407918927749
1.96,0.284095005605688,-0.405312711353653,-0.1889220955124761
1.97,0.27680457656791296,0.13389784069169297,-0.07991887647925265
1.98,0.1788350822579816,0.3189625455033374,-0.26048072977963455
1.99,0.04623499687727263,-0.00019929494837778614,-0.11182402570583398
2.0,-0.08941712032907856,-0.15819653214297505,0.20644977685756827
2.01,-0.12484085062741092,0.041006708156288166,0.032844732195809724
2.02,-0.0415864390534973,-0.1224720640616731,0.14618695830692824
2.03,-0.0020433370661132504,0.030838396523390606,0.16792354490008218
2.04,0.011109388106832627,0.34282587943657494,-0.066771804195635
2.05,0.034135330937988984,0.40463428274106994,-0.21605924893406872
2.06,0.12917166069587346,-0.3752105632112242,0.010460787141857936
2.07,0.047732475314359445,-0.401909281949296,-0.01000699664181122
2.08,-0.10342871663922883,0.09431597067166131,-0.08260617610029031
2.09,-0.2487249453540234,0.5470877377134727,0.08112631940758423
2.1,-0.23799572189797538,0.40450715956516947,-0.033379592444853154
2.11,-0.08600220677118664,-0.3447801568211516,-0.042631923326801026
2.12,-0.01422820982382407,-0.6312710475019839,0.10544349099782152
2.13,-0.020085254141340235,-0.3645654080283505,-0.027905581583778774
2.14,-0.057481442001354334,-0.161068333669624,0.03786803770157085
2.15,-0.14394619982912177,0.18285957519820645,0.2298109019188383
2.16,-0.22256657296999469,0.6952783974562106,-0.1391866276614246
2.17,-0.2694852666269799,0.40898418877616366,-0.17697654082997497
2.18,-0.2697956513085187,-0.4119904305525053,0.09667167670563166
2.19,-0.21506193267406723,-0.8217292634794621,0.1557605256304792
2.2,-0.019485073632424407,-0.7876365902264597,-0.007538469350367986
2.21,0.19039157794494926,-0.5459134652666395,0.1564005122206396
2.22,0.11774960523895565,0.5239150342195674,0.20836269742988034
2.23,-0.09482572382150513,1.298962512499179,0.016195473380394853
2.24,-0.2502999144536985,0.5978892088899878,0.04483350724169974
2.25,-0.2570430880832244,-0.8351300997145432,0.2686107176654118
2.26,-0.1622383960465095,-1.1664448253878799,0.09348626673855916
2.27,0.0795752873459276,-0.5743235981568449,-0.24045784896212985
2.28,0.32198987452508365,0.17011340247078302,-0.25728953261153026
2.29,0.3902662002541969,0.6670336521345233,-0.16676015527849467
2.3,0.27752989405347006,0.5344514787949818,0.07141279197539355
2.31,0.11902718832530068,-0.04631966594262359,0.11630299032295192
2.32,-0.07957831330298785,-0.35108105585051247,0.095746925027654
2.33,-0.3070140147444473,-0.07830214839048476,0.06649654367470913
2.34,-0.3038276762453875,-0.05479343829467809,0.10298812680182179
2.35,-0.07061133396053068,-0.17572300790148151,0.21046077943617159
2.36,0.2595783729526202,0.09726458767596165,-0.21362985554627742
2.37,0.41646072509176174,0.3319098835891013,-0.5449442452966309
2.38,0.3692746812838345,-0.13871367503590418,-0.2266933082616967
2.39,0.19250350059494897,-0.5224080772431288,0.028350680339886088
2.4,-0.09762650993990722,0.09289401061519413,0.008579856133423243
2.41,-0.3917013583716883,0.8788789586861658,0.12584751351000967
2.42,-0.4981420852403845,0.25339239915835665,0.3421738469826055
2.43,-0.3411370849373214,-1.0925583008821547,0.2650369694283791
2.44,-0.020481675667822143,-1.168106990330545,-0.27804469559904144
2.45,0.22728491640192972,-0.10095639066449612,-0.5789471224157026
2.46,0.2793483977704074,0.8230521083664851,-0.6670962335616379
2.47,0.14679231442227839,0.3299569323314883,-0.06822010920764415
2.48,-0.13395991217770317,-0.3904229587731916,0.5672179853517147
2.49,-0.3476550590747661,-0.36131946242092455,0.3208592433416253
2.5,-0.418039273822275,-0.17814845581773248,0.28458202765831286
2.51,-0.31747886073507653,0.023778841269324662,-0.06957579293524266
2.52,-0.034620913983670766,-0.24358805921490823,-0.42335425699835905
2.53,0.17413417168488182,-0.29443584065853334,-0.1937331627018357
2.54,0.20330892375163284,0.33283520230184915,-0.20771790369226992
2.55,0.17142701853348485,0.16844100987205343,-0.0662087499938737
2.56,0.16373622902096532,-0.5572711824250037,0.10900748293762995
2.57,0.03758602764678191,-0.1525647386862852,0.09566546119377407
2.58,-0.11471840580536201,0.6374923761138201,0.011027169314092443
2.59,-0.18487679791260178,0.5312214232095418,0.056070044258157765
2.6,-0.07888888258633238,-0.17053325891974624,0.026791181999570358
2.61,0.10577114532907586,-0.6479389401897956,0.1125340496098094
2.62,0.16747823240549575,-0.1159410881219587,-0.022021749065183643
2.63,0.15946015641530076,0.2728723373261252,-0.02175299552987687
2.64,0.1362214841033284,-0.0008384491781932153,0.14676329228949514
2.65,0.05836960133796125,0.07800904769012892,0.006392436259676354
2.66,0.029530513202203533,0.22374523171981392,-0.1031124233134726
2.67,0.15356668814374103,-0.22958525338786814,-0.14043672573978164
2.68,0.18677937866020944,-0.13691338530934563,-0.194479145809844
2.69,0.11599325097738444,0.3367464023429191,0.12454287015693159
2.7,0.09274916659739442,0.2804447244687975,0.3280840118060156
2.71,0.2061725035167875,-0.31232491232430537,0.13614066312381004
2.72,0.2699447567054955,-0.44108366373917585,0.12533058628861615
2.73,0.2345648205039922,-0.007433594810849636,-0.07437660634491804
2.74,0.20818014382493621,0.2379917856288853,-0.326940289906022
2.75,0.15303089092846905,0.5244445690980912,-0.07143421705979035
2.76,0.09445830456728967,0.7142087722272212,0.2090726798330617
2.77,0.11061549226072312,0.21259095563943473,0.06111709342282025
2.78,0.24659695538975698,-0.867355938608424,0.03756477780128776
2.79,0.29559561374337345,-0.8024813740759141,0.2690336521443661
2.8,0.26892552425679034,0.45092156549655477,-0.0559901987858691
2.81,0.3085755125111465,0.8857417720233952,-0.21995940283444446
2.82,0.2539032925286751,0.5280061923214087,0.1630927982767287
2.83,0.022853851501308076,0.40154998294940114,0.18010319939451805
2.84,-0.15662206862146058,-0.15004744427070235,0.19134498628698243
2.85,-0.05763662770272675,-0.813224814560437,-0.06824448188827308
2.86,0.2349801287098578,-0.8139079391247134,-0.27239413194551704
2.87,0.3375942009497349,0.31292223104321054,-0.2575696595862454
2.88,0.3824641316283174,0.5017852078426094,-0.0162600687941299
2.89,0.361837817164896,0.03165993550614575,0.3005767500463381
2.9,0.209196874892458,0.17756235034803527,0.5190118505374486
2.91,-0.08914535520675872,1.1112879611147723,0.005786984010385924
2.92,-0.19490944650596068,0.6520582961151661,-0.48558666331509714
2.93,0.017813777399669814,-0.9684996748896672,-0.23528202131101064
2.94,0.3366957964061917,-1.1285005664460965,-0.10341381016412017
2.95,0.6192732436572682,0.018188959875081838,-0.2186155023110659
2.96,0.7047375630174593,0.6922091124056862,0.10860447487353919
2.97,0.42043058329178457,1.158227740688842,0.288890942146713
2.98,-0.030736925638265262,1.0751642998607545,0.23543918669367886
2.99,-0.31499320046184937,-0.03850182403175729,0.1977793027528618
3.0,-0.12167480639832505,-1.5073131213916773,-0.08321595708536361
3.01,0.2744373399389899,-1.4312254638989101,-0.14091613869011171
3.02,0.5199641516080232,0.2220309323788713,-0.10784047522029314
3.03,0.61787279008786,1.581605688326051,-0.23806799490424052
3.04,0.4948641874015526,1.6813015072565216,-0.0988160821618135
3.05,0.14983881525443754,0.6475897757706929,0.41241385564000416
3.06,-0.2774955204569457,-0.36174931966792984,0.14863741226244984
3.07,-0.43288502761540454,-1.5979869473296264,0.051366711717407657
3.08,-0.26417844127113094,-1.4449784153416725,-0.05568998824124467
3.09,0.1501753913485532,0.21363935882292887,-0.5347689580905224
3.1,0.5175126779569775,1.3378139418232675,-0.39076119082110394
3.11,0.5632552383801548,1.3044382700543173,0.06697682902949628
3.12,0.33912872901569363,0.3409383183639715,0.36653381619415
3.13,0.04462437821595626,-0.6549647571432008,0.33341301888197283
3.14,-0.11685919739088263,-0.9619224507968045,0.0866833940565852
3.15,-0.15974190212531741,-0.17961546772135992,-0.32451961332297113
3.16,-0.19151099365407226,0.7339260782380247,-0.12863021980502398
3.17,-0.06613498188368971,0.9182517171191898,-0.019707087389775342
3.18,0.21525234055412515,0.2743578314039188,-0.14757910862000156
3.19,0.5178420957234361,-0.696293836491361,0.008723054574374388
3.2,0.5548785973908752,-0.5358252315106679,-0.14296219192160398
3.21,0.34457308974164574,0.061413736631854315,-0.08847829259734791
3.22,0.030978471812441066,0.6375732682529148,0.19263183353646832
3.23,-0.295202679001106,1.2104888236928946,0.3195617721036322
3.24,-0.4281126208600615,1.0079410206649264,0.2508362934766818
3.25,-0.32696247719684435,-0.049061824285012615,0.12425816974618106
3.26,-0.06453728875983485,-1.0647218816925026,-0.07587490167652441
3.27,0.22051639703039955,-0.766283216676122,-0.34241255418625743
3.28,0.4274659686135423,0.2797305844780578,-0.4652969535722331
3.29,0.39965293728703616,0.7845017563465133,-0.1698684182104809
3.3,0.15373952984697228,0.5883245895460136,-0.016802454827764525
3.31,-0.22501156823092353,0.19077517852902656,0.10092969688880402
3.32,-0.6030057087345797,0.15292078018901636,0.24609784603745205
3.33,-0.7298941540759,0.15503122485925838,0.1834225245366187
3.34,-0.5203144311253448,-0.13523436021466356,0.06768091434607135
3.35,-0.19645615921477141,-0.20372885915833872,0.026612499477975338
3.36,-0.06012817428392533,0.1144654889031663,0.193246468473561
3.37,-0.06507584402611952,0.23040253587287166,0.015831460188719088
3.38,-0.12808045577485558,-0.05101657212005048,-0.3068989008339081
3.39,-0.2847278745842436,-0.30208178114224105,-0.23214437607022714
3.4,-0.5007345787580152,0.0412588539659931,-0.34507016327739254
3.41,-0.5552735688733852,0.1747586796772133,-0.29395550198865195
3.42,-0.37074285278391467,-0.3179444302796713,0.1774159439925931
3.43,-0.20947323402753731,-0.21506246480169947,0.4154672076378697
3.44,-0.22013279904087535,0.49213036969932356,0.174332460676977
3.45,-0.3109455132645429,0.3849115786696972,0.2589909445020402
3.46,-0.43108814574356635,0.06233077924310136,0.3448126310307978
3.47,-0.4016076251549575,-0.0962484457913587,-0.050301211889043615
3.48,-0.22415209306778483,-0.4218774495287068,-0.24038902421197908
3.49,-0.12807126668775276,-0.25982787942506735,-0.3519906176524247
3.5,-0.09840425408973762,-0.1454828375819775,-0.16470951628735592
3.51,-0.029876273405366194,-0.2738504768704122,0.13616508034402616
3.52,0.06021613117134972,-0.2648346214100241,0.22040118981415868
3.53,-0.09640727494113012,0.5765469447856374,0.13691668782490718
3.54,-0.3302310605198447,0.9737268827971486,0.0572263454193225
3.55,-0.4005184348535079,0.13201466481504948,0.13466273591547379
3.56,-0.32831287300601625,-0.6073706029768554,0.19920935531608258
3.57,-0.16833406225457506,-0.25369949482909887,-0.1471565081629665
3.58,0.028038604212817366,0.056201273323173026,-0.1221206990045771
3.59,0.17671500460683398,-0.03363612482358064,-0.07402296236153354
3.6,0.18259335586032044,-0.06713855766352984,-0.08277852956893074
3.61,0.0377518832094012,0.09205181322651577,0.09165362260496994
3.62,-0.1368359203025213,0.2781449001744266,0.129582672461616
3.63,-0.2598128737967279,0.393808528876299,0.04477159065349672
3.64,-0.3702704439073257,0.5666747050749783,0.05420966065625588
3.65,-0.3719374626655246,0.171719088659845,0.11212662389213139
3.66,-0.1660846862662797,-0.9148510026368138,0.18708068364567132
3.67,0.09280419067845883,-1.176743967682077,0.009821327598717993
3.68,0.2659117829263866,-0.2505255888687573,-0.5466983472363262
3.69,0.23588361517477793,0.49640443081731533,-0.5561896197100183
3.7,-0.010860887202578481,0.620631222418723,-0.09175806900400883
3.71,-0.31900445871258276,0.31688690149875315,0.3922078056998428
3.72,-0.5336865012835303,0.1330913530956829,0.4058005258566557
3.73,-0.5308138103236661,-0.0019065195311117028,0.18755967695996975
3.74,-0.3558193631988837,-0.20268114262441114,0.039363224901873294
3.75,-0.09373273268438151,-0.5403103892489647,-0.22593148179356193
3.76,0.18249902342848565,-0.8158189922561002,-0.14793903568288114
3.77,0.3449927801044498,-0.2742313149212423,-0.043890441822812834
3.78,0.21270867220931017,0.8478231794782762,-0.09748399628525627
3.79,-0.24151194487658578,1.4578897631094434,0.020013665182932155
3.8,-0.6102678431424323,0.5807591405329006,0.029370487626230943
3.81,-0.6381536142910591,-1.1264177922880039,0.160053958331863
3.82,-0.4137354872613385,-1.5238036898468355,0.27762322390909694
3.83,0.009482736613507216,-0.4487648767106604,-0.21823144498217142
3.84,0.4326013398094717,0.22914165134929415,-0.2645088950256155
3.85,0.44385298194249984,0.8697596998605803,0.02875930626052693
3.86,0.1329460680238328,1.1079616379039303,0.12193384786018037
3.87,-0.23061804221099552,0.1387209844265119,0.22532906663080243
3.88,-0.48047553631678375,-0.9743422535788697,0.25239933583818586
3.89,-0.5711475543295664,-0.9760354859105845,0.1884327356075328
3.9,-0.3803981430615417,-0.2158132807056976,-0.0676020598093901
3.91,0.03699621237405526,0.3936402923370166,-0.2635775796383968
3.92,0.41321674798055547,0.27221303746994435,-0.1255074101437434
3.93,0.4595885306454843,0.07787592053174129,-0.10150237246752608
3.94,0.23202180765582142,-0.2211491603754437,-0.0900678607526557
3.95,-0.10487496353862132,-0.3572237149930059,0.018263385478833705
3.96,-0.3361927830741655,-0.2789123651192731,0.17693592988834508
3.97,-0.4576436209397619,0.27858764010437864,0.284797375396149
3.98,-0.3919647147259325,0.7277771745060365,0.09774745656567341
3.99,-0.08276063876070333,-0.060490850710740264,0.06571423481337203
4.0,0.18789847699351717,-0.8325649419736142,0.0027644330010167394
4.01,0.24414248066069077,-0.6018064561862131,-0.28960753655831467
4.02,0.10676159353635921,-0.30750093209047924,-0.06956829425790664
4.03,-0.09706674397576649,0.002763135960811974,-0.012419957203410081
4.04,-0.3203757183292252,0.4886252875320704,-0.04897669862063922
4.05,-0.4113493634352116,0.3198765375952536,0.1510884800991241
4.06,-0.3820909905320189,-0.2315043560005336,0.2513735875001471
4.07,-0.20020582850784852,-0.678556670888861,0.11746129626363248
4.08,0.06832400755075008,-0.7164435546935795,-0.02602049890831196
4.09,0.20098400813794093,-0.07603679663093668,-0.3026280701160308
4.1,0.10136489352488977,0.4245584019959085,-0.2553676278288229
4.11,-0.1256154915148277,0.2380993749190867,0.15775092579245212
4.12,-0.29452871851296847,-0.17132145602908327,0.36221700856594113
4.13,-0.3354217410757428,-0.22955231363555054,0.21347313807812818
4.14,-0.22479343567702448,-0.1839543372830786,-0.16275321226567663
4.15,-0.11012800866535974,-0.23417648684942427,-0.1439425754994987
4.16,-0.011133538268640102,-0.14221083394508546,-0.22769942068275908
4.17,0.11662807408982626,-0.28442953151782285,-0.19227443525403237
4.18,0.1765957730108796,-0.4991503343297782,0.11108796246247347
4.19,0.0880248135155967,-0.28172562775264887,0.21783540667733825
4.2,-0.07346246332308069,-0.028811290679276597,0.3243227094495692
4.21,-0.15505092195448583,0.21676506583246974,0.08858160563127684
4.22,-0.07212628703619067,0.07827131365798567,-0.16077162224951466
4.23,0.0646822589662427,-0.14357950370128575,-0.33535189602464494
4.24,0.1590666246320467,-0.29692624026212716,-0.289849510511392
4.25,0.2571615389249124,-0.6938702788801687,0.09013018109092118
4.26,0.2954155023359923,-0.45811521976422537,0.11856457337606584
4.27,0.17836727548588738,0.3189496917400857,0.23924276884915754
4.28,0.004013913588109756,0.6083603845952327,0.3408187131680385
4.29,-0.09173847635750407,0.13938591349273063,0.11011091217975948
4.3,-0.025560370487073998,-0.539599222016583,-0.10293500184969796
4.31,0.09819635537787924,-0.7050018602506471,-0.06466639797567232
4.32,0.21059293218957087,-0.22467946614185932,-0.205561174103441
4.33,0.3037955984167409,-0.09126356123817547,0.010935378251959274
4.34,0.3130871043939742,-0.0627088050566406,0.11200265860994181
4.35,0.24839978342017732,0.010621725307681113,-0.026667321036491845
4.36,0.1238102569558954,-0.20131651459507785,1.6920420697060204e-05
4.37,-0.01561809005944626,-0.28848100171009045,0.08243376720067466
4.38,0.005886407146261952,-0.2217005707836769,0.08480405793008285
4.39,0.17783232625278667,-0.09140644494201551,0.05342630159861541
4.4,0.29066757437876284,0.33896244410042126,-0.08145519863816483
4.41,0.2749524219752198,0.3627285975610155,0.05214607556038139
4.42,0.25973790182914963,-0.2947056226216141,0.14222246420203905
4.43,0.2905922641008305,-0.6435490914077994,-0.023641311434143927
4.44,0.3073862504206372,-0.2538933387201919,-0.1328427913309506
4.45,0.3591821210008448,0.1441964651368332,-0.2774023918907261
4.46,0.37803803945368913,0.20555893540366302,-0.011120939223503799
4.47,0.2880855244923334,0.3284525928762759,0.31428001907132563
4.48,0.17345116496448798,0.18922885180540128,0.20990832441158958
4.49,0.1750393594215531,-0.4391630657604192,-0.03555442671042
4.5,0.2607145443305559,-0.5473104861938719,-0.16249232648676204
4.51,0.38866218313929146,0.00038282671755837525,-0.353372174282563
4.52,0.44464845274685666,0.3653800219171062,-0.333491111878918
4.53,0.3675718535295174,0.020909532346367006,0.12318560038538426
4.54,0.24290064808391118,-0.4786809636309876,0.49889860001037195
4.55,0.07083036651215488,0.04490935802444874,0.4573104128242348
4.56,-0.0034107048231038508,0.8310582384341587,-0.11875382253301744
4.57,0.0066950972324297964,0.6350466677160419,-0.44968153503303604
4.58,0.01708511722035522,-0.04915745970549521,-0.2616154663093823
4.59,0.20912459286573298,-0.9530003324130434,-0.0777646546411648
4.6,0.4649563493126436,-1.3737370663552784,0.06740502613308155
4.61,0.5329816652775912,-0.34393397990411634,-0.11000821487708849
4.62,0.31613652051164975,0.9868394195967948,0.11422870028556933
4.63,0.007218832445551968,1.197572798647122,0.3311864933496197
4.64,-0.14266432720409336,0.2757801582671845,-0.02693688073201963
4.65,-0.11773341466615311,-0.7589678869126677,0.004324465480116144
4.66,0.14200797076431912,-1.0211328124634778,-0.060895320881322657
4.67,0.49270740701654175,-0.4858924254949133,-0.3806710753071862
4.68,0.638778620475642,0.24767423764102153,-0.11993726430775267
4.69,0.520270326256369,0.9404217578034553,0.2154390179835815
4.7,0.34984064432266443,0.9263736665775099,0.19488276757132766
4.71,0.20156172904799116,-0.13346992991721598,0.38163728134367275
4.72,-0.0021139685758922895,-0.5988199438957319,0.15702253924043094
4.73,-0.020022203194072913,-0.6208583557268731,-0.13738013721538855
4.74,0.2677432907144902,-0.39416975404238486,-0.2227090708292703
4.75,0.6392426238692392,0.19121653621728146,-0.04337515059121977
4.76,0.7881282950713803,1.283436661735047,-0.4177012082818306
4.77,0.6320145811675657,1.1304073068864193,0.12005373636722341
4.78,0.2985856220987971,0.3539623176380292,0.5913454407160139
4.79,0.021180444715243184,-0.09372770745516347,0.009925350880284017
4.8,0.016637852988175463,-0.60094500406546,-0.3164671964194608
4.81,0.16341490660371932,-0.6654959442970605,-0.034916222886211955
4.82,0.29637893261208575,0.3411398270205915,-0.12402547335683653
4.83,0.48609939027185806,0.836507856044987,-0.16941456147070807
4.84,0.5814513606946657,0.47281521786852315,0.22856673221210932
4.85,0.49659689654592626,0.2989057455629105,0.052987013005661186
4.86,0.28210952398504896,0.1731818499078222,-0.13717336445475492
4.87,0.11136780517459563,-0.08362498090109652,0.07442668286213511
4.88,0.08038974703541688,-0.022251773271213193,0.20800024497503702
4.89,0.047387637375292536,0.5744857947616985,0.24587577269594532
4.9,0.07873417271765423,0.7655960002792221,0.044942851591140726
4.91,0.3016378671938709,-0.03576300311772801,-0.3046401674572394
4.92,0.5511983571073658,-0.7251542925509907,-0.3278819152364059
4.93,0.4816490314288388,-0.028080030665723593,-0.18287393780845163
4.94,0.27245402556088416,0.15342756676599334,0.3325161741617995
4.95,0.08278275172423798,-0.08543389060138255,0.6079061179047257
4.96,-0.01924065959463272,0.7609537832855722,-0.002275752372511343
4.97,-0.01985898010103407,1.6682335693656334,-0.5489172913819933
4.98,0.012920374910164978,1.14363702659913,-0.662716576755172
4.99,0.02257637510261978,-0.27743392324392163,-0.1441514544818021
5.0,0.10770792426912126,-1.3614102588610852,0.510674511885514
5.01,0.3495439279314751,-0.7030895040256017,0.19090483789031293
5.02,0.5337458178968908,0.8494152532180376,-0.013863909908081295
5.03,0.3553722700140275,1.5771530821717399,0.026524032402706055
5.04,0.006535990726599653,1.0451731772566801,0.14839192373045057
5.05,-0.28203737304757237,-0.05634206558320181,0.3450523085261669
5.06,-0.3498481367156999,-0.5296930213970091,0.21506243625957033
5.07,-0.21447134809882157,-0.16848882592460254,-0.28880070558425297
5.08,-0.0075770541357653405,0.3107130438660807,-0.5034853347138223
5.09,0.20898322329693972,0.41651461447234267,-0.26871092831957677
5.1,0.36861072575796905,0.2648501172394189,0.04484939535661062
5.11,0.26074721209160884,0.45471980952808977,0.233384388605888
5.12,-0.12967009995101,0.6673900791856864,0.38832119073901733
5.13,-0.48250417925332045,0.111507268556663,0.42591016506593304
5.14,-0.652162024338228,-0.21514808588035067,0.15047280791456635
5.15,-0.5546103992778532,0.09511236244005544,-0.22385833721815074
5.16,-0.20111308307371165,0.2069674844039024,-0.3534049275951788
5.17,0.13014044907676453,0.16637568996346153,-0.2365234128159717
5.18,0.2496618887036226,0.327776764301016,-0.18809768480447822
5.19,0.21809452298040763,0.3026872168592552,-0.2354026029958701
5.2,0.0567561556422084,-0.15837077163042781,0.014632580622190573
5.21,-0.3079289568923751,-0.11071491000789567,0.20265259154814283
5.22,-0.6626732365689014,0.2601654086908094,0.24394007770151066
5.23,-0.7833760950000189,0.46999307238883786,0.2886591235127234
5.24,-0.6374403477938221,0.3843538812225484,0.26778139695771425
5.25,-0.3256816190166655,0.32076058816942604,-0.3054312402920016
5.26,0.029967895231943823,-0.21397843967467914,-0.5358576958320855
5.27,0.21822443407025544,-0.6777136972307276,-0.16711795433689075
5.28,0.1120775191448338,-0.11152402405474286,0.030086637393891967
5.29,-0.12635677698597575,0.5226274485172807,-0.00012573913275921972
5.3,-0.39069467688907666,0.40475242820102897,0.2728259541910155
5.31,-0.615348646297936,0.10732565881922068,0.48265101456848786
5.32,-0.6011066973842978,-0.0445558529862579,0.05470889123049822
5.33,-0.317328860822972,-0.17950097763205075,-0.37840132481288
5.34,-0.0334885835421985,-0.10484872258700485,-0.25855820918095673
5.35,0.06699144489021604,0.18527634304939586,0.09704359355088629
5.36,0.09195526423210573,0.26631759679062034,0.14826627759556402
5.37,0.014870953920643862,0.15662509303314182,0.06395284054673789
5.38,-0.22680977378412173,0.3790705699152471,-0.21867520801573773
5.39,-0.5030800788819111,0.22255736074530894,0.1185910666193479
5.4,-0.6307095141831273,-0.3521620869858974,0.6919911625345198
5.41,-0.47155085897798893,-0.4965603265548081,0.20293100765465413
5.42,-0.09757961329125708,-0.2688496778947908,-0.5423432242843109
5.43,0.20375433737744594,-0.0195007443368477,-0.3602135844670473
5.44,0.2211441482068772,0.5561519495540975,-0.22495195199291237
5.45,0.07434238284422401,0.5737331933451534,-0.30817717557295854
5.46,-0.0977814527327,-0.15963046988095994,-0.04185903872460098
5.47,-0.28940918483968336,-0.6482722294331802,0.5036450946120788
5.48,-0.47857233545595806,-0.20757523874514633,0.32060756468359375
5.49,-0.5543957864387938,-0.1278789514183414,0.3800070105738197
5.5,-0.5009405276773112,0.08795155303966963,0.4261477549901958
5.51,-0.2241778936057081,0.720336471981943,0.022085768477495382
5.52,0.18158643705561198,0.7176157145786396,-0.30632825010681547
5.53,0.29448003773362424,0.08756743884939198,-0.5387544156547828
5.54,0.0732053389162033,-0.6448928082094046,-0.26682847441535407
5.55,-0.22119973719928862,-0.9101893886040886,0.25938596535300346
5.56,-0.2720524152554566,-0.298593655495124,0.35436841838451866
5.57,-0.04641490407680993,0.3171044896690587,0.05946059108326773
5.58,-0.06267882464495529,0.1835628021444025,-0.39479801267937437
5.59,-0.26013636988188515,-0.13823144219543448,-0.00543775184210015
5.6,-0.3540354716271203,0.003881364483080399,0.38464372301223754
5.61,-0.10081360281535791,0.07622395999269577,-0.10876858637076921
5.62,0.2750247960665907,-0.14542001628194473,-0.39660592335726425
5.63,0.33934188548915745,-0.03849912604903192,-0.11022234453806018
5.64,0.24657588101896355,-0.05605500963307357,0.16987201680125477
5.65,0.14538095338765653,-0.03915894198864065,0.1051912140987125
5.66,0.09049560918163549,0.2492937927089034,0.06397942012991666
5.67,0.09114277001671026,0.33208371381495305,-0.165788958051861
5.68,0.011849561760442313,0.30478387183605293,-0.51718263201399
5.69,-0.023303933711011877,0.10648523697842374,-0.39323724442736746
5.7,0.0507789152360186,-0.012727530963900056,0.2198936175224246
5.71,0.08675678603504737,0.08948996086423738,0.8315083559079192
5.72,0.1249420222984687,0.14799999294156732,0.4981873670162234
5.73,0.22868582086168243,-0.3160191009336908,-0.09958300426164468
5.74,0.1866714685246147,-0.1838360008144215,-0.36542002061003015
5.75,-0.10230754899231619,0.7823441644909251,-0.2930322480574716
5.76,-0.33759884812519997,0.7822822055585636,0.0487633556334485
5.77,-0.3400768061673361,-0.37732865128787796,0.3050305532838423
5.78,-0.2097510588884397,-0.9805298367610399,0.10087401451515862
5.79,-0.17984802605980454,-0.17449800563575943,-0.20388618923394522
5.8,-0.25603274984885616,0.45194392506568126,0.03983817763893376
5.81,-0.3113153126754588,0.28561346020490785,0.13112787785055474
5.82,-0.30485544395639275,-0.08194815003107556,-0.08633988934198113
5.83,-0.21046485435916268,-0.3775784939960696,-0.2634974285914684
5.84,-0.21230901488163653,-0.1377180106010278,-0.3058727868167027
5.85,-0.44343461283937546,0.2479514541797334,-0.045888649168784545
5.86,-0.6412151574171177,0.0379568170484432,0.4771850489981818
5.87,-0.5998363301524534,-0.22908266618355924,0.4122390941066009
5.88,-0.35562014868884484,-0.41314806838631124,0.0986832018784889
5.89,-0.22532282524924746,-0.38349386828723214,-0.007723662003371365
5.9,-0.26083969238462856,-0.5929421080735544,0.26141932152761954
5.91,-0.3529944457729679,-0.3108309235343779,0.24253794525641142
5.92,-0.44848496721027736,0.8001982620612479,-0.20746192295932148
5.93,-0.44162553038457847,0.9055679242763564,-0.28668893817086527
5.94,-0.33184238807173766,-0.14486796712764932,-0.44279788804047726
5.95,-0.36908227026398027,-0.7233021451379469,-0.4082958843625422
5.96,-0.5408996465571038,-0.7724527101224766,0.42789940282782635
5.97,-0.5614526104523682,-0.5890979127247797,0.46031688193601267
5.98,-0.3252232119185848,-0.47320088579067815,-0.02817775912989725
5.99,-0.08622471556473213,-0.34835286715440916,0.22333454128709132
6.0,-0.10553850210002605,0.34944336017409344,0.009724172867895347
6.01,-0.2397246222993118,0.3515651033732749,-0.25841818853656723
6.02,-0.4286372145609912,-0.04806669420304086,0.2255166645473476
6.03,-0.5080577927004424,-0.22510615314765656,0.5249346261399759
6.04,-0.47585595127237457,-0.03484531090902085,-0.16414021575291202
6.05,-0.4406299432574949,-0.08456776577718375,-0.4133014609389864
6.06,-0.4012021980669379,-0.2860145959237658,0.139768587893728
6.07,-0.26360521059161507,-0.21620457336591234,0.20740554881541162
6.08,-0.04775710638174442,-0.3870137249145261,-0.10004246602334142
6.09,0.03718269474014999,-0.6106394872372287,-0.29798564387134
6.1,-0.0747579301852182,-0.46154749121841715,-0.291188612293487
6.11,-0.2489231276209133,-0.14174132606438064,0.027703552027932163
6.12,-0.40012011882089965,0.16212982741954016,0.4282068415566171
6.13,-0.4346745144189568,0.06700299859772872,0.566620404042928
6.14,-0.37748835831462646,-0.32310096857468534,0.56330176993243
6.15,-0.2721434903460497,-0.4561535382229449,0.15003319292858136
6.16,-0.1297366536803614,-0.27074921048067624,-0.5028368186832314
6.17,0.039529285216520035,-0.35950750283655075,-0.5244710581038242
6.18,0.19716486378846956,-0.7246612430419677,-0.15406580973270786
6.19,0.1750943523302709,-0.4032762217871569,-0.01467470943478527
6.2,0.01553583276129778,0.2869420797714092,0.014200370392596952
6.21,-0.15746430378265408,0.34029449573911363,0.33045180836149823
6.22,-0.2512288574837813,-0.09701246380006313,0.3870180224861449
6.23,-0.17601314380792088,-0.5091262087161916,-0.02447131309833547
6.24,0.09225828820324602,-0.7002817268509602,-0.29427390708596785
6.25,0.3756015770179614,-0.4395068334296464,-0.2232393882746313
6.26,0.47694053475320836,0.14776687959237328,-0.04552645514970246
6.27,0.4097692763083091,0.5554552363711732,0.023837214213857923
6.28,0.18301315758430386,0.674542257286696,0.19212699733722785
6.29,-0.10046944440320851,0.3862248850685895,0.32346400936059155
6.3,-0.2750345028769978,-0.2027905881455358,0.16483154917366127
6.31,-0.12275432276504727,-0.9818946323930904,-0.09557973399850633
6.32,0.24250151853322316,-1.033494555744995,-0.18950416348465088
6.33,0.4958537600188194,-0.01617240697876108,-0.1146969037859795
6.34,0.521769162084638,0.7955607413648121,0.16334329470086686
6.35,0.38924605029036985,0.6966056948648668,0.25853596345817303
6.36,0.19527005311922155,-0.03766947143387933,0.1351170235520835
6.37,-0.058324359246662655,-0.4751673339254183,-0.06262632047191223
6.38,-0.22600047305723728,-0.49563829088521455,-0.341355254937094
6.39,-0.11304469446749711,-0.7147744031867919,-0.16923743008016195
6.4,0.15658693863304649,-0.3660940591569472,0.21349207779898088
6.41,0.47654419333523,0.5332224864038717,0.031175865208775758
6.42,0.692669166511881,0.6028586871577302,-0.15008929540311935
6.43,0.5868576079933253,-0.01663611027144643,0.12968358819098683
6.44,0.2097115602503694,-0.10168077927231825,0.3933392964421434
6.45,-0.14890841778903835,0.314285073568852,0.3146676428045495
6.46,-0.1884354386527485,0.1859273751850135,-0.0005376418538784963
6.47,0.06820180375761722,-0.3205050718879208,-0.3623501832933659
6.48,0.28438032850498185,-0.1908625405771602,-0.4095593722118815
6.49,0.37553915103757113,0.1791712152443926,-0.10928324987538192
6.5,0.4786860309402046,-0.023907976404192358,0.06990790817365151
6.51,0.5688251189731727,-0.5374213138408532,0.17389723950498978
6.52,0.436484409394211,-0.11074042550018644,0.1548092935855386
6.53,0.06897531991310778,0.8036669376671979,0.09025913441998112
6.54,-0.26354861879672997,0.6381402648902429,0.2520835040252538
6.55,-0.3453079393455503,-0.18101925389754173,0.3407769141987033
6.56,-0.08655338458837271,-0.6558726146680216,0.06921446588801154
6.57,0.2902572765351205,-0.33659928818019336,-0.4301506037714778
6.58,0.44804273862985544,0.39044763697682366,-0.553225705418553
6.59,0.37524625081292806,0.36863356464225855,0.024108784867611168
6.6,0.2096684531944764,-0.10863284618147025,0.38330573210486685
6.61,0.08352114169385581,-0.33017632078414344,0.16497557077598063
6.62,-0.049248309686477004,-0.18292912096188577,-0.08885053295019732
6.63,-0.20873579474847878,-0.21120363085937754,-0.08061472433593643
6.64,-0.23889010055871035,-0.34546729698555956,0.060131257091109204
6.65,-0.0818381896830259,0.21413905645629272,0.059958640873406695
6.66,0.19827500530123418,0.7291683742541977,-0.028759968370343933
6.67,0.3176808076455113,0.7048295079461953,-0.319740484914371
6.68,0.2682368853623692,-0.18374301759929462,-0.186259759490446
6.69,0.206329308619487,-0.9563844002607246,0.23328999553597426
6.7,0.23019325894009074,-0.6259244654780921,0.2182449098175299
6.71,0.22364400300012588,0.3921610912863455,-0.14278683058833483
6.72,0.0838007875189793,0.7025369332186904,-0.051588588059856465
6.73,-0.027131938659399824,0.47978231366612406,0.16104846483507615
6.74,-0.05007572597581581,0.29808358615600056,0.1201223382273436
6.75,0.052161846201737076,0.05515375797439788,-0.1354596090203921
6.76,0.2813567481031124,-0.2790310376427846,-0.47559195102986596
6.77,0.4167725843769076,-0.4738646467249475,-0.2864551375396636
6.78,0.4393421124047406,-0.0027590221109782456,-0.08270702580448469
6.79,0.22521041954822382,0.5204315077071658,-0.042608062655293454
6.8,-0.04850259501881406,0.3563628945044118,0.4321922086902372
6.81,-0.30782983564894045,-0.1684948418764,0.586561095344373
6.82,-0.3137925282668177,-0.48643374098334646,0.023695603256244997
6.83,-0.16650259815600865,-0.47375029947828323,-0.4204112776629288
6.84,0.040650821337530195,-0.06506870042114248,-0.2532068504226924
6.85,0.1144964411674032,0.4302586013192352,-0.0248644464302886
6.86,0.22112165959426486,0.4654271972009384,-0.16369496047898893
6.87,0.17246059162983712,0.048823463991380496,-0.08972333343870015
6.88,-0.0012894124691252037,-0.25022209821326485,0.26819261516552323
6.89,-0.2609173303808331,-0.3198785233635024,0.19639834808363382
6.9,-0.29575148610790297,-0.5075701412794404,-0.07264038629349409
6.91,-0.23897960796631848,-0.2820872121507664,-0.15482604248258336
6.92,-0.08883564790570063,0.510428664042663,-0.2211071829692814
6.93,-0.02508709368230029,0.9177311399560646,-0.054113663400491924
6.94,0.07423906869092933,0.28564889222772877,0.12091476283999217
6.95,0.053552775692364135,-0.731602542855161,0.2820700787558453
6.96,-0.06603754452017205,-1.021701503555965,0.6794371642019461
6.97,-0.2544610705892312,-0.2598304035082176,0.5034001953194882
6.98,-0.24622330713732818,0.6112538892590319,-0.3150984661319783
6.99,-0.21089897501543847,0.7411568085687407,-0.6749152222919678
7.0,-0.13873778226737712,0.35031912855181585,-0.6382020883741184
7.01,-0.07692327537127647,-0.4828008254818161,-0.30092193158915737
7.02,0.03758164445052011,-1.0548377576817907,0.3015185419795472
7.03,-0.013964858439321898,-0.38112382874368117,0.43990836780105086
7.04,-0.04223529725451059,0.38121289183854734,0.20218547989614835
7.05,-0.006112450576321876,0.13871984631625225,-0.0030091335286598388
7.06,0.057270884509685725,-0.12189344480314748,-0.06297257048116421
7.07,-0.1158373191755931,0.5383654180785483,-0.11185998884434949
7.08,-0.26483061623341275,0.8509187663180154,-0.18143926374323863
7.09,-0.21346376914860402,-0.34262303399439725,0.020041505933181256
7.1,0.04885652678137429,-1.3846499354202788,0.16185440024784392
7.11,0.15044531388626847,-0.7146855271339377,0.04943581338310624
7.12,0.17883772787062174,0.49355244127553677,0.21386386926054218
7.13,0.09340834480346887,0.8919707424902543,0.20732782609788797
7.14,0.007009758982929446,0.41371157274244835,-0.14189285392907144
7.15,-0.10294232244374744,-0.2270617612872012,-0.2979911234413176
7.16,-0.1531446706274305,-0.49185345337764524,-0.3317120119373103
7.17,-0.06517844129218726,-0.5044997627057941,-0.1636130817457574
7.18,0.07272350088845192,-0.21640152402583265,0.22047437690030242
7.19,0.10564692346251055,0.3747892772621683,0.435129306301665
7.2,0.02682628619706953,0.6859222942559426,0.2695958469421674
7.21,-0.10108923857409577,0.38459249151021985,0.023718081538483413
7.22,-0.2252681315478142,-0.2292755401952119,-0.030388977680564075
7.23,-0.2188415080367015,-0.7363498849470427,-0.24563724385423755
7.24,-0.07901060980344564,-0.8295870525997019,-0.25332526505743136
7.25,0.03391901788624766,-0.14450667564364358,-0.022525810874552386
7.26,0.02539444827391353,0.678400189603234,0.0768141855331216
7.27,-0.056233422306739236,0.5149244305601407,0.10475842273029996
7.28,-0.17129077028520057,-0.3129707794208977,0.20177822554831448
7.29,-0.27459370197722377,-0.5699552765867361,0.17960401248224755
7.3,-0.24811647833850328,-0.2197740361725112,-0.09125969438735104
7.31,-0.14418157316688526,-0.019921290739447154,-0.22116885824067567
7.32,-0.0604037170819251,-0.06666110960970276,-0.13570365043647964
7.33,0.002348601579428205,-0.08026780137429843,0.03923050791347919
7.34,-0.02849738621840188,0.11775241621857606,0.20402405153624587
7.35,-0.18489935428129814,0.2761892507455738,0.17494645964515698
7.36,-0.31177148545582206,-0.21172920723710273,0.22769403458767346
7.37,-0.31432661906945775,-0.7931875879349183,0.35173266159270133
7.38,-0.1625809921053254,-0.5604162680040433,-0.10710129734776765
7.39,0.13702105874408171,-0.09827019478409628,-0.7495516730332948
7.4,0.3062596138535405,0.24028814391509798,-0.6319805567585829
7.41,0.18429847475354175,0.4929031937810952,-0.15660897279389643
7.42,-0.036108304650908876,-0.07479632303099183,0.4119487640655013
7.43,-0.2388917040079313,-0.6315952263662397,0.798046004074722
7.44,-0.378031340499656,-0.1399713277752643,0.6216957559570866
7.45,-0.3754422800822319,0.5340153074197418,0.019786670168858378
7.46,-0.1191674644008618,0.12068696623621979,-0.6029977358779053
7.47,0.2585261986451004,-0.813487556335321,-0.674524823649876
7.48,0.44754036286163534,-0.728478765449796,-0.36599202944788783
7.49,0.4479397040836761,-0.017605110165691357,-0.1539799335258132
7.5,0.32996563730811346,0.22087591433970633,0.19246112933254506
7.51,0.02087985624763327,0.4441880833143483,0.4619177189943721
7.52,-0.33822796688973633,0.7008512215531622,0.48074500291530986
7.53,-0.43897556478949884,0.25905000575129633,0.5002375544638906
7.54,-0.13893900091509,-0.6221722329816028,0.13368993720774594
7.55,0.300653975962506,-0.7876926298948985,-0.4511181953758189
7.56,0.5922902760509041,-0.1567250846703015,-0.6021493515500161
7.57,0.7161347786150549,0.15922247978628076,-0.36726055582614314
7.58,0.6287067345008297,0.17450744400113488,-0.05804607039583889
7.59,0.35126504441948947,0.42186225948026057,0.1435818050452784
7.6,0.07122492690608007,0.4152653880389738,0.2516896717333925
7.61,-0.10019308367205418,0.07538023750082283,0.20481702512447017
7.62,-0.08325992174207177,-0.1185772956711249,0.03871857968049196
7.63,0.14355607829846687,-0.2019856280334494,0.09142835925719325
7.64,0.43228543526181884,-0.04035532169267364,0.09695888317133662
7.65,0.6051846534502947,0.34172496270952135,-0.017466078416974073
7.66,0.6137955151839605,0.4432521842084364,-0.02940422270983613
7.67,0.4978422933124051,0.1325042860307089,-0.05554544003486086
7.68,0.2679061844645446,-0.10080343027730893,-0.09547844179065408
7.69,0.03756548972814257,-0.02111559323982992,-0.03789238073113586
7.7,0.009577117394538747,0.10240229229699986,-0.0381361175501022
7.71,0.22635011377732858,0.061624510067678016,-0.15784040486944667
7.72,0.4574005111324164,0.15816224436333345,-0.19775814668361277
7.73,0.5003070347472547,0.3483167111414967,0.0778376464945479
7.74,0.3897918296605909,0.19488702675915698,0.4044271310189745
7.75,0.20641216240490334,0.04606524086523884,0.3004664571753649
7.76,0.06061809642806175,0.13671211220647686,0.032467546113347776
7.77,0.03717401430581054,0.19824010713176277,-0.04800838130690186
7.78,0.06812305682154798,0.13062060717579732,-0.03606707936492447
7.79,0.09404607802518253,0.05256518698957222,-0.03263835731997578
7.8,0.1455403539226077,0.22538329858393907,-0.1075022930018204
7.81,0.21086822616153816,0.34685939081906825,-0.1186846890683038
7.82,0.24505484045041076,0.145200453810743,-0.2694710559541781
7.83,0.20403125773852615,-0.1354044476686272,-0.30676285143632886
7.84,0.05942364323219251,-0.22681608321509253,0.11781322903086298
7.85,-0.13241910753662872,-0.01120530331834978,0.3539344193179057
7.86,-0.2516800419933293,0.21257493401358143,0.270592774411017
7.87,-0.3012391961881694,0.4090318297111077,0.1877862109642059
7.88,-0.26279229749264155,0.36716583372691797,-0.12542558965175687
7.89,-0.058473490297652524,-0.24596987260034872,-0.4881227845706942
7.9,0.15226317048383992,-0.7468522524889692,-0.1302426147567297
7.91,0.22989942014173087,-0.14455745688190225,0.08308908181406449
7.92,0.24409942508096355,0.6218868689871391,-0.1806234298093584
7.93,0.1619981145091413,0.5642935689309697,-0.0002463183196691303
7.94,-0.08828622377018351,0.45893496452427224,0.22814683090312868
7.95,-0.39004540527724607,0.591586301742073,0.13099327844269343
7.96,-0.5020483528772709,0.13642558079800732,0.19773965873050134
7.97,-0.36548503460913934,-0.5908407441269025,0.12076410909306082
7.98,-0.08688909106874644,-0.6520454864464559,-0.35912048598266544
7.99,0.12658588190919032,-0.16979883401462892,-0.34286471803777635
8.0,0.11630772234550048,0.5330784085218747,-0.05402178533372494
8.01,-0.012769554078686567,0.7100117672906756,-0.06712581383607406
8.02,-0.1729701264365639,-0.10995446645356492,0.15713261476619528
8.03,-0.3868239223956756,-0.6798820039805414,0.23639378828165888
8.04,-0.5051329292306946,-0.47078250331790705,-0.08057169474897546
8.05,-0.3592100814721802,-0.3614287883563908,-0.023856374486312337
8.06,-0.08217472685776384,-0.024909938043774813,0.032931855924876935
8.07,0.142817933886191,0.6645055629561202,-0.22582306884627767
8.08,0.30211574290807686,0.4631852006877919,-0.16876904576660517
8.09,0.3381313120211484,-0.373523298461218,0.11631470925319685
8.1,0.16665895556340168,-0.3935852287378241,0.1963662785241312
8.11,-0.06291141014942474,0.21051855228489447,0.09737653571463674
8.12,-0.12980798698796087,0.4133932987361411,-0.07652381374060321
8.13,-0.01738528037479895,0.16383963700955853,-0.16017310504023952
8.14,0.1959818142790327,-0.13438111778136674,-0.22359796086846712
8.15,0.4262675059368867,-0.409986523392163,-0.15969601851122883
8.16,0.46943184977793384,-0.21452171740707326,0.19951403678300955
8.17,0.27025313804919804,0.5622920348121586,0.38636857004731545
8.18,0.005141605943197855,0.8740006653689725,0.42425899952213997
8.19,-0.13577805781810406,0.23554429947891825,0.37528001854695897
8.2,-0.1417052962908079,-0.3892946839041282,-0.0336702951820064
8.21,-0.0706508266570399,-0.41306200838566126,-0.5185307779346462
8.22,0.11253403515941764,-0.3057503404773699,-0.5883374599282372
8.23,0.3536632165868631,-0.2492005201691877,-0.3428859405186434
8.24,0.46983200000205516,0.02412141012194075,-0.07864112458627667
8.25,0.34112954846784943,0.3911072436314447,0.21906763084608386
8.26,0.04825293761204707,0.4528809258747577,0.40619603238194185
8.27,-0.27518849359455244,0.41105103356741785,0.2928749438927584
8.28,-0.4880044266261734,0.3457026574820078,0.16504019751788396
8.29,-0.4438710372839061,-0.05525677711945017,0.07935442716263862
8.3,-0.12136654008488794,-0.6838970181820442,-0.12806429433912717
8.31,0.21018977486688134,-0.5971106148124729,-0.25923372839772507
8.32,0.29335627737347525,0.41070085772850556,-0.32080430531728965
8.33,0.14040599009958626,0.9122576345415687,-0.17869626639204603
8.34,-0.1061669531706691,0.20882088804866203,0.1001601924754542
8.35,-0.315810386635395,-0.6805306146283342,0.21893744574108764
8.36,-0.42233682098653846,-0.7670388193438389,0.20109430899272096
8.37,-0.41273560587836655,-0.1980356203639832,0.1273958985820426
8.38,-0.3079675515062808,0.34251564854718725,0.1261320625711478
8.39,-0.13084896452490086,0.3748176947593652,0.2678096349702092
8.4,0.01569379125206805,0.20775488193787486,0.22080386848415462
8.41,0.016984686130237788,0.21670583085952674,-0.2220439736216921
8.42,-0.0964773961772106,-0.20405993468430453,-0.3384513616123891
8.43,-0.2119128759371122,-0.9808052005955626,-0.029476097346795637
8.44,-0.20710383890897183,-0.9905858992095423,-0.019436258114098045
8.45,-0.015552098419556317,0.037103119098110794,-0.1376532371127643
8.46,0.06596818815404287,0.9288565503133809,-0.08453878368470892
8.47,-0.105940298072451,0.6687062923528818,0.028163643895608922
8.48,-0.28671811661018515,-0.25584717070869467,0.21595370306029602
8.49,-0.2859897112167844,-1.0358563039421336,0.4466478066405368
8.5,-0.10019442130278827,-0.8022602630664726,0.2377578059511542
8.51,0.0580348881577754,0.34595155759609186,-0.2978841603435153
8.52,0.07089003604594306,1.0743326217791938,-0.26356330959110036
8.53,0.04035307158112724,0.8095964858861306,-0.06759747871300809
8.54,0.14643698198873006,-0.39928350253876355,-0.21661225849150695
8.55,0.2933159022704209,-1.430162851580649,-0.14189603484727076
8.56,0.2943895482805035,-1.0481824675604448,0.1568390444993237
8.57,0.1930167999818513,0.25347202503133254,0.26448048748045877
8.58,0.06634088954445418,1.3476697965214846,0.28284620031689267
8.59,-0.023717023900527268,1.317607584133037,0.43827417060709706
8.6,-0.09108528296802526,0.44157900021519664,0.326149744699604
8.61,-0.09846946609639776,-0.5327905482073726,-0.2366719198968362
8.62,0.08471625343247868,-1.3134482809404546,-0.5799996705289988
8.63,0.38723344689976563,-1.1792473404119896,-0.47467265144319276
8.64,0.5579240090887492,0.17149353997091932,-0.26030778650276887
8.65,0.5100972779405464,1.313446040946788,-0.05396796343773501
8.66,0.3950366755574056,0.8463665542583333,0.17102845239745526
8.67,0.21553523510321682,-0.16175807277781482,0.36095190508331665
8.68,-0.11408878091459447,-0.22477322208348627,0.4599475607884721
8.69,-0.36981373048462396,0.12644377899952236,0.32242776364487274
8.7,-0.28629385150667985,-0.08917157989872056,0.07267311770045679
8.71,0.059818493559891245,-0.4513354699850933,-0.1211572882976314
8.72,0.37405380860296583,0.14226323645157213,-0.5732811945073579
8.73,0.4416567264014336,1.080497366793558,-0.7872101886857242
8.74,0.317556475481309,0.8964847443981396,-0.4033246974820395
8.75,0.167400039562106,-0.19820773691799903,-0.10654567726916478
8.76,-0.017929383541557112,-0.8512296341314969,0.06566516974202165
8.77,-0.2437650497913407,-0.6168118924834746,0.4415958107809473
8.78,-0.37924068229923164,-0.24707861865735714,0.8635407945764855
8.79,-0.379891095495477,0.3724375362604561,0.7381146013658094
8.8,-0.31506598113625517,1.420504433099714,0.07665629623195386
8.81,-0.211765814245346,1.4832708642735466,-0.3818558965519428
8.82,-0.07051081346673124,0.16450764758135683,-0.6187722467598173
8.83,0.07206969877974752,-1.0984384903732594,-0.7525209387478355
8.84,0.13837140686318616,-1.2430336831355757,-0.40442173536558096
8.85,0.06813860881151725,-0.34982030617660753,0.17423044306578475
8.86,-0.06967500545928143,0.5579391059168379,0.4527918048236562
8.87,-0.26915723987447504,0.9625232188681746,0.3866812473668585
8.88,-0.49416941965346756,0.8878022304139545,0.19805248470762696
8.89,-0.5495446655504803,0.08394177057188644,0.11751632713690535
8.9,-0.36946892936365605,-0.8124146041679746,0.12348987533404567
8.91,-0.04384540135676653,-0.6776958596925594,-0.21170846367761043
8.92,0.23733893054096125,0.05713505534382316,-0.46851674652921216
8.93,0.24488569371285196,0.4276163628325178,-0.047647174524254474
8.94,0.0056529084347338035,0.2793711735890443,0.35210979677943754
8.95,-0.3235896340233102,0.06355905748326472,0.22504890879432135
8.96,-0.5607615929682928,-0.029855872309580197,-0.08222210340103042
8.97,-0.5923630747323441,-0.023057252622329077,-0.41747353047150276
8.98,-0.4524165156559453,-0.12505623065804394,-0.4007151713734571
8.99,-0.2936757005468011,-0.17276981086014193,0.2571459496664187
9.0,-0.20698282769896184,0.19914523185392577,0.7938440182676498
9.01,-0.1095339906669519,0.3072581756088567,0.5814302623249724
9.02,-0.022607890245360487,-0.17865162771886492,-0.01000749447562691
9.03,-0.05020194333988017,-0.30216073377092056,-0.5814239797468994
9.04,-0.1308460149429513,0.040597302399532444,-0.7449846004132133
9.05,-0.1707047326533456,0.1670452518171378,-0.40475037537314584
9.06,-0.16810975295636404,-0.007206548096217093,0.045732575865480976
9.07,-0.14462169911146616,-0.17755371751517718,0.47399506315320444
9.08,-0.0895545269368732,-0.13867277304833026,0.5740661010093959
9.09,-0.0036314178110191235,-0.05453403197787987,0.21440888992923
9.1,0.0614180006471697,-0.060064084616577945,-0.18597884328641706
9.11,0.08881528188483723,-0.11583580627606548,-0.2474918500091581
9.12,0.05693610899777237,0.019358516837981638,-0.07835204197420907
9.13,0.024213849038469026,0.2015068822547393,-0.12634424420201795
9.14,0.024321928399651513,0.0348061471013633,-0.06276659872080101
9.15,0.013213502902496543,-0.10676868881108197,0.12125567275735269
9.16,0.003158081176519073,-0.03783400712436198,0.11167000336833147
9.17,0.04337255042681348,-0.08764824033155036,0.019912539060046655
9.18,0.14400237602851593,-0.18046822599980405,-0.02705717271709776
9.19,0.26758157285785605,-0.08964622601986223,-0.08218253640577595
9.2,0.32652805473933466,0.2905489967124511,-0.3346167193833967
9.21,0.2681693526708071,0.39613299965215387,-0.20306708906765283
9.22,0.10988397969401559,0.036895166080272435,0.38133891297260747
9.23,-0.08225224602421685,-0.05685070850108744,0.5268966028892907
9.24,-0.1839642536017041,0.08306541557523409,0.24617455407019828
9.25,-0.1141685303828018,-0.06049842660179303,-0.14881903532515414
9.26,0.09593750784612981,-0.3085326234273954,-0.4921969413538959
9.27,0.35735263356766256,-0.3741609271664464,-0.4490134314367309
9.28,0.49729834652446986,-0.07402991093804807,-0.18508014432483677
9.29,0.39484918709757894,0.38688303186337736,0.0021837761383262104
9.3,0.13059378050365933,0.26608888529067903,0.32472684657743317
9.31,-0.1360858802444633,-0.22136183552727803,0.5236694119692271
9.32,-0.19114840910687614,-0.3153630677445259,0.16883942591415738
9.33,-0.06583222547139293,0.044178210081457774,-0.188235717698974
9.34,0.007824312516643886,0.5426748174519844,-0.24652157076437153
9.35,0.034670816365505175,0.4234529753243732,-0.057538294169783885
9.36,0.07997833121174425,-0.1747574767649142,0.13846238744413894
9.37,0.17166016658119962,-0.48348976719088055,-0.04399512989049648
9.38,0.27802115200511124,-0.3897050997268987,-0.37787119741795183
9.39,0.3178519530031443,-0.15471424606446857,-0.3224896945369698
9.4,0.17742752653203092,0.3655665691950885,0.1699758844383379
9.41,-0.09722646128471722,0.8578343845613431,0.6203460833346776
9.42,-0.27828611044159063,0.5798296923776018,0.5169575158037346
9.43,-0.26224086015985953,-0.21498850587555668,0.07525825521724369
9.44,-0.1186760353351448,-0.5241896688637145,-0.3690825980435138
9.45,0.03525523525162305,-0.10198320051564617,-0.691430665594804
9.46,0.17412083065055703,0.16354959150180332,-0.5117405102828074
9.47,0.26823681571283076,-0.14586254025749806,0.057347986541443685
9.48,0.20463641228197912,-0.33129189154363525,0.43135383409707867
9.49,-0.045957617966947924,0.16453796911983018,0.3589534382121825
9.5,-0.36277747044668496,0.6855241640024828,0.2020553406171437
9.51,-0.5712494726170992,0.46483322239350583,0.19913877192266285
9.52,-0.5099100020858158,-0.3806396304180305,0.0992444908675999
9.53,-0.19136269473603212,-0.9004784556670812,-0.2187021363573835
9.54,0.20271112124642005,-0.5313423501301273,-0.580325186272905
9.55,0.34740644862643477,0.39567630982379803,-0.46649151166391606
9.56,0.15430284677781286,1.1030209018821575,-0.24727078657767576
9.57,-0.13426873818144214,0.5008791375357659,0.0499576357101426
9.58,-0.37426823633435985,-0.8823840200308587,0.6490928149427658
9.59,-0.5596617342471536,-1.1420273991351755,0.6754021326992146
9.6,-0.5970632864920243,-0.45871675810507656,0.29059852160889454
9.61,-0.4406686572506683,0.156486679231791,-0.013144221267335113
9.62,-0.23027171274933952,0.7057874162793407,-0.27029119189016076
9.63,-0.10132172214256788,0.8834565488800988,-0.3267603336626077
9.64,-0.11988564086042498,0.4500483398276239,-0.4080055196484075
9.65,-0.26383952269807925,-0.48511866725601743,-0.30435499889189527
9.66,-0.39097011986438346,-1.494216940979305,0.19877268211321392
9.67,-0.39062324631066875,-1.622141857235243,0.519429401103439
9.68,-0.3160858145815314,-0.2502000957937624,0.19261567961126758
9.69,-0.29925300013279965,1.4269818496770545,-0.13902318165626626
9.7,-0.3600965488845651,1.6311889500694163,0.021327721047019348
9.71,-0.3355139673597776,0.2091857690502711,-0.006890983030048063
9.72,-0.14576187856589917,-1.551602264796346,0.1037230828420334
9.73,-0.03242293557717992,-1.442786948066742,0.2012164827972727
9.74,-0.010064720109159323,-0.2824919299483789,0.05596254483738762
9.75,0.042992716700440074,0.12470736213644847,0.08529665103744832
9.76,0.09732435373969517,0.2190710449005035,0.12724621105474562
9.77,0.0325451185757743,0.7101819551917797,-0.022800922357731172
9.78,-0.11654558044651231,0.9658330937949445,-0.42013381682145845
9.79,-0.14743205081657776,-0.005463047283201621,-0.501070072062126
9.8,-0.053651772963396405,-1.0757810849246778,-0.03994844790325713
9.81,0.01963147058875902,-0.5697167125751157,0.23979027335920522
9.82,0.0038161782501210757,0.26825368313343206,0.6304412340919607
9.83,-0.026918430686685556,0.06738067759227893,0.8703558414051388
9.84,-0.0016735471306371646,-0.25466744625530136,0.19568524738103138
9.85,0.042202434083547,-0.1154427192911816,-0.420250911605826
9.86,0.03428339980533437,0.274041661017779,-0.6070914223180158
9.87,-0.01717659764483758,0.24983422615509102,-0.6359580439839135
9.88,-0.08148826685736013,-0.11030030720418206,-0.32007762759144504
9.89,-0.06482290003279194,-0.30388873664177724,0.17364414685144136
9.9,-0.02807550626485206,0.014470216776060772,0.27438188403348746
9.91,-0.1069593240298437,0.2838849727365106,0.3102704489705492
9.92,-0.22820397643329277,-0.056552767934078846,0.37657957079531035
9.93,-0.30024042187117594,-0.28122982191450213,0.12782998996514397
9.94,-0.32810163319918945,-0.0020190246356948764,-0.1210884567496169
9.95,-0.30381651038912094,0.21092827153814525,-0.25716658893181393
9.96,-0.2129163542764435,-0.11839218274482008,-0.29261603726489727
9.97,-0.13228058904995205,-0.41161372100995636,-0.20721809896037188
9.98,-0.10898175031053725,-0.17043288222561137,-0.09301686164207677
9.99,-0.1205147317627427,-0.09134460823055063,0.16648068112474784
10.0,-0.14997963491661873,-0.4502539881619127,0.3763671347207256
10.01,-0.204854711195308,-0.40858492550906217,0.2557480146321697
10.02,-0.3159673171527948,0.29863845233302355,0.03815506012014286
10.03,-0.45382048891866567,0.8483226413674574,-0.09957980874394734
10.04,-0.4451933449071689,0.34350483043276686,-0.12470942633996183
10.05,-0.2570302492418852,-0.7754964737194099,0.05615618912263733
10.06,-0.018997682738790173,-0.9833872614135919,-0.2011602753465995
10.07,0.20038402713564632,-0.5999034511212628,-0.36366621084722306
10.08,0.2251546367830026,-0.15439762012941785,0.14024852142380884
10.09,-0.001295095898201505,0.5920779354469702,0.3149881664760516
10.1,-0.2861624264068857,0.7505220765507418,0.20953611417257967
10.11,-0.4055139615954126,-0.2973382516962879,0.26289595448197334
10.12,-0.3674906404099018,-1.0409460543977218,0.113592330127135
10.13,-0.24011656161393324,-0.5906136190213006,-0.07141892370408578
10.14,0.028107403848302737,0.091430055765296,-0.1400361174153515
10.15,0.34622584058933176,0.28557836020678684,-0.17090091297983798
10.16,0.45832000338509427,0.28573124227327795,-0.05597725333906857
10.17,0.28936364141753496,0.1285699631201061,0.17036213323000715
10.18,0.06011489522092886,-0.4090480707987185,0.13116054834246213
10.19,-0.07326810836941232,-0.7600621706847487,0.10535611424164974
10.2,-0.12073767444174538,-0.17547882438730075,0.16699058128295133
10.21,-0.07678615048313908,0.7023897533939436,0.04961862394436446
10.22,0.08280062259048594,0.5802276759498038,0.06540739609100445
10.23,0.26512851620439626,-0.2588199493390647,0.20954157584400546
10.24,0.3730140823506234,-0.6116556365968212,-0.013763755618940658
10.25,0.4141853617678263,-0.37029630065303293,-0.31157811350496856
10.26,0.3892597257610553,-0.06231547491948851,-0.3061928932738334
10.27,0.24778140280015995,0.26094987114313845,-0.199225760170927
10.28,0.01960743434787618,0.48602111267081916,0.06700144412013966
10.29,-0.153400492606675,0.38952451803121196,0.2759725854855438
10.3,-0.13798775008861622,-0.14108599786710194,0.283303553111884
10.31,0.02288597251570012,-0.6006203654303133,0.2005924889553681
10.32,0.19949625545355998,-0.4933831309855715,-0.00454324573784876
10.33,0.2947973530103909,-0.22239659365523642,-0.13322958586260503
10.34,0.2786856928957976,-0.11956457298658119,-0.08444372214923591
10.35,0.18620952772902843,0.03645942361996236,0.028454547079559054
10.36,0.12561239650993192,0.14994203457321362,-0.1319484314526942
10.37,-0.0002005672755044606,0.27466626225827273,-0.3214676581904443
10.38,-0.193404524107469,0.12181823263980107,0.08946596176772968
10.39,-0.21492707411267137,-0.18888825279940577,0.32847146425037727
10.4,0.08901971288143933,-0.5798449347157842,0.2833945455649591
10.41,0.38693111872692987,-0.4170808995885525,0.058259668491248466
10.42,0.41440508257651193,-0.14948491852396675,-0.016034263994994077
10.43,0.2387186983185127,-0.18281745096319646,0.25550853363763837
10.44,0.004502019752146457,0.09943245388439191,0.2711886929416364
10.45,-0.10488571532919454,0.41145669351394876,-0.15605761336288215
10.46,-0.13008160020691018,0.3838477859654563,-0.7164918522971337
10.47,-0.13694743473481003,-0.17402254302002426,-0.7222221468444034
10.48,-0.10910843459044212,-0.5700275722488457,-0.1757040671714374
10.49,0.09353817517995007,-0.585445763554311,0.18631825829321932
10.5,0.380915146692557,-0.5148831179618769,0.35871000584737217
10.51,0.44740158809590674,-0.20949031696433337,0.48618562426396417
10.52,0.2689266918805642,0.01710015143678054,0.4751770816960372
10.53,-0.02554780457555942,0.3071349823535525,0.11652792953842052
10.54,-0.2814387647226005,0.5837241594966046,-0.2487664845480455
10.55,-0.2684453695263306,0.11373423948299868,-0.3840950863653928
10.56,0.04390015656146473,-0.7318820952349484,-0.5410355029852263
10.57,0.34786011631865593,-0.815202786001305,-0.43226346722426534
10.58,0.454722471274019,-0.1672777033412052,0.00231516234407323
10.59,0.40725228556636406,0.29513420919286687,0.44144848449792146
10.6,0.27207122621661484,0.3376375500082798,0.3946040592976335
10.61,0.14114320955245926,0.04473077998804447,-0.06741069656767038
10.62,0.04129864004716862,-0.2734433309051565,-0.16622016571873877
10.63,-0.0015632574529313632,-0.058702384611620965,-0.024070878751522785
10.64,0.12801894146957743,0.12751182770214212,0.12211311010463936
10.65,0.3676921543131985,0.01157918327277028,0.2132213916161318
10.66,0.5412177167497053,0.1377982742148016,-0.05672249102405028
10.67,0.5241321589727131,0.24147161830108202,-0.057147826551969164
10.68,0.35561202104298284,-0.005012882375420909,0.1600322604596225
10.69,0.17490616225896155,-0.1645852278114236,0.0045910733905470446
10.7,0.10446556797405973,-0.12735933257030776,-0.05130748600215932
10.71,0.14287351779653304,0.13702433885659857,-0.037999077251214354
10.72,0.22430469445231632,0.4648534606793885,-0.31146967650456786
10.73,0.3112311272273558,0.25330875246628887,-0.12351007829674134
10.74,0.36794083513327464,-0.18369278417802754,0.32465981909084146
10.75,0.3841767902367279,-0.30066419834617747,0.37271827981421907
10.76,0.3621365874073911,-0.07025419975544692,0.03513013187694343
10.77,0.2954342024579852,0.21545384983667662,-0.27259514494799386
10.78,0.23404133980260505,0.24983237128388766,-0.30009113811772054
10.79,0.21337657238343086,0.26456351470666295,-0.21798957484327822
10.8,0.2864909673054039,0.2855559100708334,-0.21716930234551338
10.81,0.41803673726378904,0.03683080188999225,-0.07072441386037023
10.82,0.46359244221352774,-0.24493176835882413,0.315842647287459
10.83,0.44808182283695513,-0.24511924979887656,0.5142852605765155
10.84,0.3607334192971221,0.2661588748702623,0.4858421801559854
10.85,0.14651689622523345,1.0939343962492776,0.22703502546727475
10.86,-0.048279056512279116,1.13644029399032,-0.15815974807634192
10.87,-0.07819248894527578,0.011359905227265685,-0.23100031150617936
10.88,0.06934186742783278,-0.9166305730939156,-0.2953158727395242
10.89,0.3231659644403102,-0.7609366402166577,-0.3694289762509001
10.9,0.45112142481955375,0.09948940791585036,-0.1134563440684301
10.91,0.2690901186755795,0.7763138755243469,0.26814499804496233
10.92,-0.05409133538698016,0.4114187794191354,0.46599627933184057
10.93,-0.3182616850788156,-0.33204600739096146,0.35553076645465176
10.94,-0.41749521871109263,-0.38214560433070816,0.07236800723054318
10.95,-0.4719683230505567,0.3875120486428363,-0.4377760161512028
10.96,-0.46824785050738277,0.5664277149278013,-0.5578767390992199
10.97,-0.2972877200140419,-0.04814750968661295,-0.18575540139220417
10.98,-0.041550957360267295,-0.43421604486795423,0.18996116873776886
10.99,0.00241916278888608,0.1530161337034762,0.0756812718123566
11.0,-0.1394923188836387,0.16355671742927053,0.17536626421628795
11.01,-0.2921906771839565,-0.6057493292624551,0.4785282066408867
11.02,-0.4325266129756249,-0.3634300498386969,0.25880062178702545
11.03,-0.5244550660924078,0.8657509283326426,-0.3786699760456936
11.04,-0.4847806928847244,0.8923217779972902,-0.442258375774217
11.05,-0.39124106509345613,-0.3064306469453613,-0.06482188430619272
11.06,-0.28479433479701,-1.1389559155594582,-0.032980220399818204
11.07,-0.17650077610582332,-0.964146876033948,-0.06924281173412483
11.08,-0.11003694876513105,-0.07282368466548148,-0.1377744521928916
11.09,-0.11851944387416959,0.572068304534682,-0.1402760179230494
11.1,-0.20075561380048126,0.5088082708969489,-0.00899482852837244
11.11,-0.30224027134694464,0.10803200290186975,0.061618536030037106
11.12,-0.38512631943260467,-0.2372142738870017,0.3037140758362848
11.13,-0.38990348568399125,-0.239390035997439,0.19711060758563978
11.14,-0.20845052627698474,-0.4881200130836015,-0.2597845071221823
11.15,0.05939956133258696,-0.9487990404895431,-0.21687064468149986
11.16,0.20458909187602234,-0.4754493943491329,-0.040472143268463635
11.17,0.14471383159990692,0.6207468407724224,0.10978196775996522
11.18,-0.02882154195393148,1.2366002987423954,-0.010385631084525632
11.19,-0.06634318297432723,0.5113849976604102,-0.25546376378203184
11.2,-0.0004813256051933486,-0.7645221313780164,0.11421902534701771
11.21,-0.006994334528151407,-0.6270594206134874,0.12172794530818808
11.22,0.024991136663098552,-0.025199527552712903,-0.13242540266185263
11.23,0.18945791749987662,-0.20370528222553505,0.11744029612550956
11.24,0.31928984160692236,0.004601592422470131,0.28286205276371834
11.25,0.26664291796188067,1.066451692283858,-0.07971515953201516
11.26,0.11126416248561091,1.1474203111745425,-0.17280447542543953
11.27,-0.0027634182311725274,-0.010176516461606961,-0.10092630254449865
11.28,0.03346807665478276,-1.1618179020339074,0.005923941097037631
11.29,0.16565859235765168,-1.0651419273849452,0.0952217984419001
11.3,0.3275704496281619,0.03400949717056478,-0.08029255565400614
11.31,0.42220186563950585,0.7035930111134949,0.06104361716080522
11.32,0.32382912403921493,0.9245035585254077,0.2498907327247968
11.33,0.14460059590469931,0.6965935122765018,0.06393965717753529
11.34,0.02185271132528724,-0.26159294133322225,0.13862126457111737
11.35,-0.011986641750514362,-0.9312480527107813,0.23317210367161958
11.36,0.07663864545210416,-0.42479338663374916,-0.06884246268284769
11.37,0.339157459557498,0.2324803962698688,-0.3303668992451038
11.38,0.5651203378603854,0.6147409086613165,-0.46041362855902046
11.39,0.4884227770807773,0.8899412001742133,-0.10496215332939236
11.4,0.25117523423394517,0.5614280467813553,0.22779267462409156
11.41,0.07878081160834195,-0.3385429796730393,0.13294973079834788
11.42,-0.09109811608021912,-0.49396336754852666,0.10544713558829037
11.43,-0.15739951427273716,-0.031294980491644975,0.18598583608999222
11.44,-0.00616934762723494,0.20757776913521653,0.10643184591804074
11.45,0.2750087499444103,0.07080867415639111,0.11387635363997739
11.46,0.46661127374982425,0.05747489604898727,0.07505220037011402
11.47,0.4835039264311826,0.2310208089187538,-0.3533870974263934
11.48,0.36179239787693734,0.2440769494999543,-0.5764164169221713
11.49,0.16696418870607954,0.17914602876827931,-0.3145556260866531
11.5,0.09140774854828022,-0.006608891221381238,-0.049103437948335334
11.51,0.20801709630200682,-0.41093609034178474,0.43496697273941604
11.52,0.2319486702321662,0.1546878187010902,0.6222528352622595
11.53,0.11058616201179117,1.0391573634239426,0.21000282038762483
11.54,-0.024116063638811976,0.8399424280082349,0.025489368422626224
11.55,-0.09039973000157406,0.03846129241736723,0.22831831445159717
11.56,0.012151608640398427,-0.45576756141610425,-0.08528815931894541
11.57,0.27235481861228733,-0.6164289416513445,-0.6309898916442017
11.58,0.4144321880260601,-0.3902925593978055,-0.46005385366874646
11.59,0.33547046018929033,0.06926499011433734,0.09119694118816823
11.6,0.14711520878238082,0.7880139442986537,0.09165092212163008
11.61,0.08650871261408993,0.611244453033182,-0.020476281811643352
11.62,-0.014833930376525752,0.1590734802158168,-0.056462356382569745
11.63,-0.18271501456715417,0.06392517787444997,-0.22806470867560044
11.64,-0.1574563720484229,-0.3155331685229482,-0.08374447574734252
11.65,0.07913176900895941,-0.5624245526529467,0.34788493759977507
11.66,0.2265365008609144,0.31002745823311323,0.38117592908736103
11.67,0.17866738721488346,1.0957962321285735,0.30683120066763253
11.68,0.03391264881010677,0.8475799558654915,0.22909330549631318
11.69,-0.09567927979489887,-0.03138158499581676,0.060982768011051416
11.7,-0.21086432904479632,-0.34592282458141016,-0.3534546380994169
11.71,-0.23154069621895396,-0.2736200076895982,-0.5392584752204843
11.72,-0.08669710982605766,-0.2830954180847969,-0.3765079483713318
11.73,0.1677205173095947,-0.26420018878681495,-0.16392491090867398
11.74,0.2906430946320253,0.05403406077061121,0.01939553391067342
11.75,0.1597219834190018,0.38560806345892173,0.2127562201614937
11.76,-0.12209803397047614,0.2993143133691054,0.3946636723659369
11.77,-0.40743864223175263,0.030172297020721623,0.34275405477864085
11.78,-0.590527047454162,0.15301438629488312,-0.024479071597883477
11.79,-0.5190574284029419,0.10665304476169926,-0.07592468018337419
11.8,-0.1767740987066779,-0.321039476502763,0.009469974529118555
11.81,0.20767046107582304,-0.25887708927820247,-0.35393495344781184
11.82,0.441574374094041,-0.03323382340305372,-0.4282687673458528
11.83,0.42392085324616435,0.05638758825936182,-0.02821256098579853
11.84,0.1370557363265664,0.42624903963613997,0.17081767970408512
11.85,-0.2496055640985795,0.6587252151705097,0.09971401722982846
11.86,-0.49044451537666456,0.16486134865545773,0.24024966740802828
11.87,-0.4579033698178829,-0.327590891151933,0.28636261688306525
11.88,-0.2042924800449058,-0.23143064073184957,0.036300558252370524
11.89,0.13012858948366834,-0.03837527313325083,-0.1925680812429804
11.9,0.3108861150599787,0.16975485746831515,-0.17006034311033644
11.91,0.23963788898384986,0.36650570244653424,0.11813324692043345
11.92,0.07774152242865122,0.26309815748370846,-0.01815100695555301
11.93,0.028863909622926644,-0.4895719915294808,-0.2003314905622168
11.94,-0.10766268025753811,-0.5491019727153403,0.0010991855162021111
11.95,-0.3443109832768735,0.3038192809713091,0.22430378552997557
11.96,-0.42086435683527545,0.7027803066814412,0.14902839017930972
11.97,-0.2473917300271517,0.1928944575280535,0.051369015103673275
11.98,-0.029574851632776983,-0.13016288857926597,-0.06963318342559954
11.99,-0.019993941521093725,0.17424854251782443,-0.1410040535597852
12.0,-0.06296065161445992,-0.10387618230445815,-0.14252900847965866
12.01,-0.12246657399607783,-0.5556560387078798,-0.03734597518425088
12.02,-0.2255683049324848,-0.2154105420653985,0.08975549823366925
12.03,-0.31298898942791287,0.48959869805170225,-0.015567536800919149
12.04,-0.23837518881090358,0.32702445581432926,-0.30186969828139987
12.05,-0.12969552365556045,-0.32991021361791806,-0.09854081775864199
12.06,-0.15913015554772084,-0.3080070923342564,0.2543671652993172
12.07,-0.16806186340168364,-0.1509630532295723,0.35222972564083266
12.08,-0.09837637241411505,-0.16089349384722196,0.2988369843780843
12.09,-0.11695029617440143,0.29675187747653764,0.024644952090797288
12.1,-0.18739094437260378,0.55607449103074,-0.3526204391154368
12.11,-0.18249333948253976,-0.0325923639255951,-0.28787630830069094
12.12,-0.10821066999171063,-0.642787391202226,0.0046647665315574915
12.13,-0.09689287033128931,-0.22051804481629378,0.059536428696454244
12.14,-0.06573624954862316,0.15926394415831804,-0.0387650007003097
12.15,-0.05640348184262715,0.011696988154172172,0.00827185076239328
12.16,-0.14124812126083705,0.03642770891150461,0.08066895328643454
12.17,-0.25207940632533077,0.24161325209367782,0.16530498326247745
12.18,-0.23400195575473426,-0.052824706016000034,0.1801912690080473
12.19,-0.22152686699335525,-0.22108965879029485,0.07302529683236524
12.2,-0.2799296237055509,-0.013404393985370836,0.028404236401516014
12.21,-0.18694254225965853,-0.1711621745907055,-0.1245735788914353
12.22,0.058101919839498466,-0.8927621081664583,-0.06447353180113108
12.23,0.06643200408078014,-0.5192969400484222,-0.024178187260900336
12.24,-0.11893723312986715,0.22576413088267086,0.10076465622994137
12.25,-0.2851109775017204,0.36748500065124673,0.301197881588724
12.26,-0.25638121698883387,0.15141234378633914,0.21716988014815283
12.27,-0.027131546027769494,-0.13454710202210002,0.02070865394702785
12.28,0.08130074484431925,0.20544485129913745,-0.233779136031893
12.29,0.07013457300364644,0.1768332815298217,-0.26824943771092635
12.3,0.08719305066477823,-0.3416692766846405,-0.2525132164582964
12.31,0.1778326180088664,-0.6688470064906814,0.024125732044728218
12.32,0.22995886459948486,-0.09203704444277878,0.023427669105782433
12.33,0.14481237210057002,0.4075230935548624,0.15573026924889247
12.34,0.05173073546976805,0.2598665024142384,0.3660919446541771
12.35,0.06281348232406996,0.17945787766899074,0.21546266556402982
12.36,0.21794175253696865,0.07550373326712186,-0.03643902833749079
12.37,0.2838085253181581,0.3082464907331113,-0.44342224881788334
12.38,0.2870665364239522,-0.20491946369319636,-0.27378964064841443
12.39,0.3132392654462059,-0.7747754036987361,-0.01234348356389701
12.4,0.3622953544624789,-0.34312392966698685,0.021511268962601436
12.41,0.3052038045156241,0.7768517693516122,0.060320476409459124
12.42,0.2037129460516763,1.0282475457707576,0.00031626289951080497
12.43,0.1151323035386705,0.3428174925138994,-0.15739998647464226
12.44,0.0619525054800251,-0.16283069336331574,-0.22843515879034124
12.45,0.043781396018777737,-0.10712911753562585,-0.17153643591144918
12.46,0.11057602343185297,-0.1345322795842041,-0.050601483391915426
12.47,0.21170950622543422,-0.2773557875550793,0.20289977493680028
12.48,0.22711843828193184,0.22172566672337013,0.17641225469712687
12.49,0.08390654218430195,0.9226569928928698,0.09278854471187861
12.5,-0.12350344839074905,0.6526151800032118,0.3314596447219319
12.51,-0.2696681850644238,-0.18669990034317943,0.26229803461145734
12.52,-0.23672656615986876,-0.5954036280840583,-0.226358095033516
12.53,0.018772883704637835,-0.640404151716966,-0.39366905863823265
12.54,0.19741998402205424,-0.1406319099837147,-0.22051172824072193
12.55,0.18684067039951838,0.3104198837001719,0.11113283957307037
12.56,0.060184969909293326,0.6582347956902719,0.18236007259320974
12.57,-0.006793482056699742,0.3673838188160527,0.12095419934990252
12.58,-0.07979922214231155,-0.05422623497346691,-0.11468475084679446
12.59,-0.13627040094944812,-0.3751507698847793,-0.09454846536890692
12.6,-0.10147952706049082,-0.20607120164690154,0.13844884967135615
12.61,0.022096491517310156,0.4994647114783572,0.044776548706422586
12.62,0.13665133397026882,0.8008314000054034,-0.08069954878344843
12.63,0.1546611201745664,0.37258258659607224,0.047512833134168694
12.64,0.13748602253563,-0.18421151339583866,0.058118181266833366
12.65,0.0985742485340405,-0.2518892685883056,-0.04298605091936721
12.66,0.047338408507933805,0.10874345110340854,-0.2642501186844004
12.67,0.006364910385877488,0.13074370575184632,-0.004219236653990519
12.68,-0.07883583198779336,0.21148301715064977,0.45891049515180543
12.69,-0.10976866908449828,0.5679324873195951,0.20751447023228325
12.7,-0.05015859169188835,0.43749390706868335,-0.04651473776381932
12.71,-0.0033345170850572993,0.11400133591878667,-0.2686561593440128
12.72,-0.04459921872919495,-0.22230635311834573,-0.1655359697485218
12.73,-0.08472282052989849,-0.3391237477090152,-0.0676923540172561
12.74,-0.014284905624653508,-0.2972689248346371,-0.050048452864430965
12.75,-0.05971638715782192,0.32256767889947063,0.05231633095954733
12.76,-0.24394859375497183,1.0192819049907922,-0.04847482634055019
12.77,-0.38240568204702247,0.43283038274142543,0.09912589539144087
12.78,-0.3826638257472976,-0.6612151242606524,0.21933027390734205
12.79,-0.3189950794971688,-0.8738004835410921,0.11836209243915043
12.8,-0.2673998569763659,-0.49284578873674484,0.13027865092651378
12.81,-0.17366814485934692,-0.01784457134443826,-0.12135847610179533
12.82,-0.11311351244776592,0.32108309924659767,-0.23978251944706905
12.83,-0.20006006298313528,0.5802489377038319,-0.18592434493690144
12.84,-0.37495719285271073,0.32719991039602014,-0.02492099329297396
12.85,-0.5209990199412774,-0.5622358242503307,0.38809821352283735
12.86,-0.5366295597658076,-0.8978380208261072,0.3146979206486453
12.87,-0.36611561515340746,-0.43540707704679965,-0.07711474278127395
12.88,-0.09196639582102632,0.030183681127489655,-0.19843548826970842
12.89,0.10723553462844931,0.44132494564704167,-0.4318008278951095
12.9,0.1368375457619417,0.34867742342716845,-0.23736937032950947
12.91,0.040609446271952836,-0.1392795594108647,0.1719932381597852
12.92,-0.16987138731714688,-0.14651190191433763,0.14330356262102978
12.93,-0.3851602581164238,-0.13879160013291691,0.13538228151900267
12.94,-0.49765775672998014,-0.19564765146708868,0.34916380989222
12.95,-0.43043884143702515,0.09897619954700139,0.26441692557854124
12.96,-0.17880375288383052,0.1766719312968243,-0.031333929789542636
12.97,0.0740336036301263,-0.06283669762218114,-0.194237508757166
12.98,0.2610120988052102,-0.38940101485405026,-0.3892018790134643
12.99,0.38098992383842856,-0.9037773282433199,-0.35993073233764966
13.0,0.288046278727103,-0.7336160733012237,-0.14219941497209684
13.01,-0.049287737500587035,0.4072847430835422,0.13491156448279504
13.02,-0.39581404797273384,1.1559098427499241,0.4159893974892683
13.03,-0.47016703288308964,0.5083409671838103,0.36605767225140323
13.04,-0.3083523359908688,-0.434213761642009,0.01739825561143944
13.05,0.032306179304174565,-0.8481382232150619,-0.27773798994873405
13.06,0.41163585156434523,-0.7595999134728068,-0.38177537616507784
13.07,0.5659273029270471,-0.11144497285795184,-0.35453034113876775
13.08,0.3975214271433077,0.582533057542415,0.019030455803436243
13.09,0.007243589287895445,0.7449257822952328,0.4400268531262888
13.1,-0.34969314244714106,0.1367333463357069,0.6402327387371798
13.11,-0.4830303397921411,-0.5125932584601609,0.4628483188248326
13.12,-0.2930905497371332,-0.5293696231635084,-0.1711740074051546
13.13,0.06964221145245009,-0.1334463146246003,-0.5037645564276839
13.14,0.3095243314108567,0.2921848420508595,-0.2861856324718748
13.15,0.3452242671941061,0.34290515259973975,-0.03508012842209074
13.16,0.20509608985307753,-0.1158183258938856,0.13385357799245748
13.17,-0.0655937835363831,-0.5069701005925927,0.18995384459025486
13.18,-0.31399801614531103,-0.4312512388124087,0.12105281415449738
13.19,-0.35400166815739237,-0.11365893756885653,-0.06544632795492025
13.2,-0.2268691505211931,0.18391812503053895,-0.2586224382287621
13.21,-0.15281701127957148,0.27508904662099987,-0.06507973479792448
13.22,-0.12328047590519134,-0.1193652105939434,0.17120934646672767
13.23,-0.03373869785100465,-0.6333045382586947,0.057314141514641044
13.24,0.026693184043940367,-0.6612767523705299,0.16553574560681955
13.25,-0.08204848759845466,0.23133657027226595,0.06647950380613289
13.26,-0.18338929851429056,0.3478996773005136,-0.000823950334796322
13.27,-0.25137576475908535,-0.17942340927267442,0.21048679635713866
13.28,-0.22499254840986424,-0.2967715894831488,-0.003522781351904192
13.29,-0.07137140501851125,-0.3260800128689504,-0.2913762468382337
13.3,0.04016247058157007,-0.3095765824234774,-0.17784683596949977
13.31,0.06864250182940836,-0.12329919059730743,0.014820350601943609
13.32,0.0021498214635081877,0.29358861133447184,0.1953683677690697
13.33,0.007097702298462153,0.20844216927212142,0.17097672586419965
13.34,0.088877630357338,-0.47576974544000655,0.025408015576786014
13.35,0.06502701585635758,-0.6614800655566618,-0.12846931648811716
13.36,-0.0784297623053115,-0.11646160033359974,-0.11745399487119441
13.37,-0.18372652835681633,0.27021435158829343,0.04065784229248276
13.38,-0.1473620210857095,0.1067357537953463,0.11247913775040246
13.39,-0.05065815414592217,-0.059719573444333096,0.22317915567587504
13.4,0.10802670347013897,-0.09038843435635874,0.03357998983364178
13.41,0.2434736227644729,-0.222469333882885,-0.2048710305447637
13.42,0.22537442035140134,-0.2642347457055954,-0.1619952710546687
13.43,0.06112398175812173,-0.09476755742399219,0.08471060345117395
13.44,-0.02765392558770683,-0.19272767920340791,0.18240297835376576
13.45,-0.04244340857042844,-0.2749168985162387,0.22880494699992712
13.46,-0.07916291099629563,0.1471496023721845,0.04269189056869627
13.47,-0.042307322996426096,0.15338572981709472,0.03748627713912382
13.48,0.09633645043631328,-0.2669392970170055,0.08064526651634409
13.49,0.25742719188666185,-0.13916241397217227,-0.24883493326123224
13.5,0.3403243351582476,0.26075840863499944,-0.38226179651568454
13.51,0.2824375026040307,0.1701409702639437,0.011166012538792089
13.52,0.20679778686948627,-0.46942694757958836,0.14310571100021097
13.53,0.1810615973930638,-0.8297539162642147,0.13926765914415157
13.54,0.11930523505201772,-0.0646921445720349,0.14558531201499014
13.55,0.0350891351308803,0.8940161991400676,0.049010032397621126
13.56,0.09631464148534868,0.5549442225299261,-0.0911786365136109
13.57,0.24982514297538014,-0.3279105334079562,-0.1272383107328144
13.58,0.26670628824817966,-0.12657012092526176,-0.11300911666206362
13.59,0.24191480220296296,0.32733159741361434,-0.2953578949061634
13.6,0.2728126008791991,-0.06694189415850287,-0.10378846612349732
13.61,0.21154464852341862,-0.17019519184562595,0.07609882222941487
13.62,0.09745677731628263,0.07720597144826166,0.03681327754591812
13.63,0.024411998960102932,-0.014567879453887288,0.22412007995710642
13.64,0.0187101522009421,-0.061299391303086904,0.2373765968645448
13.65,0.056669509750930165,0.18879732438499466,-0.0733094248518388
13.66,0.14632196403233588,0.25586083681559635,-0.32735355372983765
13.67,0.22218816938817784,-0.03612906442552865,-0.2322464683900257
13.68,0.20978574188759047,-0.1663851478021955,-0.10623861810104848
13.69,0.170400366341448,-0.16406374162183301,0.011355382465035282
13.7,0.059600216015616485,0.11743463198709761,0.20130608701849723
13.71,-0.06889741030691249,0.5109415978549205,0.09435937927302007
13.72,-0.10955571082073048,0.24076267942143126,0.1334348346780237
13.73,-0.07945114470798971,-0.16536867388774315,0.2288813838785788
13.74,0.017823421316248422,-0.1690682628328215,0.06033416247496682
13.75,0.1258543268246792,0.06559587132477526,-0.07800263218612177
13.76,0.19439765883588092,0.14009170029441861,-0.2018990229432483
13.77,0.1746996755770786,-0.18902728442045366,-0.07058169707589183
13.78,0.09783502125816601,-0.2917503507502366,0.02754534534985299
13.79,0.03586878013474072,0.12110475437878347,0.03469645762576176
13.8,0.008502527883160414,0.4868517559856945,0.05608676291445238
13.81,0.027804059835376756,0.4530350492500186,-0.1685779117257826
13.82,0.09909183535276707,0.00021257389786165677,-0.1293760121085141
13.83,0.13050486469261974,-0.16768134708077911,0.10961558475345058
13.84,0.11104351400933958,-0.005931647771521873,0.13864905412936057
13.85,0.08842216142705923,0.12919776272031067,0.04501322409015861
13.86,0.033468297547811776,0.14793589746098795,0.15542789197510445
13.87,-0.010567217606285359,0.05539532964854414,-0.0285086898743516
13.88,0.08199140611762981,-0.42053768470829556,-0.2597028471494241
13.89,0.17849106690569574,-0.398393471147494,-0.15456312190767305
13.9,0.17471265132566544,0.4802199200980598,-0.1386365753651133
13.91,0.14262934343433226,0.762669367909343,0.03888193848001321
13.92,0.0717799704022834,0.38356101337457615,0.4427568920823385
13.93,-0.03721044442468245,0.022448029112384388,0.5314072334885183
13.94,-0.0719265105605597,-0.395069654378639,0.218568018315518
13.95,0.01945418572585568,-0.44731792713664886,-0.31884178812265723
13.96,0.17125177927649718,-0.013899772540296888,-0.5441796255421717
13.97,0.27331604313483043,0.4973454478693333,-0.6014461620861272
13.98,0.27334946952419287,0.42398313176877844,-0.23165612653847115
13.99,0.16159334700268735,0.022994347103945812,0.3451942427232794
14.0,0.033641315847583474,-0.09857296325743337,0.36725060047015634
14.01,-0.034489957208990986,-0.06846907211942536,0.23006262371173353
14.02,-0.10307036587193229,0.2530595929902879,0.20843362076747707
14.03,-0.055262183502906806,0.34629149179274094,-0.10396709655750469
14.04,0.12268104891504503,-0.12130554503781324,-0.3232047327507854
14.05,0.21858392865520151,-0.11289116931987332,-0.20672599763952978
14.06,0.23952353235064036,0.27400459090997736,-0.22598127793620287
14.07,0.21658438617775144,0.0863101360917872,-0.033396028632921584
14.08,0.03353489707266337,0.10568653294496658,0.18341784343635353
14.09,-0.17314972937414663,0.22970140001246722,0.28018625602407904
14.1,-0.25829232231563265,0.09785033100120667,0.31609757262605903
14.11,-0.14781023972755059,-0.1496454620642382,0.064503916091249
14.12,0.07070749073204388,-0.20362258593604007,-0.3804149589054924
14.13,0.2537881859365105,-0.12259952740760077,-0.4628715339344152
14.14,0.29751632382040644,0.1418359497805368,-0.3004263909614365
14.15,0.23045774775355726,0.2429548762643232,-0.0638443308238102
14.16,0.043232157165768864,0.15393601210365582,0.25194632022520813
14.17,-0.16226229113609986,-0.03039046619213587,0.2994856171705838
14.18,-0.3162008544238505,-0.10358335724607069,0.36935373282960804
14.19,-0.2954501209932424,0.07815540475870666,0.10825752652540971
14.2,-0.09162986891943327,0.0002497776806728907,-0.04841280671082013
14.21,0.1403159801676838,-0.1385091438839168,-0.11229886165920228
14.22,0.3331174810581423,-0.12226595010448804,-0.31981951134424025
14.23,0.43488199435865216,-0.19330285112033993,-0.30691122628254236
14.24,0.3265821038482855,0.002559511990708781,-0.22035564746412267
14.25,0.0010745779447751238,0.4661877649886954,0.0982610093396715
14.26,-0.2864971296955458,0.5238473617386461,0.38392197194461336
14.27,-0.36523273660466915,0.07926398784433461,0.3122966326563216
14.28,-0.3076905788851943,-0.1159237322529403,0.042290577436350334
14.29,-0.1279785912038462,-0.18230176866613904,0.002888799495225041
14.3,0.16872987011616253,-0.2796922625137685,-0.027669696480852036
14.31,0.37407452788421836,-0.04932998545360287,-0.11420965939759556
14.32,0.3057486979570056,0.5642480577590677,-0.21438250632436728
14.33,0.07435773294043953,0.5478245543126051,0.03672651550126417
14.34,-0.21389832682228893,0.09555836341095277,0.5787854158661927
14.35,-0.3678388312830555,-0.1427844392969896,0.27495913995596233
14.36,-0.2618722291344926,-0.3187090085026741,-0.33412236744269275
14.37,-0.043386660502890764,-0.10671191049697087,-0.4355044767382497
14.38,0.11059024125778366,0.5715419372922159,-0.34140902466499884
14.39,0.2111987441295528,0.3540208164758894,-0.008821048002840635
14.4,0.24685212155103115,-0.5396421324446875,0.30464337577244677
14.41,0.03392596498092372,-0.3553363481752768,0.40675524868976065
14.42,-0.2724884791056471,0.43330158353625337,0.23718589693778366
14.43,-0.4307274205468188,0.4490131104168069,0.06793996017743953
14.44,-0.40225673914508936,0.05583541415695499,-0.06384020366716785
14.45,-0.19674593597906748,-0.13655979284032646,-0.20506872067456214
14.46,0.08945057962106812,-0.21497201782540948,-0.4349743153143154
14.47,0.18344193412865592,-0.0528780776266911,-0.3732738722976882
14.48,-0.010568516750573643,0.24827960129435264,0.13302480821144144
14.49,-0.29263930587317377,0.3819320894155442,0.3571384892704887
14.5,-0.4202836512230494,-0.10301915521546225,0.2454776820827174
14.51,-0.3821155761440505,-0.5624312154522422,-0.017161003918242886
14.52,-0.31200687946440453,-0.29303513327204206,-0.37765298698267336
14.53,-0.24813664291118537,-0.21792401551970622,-0.02378966227080707
14.54,-0.13108238272978048,-0.1282314815327171,0.12568033358777495
14.55,-0.11613794692764863,0.5676276606549358,0.039896101193593624
14.56,-0.2985965272185922,1.209856247053959,-0.011064067884376413
14.57,-0.4535422606340071,0.2324088791866588,-0.043432280850924175
14.58,-0.47460305925267104,-1.517062871755012,0.26305734649584267
14.59,-0.32688088164787676,-1.698482249437476,0.22859612558516393
14.6,-0.15114588113095412,-0.051470549556797855,-0.1511726937336598
14.61,-0.08728790744162335,1.138951966450285,-0.24291523442507265
14.62,-0.10073995105595625,0.6294104846602065,-0.1545177248996561
14.63,-0.1700226532425847,-0.4368159773498434,-0.04343915899422083
14.64,-0.23496929263902303,-0.799676006467998,0.14383315185929535
14.65,-0.39488301715293095,0.028857648329940273,0.003178616472570387
14.66,-0.46363108867950265,-0.01517568228843457,0.10342794161393792
14.67,-0.41256169238610735,-0.46577631010071696,0.36309699058427897
14.68,-0.3074320592992007,0.08826105831524789,0.11743899739041296
14.69,-0.2810388229299197,0.9806211173021071,-0.31309104935819904
14.7,-0.20552025652944253,0.10697485284739136,-0.1889444072921568
14.71,-0.030102144310405216,-1.6080748735970183,0.12469857587348224
14.72,0.05576681507745473,-1.4554646704516936,0.03845535164987319
14.73,-0.09192532755337895,0.43033554378682387,-0.03648203235591699
14.74,-0.31960617641315653,1.2576813845545212,0.24616065158426514
14.75,-0.4574783194372534,0.3556583384181849,0.4509843820886082
14.76,-0.41855656145998726,-0.6404371121696111,0.15947863792284656
14.77,-0.23128055107700457,-0.7347366012214319,-0.23595421959236593
14.78,-0.0028561841044639218,-0.4001853565047702,-0.4180080863754314
14.79,0.20052425049635517,-0.3874664254964453,-0.2377197365766313
14.8,0.27722828524104043,-0.25442403307088085,0.02987254184949732
14.81,0.13440726611426967,0.34496473185602394,0.11449103241483813
14.82,-0.15317241067014695,0.7378369960196662,0.15922706567848724
14.83,-0.31679834597117773,-0.025591751902423753,0.5389676567175277
14.84,-0.3041040902625394,-0.6184968754435853,0.24821153950383734
14.85,-0.08429414150873611,-0.5130784584550382,-0.33336671050809635
14.86,0.14295599539661802,-0.26076331282113513,-0.2405179593099627
14.87,0.3201680012706668,-0.1256790270754093,-0.23948739013261158
14.88,0.41377752133352325,-0.09207602180692274,-0.3172347988170568
14.89,0.38205220224046355,-0.01493921872587623,-0.13588713625421833
14.9,0.17736064612600377,0.2621667905986292,0.014218187339297849
14.91,-0.08049035422013236,0.1414837920770045,0.23328454769429968
14.92,-0.18189147282930268,-0.36811171644066937,0.4330993884537405
14.93,-0.15462787853558482,-0.21412098095281734,0.25259638221991204
14.94,-0.0019456171434141074,0.244967348799845,0.02846022408785327
14.95,0.2828365807823796,0.16524346070925472,-0.149049694564157
14.96,0.5653787464025616,-0.17547491460182335,-0.37334724866254676
14.97,0.6274965768916356,-0.16686142055604303,-0.32705151914487446
14.98,0.453015554094022,0.25995199551607745,-0.13679985883888096
14.99,0.2794078712398323,0.16616353383720725,0.11400538333621284
15.0,0.12224104630451713,-0.09936333779844177,0.40354705454447143
15.01,0.012173951458239338,0.1457577075795178,0.16145945502600628
15.02,0.022490427081899717,0.22645676068345277,0.09842169112038568
15.03,0.15049192238869258,0.0286414524047312,0.2899826468200005
15.04,0.36545106983014314,0.06729315323086855,-0.06517156179210006
15.05,0.5356264367786091,0.1283380965583081,-0.4822837230853341
15.06,0.6152493814550696,-0.20072823022716244,-0.4777767672976049
15.07,0.48435026141869625,-0.3063492440902238,0.08211945108707035
15.08,0.2790426350990841,0.3165596778120244,0.039749042787465966
15.09,0.11699822380910295,0.5610284828799529,0.2798004607353147
15.1,-0.06361969751903011,0.5394513707031111,0.465057924846356
15.11,-0.17699534671433848,0.2767334157585884,0.23728810004394532
15.12,-0.13200386366590885,-0.32376686022819917,0.21932368881669012
15.13,0.17659521490855615,-0.654070145456585,-0.19795920531778424
15.14,0.6363102867035877,-0.4229180669382935,-0.5299144448662361
15.15,0.6636906375940043,0.5750068952868992,-0.2868845437872145
15.16,0.35863102010059245,0.9796241810015942,0.15158429109939658
15.17,-0.01512182097485589,0.3812919488798353,0.40391951809035337
15.18,-0.23587093094619854,-0.40923171651975976,0.41404789817395593
15.19,-0.2017592094216349,-0.5631300649455858,-0.20475937551575032
15.2,-0.07321625162290746,-0.027794576724445325,-0.6289202004360829
15.21,0.061100440572560304,0.375500688589111,-0.2751957473190528
15.22,0.16918063473748676,0.4501297300987585,0.2742064575303485
15.23,0.2555256363701066,0.27919809508778504,0.38979851121690867
15.24,0.21463323601001252,0.16521235671858336,0.20243688885328753
15.25,0.08476262670199858,-0.0767680331878848,-0.05789198299837393
15.26,-0.02759759639059597,-0.44427718337699096,-0.24238572350551463
15.27,-0.08681180161345337,-0.2459733514307255,-0.30333129783623874
15.28,0.0021134493798402247,0.21328212351285644,-0.3771249946350341
15.29,0.15911472341167052,0.24557575683267677,-0.18559247142706403
15.3,0.10090153344922871,0.5410317812266491,0.07455244408220912
15.31,-0.0300279556718575,0.6039410642287613,0.15787537662132872
15.32,-0.0194738704534812,-0.32811803400571943,0.3616079745790002
15.33,-0.013451955594247037,-0.6336724876705428,0.15580783432377723
15.34,-0.039109024475115925,-0.1404527838696379,-0.10466486919153312
15.35,-0.024167738533545025,0.07746321868661811,0.08626579853283509
15.36,0.009294377391270724,0.3001940787910224,-0.06801353637562621
15.37,-0.012752428681804866,0.5806992010421543,-0.21862218318591595
15.38,-0.08232112306385389,0.46534699772364113,-0.21319396619112244
15.39,-0.12867633458347535,-0.037955321840464476,-0.2515654397146704
15.4,-0.1380890975207058,-0.5586236570568063,0.19854450096476262
15.41,-0.15661281696187676,-0.17179044185111128,0.24183744670445878
15.42,-0.16434670256395117,0.19790058994229026,0.12256592084216428
15.43,-0.12424134775183458,-0.22849693871225135,0.2983062077939843
15.44,-0.05874483078393854,-0.3381345522911404,0.17211776318348523
15.45,-0.05093626541191257,0.3219228022187322,-0.030593105841159762
15.46,0.006997060591174008,0.44914148864370823,-0.3258565405414785
15.47,0.029270586462908584,-0.01987010896962842,-0.4026848724631267
15.48,-0.04950232325798584,-0.22953021818843125,0.0018597749165266018
15.49,-0.07720166522747972,-0.039214113013968564,-0.01828405600804797
15.5,-0.0136156213913679,-0.05696259860426002,0.024624840005735997
15.51,-0.030745323348517473,0.14425572694305486,0.2323700675360323
15.52,-0.08751319317050647,0.32461189747517133,0.21453360647993783
15.53,-0.034387344948673265,0.03794671178348664,-0.010128452843056836
15.54,0.11233412108512014,-0.4233020037755741,-0.1845989756302447
15.55,0.1278843201696874,-0.2970963783886004,-0.15292146601106482
15.56,0.09570242943508273,0.26011475027685177,-0.11001268055094128
15.57,0.22329832827396737,0.05263332678414362,0.05077141178860083
15.58,0.1588228032544426,0.19534947111978263,0.13794800068550855
15.59,-0.014658262926362624,0.37436142935156885,0.007993597083617935
15.6,-0.1324036679909828,0.1276324952071596,0.059149652549160214
15.61,-0.12314849389266304,-0.11687429011544788,0.09905448072982673
15.62,0.011665977930167524,0.021083776157427743,-0.34731111802196685
15.63,0.1499630658813765,-0.08834762159623595,-0.3203512529105077
15.64,0.15231921826109995,-0.3126476003055917,0.22518292418014507
15.65,0.08244254900526293,-0.1621639772362456,0.40437691377134016
15.66,-0.03369539725112325,0.6079958598890856,0.11923666418582451
15.67,-0.09428732333524967,0.8015960454110743,-0.04139392642298593
15.68,-0.16403759838730167,0.27478494356718614,-0.2299600165653291
15.69,-0.2250011209630469,-0.4193332022180294,-0.2755506068192869
15.7,-0.23840177530931878,-0.4991825689310997,0.06010577729693374
15.71,-0.21291128952446067,0.059781430340442566,0.09283374238759734
15.72,-0.263919386264389,0.5136178353548846,0.06426399492807401
15.73,-0.32958654328257614,0.07659816644060535,0.3979986295819688
15.74,-0.3593775888466066,-0.40401116909400037,0.1695360153203568
15.75,-0.35000343310639637,-0.3658489651449487,-0.1588720258322364
15.76,-0.24710850897516862,-0.39265649679103365,-0.16374532791590926
15.77,-0.17054891085594612,-0.5000080099338148,-0.021855020146866865
15.78,-0.13138569666057504,-0.44476497724277453,-0.056044513312702486
15.79,-0.1217795312910627,-0.015759080372536698,-0.19362073940334765
15.8,-0.13909313465598627,0.19892510421698825,0.12509481909223663
15.81,-0.3402265359646296,0.7687343772216505,-0.04883016305967741
15.82,-0.5731347965229004,0.056648664615118006,0.22667361069357744
15.83,-0.6440384669556074,-0.9549988216440565,0.39451337669229003
15.84,-0.4190204445041846,-1.164101225397629,0.3096965342705424
15.85,-0.19139747341450133,-0.07618959748275801,-0.0721799877866339
15.86,-0.0564014413334861,0.48678251799018546,-0.2699691902149773
15.87,0.004110360650058995,0.09473702513962338,-0.03193228564525726
15.88,0.05967633099648125,-0.2471333156766364,0.07836294078781302
15.89,0.005687366694917528,0.10095529704837425,-0.24007004547428712
15.9,-0.17548983798008883,0.1563038533571426,-0.34461816217241226
15.91,-0.30047068150086925,-0.6870351124285852,0.1866087360720643
15.92,-0.297894297931693,-0.7775753497101776,0.4374420231666331
15.93,-0.1749417039418333,0.24631918490147509,0.07903708698109456
15.94,-0.06787002337353712,0.832531966050525,-0.20570976996871257
15.95,-0.028239414722428576,-0.08201258401847286,0.24173361102613933
15.96,0.03386092835107809,-0.7880221381173742,0.10461115390596293
15.97,0.12654894762158486,-0.4871333485996973,-0.17569312038176718
15.98,0.2735696236858907,-0.09430736467724335,-0.21243761261723734
15.99,0.28261836449407146,0.05585609646659388,-0.10868936100584767
16.0,0.11861613054134133,-0.3481739877023712,0.5913589815203489
16.01,-0.04792168068733818,-0.03756232446596562,0.33922303835349255
16.02,-0.024639493861692337,0.5479851323644882,-0.5154107677732154
16.03,0.18358879425689234,-0.10242863827788684,-0.20190674145378643
16.04,0.3510588805325648,-0.20525468856011614,-0.3501375584273122
16.05,0.43058869650405324,-0.07922025767488809,-0.33686942400584374
16.06,0.39742035030131767,0.0538864171531354,0.18066594326108734
16.07,0.2648571840919295,0.2619735387202919,0.41451844260106663
16.08,0.021580431557276344,0.5060749057900404,0.3786781725290121
16.09,-0.05776511570383933,0.2887761182052582,-0.07316122379194129
16.1,0.09423201512075957,-0.5830997750082969,-0.2428416228338802
16.11,0.2892094215870418,-1.0298890768278761,-0.1873698132523546
16.12,0.4346607984073725,-0.7020820233956848,-0.1031822972599909
16.13,0.4663949844542078,0.33239744823273504,-0.09171916863956325
16.14,0.4849611341418907,0.847755048364302,-0.12755045579254543
16.15,0.38039237993956443,0.5806793216633184,-0.21479118300091637
16.16,-0.015969420293663696,0.3463505750738684,0.012604430642126421
16.17,-0.3427724577119139,-0.3778466710911349,0.5628577248649369
16.18,-0.38999786825789723,-0.9367868300670432,0.7959393688460762
16.19,-0.1537718646206302,-0.2805342846925784,0.29293691693194296
16.2,0.2734244273871492,0.8939753680024719,-0.5650403952042201
16.21,0.3905782577970048,0.9711219062527677,-0.6796551684830628
16.22,0.24075560789394998,0.3819982864104336,-0.3850885156233995
16.23,0.008333683273254013,-0.32924512315451254,-0.15181551449133052
16.24,-0.08664702470236851,-1.0900456238986875,0.1703948221938373
16.25,-0.050918860401200305,-1.0552880069008272,0.14816215261015872
16.26,-0.036361358912833604,-0.14017163976385247,0.1189804644145999
16.27,-0.08872598451146181,0.834187605611671,0.37496012755005254
16.28,-0.10762065096632582,1.032887370045939,0.2869417885363861
16.29,-0.13064886879481483,0.3217069898511961,0.2220653696139176
16.3,-0.13358541056644802,-0.30018922093377814,-0.09740868530609278
16.31,0.1074378400723659,-0.9575204707295422,-0.5441394510854176
16.32,0.47848078493674745,-1.2002934806452632,-0.4833323683364571
16.33,0.5988575271317708,0.11328810046573907,-0.22067239596679208
16.34,0.36970719768546023,1.5162914782646686,0.3800645170728057
16.35,0.015061696595864897,1.5119021967481245,0.5911682525143308
16.36,-0.16822966786021562,-0.019235066546864993,0.27937718988991495
16.37,-0.21556319315326047,-1.0886666228499025,-0.08601453145405467
16.38,-0.19530772096917973,-0.9056747187780967,-0.13239751449905163
16.39,0.13818531733341305,-0.5573976601946834,-0.18231880760710004
16.4,0.5720513500555923,-0.02301251079230803,0.24560583360635885
16.41,0.7419721434969868,1.2721218481929986,0.15931196590146798
16.42,0.564864437866208,1.4784795305446095,-0.07871251792885155
16.43,0.18788936776137344,0.22672673130705662,0.036204616630170446
16.44,-0.1594228265202057,-0.31045860098709716,-0.22549568681809512
16.45,-0.19587826189500743,-0.5489493502211567,-0.14040852339900134
16.46,-0.06768565396332889,0.0931948390360019,-0.4389736655223754
16.47,0.19556159735865686,0.012915452696262689,-0.20514840675623253
16.48,0.34166810046085266,-0.0965785256210113,0.546181358167007
16.49,0.3542754914761779,0.973642170642963,0.13425579500332926
16.5,0.3318483815549819,0.8199894428574298,0.06665040473648005
16.51,0.21046255223066765,-0.46213300207647967,0.26495944969089746
16.52,0.15517102794775062,-1.4810930511112972,-0.055034208611187574
16.53,0.07181330247680645,-0.6981466977505094,-0.19142217874486928
16.54,0.03142219907463575,1.3059935210193236,-0.3714604802193484
16.55,0.22898003154958668,1.5952327028834679,-0.3850173282860933
16.56,0.2645877770126355,0.7560346652851476,-0.03325042392171385
16.57,0.10663811023857235,0.05355219494555869,0.1537498444856334
16.58,0.012307899988588349,-0.7527114843863685,0.330723986728089
16.59,0.0628197946919699,-1.1245035519889777,0.4160126555937001
16.6,0.02683394993704369,-0.10905273160898481,0.2741740251773704
16.61,0.03190003912579126,0.5576256504530714,-0.006600346897414876
16.62,0.0741468287381052,0.7452549573171002,-0.4622136465133235
16.63,0.1362020792568637,0.42939801892437895,-0.43510979169954195
16.64,0.13257451334528048,0.18273020863377662,-0.24994411649313505
16.65,-0.03368339080948887,0.1275473416091772,-0.09808755569932229
16.66,-0.16239014391356626,-0.5305876845239667,0.22596380639020064
16.67,-0.16731607052605607,-0.650845266529487,0.19633065375808945
16.68,-0.13748945235093007,0.11759282685416525,0.18153120622911062
16.69,-0.1451455957627541,0.9335700886797347,0.1883868624007098
16.7,-0.06026238782826902,0.6595206249019133,-0.15283579378487266
16.71,-0.0030426248784173127,-0.29515197837126217,-0.3810791312111582
16.72,-0.15568582597727912,-0.49758429310768365,-0.12368019798503609
16.73,-0.3056128496289504,-0.06614918349959688,0.08180573232421208
16.74,-0.2187021554553193,-0.1981652913728154,0.049043896047754595
16.75,-0.05896636313129468,-0.40163322988559846,0.12436831413652
16.76,-0.004961737836462975,0.07037585698342096,-0.1127529578593116
16.77,-0.13522423931002422,0.38394672697433657,0.02195224424441476
16.78,-0.32828980987872003,0.30773954191196135,0.15763534546394534
16.79,-0.43255248790286077,0.06711292887613673,-0.025251094360095157
16.8,-0.3213908193573694,-0.3557627089717057,0.07136581260293584
16.81,-0.08029621841852613,-0.30881205604910095,-0.15245236131951378
16.82,-0.01778248705865506,-0.10146349078972929,0.2499490586181941
16.83,-0.09929046466628717,-0.352167622025459,1.0029457951136809
16.84,-0.11833338883922404,0.036199235296780895,0.3722393588468544
16.85,-0.06141720730420398,0.5762926682083579,-0.43574650740568577
16.86,-0.1081066188533996,0.4532219709865705,-0.7380624632567432
16.87,-0.2257910332244574,-0.056756167651586004,-0.8926305157952044
16.88,-0.2950731143176916,-0.409481835321135,-0.47354998786365643
16.89,-0.1144454901598655,-1.0016450175276175,0.47888500276304385
16.9,0.08969870824245997,-0.5324299150864444,0.3699236265793805
16.91,0.07139397027951368,0.27190143329486616,0.3551681911834683
16.92,-0.10936522120477966,0.5266712383281433,0.7148440596455367
16.93,-0.2557766567321296,0.7839273906486943,0.1305955675999087
16.94,-0.23459192944492202,0.19773285475621372,-0.22194411912078274
16.95,-0.12288342606855863,-0.3951389297332587,-0.4907274033044503
16.96,0.04722816527337347,-0.5224407590221007,-0.6667126557326231
16.97,0.17474221795544798,-0.36975843733640334,0.07295136681682793
16.98,0.2539375162691131,0.38604928138529915,0.03291820137163497
16.99,0.32073321410394157,0.5399373040220191,-0.16055520637463175
17.0,0.2907254371005168,-0.1905759063532604,0.6156140206343523
17.01,0.08265835675800463,-0.08771454697947968,0.4078135128863822
17.02,-0.12057965845485676,0.3419099734005986,-0.2558185350921666
17.03,-0.043443370165641544,0.04374162745940291,-0.3392996161743816
17.04,0.11048512720240737,-0.2759822048022132,0.10823734344195686
17.05,0.11477290623243722,0.028674238673490927,0.20866636734017557
17.06,0.05664411719243958,0.3074433048343124,0.12781832838281265
17.07,0.0318427827190511,0.401025003678921,-0.054481677749618235
17.08,0.1388451066416882,-0.4291572540858786,0.10175250492261256
17.09,0.05855881700170593,-0.0738290519600789,-0.5255480178691436
17.1,-0.047378743410711154,0.07130402949329429,-0.3530834929086713
17.11,-0.0856018656824917,0.010114438781590957,0.32826364681395087
17.12,0.033476922096185184,0.14003210304726219,0.09250399465215448
17.13,0.1686406105280001,0.12437948457169881,0.02439728766559439
17.14,0.12235290729082983,0.034630741901023325,0.3406685371723828
17.15,-0.06520367728319193,0.07513973035261196,0.42425696851364164
17.16,-0.15281277915049016,0.24906671963259724,-0.029473496720053987
17.17,-0.07187341112937133,0.11409475286220391,-0.11808021958433067
17.18,-0.004924032026387761,0.3133412727071119,-0.5034388350322101
17.19,0.08553072817123629,-0.22905099280902427,-0.47715882351634026
17.2,0.17332415848049273,-0.7190748418315498,0.04636761477991152
17.21,0.18618879587017192,0.17766118435923073,-0.018963153112862736
17.22,0.043896334619498906,1.1542307397101121,0.01825465408621576
17.23,-0.11454907824550083,0.6278968494435389,0.5141372879594499
17.24,-0.16644354094126432,-0.7044058306339731,0.7440776951241183
17.25,-0.19267658697636894,-0.6746695652473508,0.06290256425592981
17.26,-0.22934594426708776,0.12175698621061322,-0.3015776922710647
17.27,-0.16228349610964646,0.3150490065798456,-0.26017551654970994
17.28,-0.0615632883226346,0.19252822388494983,-0.2170740710046374
17.29,0.07587344972375912,0.1541013253735011,-0.6403733258678252
17.3,0.16355195764766517,-0.31775709243228273,-0.3485549903144042
17.31,0.017074087195101458,-0.4328792596729025,0.2829694899458374
17.32,-0.2523388920108653,-0.005247600504748962,0.4509392832059426
17.33,-0.4703399171100531,0.5302077139925039,0.3002908775079127
17.34,-0.564522777496852,0.6575823221342798,0.08287474454078635
17.35,-0.5166743626261837,0.22814719205727174,-0.1980087148105621
17.36,-0.3390483681088641,-0.5802246237608436,-0.18670407555902527
17.37,-0.11475590034542607,-0.6619368417593375,-0.2758965215749827
17.38,0.07105811614567172,-0.23099263696545713,-0.23309228131920598
17.39,0.04934884845261558,0.23381678143255583,0.030390248407837515
17.4,-0.12719607428008917,0.3108955154642386,0.09692434390750236
17.41,-0.4112135697217155,0.15755072744146317,0.23271651206710756
17.42,-0.6161268877041313,0.08944085982727043,0.14012769535595165
17.43,-0.5804631763584958,-0.3095772952071027,0.11632068646809864
17.44,-0.3625630157274247,-0.5292513532443944,-0.035566049409397046
17.45,-0.10831980114376413,-0.342721122171606,-0.17772706666356505
17.46,-0.00772412381917775,0.08495538111540994,0.0009373174087955499
17.47,-0.06301585053363,0.5313899843170838,-0.07567018432776883
17.48,-0.22313974029027359,0.40632630961259975,-0.08400115041781155
17.49,-0.35642138656727773,-0.3817726270362164,0.09074955183942063
17.5,-0.4025608520239696,-1.0215436580277655,0.17944550888193367
17.51,-0.32879209505331436,-1.0532337148076123,0.3568519979464546
17.52,-0.17197048124181485,-0.19357096665809675,0.1870266435975328
17.53,-0.09154092677931161,0.924051608384717,-0.08277233686817972
17.54,-0.09625070127968949,0.9895020750372916,-0.23649932140685992
17.55,-0.1136573545064517,-0.274001718135069,-0.2064387739940012
17.56,-0.12403269927351217,-1.325958401077024,-0.06964286641674673
17.57,-0.15746642086107485,-0.9796576553437548,0.09104160351705817
17.58,-0.15441874531020439,0.050264471816245014,0.029351189668348418
17.59,-0.10580381309504598,0.5364197696341868,0.0714663543462879
17.6,-0.08758016318654724,0.36878480648295525,0.23417310242715342
17.61,-0.15045475129810001,0.009047314836482608,0.18841702467115054
17.62,-0.22224768835677255,-0.47720684313174366,0.03821727288238288
17.63,-0.223945896445152,-0.6776240592762217,0.03864862596140505
17.64,-0.09894704187455436,-0.47929297322277353,0.03071189065536961
17.65,0.05114186950113457,0.06846386744842042,-0.01636148805597345
17.66,0.15166744575318575,0.3911943424202187,0.05818800746852927
17.67,0.19503422002187462,0.08143390613126729,0.052941371837682334
17.68,0.1326549663580364,-0.23459086333310072,-0.1326089113280716
17.69,0.03749584383904923,-0.1894754908314126,-0.24920269158172434
17.7,0.012882526301886106,-0.006734566885216526,-0.10463258000476501
17.71,0.14382054241919728,-0.1008327190500828,0.02331072971847754
17.72,0.29265026943914463,-0.24530424767483927,0.2217889569545893
17.73,0.2766322588036066,0.15347993948711008,0.23734447923165009
17.74,0.17962185422448187,0.5069887296465566,0.17870707306801029
17.75,0.14188032290114025,0.29796459987156837,0.11710515175452303
17.76,0.1809319040093823,-0.08824801779859436,-0.11512232108962901
17.77,0.30879236735587323,-0.4275035720117959,-0.3320178220454467
17.78,0.40731019770317006,-0.4746450719651936,-0.10966422960355962
17.79,0.3881982137333723,0.28144115069560033,0.020666768647920768
17.8,0.3486004952605729,0.8951708457940984,-0.07314209839100264
17.81,0.26483161913447295,0.5984713165587215,0.05192371053419306
17.82,0.1257233003921217,0.11292046790591037,-0.05797859127899299
17.83,0.07545930522290159,-0.7391053271100199,0.22931949337266205
17.84,0.19623555544384388,-1.0972600576132117,0.17936234788006555
17.85,0.458251216180948,-0.569254063443849,-0.2583637870288498
17.86,0.6635653018237979,0.228501641973705,-0.28383434859186213
17.87,0.6255978288428528,1.1927798652992687,-0.29726767880700444
17.88,0.42855549002953774,1.4578666128187172,-0.1938211529247171
17.89,0.20875124855763388,0.7409887644586126,0.17140273756956706
17.9,0.07944395057106479,-0.19523279740497476,0.3805529896397663
17.91,0.07173105116622598,-0.5885187728267621,0.4751622720417195
17.92,0.17368910099921905,-0.22040494467941724,0.2543364989699569
17.93,0.37905896326495564,-0.019601207865826604,-0.030780727638643052
17.94,0.5535376427743587,0.10552250986565145,-0.34055199857837626
17.95,0.556394442091462,0.41537554849990105,-0.3809908672692211
17.96,0.4256973156303732,0.5246559116245961,-0.3821003776781886
17.97,0.28688087579553756,0.21547336656302468,-0.5018074689549068
17.98,0.14587047908182618,-0.05475714984454733,-0.04153316101480814
17.99,0.0012588233297067155,0.3492422385890163,0.32877605809312843
18.0,-0.13047681725606713,0.8525258316375492,0.35570506539860214
18.01,-0.1783112103330836,0.5921615502534843,0.39762249716515574
18.02,-0.17490148790268195,-0.0995439916622751,0.2752193203164514
18.03,-0.1945561303605541,-0.5291134428145681,-0.12669359929542368
18.04,-0.22081243615528384,-0.7990969092603932,-0.3791565624970276
18.05,-0.30547777692729083,-0.7765844605159239,-0.20335172810579863
18.06,-0.47262394225714116,0.006307168178667753,-0.24379687091908814
18.07,-0.6491941783491191,0.5990307092999093,-0.20970549692759
18.08,-0.7928674803106942,0.22667099480806657,0.42777507202564347
18.09,-0.8720006980125081,0.04876291144771789,0.38641919852003315
18.1,-0.7829946380504251,-0.040264817106468766,-0.07882628405941867
18.11,-0.5879364524275388,-0.4916622556491568,0.08117293246219706
18.12,-0.49085600419855985,-0.11710748465292024,0.12711175012113018
18.13,-0.42778193845379764,0.3747693853675307,-0.10766145492908248
18.14,-0.3679396726818088,-0.2176228315821298,0.07273168812177318
18.15,-0.4497101418211565,-0.5228989211501865,0.07866584248316552
18.16,-0.580962406491078,-0.0018693144031823679,-0.19761790468663695
18.17,-0.5135974589985839,0.07869112528064548,-0.3124936129363655
18.18,-0.343344782987993,-0.28024673341790846,-0.13196018382572977
18.19,-0.20538519448643935,-0.19593900448494753,-0.01209301556573473
18.2,-0.05891716232727357,-0.14031986486280068,0.15582896645274913
18.21,-0.07898435014953777,-0.06415312338704168,0.402233219016267
18.22,-0.3066649905559676,0.169934358665664,0.39552762289985577
