time,seconds_elapsed,z,y,x
1789222910686042400,0.05404248046875,0.475358784198761,-0.12095408886671066,0.14185863733291626
1789222910696036400,0.064036376953125,0.44563233852386475,-0.8256780505180359,0.06505614519119263
1789222910706030300,0.0740302734375,0.5992005467414856,-1.051212191581726,0.6109858155250549
1789222910716023600,0.0840234375,0.7781984210014343,-0.05894055217504501,1.0206284523010254
1789222910726017500,0.094017578125,0.8639753460884094,0.7462643384933472,0.9651324152946472
1789222910736011500,0.104011474609375,0.8817931413650513,0.6604505181312561,0.7606181502342224
1789222910746004200,0.114004150390625,0.9174712300300598,0.1266457438468933,0.6321858763694763
1789222910755998500,0.12399853515625,1.0060572624206543,0.32147955894470215,0.22480051219463348
1789222910765992400,0.133992431640625,1.050445556640625,0.6729906797409058,-0.23234573006629944
1789222910775985400,0.1439853515625,0.811684250831604,1.0286271572113037,-0.48289772868156433
1789222910785979400,0.1539794921875,0.6510668992996216,0.104920893907547,-0.100314661860466
1789222910795973400,0.163973388671875,0.5032821297645569,-0.7219098806381226,0.5838991403579712
1789222910805966300,0.17396630859375,0.4943200647830963,-0.36429497599601746,1.1645081043243408
1789222910815960300,0.183960205078125,0.4898238480091095,0.6960496306419373,1.744118094444275
1789222910825954600,0.19395458984375,0.3936651051044464,2.5801875591278076,2.120310068130493
1789222910835947500,0.203947509765625,0.3744732141494751,3.026376247406006,1.2886598110198975
1789222910845941200,0.213941162109375,0.33315080404281616,-0.0882820412516594,0.2851253151893616
1789222910855935200,0.223935302734375,0.5305788516998291,-2.7667477130889893,-1.3381178379058838
1789222910865928400,0.233928466796875,1.1106986999511719,-2.511465311050415,-1.9742016792297363
1789222910875922400,0.24392236328125,1.5937108993530273,-0.9741092324256897,-0.7738104462623596
1789222910885916400,0.25391650390625,1.9360640048980713,0.950568437576294,-0.02611653506755829
1789222910895909400,0.263909423828125,1.8108675479888916,2.9987246990203857,-0.03572506830096245
1789222910905903400,0.2739033203125,1.394288182258606,2.7956960201263428,0.5777865648269653
1789222910915897300,0.2838974609375,0.7340720295906067,1.5071752071380615,0.6421592831611633
1789222910925890600,0.293890625,0.09161423146724701,0.3817062973976135,0.11185890436172485
1789222910935884500,0.303884521484375,0.06733804941177368,-1.4255666732788086,0.28805434703826904
1789222910945878500,0.31387841796875,0.5558738708496094,-2.2076423168182373,0.8321093916893005
1789222910955871200,0.323871337890625,1.188575267791748,-0.4499214291572571,0.626292884349823
1789222910965865500,0.333865478515625,1.6206400394439697,4.0387115478515625,-0.6160107851028442
1789222910975859500,0.343859375,1.9471540451049805,2.6348671913146973,-1.2981892824172974
1789222910985852400,0.353852294921875,1.7984216213226318,-0.5797421336174011,-1.9724019765853882
1789222910995846400,0.363846435546875,1.6694426536560059,-0.6932957768440247,-1.2282370328903198
1789222911005840400,0.37384033203125,1.4146029949188232,1.3410066366195679,1.523995280265808
1789222911015833300,0.383833251953125,1.253063440322876,1.865864872932434,3.6950817108154297
1789222911025827300,0.393827392578125,1.06224524974823,-0.5398399829864502,4.234409809112549
1789222911035821300,0.4038212890625,0.45540851354599,-1.116921067237854,3.479358196258545
1789222911045814500,0.413814453125,-0.2441737949848175,5.5275959968566895,0.5555520057678223
1789222911055808300,0.423808349609375,-0.9142661094665527,2.023150682449341,-2.67459774017334
1789222911065802200,0.43380224609375,-1.2813620567321777,-0.8459066152572632,-4.257781028747559
1789222911075795500,0.44379541015625,-0.7746260166168213,-1.9622060060501099,-3.5846738815307617
1789222911085789400,0.45378955078125,0.6341617107391357,-1.9013813734054565,-1.3101695775985718
1789222911095783400,0.463783447265625,2.0754315853118896,0.1978123039007187,0.36148539185523987
1789222911105776400,0.4737763671875,2.5196826457977295,2.755316972732544,1.653268814086914
1789222911115770400,0.483770263671875,1.9047894477844238,2.6632771492004395,2.847148895263672
1789222911125764400,0.493764404296875,0.5415250658988953,1.0862643718719482,2.4430861473083496
1789222911135757600,0.503757568359375,-0.9363182187080383,0.8258718252182007,0.5198681950569153
1789222911145751600,0.51375146484375,-1.766183853149414,1.4189987182617188,-1.0597306489944458
1789222911155745500,0.52374560546875,-1.8096555471420288,0.3458583950996399,-1.7849948406219482
1789222911165739300,0.5337392578125,-1.1110365390777588,-0.33625730872154236,-1.2466626167297363
1789222911175732500,0.543732421875,-0.18116387724876404,0.4450730085372925,0.6463184356689453
1789222911185726500,0.5537265625,0.5511358976364136,0.9648056626319885,2.5653200149536133
1789222911195720400,0.563720458984375,0.938703715801239,-0.747626543045044,2.7480251789093018
1789222911205713400,0.57371337890625,0.5520196557044983,-1.7779382467269897,1.5043431520462036
1789222911215707400,0.583707275390625,-0.34005215764045715,-1.3604010343551636,-0.3447394371032715
1789222911225701400,0.593701416015625,-0.8891298770904541,1.4426146745681763,-3.6780576705932617
1789222911235694300,0.6036943359375,-0.5716232061386108,1.3386980295181274,-4.814964771270752
1789222911245688300,0.613688232421875,-0.3237937390804291,0.3295740783214569,-3.2282297611236572
1789222911255682600,0.6236826171875,-0.5179447531700134,2.8495726585388184,-0.5353692173957825
1789222911265675300,0.63367529296875,-0.328678697347641,2.743215560913086,3.383432149887085
1789222911275669200,0.643669189453125,-0.28171828389167786,1.0503017902374268,5.914882183074951
1789222911285663500,0.65366357421875,-0.4293290376663208,-2.1911706924438477,4.989473819732666
1789222911295656400,0.663656494140625,-0.7340877652168274,-5.412336826324463,3.173227310180664
1789222911305650400,0.673650390625,-1.104584813117981,-3.64558744430542,1.167427659034729
1789222911315644400,0.68364453125,-0.9749305844306946,0.5119568109512329,-1.9012176990509033
1789222911325637400,0.693637451171875,-0.9660851955413818,0.3580818176269531,-3.4013326168060303
1789222911335631400,0.70363134765625,-1.4086925983428955,1.3730084896087646,-2.525914192199707
1789222911345625300,0.713625244140625,-1.9627941846847534,4.0093817710876465,-2.301826238632202
1789222911355618600,0.72361865234375,-2.088047742843628,1.9848804473876953,-1.8377974033355713
1789222911365612500,0.733612548828125,-2.1383285522460938,-2.9012410640716553,0.0198534969240427
1789222911375606300,0.743606201171875,-2.404939651489258,-5.291127681732178,1.0416027307510376
1789222911385599500,0.753599609375,-2.2805635929107666,-5.071071147918701,0.4596303403377533
1789222911395593500,0.763593505859375,-1.9485007524490356,-2.7838690280914307,0.2176864892244339
1789222911405587500,0.77358740234375,-1.787975788116455,0.043926287442445755,1.0151625871658325
1789222911415580400,0.783580322265625,-1.675872564315796,2.9485325813293457,0.20586706697940826
1789222911425574400,0.793574462890625,-1.993410587310791,2.3909175395965576,-0.05012449622154236
1789222911435568400,0.803568359375,-2.5897812843322754,0.8546649217605591,0.47041353583335876
1789222911445561300,0.813561279296875,-2.9898765087127686,-1.039650559425354,-0.2425335794687271
1789222911455555300,0.823555419921875,-2.888575315475464,-3.000638723373413,-0.4339648187160492
1789222911465549600,0.833549560546875,-1.970026969909668,-4.352397918701172,-0.04485010355710983
1789222911475542300,0.843542236328125,-0.408953458070755,-0.5962212085723877,-1.6442657709121704
1789222911485536300,0.853536376953125,0.1538901925086975,-0.6705489754676819,-1.192548394203186
1789222911495530200,0.8635302734375,-0.5004143714904785,1.3895963430404663,0.2689341902732849
1789222911505523500,0.8735234375,-1.2612154483795166,1.6507065296173096,1.7796720266342163
1789222911515517400,0.883517333984375,-1.8690372705459595,-1.1908257007598877,2.367413282394409
1789222911525511400,0.893511474609375,-2.2713918685913086,-3.6943180561065674,1.2401660680770874
1789222911535504400,0.90350439453125,-2.392665147781372,-3.1232750415802,0.5338825583457947
1789222911545498400,0.913498291015625,-1.9875519275665283,-0.9777467846870422,-0.08905767649412155
1789222911555492400,0.923492431640625,-0.9511889815330505,0.6023065447807312,-1.5761218070983887
1789222911565485600,0.933485595703125,-0.008926095440983772,0.7948960065841675,-1.0994952917099
1789222911575479600,0.9434794921875,0.46485579013824463,0.5493817329406738,0.03558126464486122
1789222911585473300,0.953473388671875,0.6696116328239441,-1.165533185005188,0.2195574939250946
1789222911595466500,0.963466552734375,0.6061162352561951,-3.283982515335083,0.6151171922683716
1789222911605460500,0.97346044921875,0.07912969589233398,-1.3173564672470093,-0.05019481107592583
1789222911615454500,0.983454345703125,-0.5244830250740051,1.4654645919799805,-0.610295832157135
1789222911625447400,0.993447509765625,-1.0004428625106812,2.483534812927246,0.06645169854164124
1789222911635441400,1.00344140625,-0.9139469265937805,1.086586833000183,0.7297227382659912
1789222911645435400,1.013435302734375,-0.4355134963989258,-1.1190874576568604,1.077235460281372
1789222911655428400,1.023428466796875,-0.08267960697412491,-1.5390053987503052,1.34702467918396
1789222911665422300,1.03342236328125,0.3835704028606415,-1.9578099250793457,0.6385312676429749
1789222911675416600,1.04341650390625,0.8606802821159363,-2.760023832321167,-0.3566298484802246
1789222911685409300,1.0534091796875,1.222971796989441,0.48268923163414,-1.3700268268585205
1789222911695403300,1.0634033203125,1.1522637605667114,2.753187894821167,-2.0335161685943604
1789222911705397500,1.0733974609375,0.2232804000377655,2.254962921142578,-1.2769322395324707
1789222911715390700,1.083390625,-0.6702882647514343,1.656890869140625,0.40265092253685
1789222911725384700,1.093384765625,-1.1133376359939575,0.028974313288927078,1.7340079545974731
1789222911735378700,1.103378662109375,-1.1179934740066528,-2.1712427139282227,2.5285890102386475
1789222911745371600,1.11337158203125,-0.718544065952301,-4.607082366943359,3.569870948791504
1789222911755365600,1.12336572265625,-0.060141414403915405,-4.484673023223877,2.197364091873169
1789222911765359600,1.133359619140625,0.6736236810684204,0.03343670070171356,-0.3748182952404022
1789222911775352800,1.143352783203125,1.0375553369522095,2.402644395828247,-2.456160306930542
1789222911785346600,1.1533466796875,0.8450846672058105,4.08818244934082,-4.207650184631348
1789222911795340500,1.163340576171875,0.2055910974740982,4.860340118408203,-3.4308314323425293
1789222911805333500,1.17333349609375,0.1477573662996292,0.1672172248363495,-0.2437395453453064
1789222911815327700,1.18332763671875,0.46723052859306335,-6.002742290496826,2.3618125915527344
1789222911825321700,1.19332177734375,0.5160558819770813,-6.874101638793945,3.217961549758911
1789222911835314400,1.203314453125,0.6001016497612,-0.2245183289051056,1.550765037536621
1789222911845308400,1.213308349609375,0.41202977299690247,2.864086627960205,0.9312942624092102
1789222911855302700,1.223302734375,0.030554167926311493,3.6009109020233154,1.452818512916565
1789222911865295600,1.233295654296875,-0.20817504823207855,3.3700201511383057,1.0470504760742188
1789222911875289600,1.24328955078125,-0.15740105509757996,0.790371298789978,-2.0248160362243652
1789222911885283600,1.25328369140625,0.5545889139175415,-2.510972023010254,-3.3421378135681152
1789222911895276500,1.263276611328125,1.3970460891723633,-1.3664218187332153,-2.9452483654022217
1789222911905270500,1.2732705078125,2.1509625911712646,-0.6082316637039185,-0.7944862246513367
1789222911915264500,1.283264404296875,2.3188841342926025,0.6264029741287231,2.2905592918395996
1789222911925257700,1.2932578125,2.1321463584899902,1.9543211460113525,2.8270905017852783
1789222911935251700,1.303251708984375,1.5406261682510376,2.3430240154266357,1.5536394119262695
1789222911945245700,1.31324560546875,0.6029958724975586,1.9250155687332153,0.5886843204498291
1789222911955238700,1.32323876953125,0.1049238070845604,-1.1089942455291748,-0.6146025657653809
1789222911965232600,1.333232666015625,0.1243896558880806,-0.7013261318206787,-2.8215739727020264
1789222911975226600,1.3432265625,0.8707753419876099,-0.11690132319927216,-2.823148727416992
1789222911985219800,1.3532197265625,1.8330870866775513,0.4391898810863495,-0.08208116143941879
1789222911995213600,1.363213623046875,2.4572365283966064,2.265631914138794,1.39584481716156
1789222912005207600,1.37320751953125,2.619791030883789,2.2911949157714844,1.0266531705856323
1789222912015200500,1.383200439453125,1.9490697383880615,0.6977623701095581,0.9821164608001709
1789222912025194800,1.39319482421875,0.7954288721084595,-0.91194748878479,1.173747181892395
1789222912035188700,1.403188720703125,-0.27505165338516235,-0.6379337906837463,-0.28576627373695374
1789222912045181400,1.413181396484375,-0.5262013077735901,0.7276962995529175,-2.2994155883789062
1789222912055175400,1.423175537109375,-0.39732831716537476,-0.30527248978614807,-1.4080519676208496
1789222912065169700,1.433169677734375,-0.19173651933670044,-0.20436212420463562,0.30325624346733093
1789222912075162600,1.44316259765625,0.1751411259174347,0.2521318793296814,1.0514522790908813
1789222912085156600,1.453156494140625,0.5730053782463074,0.21632327139377594,0.8542627692222595
1789222912095150600,1.463150634765625,0.79353928565979,-0.4031706750392914,0.2268396019935608
1789222912105143600,1.4731435546875,0.35416728258132935,0.7002336978912354,-0.002450299682095647
1789222912115137500,1.483137451171875,-0.3253471851348877,1.6735080480575562,0.7437686324119568
1789222912125131500,1.493131591796875,-0.7702023983001709,1.2367889881134033,0.2218974232673645
1789222912135124700,1.503124755859375,-0.9990056753158569,0.37077680230140686,-0.4774024784564972
1789222912145118700,1.51311865234375,-1.067659854888916,-0.1617659330368042,-0.3689175546169281
1789222912155112700,1.52311279296875,-0.8088858723640442,-0.5662916898727417,-1.2449175119400024
1789222912165105700,1.533105712890625,-0.24191807210445404,-1.3060860633850098,-1.8400157690048218
1789222912175099600,1.543099609375,0.5145999789237976,-0.08200330287218094,-0.7732468843460083
1789222912185093600,1.55309375,0.5410821437835693,0.8781456351280212,-0.019938228651881218
1789222912195086600,1.563086669921875,-0.15133464336395264,0.36451905965805054,1.4790807962417603
1789222912205080600,1.57308056640625,-0.999800980091095,-1.3337966203689575,3.019834518432617
1789222912215074600,1.583074462890625,-1.826222538948059,-1.9384045600891113,2.5941853523254395
1789222912225067500,1.593067626953125,-2.3366427421569824,-1.9412966966629028,1.3313020467758179
1789222912235061800,1.603061767578125,-2.3868236541748047,-2.0072858333587646,0.24125276505947113
1789222912245055700,1.6130556640625,-1.8921483755111694,1.329231858253479,-1.9588953256607056
1789222912255048400,1.62304833984375,-1.0501444339752197,2.728715181350708,-3.058530330657959
1789222912265042400,1.63304248046875,-0.5376317501068115,0.3272486627101898,-2.435870885848999
1789222912275036700,1.64303662109375,-0.7241799235343933,-0.735083281993866,-0.5537633895874023
1789222912285029600,1.653029541015625,-1.1053112745285034,-2.209282636642456,1.7442731857299805
1789222912295023600,1.663023681640625,-1.3604620695114136,-3.4289047718048096,1.188154697418213
1789222912305017600,1.673017578125,-1.572763204574585,-2.9767580032348633,0.25154438614845276
1789222912315010600,1.683010498046875,-1.8413097858428955,-0.7834405303001404,0.002747303806245327
1789222912325004500,1.693004638671875,-1.7321330308914185,1.0155013799667358,-1.0877418518066406
1789222912334998500,1.70299853515625,-1.4805731773376465,0.9552197456359863,-1.0952297449111938
1789222912344991700,1.71299169921875,-1.3814321756362915,0.19226402044296265,0.15866422653198242
1789222912354985700,1.72298583984375,-1.4468271732330322,-0.5633891820907593,0.39190563559532166
1789222912364979500,1.7329794921875,-1.3143123388290405,-2.4993345737457275,0.45424437522888184
1789222912374972700,1.74297265625,-1.2288188934326172,-2.2339322566986084,0.26375168561935425
1789222912384966700,1.752966552734375,-1.135481595993042,-0.5191431641578674,-0.0065573109313845634
1789222912394960600,1.762960693359375,-0.9663487672805786,0.8024563789367676,-0.045751191675662994
1789222912404953600,1.77295361328125,-0.6288256049156189,1.0329487323760986,0.2175142616033554
1789222912414947600,1.782947509765625,-0.4170258641242981,0.9408172965049744,0.2581062614917755
1789222912424941600,1.792941650390625,-0.4068845510482788,0.3965236246585846,-0.12916237115859985
1789222912434934500,1.8029345703125,-0.42371422052383423,-0.647165834903717,0.054303910583257675
1789222912444928800,1.8129287109375,-0.21479296684265137,-1.8217902183532715,0.5050370097160339
1789222912454922800,1.8229228515625,0.2255139797925949,-0.7748643159866333,-0.31795158982276917
1789222912464915500,1.83291552734375,0.4851764440536499,0.4942813217639923,-0.7617223858833313
1789222912474909400,1.842909423828125,0.5162783861160278,0.70717453956604,0.04982404783368111
1789222912484903700,1.852903564453125,0.37925800681114197,0.20241765677928925,1.0624511241912842
1789222912494896600,1.862896728515625,0.0891842246055603,-0.600927472114563,1.245498538017273
1789222912504890600,1.872890625,-0.20326600968837738,-1.434630274772644,0.40069329738616943
1789222912514883600,1.882883544921875,-0.48320716619491577,-1.2712829113006592,-0.33407866954803467
1789222912524877600,1.892877685546875,-0.6001082062721252,-0.08426227420568466,-0.6281142830848694
1789222912534871600,1.90287158203125,-0.265188604593277,0.4984266459941864,-0.7925177216529846
1789222912544865500,1.912865478515625,0.16750557720661163,0.31280726194381714,-0.893515944480896
1789222912554858800,1.922858642578125,0.3833021819591522,-0.33348000049591064,-0.17170311510562897
1789222912564852700,1.932852783203125,0.26067399978637695,-0.8197929263114929,1.4063538312911987
1789222912574845400,1.942845458984375,-0.10917047411203384,-0.9498911499977112,2.9210925102233887
1789222912584839700,1.952839599609375,-0.3921523690223694,-1.1663910150527954,2.582136631011963
1789222912594833700,1.962833740234375,-0.5716370940208435,0.12218666076660156,0.5227087140083313
1789222912604827600,1.97282763671875,-0.7310131192207336,2.071453332901001,-0.9168714880943298
1789222912614820600,1.982820556640625,-0.3877033591270447,1.9922348260879517,-2.049480676651001
1789222912624814600,1.992814697265625,0.2806698977947235,-0.4474738538265228,-3.733628749847412
1789222912634807600,2.0028076171875,0.7048692107200623,-1.323587417602539,-2.818699836730957
1789222912644801500,2.012801513671875,0.632420539855957,-1.150311827659607,1.1104724407196045
1789222912654795500,2.02279541015625,0.26304441690444946,-0.9596241116523743,3.383176565170288
1789222912664789800,2.032789794921875,0.0011265389621257782,-1.5495755672454834,2.0665457248687744
1789222912674782500,2.042782470703125,-0.4588872790336609,-0.5189861059188843,0.5353943705558777
1789222912684776400,2.0527763671875,-0.9612310528755188,2.4493815898895264,-0.4969562590122223
1789222912694769700,2.062769775390625,-1.2659162282943726,2.579525947570801,-2.0636465549468994
1789222912704763600,2.072763671875,-1.082840919494629,-0.5242783427238464,-1.2717655897140503
1789222912714757600,2.082757568359375,-0.8521250486373901,-2.380419969558716,1.572733998298645
1789222912724751600,2.092751708984375,-0.5901304483413696,-1.7999670505523682,2.2731809616088867
1789222912734744800,2.102744873046875,-0.11341395229101181,-2.0914254188537598,2.1199867725372314
1789222912744738800,2.11273876953125,0.11338137835264206,-2.739311695098877,2.5469131469726562
1789222912754731800,2.122731689453125,0.14469151198863983,0.2736084461212158,0.8161044120788574
1789222912764725800,2.132725830078125,0.051911789923906326,6.937922477722168,-2.4707887172698975
1789222912774719700,2.1427197265625,-0.09229062497615814,1.160626769065857,-3.0321366786956787
1789222912784713700,2.152713623046875,-0.4801957607269287,-0.17044277489185333,-3.4530115127563477
1789222912794707000,2.16270703125,-0.48402875661849976,0.8350121974945068,-1.8597667217254639
1789222912804701000,2.172700927734375,-0.009222304448485374,-0.3173770308494568,1.3178832530975342
1789222912814693600,2.182693603515625,0.5497216582298279,-3.2478408813476562,3.304136276245117
1789222912824687600,2.1926875,0.9863868355751038,-4.01459264755249,2.4660134315490723
1789222912834681900,2.202681884765625,1.5150132179260254,0.8507298827171326,-0.3067310154438019
1789222912844675800,2.21267578125,0.9400931596755981,-0.6212405562400818,-0.9544793963432312
1789222912854668800,2.222668701171875,-0.2071177363395691,-1.2079445123672485,-0.6245707869529724
1789222912864662500,2.23266259765625,-1.4416183233261108,1.0374481678009033,0.4341776669025421
1789222912874655700,2.24265576171875,-2.407365083694458,2.882063150405884,1.1698588132858276
1789222912884649700,2.252649658203125,-2.3067097663879395,-0.366411030292511,0.7338598966598511
1789222912894643700,2.262643798828125,-2.204519033432007,-2.1813323497772217,0.3241223692893982
1789222912904637000,2.272636962890625,-2.1163792610168457,-2.0567641258239746,1.745863676071167
1789222912914630700,2.282630615234375,-1.7989780902862549,-0.5734760761260986,2.8223836421966553
1789222912924624600,2.292624755859375,-0.6671531796455383,1.3107713460922241,-0.7160349488258362
1789222912934617900,2.302617919921875,1.0696656703948975,-2.697460412979126,-4.3360276222229
1789222912944611800,2.31261181640625,1.5009781122207642,-1.7372304201126099,-3.390939712524414
1789222912954605800,2.322605712890625,1.190521478652954,0.6152686476707458,-1.4206953048706055
1789222912964598500,2.3325986328125,0.5080221891403198,1.4874191284179688,1.1307885646820068
1789222912974592800,2.3425927734375,-0.29385921359062195,0.31749942898750305,3.22506046295166
1789222912984586800,2.352586669921875,-1.1189627647399902,-1.0451351404190063,3.6976029872894287
1789222912994579700,2.362579833984375,-1.5995014905929565,-0.06627261638641357,0.6509727239608765
1789222913004573700,2.37257373046875,-1.2258466482162476,-0.19502019882202148,-2.618791103363037
1789222913014568000,2.38256787109375,-0.4532461166381836,-2.1631994247436523,-2.281768321990967
1789222913024560600,2.392560546875,0.11943790316581726,-0.5830900073051453,-1.218776822090149
1789222913034554600,2.4025546875,0.1232084110379219,2.4701716899871826,1.4631006717681885
1789222913044548900,2.412548828125,0.06965223699808121,2.722382068634033,3.1613810062408447
1789222913054541800,2.422541748046875,-0.14130207896232605,-0.9900688529014587,2.770432949066162
1789222913064535800,2.432535888671875,-0.4934161901473999,-5.901668071746826,1.9221725463867188
1789222913074529500,2.442529541015625,-0.5944458842277527,-1.912698745727539,-1.5525041818618774
1789222913084522800,2.452522705078125,-0.579910397529602,1.9759728908538818,-4.065976142883301
1789222913094516700,2.462516845703125,-0.8980202078819275,0.2168937623500824,-3.5977964401245117
1789222913104510700,2.4725107421875,-1.271645426750183,0.409878134727478,-1.5967767238616943
1789222913114504000,2.48250390625,-1.2403364181518555,0.564307689666748,1.66437566280365
1789222913124497700,2.49249755859375,-0.6747075915336609,-1.5677809715270996,3.406418561935425
1789222913134491600,2.50249169921875,-0.07873350381851196,-3.8009297847747803,2.3676271438598633
1789222913144484900,2.51248486328125,0.0654849261045456,-4.434311389923096,2.160170793533325
1789222913154478800,2.522478759765625,-0.18740572035312653,-1.1509318351745605,1.2772752046585083
1789222913164472800,2.532472900390625,-0.07963478565216064,6.090725898742676,-2.673489809036255
1789222913174465500,2.542465576171875,-0.00040907319635152817,-0.18904830515384674,-3.585869789123535
1789222913184459800,2.552459716796875,-0.6775475740432739,-0.2599445581436157,-2.1298723220825195
1789222913194453800,2.562453857421875,-1.286432147026062,0.39535558223724365,0.5605120658874512
1789222913204446700,2.57244677734375,-1.4801387786865234,-1.5601025819778442,2.7854220867156982
1789222913214440700,2.582440673828125,-1.352947473526001,-3.9019665718078613,2.7628190517425537
1789222913224435000,2.59243505859375,-0.8306980133056641,-3.2753171920776367,1.3994073867797852
1789222913234427600,2.602427734375,-0.008719131350517273,2.884519100189209,-0.5762666463851929
1789222913244421600,2.612421630859375,-0.00418909452855587,2.941530704498291,-1.9064946174621582
1789222913254416000,2.622415771484375,-0.29270124435424805,0.22910036146640778,-2.1894938945770264
1789222913264408800,2.632408935546875,-0.4568672776222229,-1.6181694269180298,-0.8705711364746094
1789222913274402800,2.64240283203125,-0.480019211769104,-1.424727439880371,0.2573961913585663
1789222913284396500,2.652396484375,-0.09856612980365753,-2.491081953048706,0.5988494157791138
1789222913294389800,2.6623896484375,0.25103071331977844,-3.372323751449585,0.8847368359565735
1789222913304383700,2.6723837890625,0.3188371956348419,-2.083207368850708,1.1904172897338867
1789222913314377700,2.682377685546875,0.7357814311981201,4.113778114318848,-0.08974893391132355
1789222913324371000,2.692370849609375,0.8681461215019226,1.8823447227478027,-1.3659461736679077
1789222913334364700,2.70236474609375,0.2644769549369812,0.6190703511238098,-1.4980460405349731
1789222913344358700,2.712358642578125,-0.024146592244505882,-0.42945370078086853,0.04101580008864403
1789222913354351900,2.722351806640625,0.10535896569490433,-1.7358994483947754,1.9476128816604614
1789222913364345900,2.732345947265625,0.38243770599365234,-1.4824261665344238,2.4684512615203857
1789222913374339800,2.74233984375,0.6023620963096619,0.47357723116874695,1.6306780576705933
1789222913384332500,2.75233251953125,0.5702337622642517,2.6480257511138916,-0.20430783927440643
1789222913394326800,2.762326904296875,0.4374532997608185,2.071007251739502,-1.5472795963287354
1789222913404320800,2.77232080078125,0.5062981247901917,-0.2603096663951874,-2.1483564376831055
1789222913414313700,2.782313720703125,0.8308402299880981,-2.454240560531616,-1.7592283487319946
1789222913424307700,2.7923076171875,0.9333152174949646,-2.1376044750213623,-0.6766421794891357
1789222913434302000,2.802302001953125,0.7284619212150574,-0.38494783639907837,0.7506242990493774
1789222913444295700,2.812295654296875,0.449095755815506,0.5172240734100342,2.0202019214630127
1789222913454288600,2.82228857421875,0.24846014380455017,1.0437448024749756,1.197914719581604
1789222913464282600,2.83228271484375,0.13143418729305267,0.28114253282546997,0.10476266592741013
1789222913474275800,2.84227587890625,0.13746337592601776,-0.8195636868476868,-0.174161896109581
1789222913484269800,2.852269775390625,0.23430868983268738,-1.144808053970337,-0.2150171846151352
1789222913494263600,2.862263671875,0.3446151912212372,-0.7497497200965881,-0.4225617051124573
1789222913504257800,2.8722578125,0.3607718050479889,0.2957085371017456,-0.8698313236236572
1789222913514250800,2.882250732421875,0.08188141137361526,2.1768479347229004,-0.7992693781852722
1789222913524244700,2.89224462890625,-0.14339086413383484,2.816328287124634,-0.51141756772995
1789222913534238000,2.902238037109375,0.09537447243928909,0.40095725655555725,0.20953091979026794
1789222913544231700,2.912231689453125,0.4410911500453949,-2.0957064628601074,1.6805391311645508
1789222913554225700,2.9222255859375,0.7264155149459839,-1.924640417098999,2.1073076725006104
1789222913564219600,2.9322197265625,1.1276236772537231,-0.253123939037323,0.6998515129089355
1789222913574212900,2.942212890625,1.274527907371521,0.9633317589759827,-0.6927151679992676
1789222913584206800,2.952206787109375,0.8294451832771301,1.131337285041809,-0.6997440457344055
1789222913594200800,2.962200927734375,0.09062709659337997,1.0627471208572388,-0.8973667025566101
1789222913604193800,2.97219384765625,-0.7821136713027954,1.9556878805160522,-0.9653382897377014
1789222913614187800,2.982187744140625,-0.8690563440322876,0.8457731604576111,-0.4809861481189728
1789222913624181800,2.992181640625,0.19849173724651337,-1.9556491374969482,-1.5262750387191772
1789222913634174700,3.0021748046875,1.3149994611740112,-2.8654043674468994,-0.46487048268318176
1789222913644169000,3.0121689453125,1.4591912031173706,-0.390752911567688,1.4028607606887817
1789222913654162700,3.02216259765625,1.1504777669906616,2.332096576690674,1.9865987300872803
1789222913664155600,3.03215576171875,0.5559840202331543,2.488030433654785,0.7772983312606812
1789222913674149600,3.042149658203125,-0.2458045482635498,0.4858396649360657,0.22983300685882568
1789222913684143900,3.052143798828125,-1.1604946851730347,0.21066349744796753,-0.42500099539756775
1789222913694136800,3.06213671875,-1.5373859405517578,0.36861497163772583,-1.117185354232788
1789222913704130800,3.072130859375,-1.218055248260498,-1.000051736831665,0.400445818901062
1789222913714124800,3.082124755859375,-0.6090695858001709,-1.1695315837860107,2.3542377948760986
1789222913724118000,3.092117919921875,-0.05362129211425781,1.397412896156311,2.1606874465942383
1789222913734112000,3.102112060546875,0.5124244689941406,1.9672046899795532,0.2364107370376587
1789222913744106000,3.11210595703125,1.1010072231292725,-2.2730000019073486,-1.8560982942581177
1789222913754099000,3.122098876953125,1.3693009614944458,-4.899717807769775,-3.0789616107940674
1789222913764093000,3.132093017578125,0.9804019927978516,-3.561602830886841,-1.705438256263733
1789222913774087000,3.1420869140625,-0.002126878360286355,1.0499178171157837,0.8355478644371033
1789222913784080100,3.152080078125,-1.0140929222106934,6.102726936340332,3.002429962158203
1789222913794074000,3.16207421875,-1.1488327980041504,4.981912612915039,2.728001117706299
1789222913804068000,3.172068115234375,-1.9204331636428833,-0.11783966422080994,0.1850770264863968
1789222913814060800,3.182060791015625,-2.2048089504241943,-2.5815393924713135,-0.006617933977395296
1789222913824055000,3.192054931640625,-1.7366119623184204,-4.987942695617676,0.4747050106525421
1789222913834049000,3.202049072265625,-0.8549837470054626,-4.06777811050415,0.07308361679315567
1789222913844042000,3.2120419921875,0.53180330991745,2.5291566848754883,-0.6697391271591187
1789222913854036000,3.222035888671875,0.9139068722724915,3.704845428466797,-0.7053837776184082
1789222913864030000,3.232030029296875,0.12483064085245132,3.8306169509887695,-0.3396819233894348
1789222913874023000,3.24202294921875,-0.9365729093551636,1.322568416595459,3.1650547981262207
1789222913884017000,3.252016845703125,-2.1487698554992676,-3.7481112480163574,4.7847371101379395
1789222913894011100,3.26201123046875,-2.872082233428955,-11.38668155670166,-2.6770286560058594
1789222913904004000,3.272004150390625,-2.4416086673736572,-3.707939386367798,-4.27708625793457
1789222913913997800,3.281997802734375,-2.0822577476501465,0.43499085307121277,-1.9740753173828125
1789222913923991800,3.29199169921875,-1.17409348487854,1.8548426628112793,-1.2322981357574463
1789222913933985000,3.301985107421875,-0.07172569632530212,-0.3938140571117401,-0.6948531270027161
1789222913943979000,3.31197900390625,0.5789213180541992,4.179055690765381,1.9978560209274292
1789222913953973000,3.321972900390625,0.28239211440086365,5.200001239776611,2.1696033477783203
1789222913963966000,3.331966064453125,-0.9681116938591003,0.12598805129528046,1.2522090673446655
1789222913973960000,3.3419599609375,-2.017808198928833,-4.1259074211120605,1.885430097579956
1789222913983954000,3.351953857421875,-2.5929055213928223,-3.910393238067627,1.6746691465377808
1789222913993947100,3.361947021484375,-2.1009178161621094,-2.3844141960144043,-0.8313996195793152
1789222914003941000,3.371941162109375,-0.8644028306007385,-3.407785654067993,-2.0812957286834717
1789222914013935000,3.38193505859375,-0.045134034007787704,-2.051333427429199,-1.5903769731521606
1789222914023927800,3.391927734375,0.24545918405056,1.6482815742492676,-1.482004165649414
1789222914033922000,3.401922119140625,0.011411203071475029,3.771925449371338,-1.9087274074554443
1789222914043916000,3.411916015625,-0.3712448179721832,0.744946300983429,-0.35659313201904297
1789222914053909000,3.421908935546875,-1.0459851026535034,-2.9067022800445557,0.9297958612442017
1789222914063903000,3.431903076171875,-1.8894819021224976,-3.3303351402282715,1.0886363983154297
1789222914073897000,3.44189697265625,-2.409820318222046,-1.7165615558624268,2.085555076599121
1789222914083890000,3.451889892578125,-2.2517576217651367,0.11469610035419464,2.722886323928833
1789222914093884000,3.4618837890625,-1.4624103307724,1.0435656309127808,1.8835536241531372
1789222914103878100,3.471878173828125,-0.6960593461990356,1.1693986654281616,0.9343665242195129
1789222914113871000,3.48187109375,-0.17192403972148895,0.27264824509620667,0.3016899526119232
1789222914123864800,3.49186474609375,0.16535332798957825,-1.624160885810852,-0.8547938466072083
1789222914133858800,3.50185888671875,0.434853196144104,-3.4592134952545166,-2.2596518993377686
1789222914143852000,3.51185205078125,1.0693291425704956,-2.4683873653411865,-2.7629282474517822
1789222914153846000,3.521845947265625,0.9389451742172241,0.07640467584133148,-1.838291049003601
1789222914163840000,3.531840087890625,0.25751790404319763,-0.7032663226127625,-0.8442294001579285
1789222914173833000,3.5418330078125,-0.5947152972221375,-0.8089630603790283,1.8986048698425293
1789222914183827000,3.551826904296875,-1.4337877035140991,-0.5331698060035706,5.996082305908203
1789222914193821000,3.561821044921875,-1.9625691175460815,-1.9792200326919556,8.088403701782227
1789222914203814100,3.571814208984375,-1.2246838808059692,-5.632628917694092,2.921971321105957
1789222914213808000,3.58180810546875,-0.7362070679664612,-2.718018054962158,-0.10659182071685791
1789222914223802000,3.591802001953125,-0.4379817843437195,-0.9835544228553772,-1.9572877883911133
1789222914233794800,3.601794921875,0.10933949798345566,3.107611656188965,-2.431452989578247
1789222914243789000,3.6117890625,0.3569759130477905,2.968212842941284,-0.2580052614212036
1789222914253783000,3.621782958984375,0.7724218964576721,-0.904721736907959,0.06370646506547928
1789222914263776000,3.63177587890625,1.424696445465088,-2.8792338371276855,-4.823699951171875
1789222914273770000,3.64177001953125,0.8751493692398071,-1.3697597980499268,-4.368617534637451
1789222914283764000,3.651763916015625,0.010791189968585968,2.4924354553222656,-3.0458908081054688
1789222914293757000,3.6617568359375,-0.5804672837257385,5.402211666107178,-3.097045660018921
1789222914303751000,3.6717509765625,-0.0378945916891098,-4.384795665740967,0.5745502710342407
1789222914313745000,3.681744873046875,-0.21846364438533783,-1.5040901899337769,2.8408303260803223
1789222914323738000,3.691738037109375,-0.16252501308918,1.0833314657211304,3.6711251735687256
1789222914333731800,3.70173193359375,0.005771930795162916,-0.48139292001724243,5.286660671234131
1789222914343725800,3.711725830078125,-0.06521622091531754,-1.6592432260513306,6.15968656539917
1789222914353719000,3.721718994140625,-0.2364046573638916,-0.41509386897087097,4.471447944641113
1789222914363713000,3.731713134765625,-0.33919572830200195,-0.5045411586761475,1.559620976448059
1789222914373707000,3.74170703125,-0.25857579708099365,-2.706489086151123,-1.4575750827789307
1789222914383700000,3.751699951171875,-0.06365185230970383,-1.1024494171142578,-5.089249610900879
1789222914393694000,3.76169384765625,-0.051913175731897354,1.1479973793029785,-7.004749298095703
1789222914403688000,3.77168798828125,0.15380457043647766,-0.3160077929496765,-6.194100379943848
1789222914413681200,3.78168115234375,0.5918405055999756,-2.1850709915161133,-3.9935078620910645
1789222914423675100,3.791675048828125,0.5676089525222778,-2.134395122528076,0.10987318307161331
1789222914433669000,3.801669189453125,0.011413734406232834,-0.3587897717952728,3.9770259857177734
1789222914443661800,3.811661865234375,-0.5120478272438049,0.10622424632310867,5.196093559265137
1789222914453656000,3.821656005859375,-0.8634372353553772,-0.771939754486084,4.187413692474365
1789222914463650000,3.831650146484375,-1.085071325302124,-1.0441277027130127,3.1493728160858154
1789222914473643000,3.84164306640625,-0.7762243151664734,1.856769323348999,0.5196126699447632
1789222914483637000,3.851636962890625,0.2701335549354553,0.5219965577125549,-2.7755017280578613
1789222914493631000,3.861630859375,0.9923018217086792,-0.5392926931381226,-3.352597713470459
1789222914503624000,3.8716240234375,1.3152575492858887,1.3002864122390747,-2.911024332046509
1789222914513618000,3.881617919921875,1.723023772239685,2.0429444313049316,-2.076362133026123
1789222914523612000,3.89161181640625,2.3092639446258545,-0.46649977564811707,-0.8345327377319336
1789222914533605000,3.901605224609375,2.4906816482543945,-3.6016368865966797,1.4253127574920654
1789222914543598800,3.911598876953125,1.7941665649414062,-3.3045101165771484,2.9262890815734863
1789222914553592800,3.9215927734375,0.6663021445274353,0.21020615100860596,2.9615089893341064
1789222914563586000,3.9315859375,-0.07672085613012314,2.836118459701538,2.513335704803467
1789222914573580000,3.941580078125,-0.21459223330020905,3.627495527267456,1.4011586904525757
1789222914583574000,3.951573974609375,-0.05745428055524826,3.7993624210357666,0.1654628962278366
1789222914593568000,3.961568115234375,0.3452601134777069,2.874476671218872,-1.6535578966140747
1789222914603561000,3.97156103515625,0.9804695844650269,0.3501330614089966,-3.2450780868530273
1789222914613555000,3.981554931640625,2.021634817123413,-4.206345081329346,-2.334331750869751
1789222914623549000,3.991548828125,2.8844239711761475,-5.740052223205566,-1.3436243534088135
1789222914633542100,4.001542236328125,3.0015711784362793,-0.9438700675964355,-1.7466665506362915
1789222914643536100,4.0115361328125,2.3894615173339844,3.4025063514709473,-1.1188583374023438
1789222914653529900,4.02152978515625,1.6738311052322388,4.458381175994873,-0.23531189560890198
1789222914663523000,4.031523193359375,1.7001255750656128,1.1861408948898315,0.04719224572181702
1789222914673517000,4.04151708984375,1.9510871171951294,-0.20461972057819366,0.4353373646736145
1789222914683511000,4.051510986328125,1.9641547203063965,1.0414233207702637,1.3149062395095825
1789222914693504000,4.06150390625,2.071707248687744,0.3590857684612274,2.3573074340820312
1789222914703498000,4.071498046875,2.2053866386413574,-0.6360424757003784,2.626277446746826
1789222914713491700,4.08149169921875,2.1884267330169678,1.9965755939483643,2.206101655960083
1789222914723484700,4.091484619140625,1.8869260549545288,4.904115200042725,2.0082573890686035
1789222914733479000,4.10147900390625,1.555238127708435,3.955075979232788,0.4912416636943817
1789222914743473000,4.111472900390625,1.1775541305541992,1.9357188940048218,-1.6121253967285156
1789222914753465900,4.1214658203125,0.7756795883178711,1.7160133123397827,-2.1767210960388184
1789222914763459600,4.13145947265625,0.7139789462089539,1.238694667816162,-2.02602219581604
1789222914773453800,4.141453857421875,1.0668277740478516,-1.6984448432922363,-1.0802433490753174
1789222914783446800,4.15144677734375,1.318346619606018,-3.44698429107666,-0.39768630266189575
1789222914793440800,4.161440673828125,1.127772569656372,-1.5419925451278687,-0.1705169677734375
1789222914803434800,4.171434814453125,0.8815054297447205,2.7021424770355225,-1.1364121437072754
1789222914813427700,4.181427734375,1.2815871238708496,1.565410852432251,-2.669796943664551
1789222914823421700,4.191421630859375,1.225136399269104,-1.5179275274276733,-2.044886350631714
1789222914833415700,4.201415771484375,0.6373806595802307,0.1390356421470642,0.2204972356557846
1789222914843409000,4.211408935546875,0.2415744662284851,1.2559574842453003,3.236159324645996
1789222914853403000,4.22140283203125,0.35316723585128784,0.39270973205566406,3.748990535736084
1789222914863396900,4.23139697265625,0.5461649298667908,-0.07572726160287857,2.0804495811462402
1789222914873389800,4.241389892578125,0.3475443124771118,0.1971288025379181,2.8409721851348877
1789222914883383800,4.2513837890625,-0.13416026532649994,2.0936882495880127,4.13778018951416
1789222914893377800,4.261377685546875,-0.275016725063324,5.0470476150512695,1.6506154537200928
1789222914903370800,4.271370849609375,-0.32976436614990234,6.4502034187316895,-3.1174402236938477
1789222914913365000,4.281364990234375,-0.485497385263443,1.0309724807739258,-4.218561172485352
1789222914923358700,4.291358642578125,-0.38671594858169556,-2.005882501602173,-3.7174243927001953
1789222914933351700,4.3013515625,0.2778402268886566,-4.336162567138672,-3.8233048915863037
1789222914943345700,4.311345703125,1.4081790447235107,-6.5642852783203125,-1.2619184255599976
1789222914953340000,4.32133984375,1.4260247945785522,-1.7191133499145508,2.0658276081085205
1789222914963332900,4.331332763671875,1.0520408153533936,3.9789438247680664,2.1381518840789795
1789222914973326600,4.34132666015625,0.2990485727787018,3.8333380222320557,1.5499566793441772
1789222914983320800,4.35132080078125,-0.8787112236022949,0.8462052941322327,1.9144898653030396
1789222914993313800,4.361313720703125,-1.8774566650390625,2.8587138652801514,-0.33289873600006104
1789222915003307800,4.371307861328125,-1.9874460697174072,1.6505786180496216,-2.256357192993164
1789222915013301800,4.3813017578125,-2.135640859603882,-0.6917605996131897,-0.9276100397109985
1789222915023296000,4.3912958984375,-1.9051039218902588,-2.533841133117676,0.502804696559906
1789222915033288700,4.401288818359375,-1.2003920078277588,-2.7577288150787354,1.0892322063446045
1789222915043282700,4.41128271484375,-0.25855550169944763,-0.9448903799057007,0.6282919645309448
1789222915053276700,4.421276611328125,0.19843097031116486,0.08448129147291183,1.0407718420028687
1789222915063270000,4.431269775390625,-0.2752026617527008,0.20945757627487183,1.5521643161773682
1789222915073263900,4.441263916015625,-1.21088445186615,-0.01964416354894638,0.9898004531860352
1789222915083257600,4.451257568359375,-2.2297277450561523,-0.1437237709760666,0.5446211099624634
1789222915093250800,4.461250732421875,-2.894544839859009,-0.6016637086868286,0.3754452168941498
1789222915103244800,4.471244873046875,-2.843083143234253,-1.4795187711715698,-1.7307825088500977
1789222915113238800,4.48123876953125,-2.2823891639709473,-1.625844955444336,-2.866075038909912
1789222915123232000,4.49123193359375,-1.50052011013031,-1.348438024520874,-1.4004660844802856
1789222915133225700,4.501225830078125,-0.7725167870521545,-0.43228673934936523,-0.8935192823410034
1789222915143219700,4.5112197265625,-0.4012705683708191,-0.48403942584991455,-0.5424049496650696
1789222915153212700,4.521212646484375,-0.6735253930091858,-0.7768453359603882,1.1221033334732056
1789222915163207000,4.53120703125,-1.4495385885238647,-0.3403572142124176,2.4698052406311035
1789222915173201000,4.541200927734375,-2.024310350418091,-0.2029205858707428,1.6703097820281982
1789222915183193600,4.551193603515625,-2.2643227577209473,1.362841010093689,-0.1461615115404129
1789222915193187800,4.561187744140625,-2.2464451789855957,1.1045827865600586,-0.2615620791912079
1789222915203181800,4.571181884765625,-2.097792148590088,0.47007185220718384,-1.0991835594177246
1789222915213174800,4.5811748046875,-1.5689282417297363,-1.6834650039672852,-0.5947259664535522
1789222915223168800,4.591168701171875,-0.8382280468940735,-3.3025708198547363,0.5163142085075378
1789222915233162800,4.601162841796875,-0.2079722136259079,-2.4367363452911377,-0.20242026448249817
1789222915243155700,4.61115576171875,-0.11963622272014618,-0.5774298310279846,-0.056081436574459076
1789222915253149700,4.621149658203125,-0.6413164138793945,1.2831065654754639,0.807088315486908
1789222915263143700,4.631143798828125,-1.24709951877594,2.0477993488311768,-0.05025595799088478
1789222915273137000,4.641136962890625,-1.6143724918365479,0.2152399867773056,-0.31158554553985596
1789222915283131000,4.651130859375,-1.7757542133331299,-1.7024407386779785,0.0597001314163208
1789222915293124600,4.66112451171875,-1.6007025241851807,-2.340630292892456,0.35176652669906616
1789222915303117800,4.671117919921875,-1.1159251928329468,-1.5465158224105835,0.8474401831626892
1789222915313111800,4.68111181640625,-0.3707633912563324,0.4056851863861084,0.15050651133060455
1789222915323105800,4.691105712890625,0.23839077353477478,1.5354212522506714,-0.3533225357532501
1789222915333099000,4.70109912109375,0.3830321729183197,1.1103894710540771,0.14701274037361145
1789222915343092700,4.7110927734375,0.24344922602176666,-0.046302974224090576,-0.2859080731868744
1789222915353086700,4.721086669921875,0.04562952741980553,-1.4356120824813843,-0.6345639228820801
1789222915363080700,4.731080810546875,-0.2130182683467865,-1.6557185649871826,-0.2525755763053894
1789222915373074000,4.741073974609375,-0.3723936676979065,-0.6205687522888184,0.15562854707241058
1789222915383068000,4.75106787109375,-0.32025644183158875,0.5653224587440491,0.5616037845611572
1789222915393062000,4.761061767578125,-0.30394163727760315,1.5574177503585815,1.4153363704681396
1789222915403054600,4.7710546875,-0.457908034324646,2.003880739212036,2.6526501178741455
1789222915413048800,4.781048828125,-0.5487807989120483,1.1368162631988525,3.027177095413208
1789222915423042800,4.791042724609375,-0.47976067662239075,-0.33657118678092957,0.7058197855949402
1789222915433035800,4.801035888671875,-0.12393802404403687,-2.2085046768188477,-2.7460620403289795
1789222915443029800,4.81102978515625,0.2876833379268646,-3.6252028942108154,-2.451491117477417
1789222915453024000,4.82102392578125,0.35754522681236267,-3.2976298332214355,-1.1572099924087524
1789222915463016700,4.8310166015625,0.1554320603609085,-0.18003159761428833,-1.1059163808822632
1789222915473010700,4.8410107421875,-0.258691668510437,2.433095693588257,-0.3897543251514435
1789222915483005000,4.8510048828125,-0.6040874123573303,1.1966298818588257,0.7136348485946655
1789222915492998000,4.860997802734375,-1.1294093132019043,-0.2482234090566635,0.18680760264396667
1789222915502991600,4.87099169921875,-1.5788938999176025,-1.5904685258865356,0.9233010411262512
1789222915512985600,4.880985595703125,-1.9075045585632324,-1.24249267578125,2.384411096572876
1789222915522978800,4.890978759765625,-1.7451318502426147,-0.03250871226191521,1.8906031847000122
1789222915532972800,4.900972900390625,-1.1150364875793457,0.4947757124900818,-0.30790168046951294
1789222915542966800,4.910966796875,-0.43688488006591797,-0.757142186164856,-1.055152177810669
1789222915552960800,4.920960693359375,-0.1621898114681244,-1.4894994497299194,-0.6965382099151611
1789222915562953700,4.93095361328125,-0.2741994261741638,-0.7266545295715332,-0.746534526348114
1789222915572947700,4.94094775390625,-0.48359453678131104,-0.06811768561601639,-1.033498764038086
1789222915582941700,4.950941650390625,-0.5089872479438782,-1.4752435684204102,-0.3733281195163727
1789222915592935000,4.960934814453125,-0.7429266571998596,-1.7295818328857422,0.13402630388736725
1789222915602929000,4.970928955078125,-1.2742949724197388,-0.23082618415355682,1.4437370300292969
1789222915612923000,4.9809228515625,-1.5995680093765259,1.201521873474121,1.9544004201889038
1789222915622915800,4.990915771484375,-1.2211360931396484,0.2072022259235382,0.46211642026901245
1789222915632909800,5.000909912109375,-0.573580801486969,-2.1995441913604736,-0.17910994589328766
1789222915642903800,5.01090380859375,-0.3146786093711853,-2.113053798675537,-0.2360089123249054
1789222915652896800,5.020896728515625,-0.14942164719104767,-0.6991643905639648,-0.6271825432777405
1789222915662890800,5.030890869140625,0.012803474441170692,-0.2324017435312271,-0.6585960984230042
1789222915672884700,5.040884765625,0.06000310927629471,-0.8652849793434143,-0.06698493659496307
1789222915682877700,5.050877685546875,-0.36444512009620667,0.10122141987085342,0.11372785270214081
1789222915692872000,5.060871826171875,-0.7722805738449097,0.3734813630580902,0.5750765204429626
1789222915702866000,5.070865966796875,-0.8120570182800293,-0.6395893692970276,0.6720579266548157
1789222915712859000,5.08085888671875,-0.4685322642326355,-1.5186409950256348,0.4497893750667572
1789222915722852900,5.090852783203125,-0.12277033179998398,-0.7850326895713806,0.8585651516914368
1789222915732846800,5.100846923828125,0.03430094197392464,0.8019227981567383,1.416492223739624
1789222915742839800,5.11083984375,0.32348668575286865,1.162238359451294,0.531624972820282
1789222915752833800,5.120833740234375,0.6425145864486694,0.0054106274619698524,-0.41688406467437744
1789222915762827800,5.130827880859375,0.7729045152664185,-1.19760262966156,-0.8556147813796997
1789222915772822000,5.140822021484375,0.671065628528595,-0.8323711156845093,-1.7435264587402344
1789222915782815000,5.15081494140625,0.5440351963043213,-0.5108460783958435,-1.4474800825119019
1789222915792808700,5.16080859375,0.5067225098609924,-0.5935651063919067,0.16069722175598145
1789222915802802700,5.170802734375,0.3941543996334076,0.3564584255218506,1.9059995412826538
1789222915812796000,5.1807958984375,0.33162301778793335,1.9082928895950317,1.6344891786575317
1789222915822790000,5.190789794921875,0.7852452993392944,0.42984282970428467,0.09418188035488129
1789222915832784000,5.200783935546875,1.143653154373169,-2.1276705265045166,0.6604357361793518
1789222915842776800,5.21077685546875,0.9515197277069092,-2.028118371963501,1.9916272163391113
1789222915852770800,5.220770751953125,0.7435625195503235,0.19229674339294434,0.765329122543335
1789222915862764800,5.230764892578125,0.5896270275115967,3.7903730869293213,-2.5252089500427246
1789222915872758000,5.240758056640625,0.6540955901145935,1.4395874738693237,-1.5783896446228027
1789222915882752000,5.250751953125,0.5158892273902893,-0.8164319396018982,0.01763368956744671
1789222915892746000,5.26074609375,0.2556140720844269,0.12771770358085632,-1.3766636848449707
1789222915902738700,5.27073876953125,0.5458653569221497,-0.2765600085258484,-1.4639942646026611
1789222915912733000,5.28073291015625,1.2775071859359741,-2.876054048538208,1.0640637874603271
1789222915922727000,5.290726806640625,1.5633682012557983,-1.2506771087646484,1.0876376628875732
1789222915932719900,5.300719970703125,1.4605988264083862,2.566833257675171,-0.11210884153842926
1789222915942713900,5.3107138671875,0.9796798229217529,4.178994178771973,0.09733838587999344
1789222915952707800,5.320707763671875,0.7356405854225159,1.3419734239578247,0.34441423416137695
1789222915962701800,5.330701904296875,0.3653607964515686,-0.7435752153396606,-0.005261212587356567
1789222915972694800,5.34069482421875,0.19743330776691437,-0.8037850856781006,0.44863829016685486
1789222915982689000,5.35068896484375,0.5775523781776428,0.14697514474391937,0.2712706923484802
1789222915992683000,5.36068310546875,1.288966178894043,0.3157975673675537,-0.2136719971895218
1789222916002675700,5.37067578125,1.7667721509933472,0.03766767308115959,-0.3016018569469452
1789222916012669700,5.380669677734375,1.6768264770507812,1.5527210235595703,-0.8362122178077698
1789222916022664000,5.390663818359375,1.4567846059799194,1.8721009492874146,-1.2601605653762817
1789222916032657000,5.400656982421875,1.2419955730438232,-0.18002131581306458,-0.5965936779975891
1789222916042651000,5.41065087890625,0.7373611330986023,-1.4461838006973267,1.1840776205062866
1789222916052644900,5.420644775390625,0.35085317492485046,-1.432374119758606,2.325683832168579
1789222916062637800,5.430637939453125,0.11846309900283813,0.9530032277107239,1.8399319648742676
1789222916072631800,5.4406318359375,0.039480060338974,3.611736536026001,0.8999620079994202
1789222916082625800,5.450625732421875,0.266132652759552,2.5900394916534424,-0.6175476908683777
1789222916092619000,5.460618896484375,0.40153583884239197,0.15679745376110077,-2.4009599685668945
1789222916102613000,5.470613037109375,0.5671338438987732,-1.5785771608352661,-2.2407009601593018
1789222916112606700,5.480606689453125,0.6469979286193848,-2.3052186965942383,-0.005256792530417442
1789222916122600700,5.4906005859375,0.7052668333053589,-2.103184700012207,1.2719006538391113
1789222916132594000,5.500593994140625,0.7119702100753784,-0.519283652305603,0.6644562482833862
1789222916142588000,5.510587890625,0.246584951877594,2.9635143280029297,0.2917250096797943
1789222916152582000,5.520581787109375,-0.03287236765027046,3.8913965225219727,-0.11363643407821655
1789222916162574800,5.530574951171875,-0.34839996695518494,0.7130470871925354,-1.05878746509552
1789222916172568800,5.54056884765625,-0.6504608392715454,-2.2455146312713623,-0.7768378257751465
1789222916182562800,5.550562744140625,-0.774075984954834,-2.241572141647339,0.2513495087623596
1789222916192556000,5.56055615234375,-0.37843480706214905,0.3209967017173767,-0.24697723984718323
1789222916202550000,5.570550048828125,0.4307325780391693,1.3679004907608032,-0.37578555941581726
1789222916212544000,5.5805439453125,0.6003048419952393,1.5472042560577393,0.026604104787111282
1789222916222536700,5.59053662109375,0.1792452186346054,1.9626142978668213,-0.14041738212108612
1789222916232531000,5.600531005859375,-0.294630765914917,0.41185805201530457,-0.03377627208828926
1789222916242525000,5.61052490234375,-0.5105345249176025,-2.2436468601226807,0.4396871328353882
1789222916252518000,5.620517822265625,-0.6211702823638916,-2.408461570739746,0.036588944494724274
1789222916262511900,5.630511962890625,-0.680019199848175,-0.19139552116394043,-0.006939625833183527
1789222916272505900,5.640505859375,-0.7022632956504822,1.99150550365448,0.5015398263931274
1789222916282499800,5.650499755859375,-0.5502526760101318,1.986879587173462,0.43781495094299316
1789222916292492800,5.660492919921875,-0.48349684476852417,0.31189388036727905,0.28503942489624023
1789222916302486800,5.67048681640625,-0.6162356734275818,-1.0763107538223267,0.04273703321814537
1789222916312481000,5.68048095703125,-0.7267055511474609,-2.09511661529541,-0.13529415428638458
1789222916322473700,5.6904736328125,-0.6745805740356445,-2.3133349418640137,-0.38616207242012024
1789222916332467700,5.7004677734375,-0.5672388672828674,-0.8178159594535828,-0.3596923351287842
1789222916342462000,5.7104619140625,-0.5796566605567932,1.5344476699829102,-0.03966427594423294
1789222916352455000,5.720454833984375,-0.6805776953697205,2.4002251625061035,-0.36987045407295227
1789222916362449000,5.730448974609375,-0.8184362053871155,0.2096969187259674,0.36460378766059875
1789222916372443000,5.74044287109375,-0.985204815864563,-1.881739854812622,0.7243486046791077
1789222916382435800,5.750435791015625,-1.063840389251709,-1.6777955293655396,-0.49446141719818115
1789222916392429800,5.760429931640625,-0.92128586769104,-0.9788103103637695,-0.9609103798866272
1789222916402423800,5.770423828125,-0.7078215479850769,-0.6272503733634949,-0.05027280002832413
1789222916412417000,5.7804169921875,-0.5701911449432373,-0.0036579295992851257,1.097589135169983
1789222916422411000,5.790410888671875,-0.35958245396614075,1.500847578048706,0.5685858726501465
1789222916432404700,5.80040478515625,-0.2931358218193054,1.6167783737182617,-0.12837573885917664
1789222916442398700,5.810398681640625,-1.0753711462020874,0.1453903764486313,-0.20938749611377716
1789222916452392000,5.820391845703125,-1.81954026222229,-1.2550115585327148,-0.3147943913936615
1789222916462386000,5.830385986328125,-1.9781171083450317,-2.628072738647461,-1.118812084197998
1789222916472380000,5.8403798828125,-1.461875081062317,-3.106675863265991,-0.9449915885925293
1789222916482372900,5.850372802734375,-0.6346580982208252,-1.370705008506775,0.29231831431388855
1789222916492366800,5.860366943359375,-0.3849194347858429,1.5993016958236694,0.8437675833702087
1789222916502360800,5.87036083984375,-0.5791219472885132,2.2341854572296143,0.7525956034660339
1789222916512353800,5.880353759765625,-1.1345335245132446,0.5937488079071045,1.0543482303619385
1789222916522348000,5.89034814453125,-1.8453022241592407,-0.9105890989303589,0.4976626932621002
1789222916532342000,5.900342041015625,-2.124119281768799,-1.9736336469650269,-1.5533982515335083
1789222916542334700,5.910334716796875,-1.7242951393127441,-3.2644600868225098,-1.4422763586044312
1789222916552328700,5.92032861328125,-1.1985560655593872,-2.4879541397094727,0.23213395476341248
1789222916562323000,5.930322998046875,-0.5008944272994995,-0.098226398229599,0.35753288865089417
1789222916572317000,5.94031689453125,0.044324055314064026,0.758263885974884,0.2804952561855316
1789222916582310000,5.950309814453125,-0.19901029765605927,0.8485868573188782,1.0676591396331787
1789222916592303900,5.960303955078125,-1.0619879961013794,1.2333685159683228,1.3069955110549927
1789222916602297900,5.9702978515625,-1.8833882808685303,0.0935201346874237,0.504443883895874
1789222916612290800,5.980290771484375,-2.1178231239318848,-3.206305503845215,-0.2885798513889313
1789222916622284800,5.990284912109375,-1.9221806526184082,-4.240728855133057,-0.5362817645072937
1789222916632279000,6.000279052734375,-1.3721362352371216,-2.252685546875,-0.3426434099674225
1789222916642271700,6.010271728515625,-0.42112377285957336,-0.44665107131004333,-0.4240866005420685
1789222916652265700,6.020265625,0.33961421251296997,0.26273563504219055,-0.48742809891700745
1789222916662259700,6.030259765625,0.2971934974193573,1.5688552856445312,-0.28566861152648926
1789222916672253000,6.0402529296875,-0.1374572068452835,1.1414414644241333,0.18707072734832764
1789222916682247000,6.050246826171875,-0.613502025604248,-1.216228723526001,1.0495401620864868
1789222916692241000,6.060240966796875,-1.048818826675415,-1.832810401916504,1.1807407140731812
1789222916702233900,6.07023388671875,-1.1117208003997803,-0.8326663970947266,0.6707674264907837
1789222916712227600,6.0802275390625,-0.7217846512794495,-0.13091719150543213,0.34236693382263184
1789222916722221600,6.0902216796875,-0.19783595204353333,0.4305626451969147,0.25125807523727417
1789222916732215600,6.100215576171875,0.15846280753612518,0.778502881526947,0.4284856617450714
1789222916742208800,6.110208740234375,0.28762638568878174,0.1416795253753662,0.46364256739616394
1789222916752202500,6.120202392578125,0.32937324047088623,-1.355522632598877,-0.15435943007469177
1789222916762196500,6.130196533203125,0.21725095808506012,-2.1253578662872314,-0.7007548809051514
1789222916772189700,6.140189697265625,-0.14268647134304047,-1.2775771617889404,0.07530758529901505
1789222916782183700,6.15018359375,-0.42813074588775635,-0.13280755281448364,1.850835919380188
1789222916792177700,6.160177734375,-0.2952153980731964,0.19095183908939362,2.4941086769104004
1789222916802170600,6.170170654296875,0.11811517924070358,0.09384926408529282,2.023822546005249
1789222916812164600,6.18016455078125,0.6779624223709106,0.8148783445358276,0.9900269508361816
1789222916822158600,6.19015869140625,1.0670554637908936,1.3461672067642212,-0.9760155081748962
1789222916832152600,6.200152587890625,1.0732320547103882,-0.21753475069999695,-1.8051453828811646
1789222916842145800,6.210145751953125,0.8287935853004456,-1.3064866065979004,-0.8637183904647827
1789222916852139800,6.220139892578125,0.704903781414032,-1.308850884437561,-0.6274517178535461
1789222916862133800,6.2301337890625,1.0931495428085327,-2.1820523738861084,-0.5026349425315857
1789222916872126500,6.24012646484375,1.2071813344955444,-0.8294559717178345,0.27861520648002625
1789222916882120700,6.25012060546875,0.9027074575424194,2.330749750137329,0.6054854989051819
1789222916892114700,6.26011474609375,0.600024938583374,2.64341402053833,1.0637434720993042
1789222916902107600,6.270107666015625,0.4543018341064453,0.6541603207588196,0.9752039313316345
1789222916912101600,6.2801015625,0.48003512620925903,-0.8628782629966736,0.5116887092590332
1789222916922095600,6.290095703125,0.5424695014953613,-0.714911937713623,-0.09604358673095703
1789222916932088600,6.300088623046875,0.6636655330657959,-0.201527401804924,-0.4877636134624481
1789222916942082600,6.31008251953125,0.7812507748603821,-0.017307503148913383,-0.3018065392971039
1789222916952076800,6.320076904296875,0.8799811005592346,0.01643691584467888,-0.06202761083841324
1789222916962070800,6.33007080078125,0.918594241142273,-0.046182259917259216,0.12102662771940231
1789222916972063500,6.3400634765625,0.7976160049438477,-0.23675072193145752,0.7265942692756653
1789222916982057500,6.350057373046875,0.5519958734512329,-0.2513996958732605,1.043190598487854
1789222916992051700,6.3600517578125,0.4400542974472046,-0.8119692206382751,1.2260918617248535
1789222917002044700,6.370044677734375,0.4107304811477661,-0.2715616524219513,0.863609790802002
1789222917012038700,6.38003857421875,0.47858065366744995,1.1804447174072266,-0.07439379394054413
1789222917022032600,6.39003271484375,0.671122670173645,1.110778570175171,-0.45548173785209656
1789222917032025600,6.400025634765625,0.9695413112640381,-0.2939039170742035,-1.4980953931808472
1789222917042019600,6.41001953125,1.0852434635162354,-1.4665049314498901,-1.7993372678756714
1789222917052013600,6.420013671875,0.8979547023773193,-1.2819851636886597,-0.25587573647499084
1789222917062006800,6.4300068359375,0.7811423540115356,-0.566521942615509,0.7115183472633362
1789222917072000800,6.440000732421875,1.0980349779129028,-0.5078195333480835,-0.018070245161652565
1789222917081994500,6.449994384765625,1.4535893201828003,0.11679239571094513,-0.39335888624191284
1789222917091988500,6.459988525390625,1.1009007692337036,1.7590516805648804,-0.07029129564762115
1789222917101981700,6.469981689453125,0.7383610010147095,1.875320553779602,0.15201127529144287
1789222917111975700,6.4799755859375,0.8092237710952759,-0.38427504897117615,0.034084610641002655
1789222917121969700,6.4899697265625,1.0327394008636475,-1.3208669424057007,-0.018096566200256348
1789222917131962600,6.499962646484375,1.0525063276290894,0.38249197602272034,-0.042637232691049576
1789222917141956600,6.50995654296875,1.12722909450531,0.9722405076026917,0.5393364429473877
1789222917151950600,6.51995068359375,1.295720100402832,0.9783468842506409,0.4764023423194885
1789222917161943600,6.529943603515625,1.2992109060287476,1.6229157447814941,-0.10189829021692276
1789222917171937800,6.539937744140625,1.0709216594696045,1.6554077863693237,-0.4145912230014801
1789222917181931800,6.549931884765625,0.7640509009361267,0.36592426896095276,-0.4515193998813629
1789222917191924500,6.559924560546875,0.5448188781738281,-1.3924665451049805,0.15474985539913177
1789222917201918700,6.569918701171875,0.36564433574676514,-1.3246995210647583,0.39696913957595825
1789222917211912700,6.57991259765625,0.34995612502098083,-0.08740688860416412,-0.18103820085525513
1789222917221906700,6.58990673828125,0.4044276177883148,0.2519623935222626,-0.37147951126098633
1789222917231899600,6.599899658203125,0.4709932804107666,-0.5261570811271667,-0.42491254210472107
1789222917241893600,6.6098935546875,0.44718649983406067,-0.9702325463294983,-0.35812070965766907
1789222917251887600,6.6198876953125,0.449677437543869,-0.6640757322311401,-0.25476914644241333
1789222917261880600,6.629880615234375,0.6570327281951904,-0.2876445949077606,-0.28775879740715027
1789222917271874600,6.63987451171875,0.6465544700622559,0.5615625977516174,-0.08974132686853409
1789222917281868800,6.649868896484375,0.37479886412620544,1.6023824214935303,0.25080081820487976
1789222917291861500,6.659861572265625,0.19059474766254425,1.7709852457046509,0.36286070942878723
1789222917301855500,6.66985546875,0.2076067477464676,1.1112244129180908,0.4993849992752075
1789222917311849500,6.679849365234375,0.4182916283607483,0.5976943969726562,0.10921794921159744
1789222917321843700,6.68984375,0.8733656406402588,-0.04348002374172211,-0.5940920114517212
1789222917331836700,6.699836669921875,1.253415822982788,-0.29577523469924927,-0.3539488613605499
1789222917341830700,6.70983056640625,1.3415192365646362,0.6244992613792419,0.07945717871189117
1789222917351824600,6.71982470703125,1.2776429653167725,1.5816655158996582,-0.014722129330039024
1789222917361817600,6.729817626953125,1.1538771390914917,1.605377197265625,-0.4854872524738312
1789222917371811600,6.7398115234375,0.991839587688446,0.7211376428604126,-0.5768798589706421
1789222917381805600,6.7498056640625,0.8822262287139893,-0.05528673157095909,-0.7077198624610901
1789222917391798800,6.759798828125,1.0385587215423584,-0.51277756690979,-0.5870385766029358
1789222917401792500,6.76979248046875,1.4375431537628174,0.08039094507694244,-0.5116031765937805
1789222917411786500,6.779786376953125,1.8886390924453735,0.7758691906929016,0.04318234696984291
1789222917421779700,6.78977978515625,2.036557674407959,1.2258880138397217,0.8768644332885742
1789222917431773700,6.799773681640625,1.811721682548523,1.6166455745697021,1.1918535232543945
1789222917441767700,6.809767578125,1.2056448459625244,2.622241258621216,1.2431981563568115
1789222917451761700,6.81976171875,0.5345909595489502,3.1157002449035645,0.9329565763473511
1789222917461754600,6.829754638671875,0.1721150279045105,1.9802744388580322,-0.1386917382478714
1789222917471748600,6.83974853515625,0.4210672378540039,-0.4782373607158661,-0.9686718583106995
1789222917481742600,6.84974267578125,0.9146410226821899,-1.8376548290252686,-0.4013221263885498
1789222917491735800,6.85973583984375,1.2384006977081299,-0.7711083292961121,0.5408304333686829
1789222917501729800,6.869729736328125,1.2930461168289185,1.5679742097854614,0.7993876934051514
1789222917511723500,6.8797236328125,0.9008734226226807,3.7446072101593018,0.1579609215259552
1789222917521716500,6.889716552734375,0.3367491066455841,2.684291124343872,-0.5335221886634827
1789222917531710700,6.899710693359375,-0.22597993910312653,-0.9188481569290161,-0.3762752115726471
1789222917541704700,6.90970458984375,-0.8552023768424988,-2.557720184326172,-0.3032601475715637
1789222917551697700,6.91969775390625,-1.2441571950912476,-1.5698860883712769,0.189590722322464
1789222917561691600,6.929691650390625,-1.1315981149673462,0.1472112238407135,0.7953754663467407
1789222917571685600,6.939685546875,-0.5995470881462097,0.35749757289886475,1.2134987115859985
1789222917581679600,6.9496796875,-0.39137715101242065,1.203426718711853,0.4074147343635559
1789222917591672600,6.959672607421875,-0.5645102858543396,1.44552481174469,-0.5219017267227173
1789222917601666800,6.969666748046875,-0.8372570872306824,-0.6348446607589722,-0.5492540597915649
1789222917611660800,6.979660888671875,-0.8789055347442627,-3.940918207168579,-0.6076163649559021
1789222917621653500,6.989653564453125,-0.7176862955093384,-2.5490520000457764,-1.828420877456665
1789222917631647500,6.9996474609375,-0.36328309774398804,1.5788377523422241,-1.8888593912124634
1789222917641641700,7.009641845703125,-0.34510567784309387,1.0996594429016113,-0.4937712550163269
1789222917651634700,7.019634765625,-0.5763644576072693,0.2009042650461197,0.506076455116272
1789222917661628700,7.029628662109375,-0.9162067174911499,-0.35260874032974243,1.4503436088562012
1789222917671622400,7.039622314453125,-1.2710342407226562,0.7883955240249634,1.486376166343689
1789222917681616600,7.04961669921875,-1.4075835943222046,1.6229162216186523,1.1232022047042847
1789222917691609600,7.059609619140625,-1.287996530532837,0.8449254631996155,1.1085705757141113
1789222917701603600,7.069603515625,-0.9121314287185669,-0.0388413667678833,0.3006197512149811
1789222917711597600,7.07959765625,-0.3151732385158539,-0.8121340870857239,-0.8884963393211365
1789222917721590500,7.089590576171875,0.16862669587135315,-1.4935954809188843,-1.1143428087234497
1789222917731584500,7.09958447265625,0.40296271443367004,-1.7601068019866943,-0.6251716613769531
1789222917741578500,7.10957861328125,0.3254772424697876,0.09258772432804108,-0.871588408946991
1789222917751571700,7.11957177734375,0.3476158082485199,2.7004785537719727,-1.4657412767410278
1789222917761565400,7.1295654296875,0.3440040349960327,0.21376417577266693,-0.5761248469352722
1789222917771559400,7.139559326171875,-0.39567986130714417,-0.927915632724762,0.3596723973751068
1789222917781553400,7.149553466796875,-1.1227244138717651,-0.4764658808708191,1.6746773719787598
1789222917791546600,7.159546630859375,-1.4101773500442505,0.9664962291717529,1.980759620666504
1789222917801540600,7.16954052734375,-1.0020571947097778,1.2721682786941528,1.2145929336547852
1789222917811534600,7.17953466796875,-0.13409268856048584,0.4571686387062073,0.05659136176109314
1789222917821527600,7.189527587890625,0.383149117231369,0.7796835899353027,-0.9591524004936218
1789222917831521500,7.199521484375,0.5952535271644592,0.927134096622467,-1.0759104490280151
1789222917841515500,7.209515625,0.7055736184120178,-0.21225252747535706,-0.9486426711082458
1789222917851508700,7.2195087890625,0.8406839966773987,-2.1937949657440186,-0.4369544982910156
1789222917861502700,7.229502685546875,0.6568164229393005,-1.3240662813186646,-0.3484371304512024
1789222917871496400,7.239496337890625,0.2716938853263855,1.3312699794769287,-0.3583185076713562
1789222917881490400,7.249490478515625,0.0462341383099556,1.6829854249954224,0.3912188410758972
1789222917891483600,7.259483642578125,-0.004883039277046919,0.35092663764953613,0.9696353673934937
1789222917901477600,7.2694775390625,0.00657174875959754,0.4399169683456421,0.38982099294662476
1789222917911471600,7.2794716796875,0.22473831474781036,0.9711726903915405,-0.3156892955303192
1789222917921464300,7.28946435546875,0.7948976159095764,-0.6756851077079773,-0.3171795904636383
1789222917931458600,7.29945849609375,1.0589370727539062,-1.1399308443069458,-0.8118714094161987
1789222917941452500,7.30945263671875,0.9861363768577576,-0.6359906196594238,-0.5271505117416382
1789222917951445500,7.319445556640625,0.671912670135498,0.6284857392311096,0.09494777768850327
1789222917961439500,7.329439453125,0.5305683016777039,0.9820648431777954,0.2577851712703705
1789222917971433700,7.339433837890625,0.5516098141670227,0.8154078125953674,-0.1177532747387886
1789222917981427500,7.349427490234375,0.30692577362060547,0.663466215133667,-0.23652254045009613
1789222917991420400,7.35942041015625,0.03198453038930893,0.5240026116371155,0.44563573598861694
1789222918001414700,7.36941455078125,0.04395383968949318,0.3310598134994507,0.85493004322052
1789222918011408600,7.37940869140625,0.3378491699695587,0.4252382814884186,0.802850604057312
1789222918021401600,7.389401611328125,0.6520020961761475,1.137458086013794,0.34885674715042114
1789222918031395300,7.399395263671875,0.7384661436080933,1.7353922128677368,-0.2585875689983368
1789222918041389600,7.4093896484375,0.6926389932632446,0.6541373133659363,-0.5502462983131409
1789222918051382500,7.419382568359375,0.5345925688743591,-0.624477207660675,-0.4238279461860657
1789222918061376500,7.42937646484375,0.32956674695014954,-0.5355281829833984,0.04209315404295921
1789222918071370500,7.43937060546875,0.24387112259864807,0.4717978835105896,0.10406613349914551
1789222918081363500,7.449363525390625,0.25423428416252136,1.1129683256149292,0.12432559579610825
1789222918091357400,7.459357421875,0.2449282705783844,0.8556740880012512,0.48691320419311523
1789222918101351400,7.469351318359375,0.21381321549415588,0.4732130169868469,0.5758342742919922
1789222918111345400,7.479345458984375,0.15473447740077972,0.9082129597663879,0.01927991397678852
1789222918121338600,7.489338623046875,0.2461906373500824,0.4991130530834198,-0.25786566734313965
1789222918131332600,7.49933251953125,0.25838804244995117,0.02418363466858864,-0.4096502661705017
1789222918141326300,7.509326416015625,0.22728392481803894,-0.07791823893785477,-0.46722275018692017
1789222918151319600,7.519319580078125,0.2116507589817047,0.10469304770231247,-0.10712702572345734
1789222918161313500,7.5293134765625,0.2533454895019531,0.3670807182788849,0.17914414405822754
1789222918171307500,7.5393076171875,0.14283910393714905,0.7311299443244934,0.4129275381565094
1789222918181300700,7.54930078125,-0.15307563543319702,1.109988808631897,0.6294992566108704
1789222918191294500,7.55929443359375,-0.4066692590713501,0.8597744703292847,0.407560259103775
1789222918201288400,7.569288330078125,-0.4568309485912323,-0.2421235740184784,0.38404640555381775
1789222918211282400,7.579282470703125,-0.34211981296539307,-0.7904294729232788,0.18973959982395172
1789222918221275600,7.589275634765625,-0.25560274720191956,-0.7108190655708313,0.4565981924533844
1789222918231269600,7.59926953125,-0.2777746319770813,0.13354653120040894,0.7873971462249756
1789222918241263600,7.609263671875,-0.36860600113868713,1.2338289022445679,0.30753228068351746
1789222918251256600,7.619256591796875,-0.6171181201934814,1.5223032236099243,-0.33008334040641785
1789222918261250600,7.62925048828125,-0.9716021418571472,0.9472846984863281,-0.7607234716415405
1789222918271244500,7.63924462890625,-1.150795578956604,-0.22038018703460693,-1.2949410676956177
1789222918281237500,7.649237548828125,-1.0613327026367188,-1.918731689453125,-0.6953548192977905
1789222918291231700,7.659231689453125,-0.9413314461708069,-2.316124200820923,0.08921180665493011
1789222918301225500,7.6692255859375,-0.7558915615081787,-1.9349740743637085,0.6281898021697998
1789222918311219500,7.679219482421875,-0.7341831922531128,-0.3731510639190674,1.1908081769943237
1789222918321212400,7.68921240234375,-0.9370742440223694,2.7692058086395264,0.6434492468833923
1789222918331206700,7.69920654296875,-1.2137415409088135,3.5546886920928955,-0.29299142956733704
1789222918341200600,7.70920068359375,-1.7485759258270264,-0.28365176916122437,-0.489878386259079
1789222918351193300,7.719193359375,-2.493534564971924,-2.4995765686035156,-0.37466949224472046
1789222918361187600,7.7291875,-2.927711248397827,-3.110703229904175,0.5052040219306946
1789222918371181600,7.739181640625,-2.686436891555786,-2.316671848297119,0.9841216802597046
1789222918381174500,7.749174560546875,-1.80527925491333,-1.0939292907714844,0.9854543209075928
1789222918391168500,7.75916845703125,-0.8726503849029541,0.04921339079737663,0.4222758710384369
1789222918401162800,7.769162841796875,-0.5583592653274536,1.6888649463653564,-0.8986903429031372
1789222918411156700,7.77915673828125,-0.6034412384033203,2.3725814819335938,-2.0941684246063232
1789222918421149400,7.7891494140625,-1.0030817985534668,-3.373093843460083,-1.3622585535049438
1789222918431143400,7.799143310546875,-2.1670331954956055,-3.2734179496765137,-0.5372692942619324
1789222918441137700,7.8091376953125,-3.0187082290649414,-4.523179054260254,0.9429978728294373
1789222918451130600,7.819130615234375,-3.5550005435943604,-4.305678367614746,2.3402864933013916
1789222918461124600,7.82912451171875,-3.1520748138427734,2.8262064456939697,1.0566567182540894
1789222918471118300,7.839118408203125,-2.0455713272094727,5.127553462982178,-0.18114297091960907
1789222918481111600,7.849111572265625,-1.6462550163269043,2.6165153980255127,-0.4862956702709198
1789222918491105500,7.85910546875,-1.1836020946502686,-0.5649163722991943,-0.010326084680855274
1789222918501099500,7.869099609375,-0.6245808601379395,-3.9563488960266113,-0.04632936045527458
1789222918511093500,7.879093505859375,0.031825438141822815,-5.318928241729736,-1.1862462759017944
1789222918521086500,7.88908642578125,0.32568129897117615,-2.7900431156158447,-1.460652232170105
1789222918531080400,7.89908056640625,-0.0483185276389122,-0.8160739541053772,-0.3216913342475891
1789222918541074400,7.909074462890625,-0.7149983048439026,0.8441039323806763,0.7539200186729431
1789222918551067600,7.919067626953125,-1.235335350036621,1.8603304624557495,1.2971423864364624
1789222918561061600,7.9290615234375,-1.3081765174865723,0.9545882940292358,1.8474891185760498
1789222918571055600,7.9390556640625,-1.3044028282165527,0.02760343626141548,1.3393100500106812
1789222918581048600,7.949048583984375,-1.0743850469589233,-1.837398886680603,1.4473062753677368
1789222918591042600,7.95904248046875,-0.5380434989929199,-3.087930917739868,1.4662150144577026
1789222918601036500,7.96903662109375,0.3828544318675995,-2.555138111114502,0.14557352662086487
1789222918611030500,7.979030517578125,1.269632339477539,-0.5645340085029602,-1.159533977508545
1789222918621023700,7.989023681640625,1.6194640398025513,1.2297582626342773,-1.3005461692810059
1789222918631017500,7.999017578125,1.509373426437378,1.6228306293487549,-0.8521032333374023
1789222918641011500,8.009011474609375,1.3471200466156006,0.2548057734966278,-0.814622163772583
1789222918651004700,8.019004638671875,1.4265409708023071,-1.10979425907135,-1.4579505920410156
1789222918660998700,8.02899853515625,1.2570387125015259,0.33365127444267273,-0.8142083883285522
1789222918670992600,8.03899267578125,0.9601369500160217,3.1594676971435547,0.9790369868278503
1789222918680985300,8.0489853515625,1.2149535417556763,3.1640913486480713,1.0649820566177368
1789222918690979600,8.0589794921875,2.100684642791748,-0.6203597187995911,0.6160261631011963
1789222918700973600,8.0689736328125,2.6329028606414795,-2.214029312133789,1.3894253969192505
1789222918710967600,8.078967529296875,2.6233737468719482,-0.5749059915542603,2.1626057624816895
1789222918720960500,8.08896044921875,2.6515674591064453,0.5073957443237305,1.780099630355835
1789222918730954500,8.09895458984375,2.6497654914855957,1.9217948913574219,0.047210443764925
1789222918740948500,8.108948486328124,2.376796007156372,4.502595901489258,-1.7577331066131592
1789222918750941400,8.11894140625,1.8427422046661377,3.3541736602783203,-2.7415218353271484
1789222918760935400,8.128935302734375,1.36460280418396,0.9816548228263855,-2.37650203704834
1789222918770929700,8.1389296875,1.3294678926467896,-0.9451565146446228,-1.3957122564315796
1789222918780922400,8.14892236328125,1.9973219633102417,-2.1553573608398438,-0.5613172650337219
1789222918790916400,8.158916259765626,2.944751501083374,-0.14879751205444336,-0.007250283844769001
1789222918800910600,8.16891064453125,3.206171989440918,1.3247705698013306,0.44121164083480835
1789222918810904600,8.178904541015624,2.651984930038452,2.5459892749786377,1.1936659812927246
1789222918820897500,8.1888974609375,1.8085871934890747,2.3429603576660156,2.310255527496338
1789222918830891500,8.1988916015625,0.9435750842094421,1.6309231519699097,2.0736169815063477
1789222918840885500,8.208885498046875,0.366250216960907,0.46082955598831177,0.3625461459159851
1789222918850878500,8.21887841796875,0.21001487970352173,-0.24475860595703125,-1.2386698722839355
1789222918860872400,8.22887255859375,0.30148300528526306,-0.1944485753774643,-1.3301165103912354
1789222918870866400,8.238866455078124,0.6682127714157104,0.29002246260643005,-0.9210213422775269
1789222918880859600,8.248859619140624,1.1605641841888428,0.6315124034881592,-0.8007529973983765
1789222918890853400,8.258853271484375,1.3755358457565308,0.8987982869148254,-0.5329456925392151
1789222918900847400,8.268847412109375,0.9293730854988098,1.3988728523254395,0.10397033393383026
1789222918910841300,8.27884130859375,-0.013642005622386932,1.5976283550262451,0.21378986537456512
1789222918920834600,8.28883447265625,-0.9598157405853271,0.2584979832172394,0.46292272210121155
1789222918930828500,8.29882861328125,-1.5686209201812744,-1.019944429397583,0.8977420330047607
1789222918940822500,8.308822509765625,-1.7441315650939941,-0.6786453723907471,0.722804844379425
1789222918950815500,8.3188154296875,-1.5716745853424072,-0.19534564018249512,0.5731431245803833
1789222918960809500,8.3288095703125,-1.2137776613235474,-0.05277304723858833,0.3095059394836426
1789222918970803500,8.338803466796875,-0.9838666915893555,0.34121376276016235,-0.15047289431095123
1789222918980796700,8.348796630859376,-1.0174849033355713,-0.17754898965358734,-0.2932950258255005
1789222918990790700,8.358790771484376,-1.261834740638733,-1.516208291053772,-0.35218319296836853
1789222919000784400,8.368784423828124,-1.6391942501068115,-2.301114797592163,-0.11445585638284683
1789222919010778400,8.3787783203125,-2.1007325649261475,-2.0183095932006836,0.6663110852241516
1789222919020771600,8.388771484375,-2.4147348403930664,-0.8876148462295532,0.7794871926307678
1789222919030765600,8.398765625,-2.500227689743042,0.30839577317237854,0.23023687303066254
1789222919040759600,8.408759521484376,-2.4704649448394775,1.3619369268417358,-0.7290899753570557
1789222919050752500,8.41875244140625,-2.3363561630249023,0.34999600052833557,-0.8036164045333862
1789222919060746500,8.42874658203125,-2.3111088275909424,-1.4220532178878784,0.3217897117137909
1789222919070740500,8.438740478515625,-1.9815694093704224,-3.3669192790985107,0.31125083565711975
1789222919080734500,8.448734375,-1.2785247564315796,-4.581292152404785,-0.2679576575756073
1789222919090727700,8.458727783203125,-0.9347282648086548,-2.1206376552581787,0.14836084842681885
1789222919100721700,8.4687216796875,-1.1121416091918945,2.1355366706848145,0.909272313117981
1789222919110715400,8.47871533203125,-1.3700717687606812,3.373204469680786,1.0618737936019897
1789222919120708400,8.488708251953126,-1.2430672645568848,0.49109941720962524,0.6660079956054688
1789222919130702600,8.49870263671875,-1.09206223487854,-0.2849181890487671,-0.36979442834854126
1789222919140696600,8.508696533203125,-1.2062652111053467,0.5225460529327393,-0.7579831480979919
1789222919150689500,8.518689453125,-0.9070270657539368,-0.21601617336273193,-0.06090512499213219
1789222919160683500,8.52868359375,-0.19473373889923096,-1.6289445161819458,0.6659730076789856
1789222919170677500,8.538677490234376,0.6203252673149109,-1.3071181774139404,0.3726861774921417
1789222919180671500,8.54867138671875,1.0558669567108154,0.18035981059074402,0.25475290417671204
1789222919190664400,8.55866455078125,0.9286384582519531,1.3213781118392944,-0.3623594641685486
1789222919200658400,8.568658447265625,0.6182968020439148,0.3803279995918274,-0.9398491978645325
1789222919210652700,8.578652587890625,0.3215344250202179,-0.9432893395423889,-0.5757810473442078
1789222919220645400,8.588645263671875,0.11770646274089813,-0.2591626048088074,-0.2032298594713211
1789222919230639400,8.598639404296875,0.15724557638168335,0.8049724698066711,0.22621244192123413
1789222919240633600,8.608633544921876,0.31138932704925537,0.7378432154655457,1.0392374992370605
1789222919250626600,8.61862646484375,0.42519092559814453,0.48706507682800293,1.2241684198379517
1789222919260620500,8.62862060546875,0.36950716376304626,0.44362279772758484,0.49074989557266235
1789222919270614300,8.6386142578125,0.17969253659248352,-0.07003919035196304,-0.6360703706741333
1789222919280608500,8.6486083984375,-0.014806639403104782,-1.0306752920150757,-1.4394375085830688
1789222919290601500,8.6586015625,-0.10069814324378967,-1.3776004314422607,-1.7438421249389648
1789222919300595500,8.668595458984376,0.2436365932226181,-1.2389756441116333,-1.8570374250411987
1789222919310589400,8.67858935546875,0.8712778091430664,-0.3265960216522217,-0.9912290573120117
1789222919320582400,8.68858251953125,0.8133455514907837,0.14883866906166077,0.22892935574054718
1789222919330576400,8.698576416015625,0.15124298632144928,1.3312932252883911,1.4140610694885254
1789222919340570400,8.7085703125,-0.43996596336364746,0.8233320713043213,2.232354164123535
1789222919350563600,8.7185634765625,-0.7544360160827637,-0.2946411073207855,1.7490720748901367
1789222919360557600,8.7285576171875,-0.7543465495109558,-0.5354774594306946,0.4647713303565979
1789222919370551600,8.738551513671876,-0.32619768381118774,0.8430047035217285,-1.420276403427124
1789222919380545500,8.748545654296874,0.35357069969177246,0.2478870302438736,-2.0405142307281494
1789222919390538500,8.75853857421875,0.6637712121009827,-0.29563406109809875,-1.4204028844833374
1789222919400532500,8.768532470703125,0.6571460366249084,-0.4642813801765442,-0.15050549805164337
1789222919410526500,8.7785263671875,0.5053297877311707,-0.8233571648597717,1.2157260179519653
1789222919420519700,8.788519775390625,0.17986270785331726,-0.43860387802124023,1.6740347146987915
1789222919430513400,8.798513427734376,-0.24897313117980957,1.5158265829086304,0.6835441589355469
1789222919440507400,8.80850732421875,-0.7290289998054504,1.7700892686843872,-0.20780040323734283
1789222919450501400,8.81850146484375,-0.9002334475517273,-0.08631080389022827,0.024926062673330307
1789222919460494600,8.82849462890625,-0.5952692627906799,-2.124040126800537,0.13293908536434174
1789222919470488600,8.838488525390625,0.10319575667381287,-2.5024309158325195,-0.26696884632110596
1789222919480482600,8.848482666015625,0.6261889338493347,-0.271604061126709,-0.8611025214195251
1789222919490475500,8.8584755859375,0.8250624537467957,1.1179168224334717,-1.0590577125549316
1789222919500469500,8.868469482421874,0.665075957775116,0.7096765637397766,-0.09682939946651459
1789222919510463500,8.87846337890625,0.2828601598739624,-0.1804615706205368,0.6659427881240845
1789222919520456400,8.88845654296875,-0.4335637390613556,0.6562389135360718,0.16039599478244781
1789222919530450700,8.89845068359375,-0.9657455086708069,0.34355002641677856,0.23231934010982513
1789222919540444700,8.908444580078125,-1.0649724006652832,-1.257229208946228,0.9501587152481079
1789222919550438400,8.9184384765625,-0.8382746577262878,-1.4254837036132812,1.414361596107483
1789222919560431400,8.928431396484376,-0.45737743377685547,1.4445676803588867,0.6963488459587097
1789222919570425600,8.938425537109374,0.10267873853445053,4.221266746520996,-0.5056132078170776
1789222919580419600,8.948419677734375,0.4936949610710144,1.3225808143615723,-0.7356820702552795
1789222919590412500,8.95841259765625,0.3823702931404114,-2.1568174362182617,-0.09536676853895187
1789222919600406500,8.968406494140625,0.04991139844059944,-4.535947799682617,2.0518248081207275
1789222919610400500,8.978400390625,-0.4476611018180847,-3.6346595287323,3.224266529083252
1789222919620393500,8.9883935546875,-0.3737748861312866,5.6162333488464355,-0.15439516305923462
1789222919630387500,8.998387451171874,0.15034832060337067,2.0913407802581787,-1.8718923330307007
1789222919640381700,9.008381591796875,-0.20732618868350983,-1.7013550996780396,-1.3146575689315796
1789222919650375700,9.018375732421875,-0.7750175595283508,-2.1897499561309814,-0.6770381927490234
1789222919660368400,9.028368408203125,-1.2564878463745117,-0.5522251129150391,0.47043025493621826
1789222919670362400,9.0383623046875,-1.5501567125320435,0.9917303323745728,1.3870784044265747
1789222919680356600,9.048356689453126,-0.9461165070533752,-1.3627933263778687,0.8359761834144592
1789222919690349600,9.058349609375,0.05680875480175018,-2.3191428184509277,-0.9560872316360474
1789222919700343600,9.068343505859374,0.06928273290395737,-1.1140176057815552,-1.2293128967285156
1789222919710337500,9.078337646484375,-0.33490949869155884,-1.175560474395752,-0.29854267835617065
1789222919720331800,9.088331787109375,-0.8002633452415466,-0.8823291063308716,-0.41805174946784973
1789222919730324700,9.09832470703125,-0.8290330171585083,0.9589564204216003,-1.538122296333313
1789222919740318700,9.108318603515626,-0.8197060823440552,0.3020869195461273,0.23933754861354828
1789222919750312700,9.118312744140624,-1.5182398557662964,1.3129096031188965,1.1913701295852661
1789222919760305700,9.1283056640625,-2.047455310821533,1.4317225217819214,0.3667071759700775
1789222919770299600,9.138299560546875,-1.7853740453720093,-2.1153697967529297,0.5886992812156677
1789222919780293600,9.148293701171875,-1.3207587003707886,-5.527374744415283,2.0584397315979004
1789222919790286800,9.158286865234375,-0.9117513298988342,-4.349281311035156,1.3859401941299438
1789222919800280800,9.16828076171875,-0.440111368894577,0.45304375886917114,-0.5061634182929993
1789222919810274800,9.17827490234375,-0.14880229532718658,2.0168824195861816,-0.914452850818634
1789222919820268500,9.1882685546875,-0.10443668812513351,0.6320230960845947,-1.121436595916748
1789222919830261800,9.19826171875,-0.5669237971305847,0.29973554611206055,-1.5317912101745605
1789222919840255700,9.208255859375,-1.0201213359832764,-0.3843783140182495,-0.4533630609512329
1789222919850249700,9.218249755859375,-0.9401828050613403,-2.2413108348846436,0.6528328657150269
1789222919860243000,9.228242919921875,-0.7318767309188843,-2.461254358291626,0.7219701409339905
1789222919870236700,9.238236572265626,-0.48014041781425476,-2.072707414627075,1.5703747272491455
1789222919880230700,9.248230712890624,-0.17397941648960114,-0.5080330967903137,1.9223953485488892
1789222919890224600,9.258224609375,0.32669538259506226,3.649587631225586,0.37554940581321716
1789222919900217900,9.2682177734375,0.7176700830459595,2.7364606857299805,-0.4000978469848633
1789222919910211800,9.2782119140625,0.34955894947052,-0.11703238636255264,-0.5978720784187317
1789222919920205800,9.288205810546875,0.08902108669281006,-2.605775833129883,0.020565573126077652
1789222919930198800,9.29819873046875,-0.08145574480295181,-2.490041494369507,0.490889310836792
1789222919940192800,9.30819287109375,0.2769218385219574,-0.6196175217628479,0.15037965774536133
1789222919950186800,9.318186767578124,1.194866418838501,1.288800597190857,-1.1082415580749512
1789222919960179700,9.3281796875,1.1452088356018066,1.4213844537734985,-1.4839965105056763
1789222919970174000,9.338174072265625,0.6669678688049316,0.8646882176399231,-0.45485445857048035
1789222919980168000,9.34816796875,0.3674176335334778,-1.5675898790359497,1.70066499710083
1789222919990161700,9.35816162109375,0.269077867269516,-2.931417226791382,1.941739797592163
1789222920000154600,9.368154541015626,0.6138976216316223,-1.8209487199783325,0.33251166343688965
1789222920010148900,9.37814892578125,1.0432606935501099,-0.681525707244873,-0.2775135636329651
1789222920020142800,9.388142822265625,1.2720876932144165,0.09678205102682114,-0.21848538517951965
1789222920030135600,9.398135498046875,1.4729951620101929,1.1151679754257202,-0.5577827095985413
1789222920040129500,9.408129638671875,1.5246418714523315,1.9612067937850952,-0.5043586492538452
1789222920050123800,9.418123779296875,1.7012404203414917,1.001920461654663,-0.3292931914329529
1789222920060117800,9.42811767578125,1.7755422592163086,-0.21075952053070068,-0.6662038564682007
1789222920070110700,9.43811083984375,2.0460922718048096,-1.6690101623535156,-0.33113133907318115
1789222920080104700,9.448104736328125,2.266807794570923,0.41677942872047424,-0.13521960377693176
1789222920090099000,9.458098876953125,2.065262794494629,2.093064308166504,0.26848381757736206
1789222920100091600,9.468091552734375,1.817406177520752,2.071730375289917,1.024412751197815
1789222920110085600,9.478085693359375,1.7560923099517822,0.15639466047286987,1.8020155429840088
1789222920120080000,9.488079833984376,1.8282171487808228,-1.144605278968811,1.2138521671295166
1789222920130072800,9.49807275390625,1.8381330966949463,0.013085671700537205,-0.0066748373210430145
1789222920140066800,9.50806689453125,1.6771423816680908,2.1395363807678223,-0.3812159597873688
1789222920150060500,9.518060546875,1.5620994567871094,3.009817361831665,-1.144620418548584
1789222920160054800,9.5280546875,1.6191602945327759,1.7353408336639404,-1.9793354272842407
1789222920170047700,9.5380478515625,1.9927605390548706,-1.1883608102798462,-1.1659408807754517
1789222920180041700,9.548041748046876,2.030812978744507,-1.0866903066635132,-0.8984326720237732
1789222920190035700,9.55803564453125,1.8059250116348267,-0.2608569264411926,0.22371622920036316
1789222920200028700,9.568028564453124,1.496910810470581,-0.337528258562088,1.8827712535858154
1789222920210022700,9.578022705078125,1.0914366245269775,0.5255721807479858,1.964309811592102
1789222920220016600,9.5880166015625,0.6031196713447571,2.539647102355957,0.6646973490715027
1789222920230010600,9.5980107421875,0.1702272742986679,3.3951826095581055,-0.6254426836967468
1789222920240003800,9.60800390625,0.043940696865320206,2.076730251312256,-1.4862594604492188
1789222920249997800,9.617997802734376,0.4881022870540619,-0.5172675251960754,-1.7052695751190186
1789222920259991600,9.627991455078124,1.2634563446044922,-1.7023043632507324,-1.7505619525909424
1789222920269984800,9.63798486328125,1.8176217079162598,-1.215576171875,-0.6609489917755127
1789222920279978800,9.647978759765625,1.8621563911437988,-0.01233416423201561,1.0053421258926392
1789222920289972700,9.65797265625,1.6743170022964478,0.8177621364593506,1.3667184114456177
1789222920299966700,9.667966796875,1.0722476243972778,1.9090174436569214,1.056018352508545
1789222920309959700,9.677959716796876,0.2283167690038681,2.6830239295959473,0.8043323159217834
1789222920319953700,9.68795361328125,-0.37638112902641296,2.4094979763031006,-0.4317150413990021
1789222920329947600,9.69794775390625,-0.43404290080070496,0.7543072700500488,-0.7099916934967041
1789222920339940900,9.70794091796875,0.08311286568641663,-0.5459680557250977,-0.2849394977092743
1789222920349934800,9.717934814453125,0.8500185608863831,-0.005034284666180611,-0.49892276525497437
1789222920359928800,9.7279287109375,1.4570847749710083,0.5481921434402466,0.6456037163734436
1789222920369921800,9.737921875,1.6029013395309448,-0.14014439284801483,2.4989705085754395
1789222920379915800,9.747915771484376,1.4529914855957031,-0.8390510678291321,2.1921963691711426
1789222920389909800,9.75790966796875,0.858148455619812,2.492732048034668,0.29453766345977783
1789222920399903700,9.76790380859375,0.07834477722644806,2.7915854454040527,0.07007713615894318
1789222920409897000,9.77789697265625,-0.7138755321502686,0.9749529361724854,-0.2622451186180115
1789222920419890700,9.787890625,-1.1812856197357178,0.21798910200595856,-1.9662197828292847
1789222920429884700,9.797884765625,-1.165305256843567,0.15861661732196808,-1.5862239599227905
1789222920439877600,9.807877685546876,-0.37548041343688965,-1.6018407344818115,0.5946155190467834
1789222920449872000,9.817871826171874,0.6237831115722656,-0.2624473571777344,-0.8404191136360168
1789222920459865900,9.827865966796875,1.3401545286178589,0.4772014021873474,-1.0380353927612305
1789222920469859800,9.83785986328125,1.2034144401550293,0.9793601036071777,1.5973271131515503
1789222920479852800,9.847852783203125,0.3215746283531189,3.340620994567871,1.7576731443405151
1789222920489846800,9.8578466796875,-0.6023105978965759,3.2855801582336426,0.7154743671417236
1789222920499840800,9.8678408203125,-1.1923201084136963,-0.10929734259843826,1.4623554944992065
1789222920509833700,9.877833740234376,-1.522698998451233,-3.0095443725585938,2.0478668212890625
1789222920519828000,9.887827880859374,-1.3963069915771484,-3.8672285079956055,1.368412733078003
1789222920529821700,9.89782177734375,-0.9043618440628052,-1.4861518144607544,0.26167550683021545
1789222920539814700,9.907814697265625,-0.4063195586204529,1.9662748575210571,0.010129815898835659
1789222920549808600,9.91780859375,0.12198054045438766,5.359901428222656,-1.2110896110534668
1789222920559803000,9.927802978515626,0.6477686762809753,1.8400388956069946,-1.8579704761505127
1789222920569796900,9.937796875,0.4054161012172699,-0.6021969318389893,-2.3975117206573486
1789222920579789600,9.94778955078125,-0.2762244939804077,-0.12681066989898682,-2.1606810092926025
1789222920589783600,9.957783447265625,-0.6734465956687927,-0.6637518405914307,-0.3745136559009552
1789222920599777800,9.96777783203125,-0.6870087385177612,-1.2186834812164307,1.3381599187850952
1789222920609770800,9.977770751953125,-0.3417121171951294,0.3076166808605194,2.02166748046875
1789222920619764700,9.9877646484375,0.39433553814888,4.921507835388184,2.209484100341797
1789222920629758700,9.9977587890625,0.14016352593898773,1.0540212392807007,1.357282042503357
1789222920639753000,10.0077529296875,-0.7853373885154724,0.011493252590298653,1.3975255489349365
1789222920649745700,10.01774560546875,-1.6271791458129883,-0.9399625062942505,2.512693405151367
1789222920659739600,10.02773974609375,-2.3439018726348877,-2.573122501373291,2.4840569496154785
1789222920669734000,10.03773388671875,-2.383237600326538,-5.941778182983398,1.0401073694229126
1789222920679726800,10.047726806640625,-1.8431369066238403,-2.859522819519043,-1.5875790119171143
1789222920689720600,10.057720458984376,-1.3621152639389038,1.3478460311889648,-2.73856258392334
1789222920699714600,10.067714599609374,-1.4176514148712158,1.2244783639907837,-3.552027702331543
1789222920709708000,10.0777080078125,-2.140410900115967,1.2845338582992554,-3.2212228775024414
1789222920719702000,10.087701904296875,-2.811311960220337,-1.1831600666046143,-1.3923548460006714
1789222920729696000,10.097696044921875,-2.9816842079162598,-5.623121738433838,0.18150155246257782
1789222920739690000,10.10768994140625,-3.3173258304595947,-4.315499305725098,0.4601459503173828
1789222920749683200,10.11768310546875,-3.241090774536133,2.0656495094299316,0.8732396960258484
1789222920759677000,10.127677001953124,-3.0252060890197754,2.2867300510406494,2.0220766067504883
1789222920769671000,10.1376708984375,-2.9090416431427,0.8353825807571411,2.5387468338012695
1789222920779664100,10.1476640625,-2.647470712661743,-1.4956036806106567,1.9976636171340942
1789222920789658000,10.157658203125,-2.31333589553833,-2.7433810234069824,0.5766415596008301
1789222920799652000,10.167652099609375,-1.5857861042022705,-2.0224099159240723,-1.4991636276245117
1789222920809646000,10.17764599609375,-1.2049076557159424,-1.955833911895752,-2.055327892303467
1789222920819639000,10.18763916015625,-1.1275240182876587,-1.7758433818817139,-1.1126224994659424
1789222920829633000,10.197633056640624,-1.0298051834106445,-1.3627630472183228,-0.48560577630996704
1789222920839627000,10.207626953125,-0.765105128288269,-0.9622487425804138,-0.10792557895183563
1789222920849620200,10.2176201171875,-0.8061563968658447,0.6298707723617554,0.07257735729217529
1789222920859614200,10.2276142578125,-1.019778847694397,1.0687724351882935,0.9051358103752136
1789222920869608000,10.23760791015625,-1.014122486114502,-0.3711860477924347,1.872918725013733
1789222920879602000,10.247601806640626,-0.6602421402931213,-1.6142407655715942,1.7172971963882446
1789222920889595100,10.25759521484375,-0.16540992259979248,-1.205217957496643,0.8653595447540283
1789222920899589000,10.267589111328125,0.18987439572811127,-0.2328193187713623,0.2601364552974701
1789222920909583000,10.2775830078125,0.4027419090270996,-0.1864384263753891,0.10074508190155029
1789222920919575800,10.287575927734375,0.4129764437675476,-0.21115230023860931,0.19769638776779175
1789222920929570000,10.297570068359375,0.7708655595779419,-0.688465416431427,-1.1368836164474487
1789222920939564000,10.30756396484375,1.4202591180801392,-1.182949423789978,-3.2135932445526123
1789222920949557000,10.317556884765626,1.3633826971054077,-0.49660542607307434,-3.1616415977478027
1789222920959551000,10.327551025390624,0.983108639717102,1.498515009880066,-1.33914053440094
1789222920969545200,10.337545166015625,0.7612723112106323,2.6344425678253174,0.6272944211959839
1789222920979539200,10.347539306640625,1.1815569400787354,0.09493781626224518,1.2828009128570557
1789222920989532000,10.357531982421875,1.7403709888458252,-4.009618759155273,2.409313678741455
1789222920999526100,10.367526123046876,1.5289798974990845,-2.941103458404541,2.639850616455078
1789222921009520000,10.37752001953125,1.3382560014724731,-0.7324826717376709,1.7159589529037476
1789222921019513000,10.38751318359375,1.16941237449646,2.032283306121826,0.216941237449646
1789222921029507000,10.397507080078125,0.9595107436180115,4.0204973220825195,-0.9089472889900208
1789222921039501000,10.4075009765625,0.6839097738265991,4.091094017028809,-1.873827576637268
1789222921049495000,10.4174951171875,0.6733629107475281,1.4433742761611938,-2.6258726119995117
1789222921059488000,10.427488037109375,1.1009323596954346,-2.583739995956421,-1.9323941469192505
1789222921069482000,10.43748193359375,1.5608465671539307,-3.5662903785705566,-0.8456718921661377
1789222921079476200,10.447476318359374,1.9898396730422974,-1.640778660774231,-0.20483674108982086
1789222921089469000,10.457468994140624,2.2336647510528564,1.0779989957809448,0.5663601160049438
1789222921099463000,10.467462890625,1.9597572088241577,3.3099684715270996,1.1871213912963867
1789222921109457000,10.477456787109375,1.3738608360290527,3.456012725830078,1.6243921518325806
1789222921119451100,10.487451171875,0.7639617919921875,1.5633996725082397,1.7477385997772217
1789222921129444000,10.497444091796876,0.29540520906448364,-0.3658589720726013,1.1826523542404175
1789222921139438000,10.50743798828125,0.20444069802761078,-1.1166722774505615,-0.13650965690612793
1789222921149432000,10.51743212890625,0.6576800346374512,-0.8317531943321228,-1.715905785560608
1789222921159425000,10.527425048828125,1.4461990594863892,0.09942881762981415,-2.4682013988494873
1789222921169419000,10.5374189453125,2.2152795791625977,0.9878002405166626,-2.0618252754211426
1789222921179413000,10.5474130859375,2.540524959564209,1.5563700199127197,-1.0056617259979248
1789222921189407200,10.5574072265625,2.4330382347106934,0.8107395768165588,0.33102747797966003
1789222921199400000,10.56739990234375,1.864722490310669,0.07781767845153809,1.244778037071228
1789222921209394000,10.577393798828124,1.136776089668274,0.2012822926044464,1.0773570537567139
1789222921219388000,10.587387939453125,0.5626636147499084,0.8005140423774719,0.5036802291870117
1789222921229381000,10.597381103515625,0.32980677485466003,1.2527960538864136,0.3172537684440613
1789222921239375000,10.607375,0.5401493310928345,1.5431679487228394,0.28967753052711487
1789222921249369000,10.617369140625,1.0943492650985718,1.7236018180847168,-0.028406906872987747
1789222921259362800,10.62736279296875,1.7191752195358276,1.0719435214996338,-0.21712887287139893
1789222921269356000,10.63735595703125,2.109816551208496,0.2654324769973755,-0.6391250491142273
1789222921279350000,10.64735009765625,2.003955841064453,0.1790323257446289,-0.6520570516586304
1789222921289344000,10.657343994140625,1.5358377695083618,0.41417303681373596,-0.032778047025203705
1789222921299337200,10.667337158203125,0.9803090691566467,0.8055985569953918,0.1118510365486145
1789222921309331000,10.6773310546875,0.5026776194572449,1.4960482120513916,0.01776571199297905
1789222921319325000,10.687324951171876,0.16825994849205017,1.8669404983520508,0.4326536953449249
1789222921329319000,10.69731884765625,0.04863811284303665,1.6163064241409302,0.6649645566940308
1789222921339312000,10.70731201171875,0.3555029630661011,0.46509110927581787,0.3167482614517212
1789222921349306000,10.71730615234375,0.828129231929779,-0.540308952331543,0.2568137049674988
1789222921359300000,10.727300048828125,1.0527406930923462,-0.22602875530719757,0.13023711740970612
1789222921369293000,10.73729296875,0.9917277693748474,0.17303407192230225,0.2171737104654312
1789222921379287000,10.747287109375,0.6392186880111694,0.7411049604415894,0.39116227626800537
1789222921389281000,10.757281005859374,0.08697658032178879,1.7175694704055786,0.21405500173568726
1789222921399274000,10.76727392578125,-0.4552643299102783,2.2830448150634766,-0.24507182836532593
1789222921409268200,10.777268310546875,-0.7678592205047607,1.4458553791046143,-0.48523271083831787
1789222921419262000,10.787261962890625,-0.777847409248352,-0.16176530718803406,-0.40438154339790344
1789222921429256000,10.797255859375,-0.5984386801719666,-1.5420823097229004,-0.08888832479715347
1789222921439249200,10.807249267578126,-0.4264032244682312,-1.8359065055847168,0.34991884231567383
1789222921449243100,10.8172431640625,-0.40591418743133545,-0.3978692889213562,0.5132212042808533
1789222921459237000,10.827237060546874,-0.6045380234718323,2.520629405975342,0.03750257566571236
1789222921469229800,10.837229736328124,-0.8445018529891968,3.0031840801239014,-0.12413111329078674
1789222921479224000,10.84722412109375,-1.2855340242385864,0.5028003454208374,-0.13145799934864044
1789222921489218000,10.857218017578125,-1.7910884618759155,-1.7576467990875244,-0.03445569798350334
1789222921499212000,10.8672119140625,-2.087341070175171,-1.8993229866027832,0.32519036531448364
1789222921509205000,10.877205078125,-1.9638657569885254,-0.8681687712669373,0.5109146237373352
1789222921519199200,10.88719921875,-0.9124329686164856,2.38216495513916,0.18365953862667084
1789222921529193000,10.89719287109375,-0.33945930004119873,0.6683443188667297,-0.3470899760723114
1789222921539186000,10.90718603515625,-0.7586379051208496,-0.7263336777687073,-0.27978816628456116
1789222921549180000,10.917179931640625,-1.3495960235595703,-2.669677257537842,0.3452112078666687
1789222921559174100,10.927174072265625,-1.9467161893844604,-3.399766445159912,0.617300808429718
1789222921569168100,10.937168212890626,-2.010843515396118,1.5475760698318481,-0.9562338590621948
1789222921579160800,10.947160888671876,-1.397169589996338,2.8262603282928467,-1.5703282356262207
1789222921589155000,10.957155029296874,-1.5788973569869995,0.6480986475944519,-1.772824764251709
1789222921599149000,10.967149169921875,-1.9973002672195435,-0.08055445551872253,-0.5430363416671753
1789222921609142000,10.97714208984375,-2.0601627826690674,-1.1183494329452515,1.5734444856643677
1789222921619136000,10.987135986328125,-1.646926760673523,-2.9449057579040527,2.118144989013672
1789222921629130200,10.997130126953126,-1.1507245302200317,-2.903107166290283,1.2229056358337402
1789222921639124200,11.007124267578124,-1.1032177209854126,-0.34169530868530273,0.4689745306968689
1789222921649117000,11.017116943359374,-1.1415009498596191,1.0216721296310425,-0.5246432423591614
1789222921659111000,11.02711083984375,-1.116649866104126,0.3167906403541565,-1.8610371351242065
1789222921669105200,11.037105224609375,-1.2205568552017212,-1.386315107345581,-1.1072590351104736
1789222921679098000,11.04709814453125,-1.7075774669647217,-0.9483073949813843,0.0322117954492569
1789222921689092000,11.057092041015625,-1.9360957145690918,-0.5614871978759766,0.41644495725631714
1789222921699085800,11.0670859375,-1.8055815696716309,-1.3610976934432983,1.7678217887878418
1789222921709079800,11.077079833984374,-1.5788121223449707,-0.8347201347351074,2.318646192550659
1789222921719072500,11.087072509765624,-1.1740912199020386,0.3337322175502777,0.8233336806297302
1789222921729066500,11.09706640625,-0.7925020456314087,0.1819639801979065,-0.6039259433746338
1789222921739060700,11.107060791015625,-0.6137608289718628,-1.0810977220535278,-0.3367248773574829
1789222921749053700,11.1170537109375,-0.6821396350860596,-1.4556217193603516,-0.17296144366264343
1789222921759047400,11.12704736328125,-0.9259669184684753,-1.13362455368042,-0.08393251150846481
1789222921769041700,11.137041748046874,-1.169090986251831,-1.1375187635421753,0.28254076838493347
1789222921779035600,11.14703564453125,-1.191562533378601,-1.6728240251541138,-0.02355336584150791
1789222921789028600,11.157028564453125,-1.2607898712158203,-2.022158145904541,0.7936820983886719
1789222921799022600,11.167022705078125,-1.3804563283920288,-0.8085724115371704,1.7691484689712524
1789222921809016800,11.177016845703125,-1.1428697109222412,0.6910508871078491,0.7479711174964905
1789222921819009500,11.187009521484375,-0.7765361666679382,0.44364380836486816,0.046996746212244034
1789222921829003500,11.19700341796875,-0.5911751985549927,-0.10332425683736801,-0.1429605484008789
1789222921838997500,11.20699755859375,-0.5111395120620728,-0.7816656827926636,-0.509822428226471
1789222921848991700,11.21699169921875,-0.37254443764686584,-2.2418432235717773,-0.07131531089544296
1789222921858984700,11.226984619140625,-0.3047336935997009,-1.7875921726226807,0.1277189701795578
1789222921868978700,11.236978759765625,-0.2293669432401657,-0.4875127673149109,0.5294162631034851
1789222921878972400,11.246972412109375,-0.10894465446472168,0.08025237917900085,1.11392343044281
1789222921888965600,11.256965576171876,0.05803917348384857,0.49718931317329407,0.8976123929023743
1789222921898959600,11.266959716796874,0.37406718730926514,0.2470489740371704,0.4493222236633301
1789222921908953600,11.27695361328125,0.7040972709655762,-0.2232840210199356,0.052201785147190094
1789222921918947600,11.286947509765625,0.8133670091629028,0.10967715084552765,-0.35106897354125977
1789222921928940500,11.2969404296875,0.8669964671134949,-0.06664902716875076,-0.016309650614857674
1789222921938934500,11.3069345703125,0.971507728099823,-0.3130108714103699,0.23947285115718842
1789222921948928500,11.316928466796876,1.0678997039794922,0.36485475301742554,0.05416850373148918
1789222921958921700,11.326921630859376,1.091982126235962,1.2068567276000977,-0.26093006134033203
1789222921968915700,11.336915771484374,0.9178234338760376,1.4013755321502686,-0.2729620635509491
1789222921978909700,11.34690966796875,0.8041104674339294,0.2663135826587677,-0.18136954307556152
1789222921988903400,11.3569033203125,1.0305299758911133,-1.6559427976608276,-0.15068542957305908
1789222921998896600,11.366896728515625,1.5674186944961548,-1.7794597148895264,-0.32100710272789
1789222922008890600,11.376890625,2.0110788345336914,0.3000311851501465,-0.5661316514015198
1789222922018884600,11.386884521484374,2.0676827430725098,1.8159862756729126,-0.18635423481464386
1789222922028877800,11.3968779296875,1.8911080360412598,2.2370991706848145,0.8596549034118652
1789222922038871600,11.40687158203125,1.5265058279037476,1.959982991218567,1.0705009698867798
1789222922048865500,11.416865478515625,1.1340336799621582,0.7259041666984558,0.5195181965827942
1789222922058859500,11.426859619140625,0.8283815979957581,-1.2265559434890747,0.327466756105423
1789222922068852700,11.436852783203125,0.624407172203064,-1.465742826461792,-0.4476637840270996
1789222922078846700,11.4468466796875,0.6382361650466919,-0.08175337314605713,-1.1972280740737915
1789222922088840700,11.4568408203125,0.8391224145889282,0.9833778738975525,-0.9460249543190002
1789222922098833700,11.466833740234375,1.2057766914367676,0.8839972019195557,-0.37019604444503784
1789222922108827600,11.47682763671875,1.5048213005065918,0.6153942346572876,-0.3910428583621979
1789222922118821600,11.486821533203125,1.4612975120544434,0.30445554852485657,-0.17637716233730316
1789222922128815600,11.496815673828126,1.056061029434204,-0.0070880381390452385,0.5652382373809814
1789222922138808800,11.506808837890626,0.47281011939048767,0.04057775437831879,1.1342151165008545
1789222922148802600,11.516802490234374,0.10804438591003418,-0.09695272147655487,1.060567855834961
1789222922158796500,11.526796630859375,-0.0295180045068264,0.3634234070777893,0.49760115146636963
1789222922168789500,11.53678955078125,-0.06012262403964996,0.8701369166374207,0.44786620140075684
1789222922178783700,11.54678369140625,0.059010960161685944,0.674505889415741,0.2628670632839203
1789222922188777700,11.55677783203125,0.2694590985774994,0.09537890553474426,-0.42437589168548584
1789222922198771700,11.566771728515626,0.5645045638084412,-0.09341311454772949,-0.7567272186279297
1789222922208764700,11.5767646484375,0.8286260962486267,0.7520290613174438,-1.0195540189743042
1789222922218758700,11.586758544921874,0.5399820804595947,-0.2339775711297989,-1.4213606119155884
1789222922228752600,11.596752685546875,0.01180912833660841,-0.8605625629425049,-0.8227887153625488
1789222922238745600,11.60674560546875,-0.3033333718776703,-0.37545469403266907,0.2563135027885437
1789222922248739800,11.61673974609375,-0.20914733409881592,0.9229675531387329,0.9240567684173584
1789222922258733600,11.626733642578126,-0.13815917074680328,2.0314409732818604,1.7076501846313477
1789222922268727600,11.6367275390625,-0.15567068755626678,1.0970743894577026,2.5065770149230957
1789222922278720500,11.646720458984374,-0.31278201937675476,-0.6447831988334656,2.6135754585266113
1789222922288714800,11.65671484375,-0.6291157603263855,-1.4622379541397095,1.8556677103042603
1789222922298708700,11.666708740234375,-0.8885409235954285,-1.5151972770690918,0.23630258440971375
1789222922308701400,11.676701416015625,-0.9123927354812622,-1.5635401010513306,-1.7730765342712402
1789222922318695400,11.6866953125,-0.8634355664253235,-0.762599766254425,-3.0645880699157715
1789222922328689700,11.696689697265626,-0.5650263428688049,1.6221524477005005,-3.6881918907165527
1789222922338683600,11.70668359375,-0.17055602371692657,0.36359214782714844,-2.960487127304077
1789222922348676600,11.716676513671874,-0.3490748405456543,0.0749538391828537,-1.5280487537384033
1789222922358670600,11.726670654296875,-0.8149661421775818,-0.04718831926584244,1.1267616748809814
1789222922368664800,11.736664794921875,-1.1533527374267578,-0.6820523142814636,2.956390619277954
1789222922378658600,11.746658447265625,-1.1735302209854126,-1.2378100156784058,2.631408929824829
1789222922388651500,11.756651611328126,-1.1043325662612915,-0.7377036809921265,1.735115647315979
1789222922398645800,11.766645751953124,-1.1892147064208984,-0.357133686542511,1.0221471786499023
1789222922408639700,11.7766396484375,-1.1090261936187744,-0.9629514813423157,0.5035882592201233
1789222922418632400,11.786632568359375,-0.9389306306838989,-0.9976367354393005,0.027121057733893394
1789222922428626400,11.79662646484375,-0.7818400263786316,0.4142515957355499,-0.7035258412361145
1789222922438620700,11.80662060546875,-0.5145987272262573,0.725854754447937,-1.603212833404541
1789222922448614700,11.81661474609375,-0.28884994983673096,-0.9976275563240051,-1.7682955265045166
1789222922458607600,11.826607666015626,-0.2515965700149536,-2.369276762008667,-1.0725809335708618
1789222922468601600,11.8366015625,-0.34958839416503906,-2.410904884338379,0.380891889333725
1789222922478595800,11.846595947265625,-0.5439964532852173,-1.2151769399642944,1.517378807067871
1789222922488588500,11.856588623046875,-0.8076460957527161,0.37744030356407166,1.6938291788101196
1789222922498582500,11.86658251953125,-1.1550259590148926,0.9639652967453003,1.77129065990448
1789222922508576500,11.876576416015626,-1.3981738090515137,0.7441028356552124,1.1822370290756226
1789222922518570800,11.88657080078125,-1.309159755706787,-0.4151408076286316,0.09724597632884979
1789222922528563700,11.896563720703124,-0.7918328642845154,-1.9251046180725098,-1.166993260383606
1789222922538557400,11.906557373046875,0.2266150712966919,-1.3826866149902344,-2.6506989002227783
1789222922548551700,11.9165517578125,0.8651027083396912,-1.0058659315109253,-2.8726000785827637
1789222922558544600,11.926544677734375,0.86600661277771,0.243891641497612,-1.6846833229064941
1789222922568538600,11.93653857421875,0.7016912698745728,0.3367640972137451,0.09513115882873535
1789222922578532600,11.94653271484375,0.36699315905570984,-0.45552390813827515,1.8103374242782593
1789222922588526800,11.95652685546875,-0.40388810634613037,0.1818322390317917,2.5386569499969482
1789222922598519600,11.96651953125,-1.053961992263794,0.06627767533063889,2.5522022247314453
1789222922608513500,11.976513427734375,-1.225243330001831,-1.5077844858169556,2.4514811038970947
1789222922618507500,11.986507568359375,-0.8733318448066711,-2.0071396827697754,1.497612476348877
1789222922628500700,11.996500732421875,-0.20130233466625214,-0.6218360662460327,0.009747187606990337
1789222922638494700,12.00649462890625,0.589995265007019,1.9264048337936401,-2.0066440105438232
1789222922648488400,12.016488525390624,1.3486446142196655,0.9115675091743469,-3.1171233654022217
1789222922658482400,12.026482421875,1.6348313093185425,-0.7352977395057678,-3.238834857940674
1789222922668475600,12.0364755859375,1.3571721315383911,-0.3785473108291626,-2.464501142501831
1789222922678469600,12.0464697265625,0.9517338275909424,0.18511047959327698,-0.6577687859535217
1789222922688463600,12.056463623046875,0.8223612904548645,-0.5027041435241699,1.243306279182434
1789222922698457600,12.06645751953125,0.7592238783836365,-0.5038511753082275,1.7422516345977783
1789222922708450600,12.076450439453126,0.6624733805656433,0.4743844270706177,1.326045274734497
1789222922718444500,12.086444580078124,0.5935534238815308,1.1199206113815308,0.8913636207580566
1789222922728438500,12.0964384765625,0.7994236946105957,0.5072735548019409,0.40621688961982727
1789222922738431700,12.106431640625,1.1434358358383179,0.39626580476760864,-0.4774037003517151
1789222922748425700,12.11642578125,1.5068377256393433,0.5284915566444397,-1.083825945854187
1789222922758419700,12.126419677734376,1.9388693571090698,-0.372189998626709,-1.217018961906433
1789222922768413700,12.13641357421875,2.225205898284912,-0.5021573901176453,-1.5974032878875732
1789222922778406700,12.14640673828125,2.316950559616089,0.30618900060653687,-1.3105875253677368
1789222922788400600,12.156400634765625,2.2837209701538086,1.3198946714401245,-0.3641737997531891
1789222922798394600,12.16639453125,2.207261085510254,2.021059513092041,0.40116170048713684
1789222922808387800,12.176387939453125,2.1545369625091553,1.741788625717163,1.114686369895935
1789222922818381600,12.186381591796875,2.083888530731201,1.5107899904251099,1.4041626453399658
1789222922828375600,12.19637548828125,1.9919439554214478,1.8883895874023438,1.2206521034240723
1789222922838369500,12.20636962890625,1.9676260948181152,1.9885326623916626,0.7362685799598694
1789222922848362800,12.21636279296875,2.0408408641815186,1.1533550024032593,0.35241568088531494
1789222922858356700,12.226356689453125,2.013632297515869,0.6298012733459473,0.15968483686447144
1789222922868350700,12.236350830078125,1.840989589691162,0.7395361661911011,-0.22462983429431915
1789222922878343700,12.24634375,1.6518480777740479,0.6984566450119019,-1.1688655614852905
1789222922888337700,12.256337646484376,1.4459352493286133,0.5517722368240356,-1.9514483213424683
1789222922898331600,12.26633154296875,1.4142403602600098,0.12722358107566833,-1.9745197296142578
1789222922908325600,12.27632568359375,1.4777415990829468,0.10209129005670547,-1.3210359811782837
1789222922918318800,12.28631884765625,1.4933695793151855,0.15055496990680695,0.2725847363471985
1789222922928312800,12.296312744140625,1.3859955072402954,0.3568260371685028,1.9061967134475708
1789222922938306600,12.306306640625,1.1253279447555542,1.170508623123169,2.2884557247161865
1789222922948300500,12.316300537109376,0.7145467400550842,2.058530330657959,1.5698572397232056
1789222922958293800,12.326293701171876,0.18306420743465424,2.4562008380889893,0.6055507659912109
1789222922968287700,12.336287841796874,-0.17200396955013275,1.429321050643921,0.3410058319568634
1789222922978281700,12.34628173828125,-0.07921385020017624,-0.5846193432807922,0.009846294298768044
1789222922988274700,12.356274658203125,0.4022689759731293,-1.3387025594711304,-0.9080852270126343
1789222922998268700,12.3662685546875,0.9034811854362488,-0.16998335719108582,-0.8269706964492798
1789222923008262700,12.3762626953125,1.2312042713165283,2.053309202194214,-0.9540085196495056
1789222923018256600,12.386256591796876,1.1527241468429565,1.55160391330719,-0.64255690574646
1789222923028249900,12.396249755859374,0.5336549282073975,0.3246939778327942,0.8012598752975464
1789222923038243800,12.406243896484375,-0.22110038995742798,-0.8266768455505371,2.0305161476135254
1789222923048237600,12.416237548828125,-0.7389442324638367,-1.3600016832351685,1.9521092176437378
1789222923058230500,12.42623046875,-0.9741058945655823,0.23306025564670563,1.0576727390289307
1789222923068224800,12.436224853515625,-0.8550136685371399,4.319543361663818,-0.639194905757904
1789222923078218800,12.44621875,-0.6829676032066345,3.996246099472046,-1.2809888124465942
1789222923088212700,12.456212646484374,-0.4660852253437042,0.9522669911384583,-1.3577908277511597
1789222923098205400,12.466205322265624,-0.4850197434425354,-1.248201608657837,-1.3260177373886108
1789222923108199700,12.47619970703125,-0.6209412813186646,-2.6566975116729736,-0.45109081268310547
1789222923118193700,12.486193603515625,-0.6057268977165222,-3.259289026260376,0.16000770032405853
1789222923128187600,12.496187744140625,-0.7275758385658264,-0.36337581276893616,0.4095124900341034
1789222923138180600,12.5061806640625,-1.4150394201278687,1.436896562576294,0.9145932197570801
1789222923148174800,12.5161748046875,-2.273092269897461,2.159815549850464,1.2544528245925903
1789222923158168600,12.52616845703125,-2.7366585731506348,0.8276970982551575,1.150269865989685
1789222923168161500,12.53616162109375,-2.732245683670044,-0.6410675644874573,0.869304895401001
1789222923178155800,12.54615576171875,-2.2656610012054443,-0.5478367209434509,0.3269241452217102
1789222923188149800,12.556149658203125,-1.5196760892868042,0.8889862895011902,-0.5276939868927002
1789222923198143700,12.566143798828126,-0.7715784907341003,0.849838376045227,-0.9410113096237183
