time,seconds_elapsed,z,y,x
1789223395536273700,0.048273681640625,-8.074641498231887,-5.392480389818549,1.3753922813922166
1789223395546267600,0.058267578125,-8.10574273893833,-5.346764348304271,1.3709271186769008
1789223395556262000,0.068261962890625,-8.181305052661894,-5.2268631266385315,1.3843899729706346
1789223395566255600,0.078255615234375,-8.240848543998599,-5.151172218099236,1.313098322303593
1789223395576249600,0.08824951171875,-8.222675173926353,-5.188634226009249,1.279089961978793
1789223395586243600,0.09824365234375,-8.149655530422926,-5.285562568366527,1.3477126856975257
1789223395596238600,0.108238525390625,-8.108155060777067,-5.346806433880329,1.356418993113935
1789223395606232600,0.118232666015625,-8.095027868178486,-5.376485532829165,1.3169323475085197
1789223395616226600,0.1282265625,-8.107467078512906,-5.346549244248867,1.3615328289963304
1789223395626220800,0.138220703125,-8.166148984584211,-5.247988332253694,1.3939207485124467
1789223395636214800,0.14821484375,-8.232014664679765,-5.172635861888527,1.283803984888643
1789223395646208800,0.158208740234375,-8.23942990937233,-5.191419472813606,1.1538386114567518
1789223395656202500,0.168202392578125,-8.197866895884275,-5.264985059762001,1.1159287136487661
1789223395666196500,0.178196533203125,-8.166408512303233,-5.319229860168695,1.0890116998244077
1789223395676190700,0.188190673828125,-8.133055693277717,-5.36957531504929,1.0915390994101761
1789223395686185500,0.198185546875,-8.109764249539374,-5.3913820731878275,1.1554725693341343
1789223395696179700,0.2081796875,-8.175892379963397,-5.2704626143902535,1.2439417839691043
1789223395706173700,0.218173583984375,-8.255726964178681,-5.146003291028737,1.2377449751555918
1789223395716167700,0.228167724609375,-8.227858129522204,-5.207340095523,1.164623259517178
1789223395726161700,0.23816162109375,-8.1529101483047,-5.346855533719062,1.0543171108011156
1789223395736155600,0.24815576171875,-8.108849472782016,-5.436088060876727,0.9305312297217547
1789223395746150000,0.25814990234375,-8.043750685405731,-5.544274294829369,0.8540968824040144
1789223395756143600,0.2681435546875,-7.99000214408338,-5.622814163058996,0.845107739458233
1789223395766137600,0.2781376953125,-8.030769623279571,-5.552312639856338,0.9213887228451668
1789223395776131600,0.288131591796875,-8.097992563202977,-5.432532414221764,1.039469085759297
1789223395786125600,0.29812548828125,-8.127120458009838,-5.383289367625117,1.0679387358531356
1789223395796120600,0.30812060546875,-8.155477952966093,-5.3516281549483535,1.0092767035260797
1789223395806114600,0.318114501953125,-8.178825510805845,-5.331377978602052,0.9239053818412124
1789223395816108800,0.32810888671875,-8.168667104884982,-5.363018733012676,0.8254007300779223
1789223395826102800,0.338102783203125,-8.165381507343053,-5.3708951654762025,0.8064847249448299
1789223395836096800,0.3480966796875,-8.177444870102406,-5.331183917334675,0.9371543741885572
1789223395846090500,0.358090576171875,-8.18066207858324,-5.300603485631942,1.0727318153485654
1789223395856084500,0.36808447265625,-8.173280151638387,-5.31873593917191,1.0387134450864046
1789223395866078700,0.37807861328125,-8.13972391899526,-5.389170242357253,0.9338754255831241
1789223395876072700,0.38807275390625,-8.101385712772608,-5.457676792350411,0.8670055368810892
1789223395886066700,0.398066650390625,-8.08108877467513,-5.498228582969308,0.7974145526520907
1789223395896061700,0.408061767578125,-8.062582227125763,-5.52403580892086,0.8063372062329203
1789223395906055700,0.4180556640625,-8.05117528244853,-5.524835434865952,0.9083808457773178
1789223395916049700,0.428049560546875,-8.069100230717659,-5.487849227774143,0.9713467127781361
1789223395926043600,0.438043701171875,-8.127056160601972,-5.407154227337241,0.9402255252622067
1789223395936038000,0.448037841796875,-8.191708957776427,-5.331252890917659,0.8025177210099995
1789223395946031600,0.458031494140625,-8.232032200336455,-5.292265865397453,0.6292538155343383
1789223395956025600,0.468025634765625,-8.249893435719608,-5.266805845448374,0.6086051048571244
1789223395966019600,0.47801953125,-8.231902436476945,-5.285797546166181,0.6830185042738914
1789223395976013600,0.488013671875,-8.1765213255167,-5.368367108303308,0.7039267061375081
1789223395986007800,0.4980078125,-8.113094855266809,-5.461681351816654,0.7197949410725385
1789223395996002600,0.50800244140625,-8.075924523779749,-5.517682055979967,0.710644616215676
1789223396005996800,0.517996826171875,-8.051409091204404,-5.566079299402237,0.6032898646511137
1789223396015990800,0.52799072265625,-8.022579302561283,-5.616178086045384,0.5168603756828233
1789223396025984800,0.53798486328125,-8.052847599574923,-5.571763190257549,0.5267699214091525
1789223396035978500,0.547978515625,-8.109652605858445,-5.48677253845334,0.5470336878893897
1789223396045972500,0.557972412109375,-8.102160204276442,-5.502928723484278,0.4931171695889905
1789223396055966700,0.567966796875,-8.10311297495663,-5.503486941888928,0.47071898489594455
1789223396065960700,0.577960693359375,-8.143553706416487,-5.443875646013021,0.4659760281525552
1789223396075954700,0.58795458984375,-8.130702408149839,-5.465601740130782,0.43503512910697606
1789223396085948700,0.59794873046875,-8.112078371700644,-5.493155517488717,0.43567214836888013
1789223396095943700,0.607943603515625,-8.169386651331186,-5.406617636242508,0.4472094048948958
1789223396105937700,0.617937744140625,-8.1827330396384,-5.392843377912044,0.3612470585143193
1789223396115931600,0.627931640625,-8.113005423417688,-5.501038964214921,0.29681601433176547
1789223396125926000,0.63792578125,-8.064422302034497,-5.5708916681200265,0.3172400494076311
1789223396135919600,0.647919677734375,-8.04248402647078,-5.598240862816572,0.3853968361150473
1789223396145913600,0.65791357421875,-8.02357357429564,-5.622737590691447,0.4212735841276124
1789223396155907800,0.667907958984375,-8.067540726315976,-5.556369806292652,0.4603572749553248
1789223396165901600,0.677901611328125,-8.167584570345282,-5.405558482578397,0.4908023533079773
1789223396175895800,0.687895751953125,-8.229231171441077,-5.31487517209053,0.4497143003879115
1789223396185889800,0.697889892578125,-8.227036291745305,-5.323335541921853,0.3851777865368873
1789223396195884800,0.707884765625,-8.189888756611943,-5.382979571023583,0.34589583319071676
1789223396205878800,0.717878662109375,-8.138477718326449,-5.461840926292538,0.32227234448641534
1789223396215872800,0.727872802734375,-8.075915755951405,-5.5509471967220305,0.37007242573313415
1789223396225866800,0.73786669921875,-8.041640561383963,-5.587175863444805,0.5346686753023415
1789223396235860700,0.74786083984375,-8.058796863368153,-5.542549370732903,0.7115631923653185
1789223396245855000,0.75785498046875,-8.0631866227597,-5.5303521524608135,0.7553854560222476
1789223396255848700,0.7678486328125,-8.040738059586285,-5.572466370090842,0.6815704243574291
1789223396265842700,0.7778427734375,-8.055702989006042,-5.55995643260777,0.6024294118968769
1789223396275836700,0.787836669921875,-8.076231982293725,-5.532345372104644,0.5813891446188092
1789223396285830700,0.79783056640625,-8.08090055862665,-5.51803160007,0.6486559967491775
1789223396295824600,0.80782470703125,-8.126027986598015,-5.424784576573968,0.842480021303147
1789223396305819600,0.817819580078125,-8.160337667956949,-5.344293574276566,1.0088587703749536
1789223396315814000,0.82781396484375,-8.14160841756761,-5.375231733375787,0.9957329660158604
1789223396325807900,0.837807861328125,-8.089999810883402,-5.479455493438244,0.8353772035606205
1789223396335801900,0.8478017578125,-8.042786224287747,-5.569015352854132,0.6856042099181562
1789223396345795800,0.8577958984375,-8.04682877767682,-5.561227767717838,0.7012013728268444
1789223396355789600,0.86778955078125,-8.066804813256859,-5.5175797646492715,0.8083064604792743
1789223396365783800,0.87778369140625,-8.080514774179457,-5.476442867618799,0.9403425027053802
1789223396375777800,0.88777783203125,-8.094139394906163,-5.428485184657573,1.0894245184089988
1789223396385771800,0.897771728515625,-8.097242037096619,-5.414275457519293,1.1360782060995698
1789223396395765800,0.907765869140625,-8.076973740571736,-5.47051113948226,1.0031924151763318
1789223396405760800,0.9177607421875,-8.040661487218737,-5.556531718856096,0.8019389712739735
1789223396415754800,0.927754638671875,-8.001517809832096,-5.624475958791375,0.7150998420588671
1789223396425748700,0.937748779296875,-7.987173058137297,-5.630161603212356,0.8226379143010825
1789223396435743000,0.947742919921875,-7.9926494437217706,-5.59354364491105,1.0001046052288263
1789223396445736700,0.95773681640625,-8.031249515751004,-5.528294050887227,1.052319288047403
1789223396455730700,0.967730712890625,-8.125626420059799,-5.392454670855402,1.0324814188290388
1789223396465724700,0.977724609375,-8.184600002554058,-5.2935231719821685,1.0776454524837433
1789223396475718700,0.98771875,-8.156401497551798,-5.3251206717729564,1.1342824087239802
1789223396485712600,0.997712646484375,-8.103683468320964,-5.414204145848751,1.089538280981779
1789223396495707000,1.007706787109375,-8.05317259374559,-5.509162649437785,0.982811963513866
1789223396505700900,1.017700927734375,-8.0172338498801,-5.562894824147224,0.9739315416395664
1789223396515695900,1.02769580078125,-8.048773482003808,-5.503022831508517,1.050890058961883
1789223396525689900,1.03768994140625,-8.120942646157742,-5.396818711283803,1.046433152618259
1789223396535683800,1.047683837890625,-8.1472256729275,-5.36511833564043,1.0042939466774463
1789223396545677600,1.057677490234375,-8.113497006326913,-5.416828064611554,0.9997628791190684
1789223396555671800,1.067671875,-8.079699950665235,-5.463595076483488,1.018805506306514
1789223396565665800,1.077665771484375,-8.084780614930391,-5.452105714219808,1.0398355079188941
1789223396575659800,1.08765966796875,-8.09138512776196,-5.442435384076833,1.039116253733635
1789223396585653800,1.09765380859375,-8.069695858523248,-5.471639266729355,1.0543052742328494
1789223396595647700,1.107647705078125,-8.075302007967233,-5.465636226922273,1.042451024179533
1789223396605641700,1.117641845703125,-8.111945100709795,-5.423499797460437,0.9759029147777706
1789223396615636700,1.12763671875,-8.105531726536155,-5.447715954828262,0.8905808390621095
1789223396625631000,1.137630859375,-8.076158332535623,-5.49141831843257,0.8890315637934952
1789223396635624700,1.147624755859375,-8.061570419734716,-5.503351332810521,0.9458315285757184
1789223396645618700,1.15761865234375,-8.021379279121756,-5.544473032271862,1.0424379455022512
1789223396655612700,1.16761279296875,-7.989265646502375,-5.5722465898603195,1.1366983838245273
1789223396665606700,1.177606689453125,-8.062545402246712,-5.45758502241373,1.1749543185912072
1789223396675600600,1.1876005859375,-8.167481109970808,-5.323255462422966,1.0609393054198473
1789223396685595000,1.197594970703125,-8.200069374364613,-5.297770892554521,0.9289091084126383
1789223396695588900,1.2075888671875,-8.185631099167466,-5.329546671521664,0.8727863853048533
1789223396705582800,1.217582763671875,-8.15069188773334,-5.3794525659412145,0.8933579025600105
1789223396715576600,1.22757666015625,-8.074162774804234,-5.4778334451943635,0.9857056391287594
1789223396725571800,1.23757177734375,-8.0301558752954,-5.51066311712861,1.148723971856758
1789223396735565600,1.247565673828125,-8.057850522428751,-5.421700054562091,1.358895612360537
1789223396745559800,1.257559814453125,-8.091273484081029,-5.3418087717235085,1.4719908072732388
1789223396755553800,1.2675537109375,-8.14332398931384,-5.273152584126591,1.4319637711808084
1789223396765547800,1.2775478515625,-8.213750693714617,-5.203554731765389,1.275814155178517
1789223396775541800,1.287541748046875,-8.234473163747786,-5.208628381767869,1.11086733860597
1789223396785535700,1.29753564453125,-8.23338595303297,-5.201182157415151,1.153015604636073
1789223396795529700,1.30752978515625,-8.22350168787837,-5.1634898478806015,1.3721445316426455
1789223396805523700,1.317523681640625,-8.184958314472436,-5.168533102744817,1.5694282681964338
1789223396815517700,1.327517578125,-8.154393664860725,-5.208949284285307,1.5947119086652992
1789223396825512700,1.3375126953125,-8.125728711390495,-5.282774983474612,1.4950620323896406
1789223396835506700,1.347506591796875,-8.083976312810183,-5.358097058701515,1.4527610600158571
1789223396845500700,1.357500732421875,-8.040905232846736,-5.411587825870513,1.4929659368932247
1789223396855494700,1.36749462890625,-7.974010209703445,-5.486920422491431,1.5745643159106373
1789223396865488600,1.377488525390625,-7.928220518431067,-5.520023650670051,1.686132447386533
1789223396875483000,1.38748291015625,-7.972040955457091,-5.404322803303599,1.8466836593486367
1789223396885476900,1.397476806640625,-8.071874956128001,-5.223948115974665,1.930176619940996
1789223396895470800,1.407470947265625,-8.18239810859561,-5.057482127010822,1.9080415066309273
1789223396905464600,1.417464599609375,-8.244665471938251,-4.981256965464353,1.839281712529063
1789223396915458600,1.42745849609375,-8.237098836076258,-5.025712777784467,1.750086302511394
1789223396925452800,1.437452880859375,-8.180839773237706,-5.116951384067535,1.7495881437309084
1789223396935447800,1.44744775390625,-8.08395994619727,-5.210626277586817,1.9155546587400136
1789223396945441800,1.45744189453125,-7.998006002318859,-5.265291933754086,2.116360724201053
1789223396955435800,1.467435791015625,-7.945645700484514,-5.305581274044513,2.2108593551933766
1789223396965429800,1.4774296875,-7.914966484582424,-5.360910362556576,2.1873101373016834
1789223396975423700,1.487423828125,-7.943387692424655,-5.351980037125945,2.1045880149513483
1789223396985417700,1.497417724609375,-8.034632728448509,-5.249554850918054,2.0142600937724113
1789223396995411700,1.50741162109375,-8.14608351715505,-5.08691572676599,1.9836814156353473
1789223397005405700,1.51740576171875,-8.252972697034478,-4.906441086193919,1.9964120101317762
1789223397015399700,1.527399658203125,-8.280761452192067,-4.846943479825556,2.026453074260801
1789223397025393700,1.5373935546875,-8.195305520963668,-4.968569333326816,2.0786234064809976
1789223397035388700,1.547388671875,-8.092453633776307,-5.121690687549114,2.1097069654002785
1789223397045382700,1.557382568359375,-8.032033359605073,-5.240449168920517,2.048051888737082
1789223397055377000,1.567376953125,-7.9571222032666205,-5.357914687871933,2.036501882327348
1789223397065371000,1.577370849609375,-7.830259325894713,-5.501068774831294,2.1437496663860975
1789223397075364900,1.58736474609375,-7.768203559476136,-5.542641725191474,2.2593184118054808
1789223397085358800,1.59735888671875,-7.8582509101480245,-5.39232899864912,2.31107314896211
1789223397095352600,1.6073525390625,-7.984225898769497,-5.234010075783729,2.2422446735382078
1789223397105346600,1.6173466796875,-8.102026933285593,-5.0452498374253505,2.2523300142228604
1789223397115340800,1.6273408203125,-8.196538862150907,-4.873118662306666,2.289071452773362
1789223397125334800,1.637334716796875,-8.180075803127885,-4.935909757262468,2.2121327361300587
1789223397135328800,1.647328857421875,-8.100474443146586,-5.091195596042275,2.152306336198747
1789223397145323800,1.65732373046875,-8.0508935428977,-5.150410586076974,2.1969917194910344
1789223397155317800,1.66731787109375,-8.010335907059908,-5.21679473708868,2.1885952086761593
1789223397165311700,1.677311767578125,-7.993245071527362,-5.242036145851015,2.19077123754099
1789223397175305700,1.6873056640625,-7.97543761215806,-5.237928126010298,2.264264197644591
1789223397185300000,1.697300048828125,-7.9412337292611594,-5.244466003346443,2.367018323545903
1789223397195294000,1.7072939453125,-7.97226599638462,-5.203066071465611,2.354030247157067
1789223397205288000,1.717287841796875,-8.041933991372584,-5.156420055624842,2.215630368987471
1789223397215282000,1.727281982421875,-8.08908854125738,-5.113383462452888,2.1425084341533482
1789223397225276000,1.73727587890625,-8.095905820056796,-5.078265387320518,2.19952708318755
1789223397235270000,1.747269775390625,-8.073509279331564,-5.102704247528314,2.2251395172193646
1789223397245265000,1.757264892578125,-8.047807267320156,-5.1785260889709,2.141507148156315
1789223397255259000,1.7672587890625,-8.031421365186572,-5.257480383220314,2.006378400611877
1789223397265252900,1.7772529296875,-8.015978881382942,-5.300094367066025,1.9553686366036533
1789223397275246800,1.787246826171875,-8.019543295866251,-5.25485880254507,2.0600423323906956
1789223397285240800,1.79724072265625,-8.071084682533144,-5.150462608525157,2.1214890270002185
1789223397295234800,1.80723486328125,-8.084770678058266,-5.126377384060621,2.127703663731366
1789223397305229000,1.81722900390625,-8.051497354009747,-5.179993823435902,2.1240141615636645
1789223397315223000,1.82722314453125,-8.050457489567995,-5.230366750845313,2.0009462925605477
1789223397325216800,1.837216796875,-8.053859406965971,-5.294754175081849,1.8086774615593253
1789223397335210800,1.847210693359375,-8.035076380562781,-5.319361962115765,1.8199768542088568
1789223397345204700,1.857204833984375,-8.019727420261502,-5.296300820001959,1.9502716057255862
1789223397355199700,1.86719970703125,-8.021157160803675,-5.275584195187688,1.9999062819883227
1789223397365193700,1.87719384765625,-8.015245890933274,-5.289161469641328,1.9877114018037914
1789223397375188000,1.88718798828125,-7.990814044988155,-5.31711389092803,2.011363349417597
1789223397385182000,1.897181884765625,-7.993849467161297,-5.337021537446976,1.9454970848001538
1789223397395176000,1.907176025390625,-8.046805981323123,-5.3294502254098655,1.7367369915947317
1789223397405170000,1.917169921875,-8.115659737318754,-5.2593239652603865,1.6266409784980118
1789223397415164000,1.927163818359375,-8.118014191490412,-5.239121719709038,1.6792352352187037
1789223397425158000,1.937157958984375,-8.053961698296666,-5.288679823604226,1.8259115049548447
1789223397435152000,1.94715185546875,-8.018350286689401,-5.3125008441746235,1.9114860941268503
1789223397445145900,1.957145751953125,-8.015297328859567,-5.3449529149681325,1.8321756799161433
1789223397455140900,1.967140869140625,-8.001982504734396,-5.38179065349996,1.7818496603883802
1789223397465134800,1.977134765625,-7.984442756390571,-5.416211394017934,1.7560498870909214
1789223397475128800,1.98712890625,-7.97370158214569,-5.4514545568346975,1.694731641166657
1789223397485122800,1.997122802734375,-7.968001909199357,-5.460594141101837,1.6921100604914128
1789223397495117000,2.007116943359375,-7.976492089647055,-5.427384529939293,1.7576840641640126
1789223397505111000,2.017111083984375,-8.035804694837331,-5.34296144888997,1.7461346422761677
1789223397515104800,2.027104736328125,-8.138361982992292,-5.241897029641271,1.5684285896345973
1789223397525098800,2.0370986328125,-8.184924996724725,-5.237630019846558,1.3208422144286334
1789223397535092700,2.0470927734375,-8.133574748715757,-5.327638792073726,1.2773451641380786
1789223397545087000,2.0570869140625,-8.061043765512109,-5.4089831963300705,1.3902698247894645
1789223397555081700,2.067081787109375,-7.9971625372320405,-5.496798257905245,1.4145624083943664
1789223397565076000,2.077075927734375,-7.954104901272058,-5.568174225854873,1.3776923750281334
1789223397575070000,2.087070068359375,-7.940124891236424,-5.575612851423025,1.4273539392977952
1789223397585064000,2.09706396484375,-7.945833916532993,-5.564116474896669,1.440387023872137
1789223397595058000,2.107057861328125,-7.9370210800021885,-5.621290314492583,1.2550592441804707
1789223397605052000,2.117052001953125,-7.902388742560148,-5.718318025571108,1.0116674711201339
1789223397615046000,2.1270458984375,-7.927285283407569,-5.691939137211442,0.9645534724414349
1789223397625040000,2.137039794921875,-7.968284817793965,-5.622655757626891,1.030808297985047
1789223397635033900,2.147033935546875,-7.9784648510247465,-5.610938431826233,1.015804863185808
1789223397645027800,2.15702783203125,-8.05550074443221,-5.525920892015099,0.8622585615497081
1789223397655022800,2.16702294921875,-8.147415642541647,-5.42886512388587,0.5634059268238023
1789223397665016800,2.177016845703125,-8.140160556846856,-5.456551587712765,0.3663470485344529
1789223397675010800,2.1870107421875,-8.09472508583963,-5.521777800861001,0.39468160100653765
1789223397685005000,2.197005126953125,-8.074465557143093,-5.5434875283658505,0.49308944133184845
1789223397694999000,2.2069990234375,-8.015877174574136,-5.624152133664489,0.5338569570606574
1789223397704992800,2.21699267578125,-7.948405812847613,-5.71447187153697,0.5814090548956766
1789223397714986800,2.22698681640625,-7.977557088530063,-5.6727147967815394,0.5909926566032693
1789223397724980700,2.236980712890625,-8.056150732773542,-5.577732912316918,0.3971280808432027
1789223397734975000,2.24697509765625,-8.101422537651658,-5.524460171812772,0.13296170570366084
1789223397744969000,2.256968994140625,-8.10535169379413,-5.520291946217418,-0.005927804305026075
1789223397754964000,2.2669638671875,-8.083392959964275,-5.552054865702987,-0.061863568314723665
1789223397764958000,2.2769580078125,-8.069046454703807,-5.573212220022082,-0.013807286100520287
1789223397774952000,2.286951904296875,-8.06799723791182,-5.572728235897421,0.1499887096192222
1789223397784946000,2.29694580078125,-8.105204978799819,-5.515253952050209,0.24086397161576895
1789223397794940000,2.30693994140625,-8.133759457632898,-5.475223554956913,0.18510049200812353
1789223397804934000,2.316933837890625,-8.042107009851932,-5.6120309032380575,0.0029971157251813562
1789223397814928000,2.326927978515625,-7.854588880509137,-5.869390630570054,-0.1614579332771711
1789223397824921900,2.336921875,-7.779634469550848,-5.970289045602083,-0.0576634132111445
1789223397834915800,2.346915771484375,-7.847713149520755,-5.880211884313821,0.08299769702185876
1789223397844909800,2.356909912109375,-7.978012431082129,-5.702226722469925,0.07943028686386533
1789223397854904800,2.36690478515625,-8.100849121677875,-5.526597183841466,0.05795770628286991
1789223397864898800,2.37689892578125,-8.164023078471422,-5.433139732465148,0.010607439746439922
1789223397874893000,2.38689306640625,-8.18174402860105,-5.402480974829197,-0.20649505261657758
1789223397884887000,2.396886962890625,-8.14198368062079,-5.449980977150798,-0.4197572612805292
1789223397894880800,2.406880859375,-8.04757579665184,-5.588318603739142,-0.4214338161906227
1789223397904874800,2.416874755859375,-7.966180538991093,-5.71277325092554,-0.2730868550295941
1789223397914868700,2.42686865234375,-7.969581871867179,-5.712868527993559,-0.1388603718208149
1789223397924863000,2.436863037109375,-8.055811125555634,-5.591258164322376,-0.11006778251607902
1789223397934857000,2.44685693359375,-8.110617651498318,-5.511234779536724,-0.12066125538595951
1789223397944851000,2.456850830078125,-8.089751973602175,-5.539971044677496,-0.18712111111553384
1789223397954846000,2.466845947265625,-8.096196327435969,-5.527230221047997,-0.2678061198813841
1789223397964840000,2.47683984375,-8.12972917920351,-5.47996578104794,-0.2187766064375639
1789223397974834000,2.486833984375,-8.121414939844607,-5.491011491197347,-0.248599808298517
1789223397984828000,2.496827880859375,-8.08569656073153,-5.541963095277548,-0.2802520887501538
1789223397994822000,2.50682177734375,-8.010713508200645,-5.648773364701867,-0.3003488463667221
1789223398004816000,2.51681591796875,-7.978744252488017,-5.694120572903752,-0.2949882874479517
1789223398014809900,2.526809814453125,-8.056661020383238,-5.584959356439113,-0.26236272325105964
1789223398024803800,2.536803955078125,-8.150245897531509,-5.446306672552228,-0.28570500212749467
1789223398034797800,2.5467978515625,-8.22521784414649,-5.332110969051718,-0.2911628291419707
1789223398044792000,2.5567919921875,-8.236938092556596,-5.315729743093252,-0.25740225129947064
1789223398054786800,2.566786865234375,-8.201012792694568,-5.3684501104116435,-0.3057980151507072
1789223398064781000,2.576781005859375,-8.121227892839908,-5.478079528909921,-0.45463506138361987
1789223398074775000,2.586775146484375,-7.988709181663394,-5.663931186345219,-0.5203751423381269
1789223398084768800,2.596768798828125,-7.837567018559574,-5.868845271646976,-0.5473378584677353
1789223398094762800,2.6067626953125,-7.763060351368784,-5.9629907052874564,-0.5899309456558898
1789223398104756700,2.6167568359375,-7.806137861073017,-5.916168748357892,-0.4832643955511972
1789223398114751000,2.6267509765625,-7.918063866075873,-5.779463106885552,-0.26917771876184265
1789223398124745000,2.636744873046875,-8.059750803092122,-5.584596368345618,-0.1519299250811804
1789223398134739000,2.646739013671875,-8.17872380399704,-5.408210458391904,-0.17354060352519154
1789223398144733000,2.65673291015625,-8.226967318162322,-5.327019198870659,-0.3320572409197688
1789223398154731300,2.666731201171875,-8.2383093809098,-5.3005052859544755,-0.45308812420256434
1789223398164725200,2.676725341796875,-8.22672591062188,-5.31190930802226,-0.5243917575683444
1789223398174719200,2.68671923828125,-8.139535702946782,-5.440476066702604,-0.5653073399983346
1789223398184713500,2.69671337890625,-8.02847888199389,-5.605744370314478,-0.5380932063909247
1789223398194707200,2.706707275390625,-7.9668919021308415,-5.702182298806309,-0.42910902699362485
1789223398204701200,2.716701171875,-7.978139272332191,-5.69518732535243,-0.29073499565133826
1789223398214695200,2.726695068359375,-8.043468361333012,-5.605510561558604,-0.22638315418483687
1789223398224689200,2.736689208984375,-8.112585736700892,-5.5048669980704785,-0.22972513982281087
1789223398234683400,2.746683349609375,-8.147434931764007,-5.450645578539371,-0.28311027292655777
1789223398244677400,2.756677490234375,-8.13047444461286,-5.467289839348196,-0.4177458118602633
1789223398254672400,2.76667236328125,-8.14757638606131,-5.436990562674403,-0.47593467371761794
1789223398264666400,2.776666259765625,-8.15509450660646,-5.425533933636546,-0.4779110883571207
1789223398274660400,2.786660400390625,-8.102269509869814,-5.505122434136271,-0.4660924576064571
1789223398284654000,2.796654052734375,-8.04522660317719,-5.590954212939739,-0.4312162649385631
1789223398294648000,2.80664794921875,-7.994150495934486,-5.668768104982376,-0.3591865092553198
1789223398304642300,2.816642333984375,-7.9689178550004955,-5.708775705721974,-0.27680099844820794
1789223398314636300,2.82663623046875,-8.035482038754225,-5.616942056155205,-0.2266630853710696
1789223398324630300,2.83663037109375,-8.145997007915376,-5.454374243673682,-0.25084207079997284
1789223398334624300,2.846624267578125,-8.220713518464565,-5.334393527030945,-0.3667459116589278
1789223398344619300,2.856619384765625,-8.236523666536808,-5.300605239197611,-0.4833782677218318
1789223398354613200,2.86661328125,-8.189705801260471,-5.369101267796754,-0.5213994804171845
1789223398364607200,2.876607177734375,-8.09177792647183,-5.5219742002159355,-0.4486781257405877
1789223398374601500,2.8866015625,-7.991502611774206,-5.6762879790931935,-0.29328636063458396
1789223398384595200,2.89659521484375,-7.9155983527451745,-5.7860202734440564,-0.18882143049370495
1789223398394589200,2.906589111328125,-7.88020905945599,-5.833152026975155,-0.21686233378145842
1789223398404583200,2.916583251953125,-7.922199942967295,-5.77420883961916,-0.2600835262726992
1789223398414577200,2.9265771484375,-8.058180777296423,-5.5851972568482156,-0.20414664459321646
1789223398424571400,2.9365712890625,-8.199085039502382,-5.3736915181964635,-0.262360768755991
1789223398434565400,2.9465654296875,-8.26126647812724,-5.272655740520357,-0.347806890976429
1789223398444560400,2.956560302734375,-8.250996428525447,-5.2885529823541635,-0.3502207471851259
1789223398454554400,2.966554443359375,-8.190269864884018,-5.3792450606703754,-0.3919056334871798
1789223398464548400,2.97654833984375,-8.092295228344202,-5.518972680312395,-0.4754855051780119
1789223398474542000,2.9865419921875,-8.029580121234059,-5.615934924939275,-0.3968638404164463
1789223398484536000,2.9965361328125,-7.961052528452873,-5.722436566805839,-0.2138937297668308
1789223398494530300,3.0065302734375,-7.854674805226922,-5.870403022482991,-0.11330723936134017
1789223398504524300,3.016524169921875,-7.784633885273337,-5.962341885989904,-0.1425942611195147
1789223398514518300,3.026518310546875,-7.85432292304933,-5.870625140801072,-0.12549409150304272
1789223398524512300,3.03651220703125,-8.005061181527376,-5.6638452616274355,-0.10117862021289765
1789223398534507300,3.04650732421875,-8.10697491108179,-5.512597300061583,-0.2421013861899264
1789223398544501200,3.056501220703125,-8.159287866643071,-5.428202276062965,-0.36197285203821955
1789223398554495200,3.0664951171875,-8.153794529923797,-5.436944385445118,-0.3544847978377715
1789223398564489500,3.076489501953125,-8.134159855127335,-5.474616236713528,-0.18548925386369228
1789223398574483200,3.086483154296875,-8.132367126491665,-5.480373192805051,-0.022241962084872648
1789223398584477200,3.096477294921875,-8.140729296645521,-5.467950933605432,-0.020576638671557883
1789223398594471200,3.10647119140625,-8.08728178409636,-5.546619396650791,-0.03563143148198723
1789223398604465200,3.116465087890625,-7.968419842350483,-5.716061186555027,-0.03628425566779915
1789223398614459400,3.12645947265625,-7.898557201573253,-5.812327265611291,0.005285577432575519
1789223398624453400,3.136453369140625,-7.936786102202534,-5.758694459623098,0.1235024062291719
1789223398634448400,3.146448486328125,-8.000042476582527,-5.669791018289327,0.1522395481527783
1789223398644442400,3.1564423828125,-8.023691647717357,-5.636598942783475,0.13966169653264804
1789223398654436400,3.166436279296875,-8.006599058619141,-5.661849703896046,0.09061739651164971
1789223398664430000,3.17643017578125,-8.00074624093771,-5.670637990507483,0.048055453380430116
1789223398674424000,3.186424072265625,-8.047327959370612,-5.602371679010987,0.15598542015021666
1789223398684418300,3.196418212890625,-8.148439724892377,-5.449325143590569,0.27959294898798687
1789223398694412300,3.206412353515625,-8.212633087861537,-5.350916207286716,0.301230122713279
1789223398704406300,3.21640625,-8.167507413455844,-5.415747283637523,0.3631661169433966
1789223398714400300,3.226400146484375,-8.037569950944185,-5.603297561684251,0.41341183777656404
1789223398724395300,3.236395263671875,-7.93850927273333,-5.744950596430898,0.382100132657215
1789223398734389200,3.24638916015625,-7.961378691667318,-5.715490693190693,0.34640652265921235
1789223398744383200,3.25638330078125,-8.023080237820745,-5.62821397627592,0.35182102198861537
1789223398754377500,3.26637744140625,-8.06549723778963,-5.568201113861799,0.3365731109090149
1789223398764371200,3.27637109375,-8.083767638495564,-5.541950820317864,0.3314630744189024
1789223398774365200,3.286365234375,-8.085837430506944,-5.535556150844693,0.3837198062809184
1789223398784359200,3.296359130859375,-8.091859175014495,-5.519338591015338,0.47864042554497715
1789223398794353200,3.306353271484375,-8.150656231898068,-5.421992900028824,0.5823976275416091
1789223398804347400,3.316347412109375,-8.209972344219684,-5.332881368902325,0.5719424671638756
1789223398814341400,3.32634130859375,-8.219104329702258,-5.316656794810295,0.5914924593515694
1789223398824336400,3.33633642578125,-8.152471172365546,-5.409662995287776,0.6656857497442513
1789223398834330400,3.346330322265625,-8.052451878255605,-5.554646051239967,0.6887004954330622
1789223398844324400,3.356324462890625,-8.01357708093822,-5.608924753916264,0.7020924764476716
1789223398854318000,3.366318115234375,-8.01454388014376,-5.586659146094322,0.8524730075292288
1789223398864312000,3.37631201171875,-8.006995364460348,-5.575448016250133,0.9863018514562397
1789223398874306300,3.386306396484375,-8.001684983092545,-5.573932935512065,1.036676094039902
1789223398884300300,3.39630029296875,-7.9981112162590025,-5.590553230923414,0.9727899703890085
1789223398894294300,3.406294189453125,-7.998415752163529,-5.608565857475996,0.8600708422470837
1789223398904288300,3.416288330078125,-8.05464091273248,-5.518791478526592,0.9143749716255813
1789223398914283300,3.426283203125,-8.12219527656734,-5.411994068583846,0.9542754587288945
1789223398924277200,3.43627734375,-8.124558498567342,-5.41194906039834,0.9342072148207574
1789223398934271200,3.446271240234375,-8.11249630485177,-5.42677662717402,0.9528260636381805
1789223398944265500,3.456265380859375,-8.128188379502296,-5.391222498711944,1.0186556495070458
1789223398954259200,3.46625927734375,-8.147846435174346,-5.3522775587677955,1.0658853835199027
1789223398964253200,3.476253173828125,-8.180069957908987,-5.295104303693771,1.103952883042395
1789223398974247200,3.4862470703125,-8.181895419770479,-5.287009260043502,1.1289384904127566
1789223398984241200,3.4962412109375,-8.118859410142898,-5.384202975338697,1.1246627127896993
1789223398994235400,3.5062353515625,-8.058587604531645,-5.47455661548078,1.121953088504821
1789223399004230100,3.516230224609375,-8.06132024436593,-5.460901599615812,1.167928146281466
1789223399014224400,3.526224365234375,-8.105282135689258,-5.396589578703045,1.1625862737968564
1789223399024218400,3.53621826171875,-8.149146996378898,-5.33027966197133,1.1618533564124256
1789223399034212400,3.54621240234375,-8.17583275873065,-5.270957704430819,1.2422357107035815
1789223399044206000,3.5562060546875,-8.15828015090525,-5.280604069176316,1.3145607960715888
1789223399054200000,3.566199951171875,-8.121986602252722,-5.343406270048022,1.2851990925088523
1789223399064194300,3.5761943359375,-8.109408860230445,-5.374430353865027,1.2342480729505418
1789223399074188300,3.586188232421875,-8.07514126444757,-5.422513709032535,1.248529988542199
1789223399084182300,3.596182373046875,-8.019760153487324,-5.490052290776371,1.3088769052162765
1789223399094177300,3.60617724609375,-7.963927791628241,-5.567074155658483,1.3243582597255705
1789223399104171300,3.616171142578125,-7.910943220415711,-5.6463230489403005,1.3062925878114997
1789223399114165200,3.626165283203125,-7.924524002000689,-5.631177502256632,1.2892419381588696
1789223399124159200,3.6361591796875,-8.002809018686413,-5.53720274900794,1.2102963386725634
1789223399134153500,3.646153564453125,-8.078577668637037,-5.43763002962172,1.157215321348235
1789223399144147200,3.656147216796875,-8.10016581558883,-5.387714198330045,1.2370263054922221
1789223399154141200,3.66614111328125,-8.069032426178454,-5.404444968378543,1.3612746164515614
1789223399164132400,3.67613232421875,-8.060719355863332,-5.429076720809936,1.3116107140943407
1789223399174126300,3.686126220703125,-8.093859993442893,-5.404658903390168,1.2039395900569856
1789223399184120000,3.6961201171875,-8.092608532077074,-5.409100685229897,1.19235451233387
1789223399194115300,3.706115234375,-8.066671542266011,-5.443080696243047,1.2132910635091363
1789223399204109300,3.716109375,-8.050835090708732,-5.474139266851544,1.1782375780455767
1789223399214103300,3.726103271484375,-8.00311472363472,-5.543848178371786,1.1774057303313166
1789223399224097300,3.73609716796875,-7.961451172381639,-5.579859987473488,1.284851301984489
1789223399234091300,3.74609130859375,-7.977778622326254,-5.540840813249349,1.3507451852612196
1789223399244085200,3.756085205078125,-8.027330881002545,-5.499242143926024,1.2209330296296625
1789223399254079200,3.766079345703125,-8.10665751569569,-5.407201573610306,1.1021148539602756
1789223399264073500,3.776073486328125,-8.134825625559687,-5.372153056582809,1.065351349708438
1789223399274067500,3.7860673828125,-8.070543999785185,-5.476345836985111,1.0229087038416416
1789223399284062500,3.7960625,-7.940032536777854,-5.672134366545081,0.9762981977056712
1789223399294056200,3.80605615234375,-7.80937611234188,-5.847454693093896,0.995641707535833
1789223399304050200,3.81605029296875,-7.7600927337348455,-5.886604800221324,1.1398373394373804
1789223399314044200,3.826044189453125,-7.821062458482384,-5.793273605573177,1.1997291327551007
1789223399324038100,3.8360380859375,-7.893312286657094,-5.70710514216125,1.1379588322144
1789223399334032400,3.846032470703125,-7.960336489138006,-5.6347793261408805,1.026003381921351
1789223399344026400,3.8560263671875,-8.059010213857889,-5.507509037011862,0.9434430260039866
1789223399354020400,3.866020263671875,-8.127043885642289,-5.418574031496048,0.8721213455248623
1789223399364014300,3.876014404296875,-8.13661309349835,-5.399764117085933,0.8991459113769232
1789223399374009300,3.88600927734375,-8.11454856120646,-5.413436668607592,1.0095515749447048
1789223399384003300,3.89600341796875,-8.080597191765904,-5.4516404347956176,1.0742226384282112
1789223399393997300,3.905997314453125,-8.048626182487606,-5.502209177038073,1.056267733412236
1789223399403991300,3.9159912109375,-8.044003198862075,-5.507392717155814,1.0644389841038733
1789223399413985300,3.9259853515625,-8.01859286327362,-5.538872728046774,1.0924461312524973
1789223399423979300,3.935979248046875,-7.976808315989374,-5.59173571870625,1.1284528257876634
1789223399433973200,3.94597314453125,-7.9823665346384045,-5.58522589842081,1.1213650594837963
1789223399443967200,3.95596728515625,-8.028015356135368,-5.535816263085604,1.0373496093872934
1789223399453961500,3.96596142578125,-8.072820128023624,-5.4898038689732545,0.9284479206416756
1789223399463956500,3.97595654296875,-8.09664114859402,-5.470652009257674,0.8287075165383517
1789223399473950500,3.985950439453125,-8.120126653599739,-5.437094023048878,0.8197188119839877
1789223399483944200,3.995944091796875,-8.131727075022459,-5.3984787534505125,0.9496455339059233
1789223399493938200,4.005938232421875,-8.125957259449363,-5.366000379171967,1.1598462543737142
1789223399503932200,4.01593212890625,-8.12540313269794,-5.338818357735872,1.2826650439865885
1789223399513926100,4.025926025390625,-8.127302244317532,-5.353229744926095,1.208417758384347
1789223399523920400,4.03592041015625,-8.128306452924013,-5.384768208006024,1.0513261853568254
1789223399533914400,4.045914306640625,-8.107761093023418,-5.438305736926198,0.9270474061939865
1789223399543908400,4.055908447265625,-8.008284235227107,-5.589047502535581,0.8946043224245309
1789223399553903400,4.0659033203125,-7.8692264776706695,-5.776122564285993,0.9391843456462025
1789223399563897300,4.0758974609375,-7.76293877081573,-5.902243098857999,1.0347450529120863
1789223399573891300,4.085891357421875,-7.763674683874845,-5.856199725085497,1.2651730803072452
1789223399583885300,4.09588525390625,-7.90786746623218,-5.631207312873006,1.3876342155888677
1789223399593879300,4.10587939453125,-8.08877406848073,-5.40678364045918,1.228336656949669
1789223399603873300,4.115873291015625,-8.207343749281764,-5.262031470653414,1.0587331006124614
1789223399613867300,4.1258671875,-8.241037929090856,-5.235481317380071,0.9194645498495548
1789223399623861200,4.135861328125,-8.213552540794014,-5.281014403542876,0.9048928575310855
1789223399633855200,4.145855224609375,-8.138909680002927,-5.360864769849181,1.0907177000246941
1789223399643850200,4.155850341796875,-8.094635653990506,-5.41405626181066,1.1555335788063705
1789223399653844500,4.165844482421875,-8.004582458099723,-5.549143362170457,1.1419498015467078
1789223399663838500,4.17583837890625,-7.881817663696408,-5.733348421442509,1.0844588588256387
1789223399673832200,4.185832275390625,-7.831653995123506,-5.805462640538812,1.0640408516317605
1789223399683826200,4.195826171875,-7.859561992746591,-5.762137878075242,1.0933610541403294
1789223399693820200,4.205820068359375,-7.918124656352401,-5.677789615827798,1.1119329220108687
1789223399703814100,4.215814208984375,-7.997635415440797,-5.566235366746783,1.106903914867714
1789223399713808400,4.225808349609375,-8.0783304158777,-5.470339874568581,0.993150182981044
1789223399723803400,4.235803466796875,-8.10734783604741,-5.463025167641043,0.7724342059787362
1789223399733797400,4.24579736328125,-8.131946270731092,-5.442863254100084,0.645810471124947
1789223399743791400,4.255791259765625,-8.162340239951014,-5.399692220893502,0.6244274913564324
1789223399753785300,4.265785400390625,-8.097399273484944,-5.494952337777614,0.6387503234803676
1789223399763779300,4.275779296875,-7.9287413274347776,-5.718572292593121,0.7767712853349745
1789223399773773300,4.285773193359375,-7.767567015138268,-5.908434939235448,0.9621256607726216
1789223399783767300,4.295767333984375,-7.703270191794633,-5.972530687049031,1.0765178366933017
1789223399793761300,4.30576123046875,-7.728859391081333,-5.960358018696308,0.9535471444543451
1789223399803755300,4.31575537109375,-7.801780250385403,-5.885978192755579,0.8110930955231189
1789223399813750300,4.325750244140625,-7.893852969405055,-5.7780690221786495,0.6865818958438933
1789223399823744300,4.335744140625,-7.979467890587449,-5.67551231854558,0.5357519770270213
1789223399833738200,4.34573828125,-8.04544930601716,-5.588685098963976,0.455776705699414
1789223399843732500,4.355732421875,-8.0915359344095,-5.514291829019784,0.5385323649931699
1789223399853726500,4.3657265625,-8.066593800854683,-5.534600457555055,0.6845818080678582
1789223399863720200,4.37572021484375,-7.995714091989398,-5.626216664978862,0.7646076770715415
1789223399873714200,4.385714111328125,-8.00354200913608,-5.61670707835555,0.7525297012649476
1789223399883708200,4.395708251953125,-8.038236890420317,-5.574661249786615,0.6930251536991446
1789223399893702100,4.4057021484375,-8.01462162155509,-5.61540184097588,0.6352111165035516
1789223399903697200,4.415697265625,-7.909912708324193,-5.766749755784869,0.5901384509267286
1789223399913691400,4.42569140625,-7.764158083477616,-5.96591097664833,0.5441910118093713
1789223399923685400,4.435685302734375,-7.689133529892564,-6.057086454567313,0.5994273805366829
1789223399933679400,4.445679443359375,-7.707418543645739,-6.001489655029773,0.8649820682294667
1789223399943673300,4.45567333984375,-7.796410247784853,-5.858473515236377,1.031819520854205
1789223399953667300,4.465667236328125,-7.962633075642585,-5.631822229900956,1.024419254535064
1789223399963661300,4.475661376953125,-8.114873555377125,-5.436933864051103,0.8711881563279777
1789223399973655300,4.4856552734375,-8.214270918196439,-5.316452212148905,0.6568668487988412
1789223399983650300,4.495650390625,-8.283139871761202,-5.215429293954372,0.5994016615735367
1789223399993644300,4.505644287109375,-8.276163018485903,-5.22414276176393,0.6195422765981405
1789223400003638300,4.51563818359375,-8.183196565496921,-5.348644170701504,0.7730990265630185
1789223400013632300,4.52563232421875,-8.044822114029527,-5.510710463401675,1.0408126823879778
1789223400023626200,4.535626220703125,-7.923632606118917,-5.641778391247987,1.2477053742863238
1789223400033620500,4.545620361328125,-7.853695731061697,-5.722231984144449,1.3213272214666008
1789223400043614500,4.555614501953125,-7.825939124608039,-5.754077321216464,1.3474622180677949
1789223400053608200,4.565608154296875,-7.83311763793528,-5.741818728145956,1.3580034858264027
1789223400063602200,4.575602294921875,-7.883298842164874,-5.691201470586657,1.2783654470965264
1789223400073597200,4.58559716796875,-7.994051711735129,-5.578860455042124,1.068565489449352
1789223400083591200,4.595591064453125,-8.169682419407367,-5.354802693331242,0.8676152662772685
1789223400093585200,4.605585205078125,-8.337745322173834,-5.109802096834779,0.7364164785929024
1789223400103579400,4.615579345703125,-8.407524960842728,-4.998433725714683,0.7068016039866953
1789223400113573400,4.625573486328125,-8.366165360972285,-5.05019372356832,0.8204870929427445
1789223400123567400,4.6355673828125,-8.261934586647152,-5.194785149854422,0.9617856151632964
1789223400133561300,4.645561279296875,-8.132581061503291,-5.375854833710194,1.063810184681043
1789223400143555300,4.655555419921875,-7.991424870362877,-5.5594601735234255,1.1831810257971287
1789223400153550300,4.66555029296875,-7.858298840942979,-5.722026232439279,1.294580961099267
1789223400163543800,4.675543701171875,-7.75562581745386,-5.854822591513395,1.3197342531867324
1789223400173537800,4.685537841796875,-7.69003486264646,-5.950478429716825,1.2749737588316201
1789223400183531800,4.69553173828125,-7.72617935821712,-5.911022033119202,1.2394975179113448
1789223400193525800,4.70552587890625,-7.866938074472546,-5.72519551012516,1.2262975523374975
1789223400203519700,4.715519775390625,-8.029825620427728,-5.509373661839962,1.1571915751464665
1789223400213513700,4.725513671875,-8.191006362465023,-5.289569465920329,1.0479749752327798
1789223400223508000,4.735508056640625,-8.3176839463979,-5.103780936849117,0.9684696229718625
1789223400233502000,4.745501953125,-8.368198912626504,-5.024482359206676,0.9477376544579863
1789223400243497000,4.7554970703125,-8.32022194044292,-5.092915259441733,1.0032507212348283
1789223400253490700,4.76549072265625,-8.177507413944602,-5.286406617975235,1.1630431507188825
1789223400263484700,4.775484619140625,-7.990491973426938,-5.507680301925539,1.4099207200683652
1789223400273478700,4.785478759765625,-7.832814855596423,-5.6825277502655975,1.5894269539996981
1789223400283473000,4.795472900390625,-7.7625886422038075,-5.7708180281370876,1.6156299012705684
1789223400293467000,4.805466796875,-7.776441226467489,-5.776777228802442,1.5251849295832216
1789223400303460900,4.8154609375,-7.8170415324032305,-5.756793594437838,1.3869305973641572
1789223400313454800,4.825454833984375,-7.880803518217801,-5.696292656245827,1.271051178560406
1789223400323449900,4.835449951171875,-7.988336256697774,-5.547126177129149,1.2594662469677627
1789223400333443800,4.84544384765625,-8.10220287437439,-5.355413518705964,1.3580290586590766
1789223400343437800,4.855437744140625,-8.182908980727195,-5.201286202311516,1.4686751068539916
1789223400353431800,4.865431884765625,-8.223339190793038,-5.126949046468734,1.5038174396447836
1789223400363425800,4.87542578125,-8.20473970426321,-5.166037194275856,1.4712886503532527
1789223400373419800,4.885419677734375,-8.1307725507766,-5.2777428345263,1.4853781121127307
1789223400383413800,4.895413818359375,-8.006151899373531,-5.431019087049365,1.604975528526306
1789223400393407700,4.90540771484375,-7.858869918829202,-5.5927416808784,1.7691187736310063
1789223400403401700,4.915401611328125,-7.733280714654922,-5.715984614187478,1.9220485508039593
1789223400413396700,4.925396728515625,-7.67311821463704,-5.754636124143004,2.0439695878595114
1789223400423391000,4.935390869140625,-7.734394228854775,-5.660668969678879,2.0751769192889333
1789223400433385000,4.945385009765625,-7.884048783749342,-5.49544508973062,1.9524967344291506
1789223400443378700,4.955378662109375,-8.027364783272146,-5.351041879492998,1.76015556884408
1789223400453372700,4.96537255859375,-8.095445801329612,-5.28311459069252,1.6501033948890864
1789223400463366700,4.97536669921875,-8.101653423798084,-5.246939115461707,1.7329824613668023
1789223400473361000,4.98536083984375,-8.089447437697649,-5.143731838965416,2.0671844592303037
1789223400483355000,4.99535498046875,-8.138688146206736,-5.015503518459201,2.1856030411228535
1789223400493350000,5.005349853515625,-8.23573456198573,-4.85618535542339,2.1818625394202766
1789223400503343900,5.01534375,-8.22398450295925,-4.871584000085294,2.1918333138145507
1789223400513337900,5.025337890625,-8.095642785206437,-5.068441327920556,2.2230299777194857
1789223400523331800,5.035331787109375,-7.970701231285929,-5.21371664481759,2.335691749650985
1789223400533325800,5.045325927734375,-7.827367696106434,-5.371577302521467,2.459441025047004
1789223400543319800,5.05531982421875,-7.674567828923464,-5.5276499077647925,2.5916169141352174
1789223400553313800,5.065313720703125,-7.629370842847227,-5.573662301877141,2.6262851996734735
1789223400563307800,5.075307861328125,-7.6665265612870455,-5.564968707811832,2.5349320271000266
1789223400573302800,5.085302734375,-7.743124063277244,-5.510374363315105,2.4187141701221466
1789223400583296800,5.095296875,-7.897919488191604,-5.3312049601227045,2.3176515044391155
1789223400593290800,5.105290771484375,-8.061439486831427,-5.103455358156562,2.266785678946227
1789223400603284700,5.11528466796875,-8.139785878315568,-4.96785446305573,2.287946102005243
1789223400613279000,5.125279052734375,-8.155122563657164,-4.891629886031151,2.3950610534645618
1789223400623273000,5.13527294921875,-8.11382141597569,-4.899131055441498,2.5169027416735887
1789223400633266700,5.1452666015625,-8.017606774845719,-5.024684603780508,2.576997729413211
1789223400643260700,5.1552607421875,-7.9352803738147015,-5.141028425225615,2.602216634082794
1789223400653254700,5.165254638671875,-7.9105200265675775,-5.171517671513557,2.617148538015783
1789223400663249700,5.175249755859375,-7.902824211367964,-5.173677479895949,2.6360601592347024
1789223400673243600,5.18524365234375,-7.913714438694715,-5.148265390741825,2.6530855283156036
1789223400683238000,5.19523779296875,-7.937039200180768,-5.101468568253517,2.6737255807623264
1789223400693231900,5.20523193359375,-7.945872494977712,-5.056109085091948,2.732995223593712
1789223400703225900,5.215225830078125,-7.97357123376429,-4.996410695454478,2.761960329054296
1789223400713219800,5.2252197265625,-8.006578015831112,-4.947108027625084,2.7552149464473126
1789223400723213800,5.2352138671875,-7.979808666849136,-4.930201316487789,2.8611455104276535
1789223400733207800,5.245207763671875,-7.929261551916599,-4.966255795687437,2.9382825261220336
1789223400743202600,5.25520263671875,-7.935887692058086,-4.987180510294437,2.884457704693079
1789223400753196800,5.26519677734375,-7.9973700425028795,-4.8928959604442115,2.8761130701959132
1789223400763190800,5.275190673828125,-8.004482504856586,-4.859876026634872,2.9120860085919498
1789223400773184800,5.285184814453125,-7.92924167817235,-4.925447399958968,3.006240210060775
1789223400783178800,5.2951787109375,-7.87888570189774,-4.966707631108164,3.0700767224162817
1789223400793172700,5.3051728515625,-7.8365441052526235,-5.043552385857701,3.053121203701198
1789223400803167000,5.3151669921875,-7.797036270728706,-5.119693960773945,3.027431758910417
1789223400813161000,5.325160888671875,-7.84982794971764,-5.055847803807258,2.9981641633719205
1789223400823156000,5.335156005859375,-7.937020495480298,-4.949876907816529,2.9449633190602063
1789223400833150000,5.34514990234375,-7.961675044265389,-4.89921990276873,2.963066254244745
1789223400843143700,5.355143798828125,-7.944220051595568,-4.8128141234695905,3.1458819049850106
1789223400853137700,5.3651376953125,-7.948368403446674,-4.655137005639076,3.3650445881307123
1789223400863131600,5.375131591796875,-8.011558142331243,-4.545079132595658,3.36564547663331
1789223400873126000,5.3851259765625,-8.063046337506174,-4.55288103851825,3.2293867021456357
1789223400883119900,5.395119873046875,-8.07433813137114,-4.643737075224519,3.0677599699065086
1789223400893113900,5.40511376953125,-8.03586490059197,-4.7240506751284,3.0460812220618125
1789223400903108900,5.41510888671875,-7.938120565676689,-4.765282556965947,3.2324463819772005
1789223400913102800,5.425102783203125,-7.805397856360673,-4.809324527788162,3.480882798141241
1789223400923096800,5.435096923828125,-7.702406852963566,-4.8842187329918145,3.6038483758136626
1789223400933090600,5.445090576171875,-7.704415270176529,-4.923998370194435,3.544941721075773
1789223400943084800,5.455084716796875,-7.8111010364383455,-4.877294194425642,3.3718066296115516
1789223400953078800,5.465078857421875,-7.945849698624015,-4.75993388941437,3.221318254241347
1789223400963072800,5.47507275390625,-8.081324921518563,-4.590532139259577,3.1288314014628527
1789223400973067800,5.48506787109375,-8.16391377287805,-4.473602626881003,3.0834687034308907
1789223400983061800,5.495061767578125,-8.139998059761524,-4.475355900289118,3.1435654447361827
1789223400993055700,5.5050556640625,-8.077828896096348,-4.519451354864239,3.2393869948953387
1789223401003049700,5.5150498046875,-8.031410259270668,-4.572822587306797,3.2796526620492337
1789223401013044000,5.5250439453125,-7.970036629897356,-4.614630223205685,3.3695831083431838
1789223401023038000,5.535037841796875,-7.891541185331344,-4.632657755066454,3.525966971492767
1789223401033031700,5.54503173828125,-7.841302113434672,-4.6359302008658645,3.6321506334513423
1789223401043025700,5.555025634765625,-7.8615376767337315,-4.630059555266797,3.5957135846748947
1789223401053019600,5.56501953125,-7.927285283407569,-4.619131041756272,3.462970709353685
1789223401063014700,5.5750146484375,-7.99990628298223,-4.633371456293761,3.2716578639030454
1789223401073009000,5.5850087890625,-8.058155058333277,-4.628330539517104,3.132902888685465
1789223401083003000,5.5950029296875,-8.069996887296437,-4.552210299649834,3.2129283192977307
1789223401092996900,5.604996826171875,-8.033501678591966,-4.4903369040608405,3.386755776940286
1789223401102990800,5.614990966796875,-7.961655755043029,-4.468319425781071,3.5800194641977545
1789223401112984800,5.62498486328125,-7.909051707580685,-4.485176160296797,3.6742993378728626
1789223401122978600,5.634978515625,-7.930131320488452,-4.544250280556082,3.5543197902739045
1789223401132973800,5.644973876953125,-8.004433989539741,-4.5786648835942145,3.3369518815904855
1789223401142967800,5.6549677734375,-8.047246710827947,-4.564048329220712,3.252947025953233
1789223401152961800,5.6649619140625,-8.028753607282042,-4.571986136482656,3.287315744023025
1789223401162956300,5.674956298828125,-7.966557555609941,-4.624769339904189,3.3639036014020443
1789223401172950300,5.6849501953125,-7.943061529210209,-4.693853689785302,3.3235368119612336
1789223401182944300,5.6949443359375,-7.987441353684663,-4.727570373687148,3.1656343609422444
1789223401192938200,5.704938232421875,-8.040664409828185,-4.658410328221321,3.133258570255339
1789223401202932500,5.714932373046875,-8.06562992425859,-4.576275065848231,3.189624308338761
1789223401212927200,5.72492724609375,-8.03675805003941,-4.554620575661957,3.291860401715338
1789223401222921500,5.73492138671875,-8.018867004039883,-4.561256068153679,3.326124782627821
1789223401232915500,5.74491552734375,-8.022849936196208,-4.631662022027373,3.2174475502878424
1789223401242909200,5.7549091796875,-7.959335203140974,-4.788564648354053,3.144680127979815
1789223401252903200,5.764903076171875,-7.826430122995376,-5.020772398772835,3.115962567539513
1789223401262897200,5.774897216796875,-7.728851207774877,-5.231161116093396,3.0116756791129706
1789223401272891400,5.784891357421875,-7.734830282184481,-5.225383117213845,3.006353899568319
1789223401282885400,5.794885498046875,-7.833215253090858,-5.0232232990562915,3.094891430199146
1789223401292880400,5.80488037109375,-7.9705498401165,-4.781365384499728,3.1271810039073227
1789223401302874400,5.814874267578125,-8.096570421445369,-4.576651497945189,3.10969269348979
1789223401312868400,5.824868408203125,-8.17814337376058,-4.520034707710146,2.9761788337960837
1789223401322862300,5.8348623046875,-8.17047678465545,-4.663645306265354,2.768410820367932
1789223401332856000,5.84485595703125,-8.099955972230434,-4.829456338451802,2.6902500145837664
1789223401342850300,5.854850341796875,-8.008699245768785,-4.943650580647588,2.75525703202337
1789223401352844300,5.86484423828125,-7.90264593219161,-5.030709855419397,2.9000916194155812
1789223401362838300,5.87483837890625,-7.787166034099459,-5.115521643525362,3.059717533226311
1789223401372833300,5.884833251953125,-7.688828993988037,-5.251437595924735,3.0780992853522298
1789223401382827300,5.8948271484375,-7.619908602496981,-5.424547260686755,2.9464678784042597
1789223401392821200,5.9048212890625,-7.638338577678799,-5.4290778898537155,2.8898575179100034
1789223401402815200,5.914815185546875,-7.7752312661558385,-5.234148607471585,2.8844156191170214
1789223401412809500,5.9248095703125,-7.908022364532947,-5.043676304498314,2.8626737429082394
1789223401422803500,5.934803466796875,-8.023827841317653,-4.872708327940106,2.8364216957986352
1789223401432797200,5.944797119140625,-8.119199017360806,-4.7804365792170165,2.7196359758049247
1789223401442792200,5.954792236328125,-8.086464622494578,-4.867570088268816,2.6619980258286
1789223401452786200,5.9647861328125,-7.963405813580751,-5.005298350787163,2.775165847586095
1789223401462780200,5.9747802734375,-7.8797642382979385,-5.153064899978041,2.743286315983534
1789223401472774100,5.984774169921875,-7.761292172652483,-5.386139496359228,2.631012812717259
1789223401482768400,5.994768310546875,-7.630929178205132,-5.574243316635489,2.620518598970771
1789223401492762400,6.004762451171875,-7.564893402239679,-5.59427254370749,2.7653008716538547
1789223401502756400,6.01475634765625,-7.615733947160839,-5.513147335159778,2.7885809172153473
1789223401512750300,6.024750244140625,-7.781398556613921,-5.342438301798701,2.6605586406752466
1789223401522745300,6.034745361328125,-7.981580352696776,-5.145411170354485,2.447345805844664
1789223401532739300,6.0447392578125,-8.130371568760275,-5.018051449376344,2.210565632943809
1789223401542733300,6.0547333984375,-8.164296634715795,-4.990318223798274,2.147410965372622
1789223401552727300,6.064727294921875,-8.0735355828166,-5.11242893820703,2.202608098068088
1789223401562721300,6.07472119140625,-7.951700178217887,-5.305816836366057,2.188414591412246
1789223401572715300,6.08471533203125,-7.8770900506526225,-5.445255117672682,2.114482216978073
1789223401582709200,6.094709228515625,-7.86745186921358,-5.462834613505006,2.10500024901405
1789223401592703200,6.104703125,-7.90005299308896,-5.411514760634303,2.115432795701176
1789223401602698200,6.1146982421875,-7.944188487413525,-5.368970334893465,2.0577683961093425
1789223401612692500,6.1246923828125,-7.952170133817195,-5.401441694909334,1.9385053262166678
1789223401622686500,6.1346865234375,-7.905767863604426,-5.511842682301998,1.81350824271664
1789223401632680200,6.14468017578125,-7.840991147789358,-5.635204273554683,1.7128075422137974
1789223401642674200,6.154674072265625,-7.7895327632308,-5.748522609698772,1.5646264208726584
1789223401652668200,6.164668212890625,-7.780022007563709,-5.79211157605648,1.4467482294671237
1789223401662662100,6.174662109375,-7.822884997734427,-5.72144638672471,1.4959620499692856
1789223401672657200,6.1846572265625,-7.93013482761979,-5.545663118839264,1.5902752413921057
1789223401682651400,6.1946513671875,-8.082938201934098,-5.3465714560806745,1.500221168718487
1789223401692645400,6.204645263671875,-8.191334279245138,-5.228672806409001,1.3165911328554152
1789223401702639400,6.214639404296875,-8.194806339269876,-5.256148257833719,1.178319118849188
1789223401712633300,6.22463330078125,-8.071978416502475,-5.463074852001666,1.0809077422153204
1789223401722627300,6.23462744140625,-7.888744832611083,-5.73508035980165,1.023203814330697
1789223401732621300,6.244621337890625,-7.748498157531023,-5.92501314907074,1.0126109625153243
1789223401742615300,6.254615234375,-7.704200750643015,-5.988910743963718,0.9739765498250722
1789223401752610300,6.2646103515625,-7.781672697380185,-5.900289042180776,0.8958513998761772
1789223401762604300,6.274604248046875,-7.90236711525023,-5.744096025428176,0.8534257051441818
1789223401772598300,6.284598388671875,-7.9757193517088885,-5.641393191322684,0.8561353294290601
1789223401782592300,6.29459228515625,-7.987366534882783,-5.624855898019671,0.8563604434218257
1789223401792586200,6.304586181640625,-7.9606737582683555,-5.667032074970007,0.8263226672284305
1789223401802580500,6.31458056640625,-7.934206022581457,-5.713450127273798,0.7584452819842845
1789223401812574500,6.324574462890625,-7.936406747496128,-5.719767055335641,0.6841805337905883
1789223401822569500,6.334569580078125,-7.931465783962607,-5.734686976569891,0.6128605703445151
1789223401832563500,6.3445634765625,-7.9400290296465155,-5.729516295933723,0.5467755849424749
1789223401842557200,6.35455712890625,-8.012969762694835,-5.621719938081503,0.5991451295292004
1789223401852551200,6.36455126953125,-8.055889451488852,-5.547887224629521,0.70283430779092
1789223401862545200,6.374545166015625,-8.025146522700787,-5.585982854267955,0.7511368586670607
1789223401872539400,6.384539306640625,-7.944105485305189,-5.703260741692781,0.7310187842678278
1789223401882533400,6.394533447265625,-7.87825032660365,-5.808116369917989,0.6077373821118847
1789223401892527400,6.40452734375,-7.847157853725552,-5.857355324861407,0.5328071192141622
1789223401902522400,6.4145224609375,-7.88063809852302,-5.806896472734213,0.5881100869042799
1789223401912516400,6.424516357421875,-7.94486887089312,-5.715675402107834,0.6168482152085751
1789223401922510300,6.43451025390625,-7.955031952989101,-5.699035817474127,0.6394104678895324
1789223401932504000,6.444504150390625,-7.930354607850313,-5.728693873634934,0.6796483702536672
1789223401942498300,6.454498291015625,-7.947120449212193,-5.701780147746205,0.7094839018732308
1789223401952492300,6.4644921875,-7.999465553477406,-5.629851806610822,0.695485917789489
1789223401962486300,6.474486328125,-7.99065447051227,-5.645481921941042,0.6695940092291682
1789223401972481300,6.484481201171875,-7.944199593329429,-5.71286794347167,0.6505489708889275
1789223401982475300,6.494475341796875,-7.935780140030384,-5.7280742804318665,0.6188171771939843
1789223401992469200,6.50446923828125,-7.915687200072408,-5.756577905860543,0.6116352663332596
1789223402002463200,6.514463134765625,-7.922299896210432,-5.73000729432106,0.7580075481541454
1789223402012457500,6.52445751953125,-7.98679487247467,-5.6145051843971014,0.9267256999589503
1789223402022451500,6.534451416015625,-8.005318371158838,-5.576856714004278,0.9919318201672285
1789223402032445200,6.544445068359375,-7.984553231027722,-5.612326671314239,0.9586897680398077
1789223402042440200,6.554440185546875,-8.009870627635717,-5.591425922104716,0.8650495805077254
1789223402052434200,6.56443408203125,-8.032173060336708,-5.573091223990917,0.7715113189801573
1789223402062428200,6.57442822265625,-8.00954738703072,-5.599379511457681,0.8151582991354167
1789223402072422100,6.584422119140625,-7.9375968340635294,-5.68231966047287,0.936044951641932
1789223402082416400,6.59441650390625,-7.852517334932088,-5.789134021550416,0.9971390334215015
1789223402092410400,6.604410400390625,-7.8216756219446655,-5.827344802001118,1.0167763385664672
1789223402102404400,6.614404296875,-7.904270903044939,-5.69695901120007,1.1124488356437534
1789223402112398300,6.6243984375,-8.024901608029008,-5.528243782004714,1.099937509921193
1789223402122393300,6.634393310546875,-8.104731516069174,-5.425744361516833,1.0222560851518063
1789223402132387300,6.64438720703125,-8.116671544709801,-5.409492899417877,1.0136146596651523
1789223402142381300,6.65438134765625,-8.062908390340208,-5.480467885351181,1.0603584367919712
1789223402152375300,6.664375244140625,-8.003903243663906,-5.549627930817008,1.1443543784704058
1789223402162369500,6.67436962890625,-7.9409981669396155,-5.612185801538825,1.2705541888237
1789223402172363300,6.68436328125,-7.848808543542027,-5.711293241500854,1.3956068019032477
1789223402182357200,6.694357177734375,-7.785586655953526,-5.7973015459150075,1.3951068895570933
1789223402192352300,6.704352294921875,-7.786758037820458,-5.823746485248208,1.2730927673906087
1789223402202346200,6.71434619140625,-7.836068304434418,-5.767145477104187,1.2273748261801898
1789223402212340500,6.724340576171875,-7.947262488031387,-5.591786572110653,1.3203497547365723
1789223402222334500,6.73433447265625,-8.032329712203145,-5.465519322544336,1.3342282040938733
1789223402232328400,6.744328369140625,-8.05718124486506,-5.427094607082009,1.341217040067911
1789223402242322400,6.754322509765625,-8.05106246972382,-5.425511137282848,1.3836927844867108
1789223402252316400,6.76431640625,-8.00035344222784,-5.505382546377182,1.3621649894200265
1789223402262311400,6.7743115234375,-7.928864077031612,-5.609627349227667,1.3548366923585533
1789223402272305400,6.784305419921875,-7.849611676618457,-5.7011757521122695,1.4319818913593887
1789223402282299400,6.79429931640625,-7.752939354848861,-5.808889107856154,1.5228697845086454
1789223402292293400,6.80429345703125,-7.709892824804783,-5.855449198979139,1.5625808865197002
1789223402302287400,6.814287353515625,-7.753897386226058,-5.78545387173295,1.604987657355517
1789223402312281300,6.82428125,-7.881008685401081,-5.602579768803715,1.6343777102299033
1789223402322275300,6.834275390625,-8.003105371284484,-5.444686962395906,1.5735563079118728
1789223402332270300,6.844270263671875,-8.02538442310989,-5.440312985095382,1.4719320628233252
1789223402342264300,6.854264404296875,-7.955106771790981,-5.572156573489308,1.3556329573027788
1789223402352258600,6.864258544921875,-7.873658322638272,-5.665333454358578,1.442180483160168
1789223402362252500,6.87425244140625,-7.7703107608884565,-5.676476779663562,1.889513331771642
1789223402372246300,6.884246337890625,-7.76168730944991,-5.6436985456556075,2.018727886836231
1789223402382240300,6.894240234375,-7.826327247142792,-5.566776634016633,1.9824194328755138
1789223402392234200,6.904234130859375,-7.891666273015737,-5.488561759957671,1.9410503345243633
1789223402402228500,6.914228515625,-7.94503721319735,-5.40387389049232,1.9608460451014338
1789223402412223200,6.92422314453125,-7.9952242626458405,-5.346363950809836,1.9139396247588096
1789223402422217500,6.934217529296875,-7.961567492237687,-5.40583203882277,1.8870107013009487
1789223402432211500,6.94421142578125,-7.80702691886723,-5.595567844215035,1.977456257510185
1789223402442205400,6.954205322265625,-7.660634580639004,-5.758778046253323,2.078830034969002
1789223402452199400,6.964199462890625,-7.652294622316956,-5.748626654595136,2.136837110518664
1789223402462193400,6.974193359375,-7.727312746161222,-5.624290080830455,2.196903748946637
1789223402472187400,6.9841875,-7.823648383322357,-5.46788020645678,2.250154131488502
1789223402482182100,6.99418212890625,-7.933217596065997,-5.295562568855285,2.2784786009579894
1789223402492176400,7.00417626953125,-8.00580177076161,-5.151641589176655,2.353320053061098
1789223402502170400,7.01417041015625,-8.031840467381477,-5.097815306442976,2.381638385050744
1789223402512164400,7.024164306640625,-7.95303756430149,-5.195306543380021,2.4348237395323813
1789223402522158300,7.034158447265625,-7.8256193911343805,-5.380716886788607,2.44498492193222
1789223402532152300,7.04415234375,-7.7638634844452135,-5.5112125677049155,2.3493277685545384
1789223402542146600,7.054146484375,-7.776553454670309,-5.499034054133296,2.3358558541715144
1789223402552141300,7.064141357421875,-7.8451511900782585,-5.375069820812344,2.394287292613089
1789223402562135600,7.074135498046875,-7.905149439445138,-5.243582206249236,2.486733813381195
1789223402572129500,7.084129638671875,-7.915690707203745,-5.165774743947386,2.612852886648476
1789223402582123300,7.094123291015625,-7.938516286996006,-5.1351154017895455,2.6040230989828705
1789223402592117200,7.1041171875,-7.9656720049470655,-5.133095878660678,2.523842185547948
1789223402602111200,7.114111328125,-7.966468708282709,-5.145552624651789,2.49580676215291
1789223402612105500,7.12410546875,-7.89235016362667,-5.258358335098624,2.496167412158847
1789223402622100500,7.1341005859375,-7.798283640441298,-5.400290771308541,2.4887767173856497
1789223402632094500,7.144094482421875,-7.772935848695039,-5.402334259834885,2.562544548907876
1789223402642088400,7.15408837890625,-7.800329467055201,-5.305407086521387,2.679159296248853
1789223402652082400,7.16408251953125,-7.8730901673614975,-5.165791110560297,2.7385119411885737
1789223402662076400,7.174076416015625,-7.986001091748475,-5.0386038235396144,2.647006500662863
1789223402672070100,7.184070068359375,-8.070468596461415,-5.009105926376581,2.4386025274187326
1789223402682064400,7.194064453125,-8.066220875889062,-5.063196413004398,2.3389127575241027
1789223402692059400,7.204059326171875,-7.984222391638159,-5.181100907894969,2.3619416048035022
1789223402702053400,7.214053466796875,-7.8729767701148985,-5.335703440585732,2.3910031563758847
1789223402712047400,7.22404736328125,-7.7599296521276235,-5.474341511425376,2.44651943802312
1789223402722041300,7.234041259765625,-7.689731495785713,-5.51661413448751,2.570095694939792
1789223402732035300,7.244035400390625,-7.749216534933447,-5.396566782349348,2.6452020815894004
1789223402742029300,7.254029296875,-7.883434451243281,-5.225292516320944,2.591942492827773
1789223402752023600,7.2640234375,-7.991338361123204,-5.137603126952052,2.431859775160253
1789223402762018600,7.2740185546875,-8.056932823061942,-5.114048063841462,2.2589216675728556
1789223402772012500,7.284012451171875,-8.080974208384752,-5.11781764550805,2.162448083245754
1789223402782006300,7.29400634765625,-8.028119401031732,-5.198661699026823,2.1664722241953016
1789223402792000300,7.304000244140625,-7.892494540533423,-5.357611321011185,2.2748450667612254
1789223402801994200,7.313994140625,-7.770917494609952,-5.497490916344523,2.3581389976501463
1789223402811988500,7.323988525390625,-7.754851910471916,-5.545711634156108,2.297331623857468
1789223402821982500,7.333982421875,-7.828402884373069,-5.516359282943606,2.110988383512944
1789223402831977500,7.3439775390625,-7.897501555040479,-5.459271368065476,1.9990530261598527
1789223402841971500,7.353971435546875,-7.890791243746876,-5.496092155462503,1.9232203710623084
1789223402851965400,7.36396533203125,-7.8394170303404325,-5.611151197794079,1.796916442747414
1789223402861959400,7.37395947265625,-7.817387569361925,-5.662585616955161,1.7303092966347933
1789223402871953400,7.383953369140625,-7.862963325622677,-5.5481303857356306,1.8874438320212066
1789223402881947400,7.393947509765625,-8.017160784643888,-5.355601734754443,1.7924970188699663
1789223402891941400,7.40394140625,-8.18622088175416,-5.127096345984936,1.6938284087166189
1789223402901936400,7.413936279296875,-8.272220418339968,-5.018521989497542,1.5984980030752718
1789223402911930400,7.423930419921875,-8.243546112519502,-5.099254983857274,1.4872561809442937
1789223402921924400,7.43392431640625,-8.123240401706099,-5.275662521120905,1.5332101228676736
1789223402931918300,7.44391845703125,-7.977318019077181,-5.476222502866387,1.5949223365455865
1789223402941912300,7.453912353515625,-7.770594838526844,-5.747682651743292,1.6590290441446005
1789223402951906600,7.463906494140625,-7.5831860147774215,-5.98314502004385,1.6934131059139965
1789223402961900500,7.473900634765625,-7.564329923138022,-6.021316637527942,1.6416569074526428
1789223402971895600,7.4838955078125,-7.673845944389701,-5.911763791397213,1.5275839535489677
1789223402981889500,7.4938896484375,-7.799286680004,-5.77860795136094,1.3961385706923901
1789223402991883300,7.50388330078125,-7.942415048000216,-5.609444978398084,1.2737965317457913
1789223403001877200,7.513877197265625,-8.09705499009192,-5.414743659552932,1.1351814764555543
1789223403011871200,7.523871337890625,-8.165913422262667,-5.3406601862102745,0.9826453017100691
1789223403021865500,7.533865478515625,-8.14955557717979,-5.364517447137833,0.9884765651468187
1789223403031859500,7.543859375,-8.118401729503274,-5.398681582546234,1.0564935780573637
1789223403041854500,7.5538544921875,-8.047046804341674,-5.508504477789998,1.035275944918394
1789223403051848400,7.563848388671875,-7.95522016903758,-5.640405933851003,1.0347344584528355
1789223403061842400,7.573842529296875,-7.894207189670205,-5.724153307595849,1.0420897165864706
1789223403071836400,7.58383642578125,-7.828594023030996,-5.817976669675112,1.0171779051046819
1789223403081830100,7.593830078125,-7.7175921471357345,-5.967386894419789,0.9997253966528922
1789223403091824400,7.603824462890625,-7.592790878468752,-6.115699387055635,1.0574130309898406
1789223403101818400,7.613818359375,-7.539408832371234,-6.172547063437104,1.1078620923753828
1789223403111813400,7.6238134765625,-7.6347800084143875,-6.076778412508964,0.9763581842646002
1789223403121807400,7.633807373046875,-7.867690938666462,-5.81408258484602,0.682840590423718
1789223403131801300,7.64380126953125,-8.077859291234612,-5.543777451223135,0.43023529107719655
1789223403141795300,7.65379541015625,-8.220328903061151,-5.334432105475664,0.37472792338877914
1789223403151789300,7.663789306640625,-8.306909454405307,-5.19365000834465,0.437763311961852
1789223403161783600,7.673783447265625,-8.237222754716873,-5.3015825597971675,0.46017453879956155
1789223403171777500,7.683777587890625,-7.99362208814621,-5.657286926025152,0.5171922014530748
1789223403181772500,7.6937724609375,-7.6069854080379,-6.15826894723773,0.6163420192521065
1789223403191766500,7.7037666015625,-7.176016249728202,-6.653492258793115,0.6373510511416941
1789223403201760500,7.713760498046875,-7.00378862849772,-6.8450488498717545,0.512483073914051
1789223403211754200,7.723754150390625,-7.123903200653195,-6.731005706584453,0.33755627672746774
1789223403221748500,7.73374853515625,-7.257039751467108,-6.5944923728138205,0.13574600265994669
1789223403231742500,7.743742431640625,-7.393134567564726,-6.442975531178712,0.003593524700895068
1789223403241736400,7.753736328125,-7.676759201487898,-6.101850894445181,0.07194374420049134
1789223403251731500,7.7637314453125,-7.996718300595879,-5.6747559472203255,0.14151738913562148
1789223403261725400,7.773725341796875,-8.173438557070494,-5.418635406294465,0.06063266567974351
1789223403271719400,7.783719482421875,-8.215756188318133,-5.353745877754688,0.09558749480810948
1789223403281713400,7.79371337890625,-8.150395535135269,-5.451593673044443,0.14685069472128526
1789223403291707400,7.803707275390625,-8.007613788619636,-5.661031957772374,0.03496861562512349
1789223403301701400,7.813701416015625,-7.829487757000327,-5.9050090564399955,-0.019417447282630017
1789223403311696600,7.823696533203125,-7.706742251819372,-6.0639808902561665,0.06815598298981786
1789223403321690400,7.8336904296875,-7.559493589022755,-6.245882348760962,0.11572952547166496
1789223403331684400,7.843684326171875,-7.364484811663627,-6.475623416805267,0.03249020399694564
1789223403341678300,7.85367822265625,-7.234772974601388,-6.620185616996884,-0.039672322636935854
1789223403351672300,7.86367236328125,-7.377938167476653,-6.458623182165622,0.1502977116363123
1789223403361666600,7.87366650390625,-7.674487164902686,-6.105130646768212,-0.0034523358358943368
1789223403371660500,7.88366064453125,-7.960211985975503,-5.725583632659911,-0.1519953915328253
1789223403381655600,7.893655517578125,-8.183472459828852,-5.399865239372849,-0.20643236264390868
1789223403391649500,7.9036494140625,-8.28209825375378,-5.2413674528092145,-0.3245051450397819
1789223403401643500,7.9136435546875,-8.23222859969139,-5.302265281364321,-0.5355200314346701
1789223403411637200,7.92363720703125,-8.12491681048572,-5.472216774356365,-0.4592979386281222
1789223403421631200,7.93363134765625,-8.031005770123004,-5.623976777097583,-0.2102733107799664
1789223403431625500,7.94362548828125,-7.908682874268293,-5.7970022707074875,-0.1337595050178468
1789223403441619500,7.953619384765625,-7.7541878936052315,-6.001496669292449,-0.15811313462760299
1789223403451614500,7.963614501953125,-7.584313557502627,-6.212552326089144,-0.22969516480965538
1789223403461608400,7.9736083984375,-7.460678994527458,-6.354232248842716,-0.3638558162406087
1789223403471602400,7.9836025390625,-7.428331553152203,-6.383503351512551,-0.4910852253699675
1789223403481596400,7.993596435546875,-7.548879256027936,-6.246310218784212,-0.41038817910645153
1789223403491590400,8.00359033203125,-7.801371085062622,-5.9339183400601145,-0.3124142366863787
1789223403501584600,8.013584716796874,-8.081530088701843,-5.541460990974307,-0.38918234600313006
1789223403511578400,8.023578369140624,-8.243226963567734,-5.283037433803081,-0.5559734022028744
1789223403521573400,8.033573486328125,-8.252313356342912,-5.255455014872551,-0.6707461018737405
1789223403531567400,8.0435673828125,-8.177094156968593,-5.363517330184578,-0.7336238521996885
1789223403541561300,8.053561279296876,-8.07427967918217,-5.533102912473678,-0.6009716873692348
1789223403551555300,8.063555419921874,-7.977354843956231,-5.686103270664811,-0.447687397670187
1789223403561549300,8.07354931640625,-7.897216308358312,-5.79181405441463,-0.5091666063098237
1789223403571543600,8.08354345703125,-7.7784262628048655,-5.937293953973055,-0.6442204254545271
1789223403581537500,8.09353759765625,-7.6122174634724855,-6.1369952730625865,-0.749548639627546
1789223403591532500,8.103532470703126,-7.517073081922531,-6.257026843109727,-0.7166720598116517
1789223403601526500,8.113526611328124,-7.6363324985533945,-6.134439743360876,-0.474824958910048
1789223403611520500,8.1235205078125,-7.835935617965459,-5.880655536428094,-0.43173634328991173
1789223403621514200,8.13351416015625,-8.033487065544724,-5.605346895429491,-0.46212359050810337
1789223403631508200,8.14350830078125,-8.172103509074448,-5.3956853233397,-0.5231576491961255
1789223403641502500,8.15350244140625,-8.204267410576342,-5.327083496278524,-0.6946702905576676
1789223403651497500,8.16349755859375,-8.14813460446596,-5.372062455689907,-0.9587680939730256
1789223403661491500,8.173491455078125,-8.094105492636562,-5.440833209577202,-1.0262423052437604
1789223403671485400,8.1834853515625,-8.033095435878634,-5.5463978628546,-0.9366071155693382
1789223403681479400,8.1934794921875,-7.964120683851838,-5.663839416408538,-0.8149180606387555
1789223403691473400,8.203473388671876,-7.91366767694354,-5.7444671968281265,-0.7384685157518833
1789223403701467400,8.21346728515625,-7.873857060080766,-5.797904187983274,-0.7463640182420611
1789223403711461400,8.22346142578125,-7.862747052523494,-5.806489060977101,-0.7951514300256967
1789223403721456600,8.23345654296875,-7.864488343232869,-5.795124786397815,-0.8583340815823525
1789223403731450400,8.243450439453126,-7.839792293393612,-5.819625605925918,-0.9165135180242359
1789223403741444400,8.2534443359375,-7.848463675627112,-5.806399629127979,-0.9261375978726893
1789223403751438300,8.263438232421874,-7.95070707552731,-5.670229994228482,-0.8972911503557115
1789223403761432300,8.273432373046875,-8.079148746523261,-5.469583503243327,-0.9906558088820427
1789223403771426600,8.283426513671875,-8.16990278415978,-5.296416555336117,-1.1709174642905593
1789223403781420500,8.293420654296876,-8.171678561660647,-5.273715478706359,-1.2577679186172783
1789223403791415600,8.30341552734375,-8.100710589990019,-5.379771130371093,-1.267652037641406
1789223403801409500,8.313409423828125,-8.037618466261028,-5.479426267343759,-1.2421619148150085
1789223403811403500,8.323403564453125,-8.000760269463061,-5.550430479371547,-1.1622983967661857
1789223403821397200,8.333397216796875,-7.934948949903249,-5.647275819620489,-1.1468417383067309
1789223403831391200,8.34339111328125,-7.845784227284788,-5.762769746237993,-1.1851358861919492
1789223403841385500,8.353385498046874,-7.809740854001045,-5.805573115175962,-1.2139420747637748
1789223403851379500,8.36337939453125,-7.862023414424061,-5.741634603750706,-1.1800864207826554
1789223403861374500,8.37337451171875,-7.9883070306032895,-5.562188721704483,-1.1913823063008486
1789223403871368400,8.383368408203125,-8.120324806520342,-5.3572746364027255,-1.2370616690665484
1789223403881362400,8.393362548828126,-8.152368296512961,-5.30100037599504,-1.2683318365991114
1789223403891356400,8.4033564453125,-8.11495772652924,-5.348637156438827,-1.3076399107672274
1789223403901350400,8.413350341796875,-8.082436097630858,-5.394092501190304,-1.322262748751044
1789223403911344600,8.4233447265625,-8.043138106465339,-5.457943334332108,-1.2996793071515857
1789223403921339400,8.43333935546875,-7.969727417817712,-5.567429544967412,-1.2874645532228053
1789223403931333400,8.44333349609375,-7.930338825759291,-5.633355430817604,-1.2431468341991305
1789223403941327400,8.453327392578124,-7.960514768314361,-5.613996065831184,-1.1329789979752152
1789223403951321300,8.4633212890625,-8.0020503092736,-5.570469643315673,-1.0523485872071237
1789223403961315300,8.4733154296875,-8.03709473464787,-5.51967293753624,-1.0529481605354696
1789223403971309300,8.483309326171875,-8.061793707096577,-5.475781188839673,-1.0925604783471674
1789223403981303600,8.493303466796876,-8.058733150482178,-5.469995006653666,-1.1429616089377552
1789223403991298600,8.503298583984375,-8.034905700170993,-5.499384182745218,-1.1693818522211163
1789223404001292500,8.51329248046875,-7.991004014602303,-5.567548202911019,-1.1474512485072017
1789223404011286500,8.52328662109375,-7.962087132197618,-5.622297445708513,-1.0795018209401517
1789223404021280500,8.533280517578126,-7.93496590103805,-5.67778786226213,-0.9845944630164652
1789223404031274200,8.543274169921874,-7.941836371329426,-5.688415054738521,-0.8599746883962303
1789223404041268200,8.553268310546875,-7.975483204865455,-5.654356717792153,-0.768306823850423
1789223404051262500,8.563262451171875,-7.959561413112282,-5.672161254552006,-0.8014693810008465
1789223404061257500,8.573257568359375,-7.9516732902109615,-5.6709688298970455,-0.8839643435318022
1789223404071251500,8.58325146484375,-7.976496181300282,-5.63345596858263,-0.9000378187153488
1789223404081245400,8.593245361328124,-7.971778505128621,-5.652047856327891,-0.8218805200625211
1789223404091239400,8.603239501953125,-7.990454564025998,-5.641807617342471,-0.7021596233997494
1789223404101233400,8.6132333984375,-8.019891670912504,-5.609868756768107,-0.6173303727023303
1789223404111227400,8.623227294921875,-8.004559077224135,-5.63670181863606,-0.5700884733276441
1789223404121222400,8.633222412109374,-7.958791013261675,-5.701514774808287,-0.5663626212049275
1789223404131216600,8.643216552734375,-7.919492437574267,-5.754284241965412,-0.5832947590444236
1789223404141210400,8.65321044921875,-7.904605834087729,-5.7830672688573594,-0.49367652050480243
1789223404151204400,8.663204345703125,-7.953325149071216,-5.728633667880296,-0.3126700746109709
1789223404161197800,8.67319775390625,-7.993300016584992,-5.676628755354881,-0.2311473729119636
1789223404171191800,8.68319189453125,-7.970832164189219,-5.704186624366045,-0.31380729847997424
1789223404181186000,8.69318603515625,-7.978768217885494,-5.689715031421184,-0.36985165912192314
1789223404191181000,8.70318115234375,-8.001162420523166,-5.659114141452312,-0.35526100637465713
1789223404201175000,8.713175048828125,-7.957469409269094,-5.7235103335171935,-0.30082137751560656
1789223404211168800,8.723168701171875,-7.891376350158453,-5.81805441108644,-0.21633315880820153
1789223404221162800,8.733162841796876,-7.880450466996431,-5.836211414545774,-0.08669692599913105
1789223404231156700,8.74315673828125,-7.88651371255815,-5.828327383297681,0.06236771844457835
1789223404241151000,8.75315087890625,-7.929662533932924,-5.7662435598284,0.20314820814039558
1789223404251145700,8.763145751953125,-8.00384011529982,-5.66109391709268,0.24688387122610583
1789223404261140000,8.773139892578126,-8.00439891822636,-5.663895530509948,0.1423644161527045
1789223404271134000,8.783134033203124,-7.980037799429893,-5.699806217324733,0.03988125724645797
1789223404281128000,8.7931279296875,-7.995513600981235,-5.6777650659084316,0.07163500704488251
1789223404291122000,8.803121826171875,-7.978025290563702,-5.69919773003757,0.20159454895760862
1789223404301116000,8.813115966796875,-7.890204383769631,-5.812898928019404,0.353926652498357
1789223404311110000,8.82310986328125,-7.769022474643587,-5.965662554845213,0.47280291503053157
1789223404321104600,8.833104736328124,-7.7233672234058375,-6.0105479907542465,0.6271276902258396
1789223404331099000,8.843098876953125,-7.8316937426120035,-5.852348894876242,0.7648307452376931
1789223404341092900,8.8530927734375,-7.962592743632197,-5.6853024756759405,0.6669631492689252
1789223404351086800,8.8630869140625,-8.017282949718833,-5.623855781066418,0.5155587550323456
1789223404361080800,8.873080810546876,-7.997797328004241,-5.658094735276698,0.4377133353402838
1789223404371074800,8.88307470703125,-7.964176797953248,-5.697345964691043,0.5315284775804728
1789223404381069800,8.89306982421875,-7.933369571757316,-5.701463921403884,0.8516724317360669
1789223404391063800,8.903063720703125,-7.9266160058438775,-5.7065381559282535,0.8800938587740064
1789223404401058000,8.91305810546875,-7.9144509362757205,-5.732406172156334,0.8193750400476157
1789223404411052000,8.923052001953126,-7.871087595367431,-5.79282001658678,0.8121548795357346
1789223404421045800,8.933045654296874,-7.8418340283542864,-5.81676612484157,0.9171990891356021
1789223404431039700,8.943039794921875,-7.884048199227452,-5.746054173758625,0.9975112277347594
1789223404441033700,8.95303369140625,-7.938194215434789,-5.6713458465158935,0.9956358623169362
1789223404451028700,8.96302880859375,-7.923715023705363,-5.687695508292317,1.0174689239405095
1789223404461023000,8.97302294921875,-7.8639698723167175,-5.764674703076482,1.0473250599566846
1789223404471017000,8.983016845703125,-7.8399021835088725,-5.7975587355464695,1.046244205917418
1789223404481011000,8.993010986328125,-7.8593281839907165,-5.766507179200649,1.0717957035422325
1789223404491005000,9.0030048828125,-7.9227371185839175,-5.674041661471128,1.0981223502580075
1789223404500999000,9.0129990234375,-7.958356713497638,-5.621448719924688,1.1109686070233582
1789223404510994000,9.022993896484374,-7.940378573736548,-5.64274402140975,1.131468593412265
1789223404520988000,9.03298779296875,-7.935001556873321,-5.639298264870047,1.1850974538777024
1789223404530982000,9.04298193359375,-7.944676563191414,-5.616675514173507,1.2269678528144954
1789223404540975900,9.052975830078125,-7.94744368981719,-5.611630505743623,1.2321259662300348
1789223404550969900,9.062969970703126,-7.931488580316305,-5.631377993264794,1.244769613095373
1789223404560963800,9.0729638671875,-7.9187594471246,-5.642319073995948,1.2758818135872483
1789223404570957800,9.082957763671875,-7.89511027598977,-5.670358004522323,1.2979459074877202
1789223404580952800,9.092952880859375,-7.889400666171312,-5.679547273150086,1.2924709832079708
1789223404590946800,9.10294677734375,-7.925514766603708,-5.6332876262784,1.2738415399312972
1789223404600941000,9.112941162109376,-7.958023536020517,-5.587375185409188,1.2733752375937997
1789223404610935000,9.12293505859375,-7.9769901022970675,-5.553118695542216,1.3041785182669758
1789223404620928800,9.1329287109375,-7.996676799541711,-5.52575196518898,1.2998518872395157
1789223404630922800,9.1429228515625,-7.970099173739552,-5.563939949285984,1.3001818498462439
1789223404640917800,9.152917724609376,-7.8932433130741115,-5.666495483875274,1.3258699794627726
1789223404650911700,9.162911865234374,-7.855808777692913,-5.71187893243432,1.3531795728012919
1789223404660905700,9.17290576171875,-7.886951519453525,-5.682445332679152,1.2946785762548445
1789223404670900000,9.18289990234375,-7.9454563153922555,-5.6152194701462985,1.2285833251871168
1789223404680894000,9.19289404296875,-7.973543176713585,-5.585083275079727,1.183147561918944
1789223404690888000,9.202887939453126,-7.91943106277585,-5.670674230864644,1.138615177231282
1789223404700882000,9.2128818359375,-7.81196905144453,-5.81783112372458,1.1385836130492388
1789223404710877000,9.222876953125,-7.772264233043789,-5.823825395703316,1.3584353013724089
1789223404720871000,9.232870849609375,-7.838570058122277,-5.711414822053909,1.4515318104818462
1789223404730864600,9.24286474609375,-7.920121967649459,-5.5960775473028415,1.458068811035156
1789223404740859000,9.25285888671875,-7.9609169193744656,-5.551757928583026,1.4043398511961103
1789223404750852900,9.262852783203124,-7.955944391658901,-5.587633544084429,1.2851811184607445
1789223404760846800,9.272846923828125,-7.957237354078888,-5.594136934629082,1.2483537551924586
1789223404770841900,9.282841796875,-7.975187436789274,-5.56681988863647,1.255901540223509
1789223404780835800,9.2928359375,-7.955038382729888,-5.610605254349112,1.1869527994208038
1789223404790829800,9.302829833984376,-7.8417931118220086,-5.7710553440243,1.17114652380608
1789223404800823800,9.31282373046875,-7.719579521560669,-5.925505316501855,1.211140461346507
1789223404810818000,9.322818115234375,-7.7100547373682256,-5.925462646403909,1.2705657331310212
1789223404820812000,9.33281201171875,-7.773466010048985,-5.835898110812902,1.2984230234801768
1789223404830805800,9.3428056640625,-7.883971042338013,-5.673988469979166,1.3487936128020286
1789223404840800800,9.35280078125,-8.019222393348812,-5.4780958955228325,1.3612230323947965
1789223404850794800,9.362794677734374,-8.071184051254392,-5.434387102177739,1.2222151053294539
1789223404860788700,9.372788818359375,-8.069332870429754,-5.459876348221302,1.1162432594906537
1789223404870783000,9.382782958984375,-8.05253371132016,-5.478683340021967,1.1450414108864961
1789223404880777000,9.39277685546875,-8.00579826363027,-5.537770904284716,1.187716038878262
1789223404890771000,9.40277099609375,-7.983632609051465,-5.567963213452696,1.1957347293566911
1789223404900766000,9.412765869140625,-7.98116241954565,-5.567867936384678,1.2125504012096673
1789223404910760000,9.422760009765625,-7.963232210579514,-5.584644299140572,1.25262193403095
1789223404920754000,9.43275390625,-7.923731974840163,-5.632341869860888,1.2890236192330717
1789223404930748000,9.442747802734376,-7.868689886575937,-5.706445801469683,1.3002255428574978
1789223404940742000,9.452741943359374,-7.833147448551655,-5.750761913058161,1.3194431612856685
1789223404950736000,9.46273583984375,-7.809210692647099,-5.784816158351302,1.3124454113528132
1789223404960729900,9.472729736328125,-7.814919717943668,-5.7950768556028605,1.230651363632828
1789223404970724900,9.482724853515625,-7.85503077905774,-5.763732453790307,1.1172590854696929
1789223404980718800,9.49271875,-7.894356242752075,-5.723641850942373,1.0437668560184539
1789223404990712800,9.502712890625,-7.937158442646265,-5.664585850861668,1.0413296919994055
1789223405000706800,9.512706787109375,-7.979904528439045,-5.6040363973528144,1.042253821107
1789223405010701000,9.522701171875,-7.998985076484083,-5.583570532429218,1.0051695604681967
1789223405020695000,9.532695068359375,-7.990791833156347,-5.60527441471517,0.9479089193716644
1789223405030690000,9.54268994140625,-7.971801301482319,-5.633241449049115,0.9419988916102796
1789223405040684000,9.55268408203125,-7.912778619149327,-5.712368761777878,0.9628929188180714
1789223405050677800,9.562677734375,-7.820345834645629,-5.836230703768134,0.9751862178757786
1789223405060671700,9.572671630859375,-7.78986827879548,-5.873292898705602,0.9963734558764844
1789223405070665700,9.582665771484375,-7.859569007009267,-5.7908057541549205,0.9295864962175487
1789223405080660000,9.592659912109376,-7.921393302759528,-5.7235722928375,0.8140245458651334
1789223405090655000,9.602655029296875,-7.908182523530721,-5.750291957458853,0.75177917515859
1789223405100649000,9.61264892578125,-7.855645111563802,-5.8271361276865,0.7097231174565851
1789223405110643000,9.622642822265625,-7.848591685920954,-5.832225559780001,0.7450773394323885
1789223405120637000,9.632636962890626,-7.863223437863588,-5.802977253463864,0.8158154478698968
1789223405130631000,9.642630859375,-7.8808350823998445,-5.783311599007249,0.7849399787433445
1789223405140624600,9.652624755859375,-7.901151894241571,-5.76404341943562,0.7197119389642029
1789223405150619000,9.662618896484375,-7.894658440569042,-5.781446974179149,0.6477851321987808
1789223405160614000,9.67261376953125,-7.905697136455774,-5.764616835409402,0.6629684536095708
1789223405170607900,9.68260791015625,-7.992908386918902,-5.640203104755282,0.6869581087451427
1789223405180601900,9.692601806640624,-8.042022254177928,-5.580879978170991,0.5916462982064112
1789223405190595800,9.702595947265625,-7.993053932869434,-5.656629923421145,0.5329290650933981
1789223405200589600,9.712589599609375,-7.900675508901476,-5.784094273817539,0.5421839463032782
1789223405210583800,9.722583740234375,-7.8198074899852275,-5.8865101076751944,0.6082723292388021
1789223405220578600,9.73257861328125,-7.8006679052293295,-5.902940433472395,0.6893905235238373
1789223405230572800,9.74257275390625,-7.8418340283542864,-5.841529394698143,0.7433424053985626
1789223405240566800,9.75256689453125,-7.8756649862855665,-5.798983799913525,0.7183799597080797
1789223405250560800,9.762560791015625,-7.898403472316264,-5.779435634356737,0.6194629277516156
1789223405260554800,9.7725546875,-7.9565809359967705,-5.7058466665327545,0.5536396254930644
1789223405270548700,9.782548828125,-8.021114490705727,-5.614682294529676,0.5544875475592911
1789223405280543700,9.792543701171875,-8.07375887017846,-5.540881145259737,0.532393606509827
1789223405290537700,9.802537841796875,-8.097901377788185,-5.508583388245105,0.49989755044411865
1789223405300532000,9.812531982421875,-8.015832750910521,-5.62968755595982,0.4726845128152519
1789223405310525700,9.822525634765626,-7.858144527164101,-5.847749876648187,0.4730360296666622
1789223405320519700,9.832519775390624,-7.734162173664569,-6.0048582546800375,0.5429575610242784
1789223405330513700,9.842513671875,-7.725269842156767,-5.996421265724301,0.730427248115465
1789223405340507600,9.852507568359375,-7.827159021791815,-5.852102226638793,0.8117021673321724
1789223405350502700,9.862502685546875,-7.953931298270821,-5.689076148995757,0.7346949154973029
1789223405360496600,9.87249658203125,-8.000013835009932,-5.640818606305122,0.5927308420401066
1789223405370491000,9.882490966796874,-8.002159030345082,-5.647178204464912,0.4951938297325745
1789223405380484900,9.89248486328125,-8.003610982719064,-5.6491258314013475,0.44719391506481915
1789223405390478800,9.902478759765625,-8.033492326241731,-5.605225899398326,0.4634896181643009
1789223405400472600,9.91247265625,-8.061439486831427,-5.563191761267185,0.4842292950605973
1789223405410467800,9.9224677734375,-7.975986478212476,-5.68243013511002,0.5138200946714728
1789223405420461600,9.932461669921874,-7.834637394848466,-5.8746162562638515,0.5269976292178035
1789223405430455800,9.942455810546875,-7.7794667117685075,-5.94806260074675,0.5204179585665464
1789223405440449800,9.95244970703125,-7.779556728139519,-5.9497279036104675,0.4996205966662615
1789223405450443800,9.96244384765625,-7.802395167413353,-5.920509992432594,0.49048287556264547
1789223405460437800,9.972437744140626,-7.894817430523037,-5.7966036267787215,0.49155116238128393
1789223405470432800,9.982432861328125,-7.975705323183536,-5.6896232614845035,0.432079896030575
1789223405480426800,9.9924267578125,-7.999247526812553,-5.660706963601708,0.37258181473817675
1789223405490420700,10.002420654296875,-8.012273012602328,-5.643848183259368,0.34762090341765434
1789223405500415000,10.0124150390625,-8.025872498887777,-5.629704507094622,0.24937313075857234
1789223405510408700,10.02240869140625,-8.029884657138586,-5.6283454937011,0.1143418339729309
1789223405520402700,10.032402587890624,-7.979527511820197,-5.700319427543878,0.06235009602291975
1789223405530397700,10.042397705078125,-7.8488237411111585,-5.878548335015774,0.09491502064033411
1789223405540391700,10.0523916015625,-7.730162290373444,-6.031561552688479,0.18772868508724494
1789223405550385700,10.0623857421875,-7.745354598808288,-6.008739480027556,0.2736947577948682
1789223405560379600,10.072379638671874,-7.864387805467843,-5.857018640252948,0.13084590999293141
1789223405570374000,10.082373779296875,-7.988686969831585,-5.687791369882226,-0.017259664177254306
1789223405580368000,10.092367919921875,-8.05986361581683,-5.585369106283784,-0.11242530542765744
1789223405590361900,10.10236181640625,-8.042154940646887,-5.6098558972865336,-0.15376513201855121
1789223405600356900,10.11235693359375,-7.971722975549102,-5.709778745284677,-0.1429936539669521
1789223405610350800,10.122350830078124,-7.93071408881247,-5.768144425013661,-0.05162412848032545
1789223405620344600,10.132344482421875,-7.896855073830485,-5.814602224805951,0.0216595316875726
1789223405630338600,10.142338623046875,-7.85253253250122,-5.874357313066721,0.006488891661842354
1789223405640332800,10.152332763671875,-7.842878568971156,-5.886631688228249,-0.08487665176941081
1789223405650326800,10.162326904296876,-7.8829311778962605,-5.831299677106737,-0.16038579226732252
1789223405660321800,10.17232177734375,-7.919215374198555,-5.779623265883326,-0.228833451680094
1789223405670315800,10.182315673828125,-7.948143947041034,-5.737333691686391,-0.2835497420560568
1789223405680309800,10.192309814453125,-8.005190360864997,-5.658493379205465,-0.26222534234067424
1789223405690303700,10.2023037109375,-8.03789728320241,-5.613610281383991,-0.22354941032994538
1789223405700297700,10.212297607421876,-8.024794640523195,-5.629286573943496,-0.29014954217989
1789223405710292000,10.2222919921875,-8.015803524816036,-5.632471049198508,-0.4387990116851404
1789223405720286700,10.23228662109375,-8.00678669014573,-5.634626181405783,-0.5592284219434485
1789223405730280700,10.24228076171875,-7.935072284021973,-5.735827963298559,-0.5525326871644706
1789223405740274700,10.252274658203126,-7.832273588326573,-5.884965216320753,-0.43939073050059374
1789223405750268700,10.2622685546875,-7.813201223587989,-5.919632040554284,-0.28675487650660797
1789223405760262700,10.2722626953125,-7.881181119358539,-5.830131217849254,-0.25872886026073244
1789223405770256600,10.282256591796875,-7.941980748236179,-5.737328430989384,-0.42236203695144503
1789223405780251600,10.292251708984375,-7.9531988923430434,-5.701877762901782,-0.6368683091260492
1789223405790246000,10.302245849609376,-7.924358582305908,-5.720637992951273,-0.8057437703844159
1789223405800239900,10.312239990234374,-7.917914228472113,-5.735962987855077,-0.7587784594614059
1789223405810233900,10.32223388671875,-7.956907099211215,-5.707134952777624,-0.5353686767978594
1789223405820227800,10.332227783203125,-8.003078483277559,-5.650390736770629,-0.44068091644160445
1789223405830221600,10.3422216796875,-8.011102799779175,-5.640989286696911,-0.4145571718867868
1789223405840216600,10.352216552734374,-7.969894006556272,-5.70061519562006,-0.39263478801194573
1789223405850210600,10.36221044921875,-7.9260098566442725,-5.757064812594652,-0.4527221404343843
1789223405860204800,10.372204833984375,-7.932656455051898,-5.735290203160047,-0.5914288560634479
1789223405870198800,10.38219873046875,-7.948094262680411,-5.701009163373708,-0.7047520510457456
1789223405880192800,10.39219287109375,-7.953367819169163,-5.695624547725916,-0.6886150821719318
1789223405890186800,10.402186767578126,-8.001235485759377,-5.642550544664263,-0.5587803493823856
1789223405900180700,10.4121806640625,-8.065152369874715,-5.554723792651295,-0.5184074224617332
1789223405910175700,10.42217578125,-8.0919439306885,-5.5073108840912575,-0.6002946648905053
1789223405920169700,10.432169677734375,-8.087589242610335,-5.510718062186241,-0.6271081818077713
1789223405930164000,10.4421640625,-8.0057456566602,-5.6313768242210145,-0.6049941112857311
1789223405940157700,10.45215771484375,-7.877993721494078,-5.815747887709737,-0.533549060155265
1789223405950151700,10.462151611328125,-7.7969965232402085,-5.933872162830829,-0.40792255617789924
1789223405960145700,10.472145751953125,-7.778703326180577,-5.963661151894927,-0.311303572030738
1789223405970140700,10.482140625,-7.800693624192476,-5.932110998377204,-0.36003687900695946
1789223405980134700,10.492134765625,-7.88767048137784,-5.800947793462872,-0.5513976187199354
1789223405990128600,10.502128662109374,-7.987624309036136,-5.637126766049861,-0.7687928538016975
1789223406000123000,10.512122802734375,-8.02661133455634,-5.5683396455496545,-0.858770573303476
1789223406010116900,10.522116943359375,-8.040873668664693,-5.560823278570175,-0.7694019256107508
1789223406020110800,10.53211083984375,-8.063038738721609,-5.549539668011665,-0.60033024766054
1789223406030105900,10.54210595703125,-7.996691997110843,-5.654630858558416,-0.4984414333516732
1789223406040099800,10.552099853515625,-7.866694913366437,-5.837718311977386,-0.45447373334206637
1789223406050093600,10.562093505859375,-7.800074030989408,-5.927785536393523,-0.4365639461094513
1789223406060087800,10.572087890625,-7.828398208197951,-5.885282611706852,-0.500023113052547
1789223406070081800,10.582081787109376,-7.891469289138913,-5.785004958921671,-0.6548397999506443
1789223406080075800,10.59207568359375,-7.9923846553057425,-5.631130740505457,-0.7632417224805802
1789223406090070800,10.60207080078125,-8.111980756545066,-5.455095543685555,-0.7797975012883543
1789223406100064800,10.612064697265625,-8.153879285597801,-5.392054857882857,-0.7812688890151679
1789223406110058800,10.622058837890625,-8.112485198935866,-5.457553458231687,-0.7570183909863233
1789223406120052700,10.632052734375,-8.034311241409181,-5.574868755057453,-0.7355716983318329
1789223406130046700,10.642046630859374,-7.940240626570582,-5.703455972003937,-0.7704265194181352
1789223406140040700,10.652040771484375,-7.864559070381522,-5.809107719042897,-0.7572033190991729
1789223406150036000,10.662035888671875,-7.833461921328306,-5.856532902562618,-0.7129357228275388
1789223406160029700,10.67202978515625,-7.804630379119515,-5.8929930399537085,-0.7285333241276443
1789223406170024200,10.682024169921876,-7.778201806399226,-5.923996080982684,-0.7591050610672682
1789223406180018200,10.69201806640625,-7.812087124866247,-5.887144898447394,-0.6951330857638269
1789223406190012200,10.70201220703125,-7.894210696801543,-5.7884168131917715,-0.5882680174123496
1789223406200006100,10.712006103515625,-7.9480515925824635,-5.714558380776643,-0.5853956037811935
1789223406210001200,10.722001220703126,-7.967459472885728,-5.677988937792182,-0.6711300596900284
1789223406219995100,10.7319951171875,-7.983919609299302,-5.649535581246018,-0.7142545503411442
1789223406229989400,10.7419892578125,-8.013449655166268,-5.608832399457693,-0.7042734737485646
1789223406239983400,10.7519833984375,-8.055228941753507,-5.546013247451186,-0.7248547817453742
1789223406249977300,10.761977294921875,-8.066767988377809,-5.521465081650018,-0.7817020197354256
1789223406259971000,10.77197119140625,-8.027344325006007,-5.581398449087143,-0.7616592025294899
1789223406269965000,10.781965087890624,-7.935124306470155,-5.72551115194559,-0.6501591678537428
1789223406279960000,10.7919599609375,-7.868504593136906,-5.828838839951157,-0.5307184398392215
1789223406289954300,10.801954345703125,-7.821764469271898,-5.893938211849331,-0.501877289551869
1789223406299948300,10.8119482421875,-7.816778497552871,-5.905092643070221,-0.44523722803909327
1789223406309942300,10.8219423828125,-7.910756173411011,-5.783612043258548,-0.37438155763652176
1789223406319936300,10.831936279296874,-8.006497936332226,-5.649664760583639,-0.38427192373834546
1789223406329930200,10.84193017578125,-8.041656343474983,-5.593169550901651,-0.46754780751392244
1789223406339925200,10.85192529296875,-8.02844030354917,-5.6050423595249645,-0.5459264572998509
1789223406349919200,10.861919189453126,-7.96780901697576,-5.69324788172245,-0.5208923711452633
1789223406359913500,10.87191357421875,-7.8949688216924665,-5.801321887472271,-0.4295469434868544
1789223406369907200,10.8819072265625,-7.839883478808402,-5.881587264320254,-0.3369589684214443
1789223406379901200,10.891901123046875,-7.819662528556585,-5.910495378896593,-0.298845730061084
1789223406389895200,10.901895263671875,-7.8908608018517485,-5.8132905576854945,-0.33219281346555796
1789223406399890200,10.91189013671875,-7.979863611906766,-5.683264247846603,-0.4389394430691376
1789223406409884200,10.92188427734375,-8.010843272060155,-5.63023057679534,-0.5452293784137815
1789223406419878100,10.931878173828125,-8.004992792466282,-5.6361266490966075,-0.5696901581924408
1789223406429872400,10.941872314453125,-7.992415634965896,-5.6608490024209015,-0.49645066139325494
1789223406439866400,10.951866455078125,-8.028729641884565,-5.622498521238565,-0.31208321463372557
1789223406449860400,10.9618603515625,-8.07657626568675,-5.558746472296119,-0.19909615627061575
1789223406459855400,10.97185546875,-8.042251386758684,-5.608360105770826,-0.19717262259582055
1789223406469849300,10.981849365234375,-7.966935741272568,-5.711318375942111,-0.281360506649781
1789223406479843000,10.991843017578125,-7.965019678518176,-5.710877061915397,-0.33872137498408555
1789223406489837000,11.001837158203125,-8.012111100038885,-5.644081992015242,-0.3475723515681922
1789223406499831300,11.011831298828126,-8.003126414072513,-5.657300370028615,-0.33956604564730075
1789223406509825300,11.0218251953125,-7.921753952765465,-5.771169325792789,-0.3313776246251538
1789223406519820300,11.0318203125,-7.830189183267951,-5.894868186175823,-0.33022966016642746
1789223406529814300,11.041814208984375,-7.826558717811107,-5.904150393784046,-0.237433284781035
1789223406539808300,11.051808349609376,-7.89749687886536,-5.8084963091462845,-0.24759448544718324
1789223406549802200,11.06180224609375,-7.987537799796462,-5.676562119859456,-0.38244774051848796
1789223406559796200,11.071796142578124,-8.03955615632534,-5.5918713277846575,-0.5166160820655524
1789223406569790500,11.08179052734375,-8.026094617205858,-5.605421714231372,-0.5757076649162918
1789223406579785500,11.091785400390625,-7.994808667582273,-5.656449890679121,-0.5079312192959711
1789223406589779200,11.101779296875,-7.984078599253296,-5.684002498993277,-0.3420383905775845
1789223406599773200,11.111773193359374,-7.969415283128619,-5.709380685877799,-0.2485596772175282
1789223406609767200,11.12176708984375,-7.946638803175091,-5.74173806412518,-0.2318616221285425
1789223406619761200,11.13176123046875,-7.949445677289367,-5.734900911581516,-0.29597547185439615
1789223406629755100,11.141755126953125,-7.946709530323743,-5.729754780864715,-0.4360014533884823
1789223406639750100,11.151750244140626,-8.014819774475693,-5.634606892183423,-0.4292474856162444
1789223406649744400,11.161744384765624,-8.147920084932446,-5.445775342154502,-0.3540024576809257
1789223406659738400,11.17173828125,-8.155566215771437,-5.4352732373625035,-0.33900578141603616
1789223406669732400,11.181732421875,-8.06626354598701,-5.56514172629118,-0.3673824194641784
1789223406679726300,11.191726318359375,-8.00704855595231,-5.6479924434572455,-0.3971684859188273
1789223406689720000,11.201719970703126,-7.970822227317094,-5.696910495883226,-0.42612997465021907
1789223406699715000,11.211715087890624,-7.946214440283179,-5.728341991457342,-0.4627711676966399
1789223406709709000,11.221708984375,-7.933521547448635,-5.74324846868813,-0.494682117350772
1789223406719703300,11.231703369140625,-7.915661481109261,-5.768513842847943,-0.4867545026892796
1789223406729697300,11.241697265625,-7.922567607235908,-5.762113328155875,-0.44872496055699884
1789223406739691300,11.251691162109376,-7.952599172884225,-5.720805166211724,-0.44601803968586023
1789223406749685200,11.261685302734374,-7.975275699594617,-5.682772664937376,-0.5210156687313691
1789223406759680300,11.27168017578125,-8.030669670036435,-5.599323981878161,-0.5712239436309784
1789223406769674200,11.28167431640625,-8.07857299246192,-5.528412124308943,-0.5862606231126934
1789223406779668200,11.291668212890626,-8.074101984527706,-5.533963328695297,-0.5954117151545361
1789223406789662500,11.301662353515624,-8.042488702645898,-5.584739576208591,-0.5472182872086763
1789223406799656200,11.31165625,-8.004365600478648,-5.650600580129027,-0.41380554980188605
1789223406809650200,11.321650146484375,-7.9880282136619085,-5.680187909141183,-0.3118638362620026
1789223406819645200,11.331645263671875,-7.958361389672755,-5.718944048514962,-0.3585311506191268
1789223406829639200,11.34163916015625,-7.905419488558173,-5.783192941063642,-0.4789688903143629
1789223406839633200,11.351633056640624,-7.90823980667591,-5.769789854133129,-0.582794042980671
1789223406849627100,11.361627197265625,-8.002278857332467,-5.634734317955375,-0.6194203307189047
1789223406859621400,11.371621337890625,-8.025349936318397,-5.596666160845756,-0.6644308543123304
1789223406869615400,11.381615478515625,-7.992082457488775,-5.649726719903946,-0.6144822897948324
1789223406879610400,11.3916103515625,-8.000138922694324,-5.649742501994967,-0.49856779967769976
1789223406889604400,11.401604248046874,-8.028491741475463,-5.614781078729033,-0.4335199387710541
1789223406899598300,11.411598388671875,-8.031148977985978,-5.60935963820219,-0.45400414306893944
1789223406909592000,11.421592041015625,-8.01363027243018,-5.633618465667963,-0.4630940795080736
1789223406919586300,11.43158642578125,-7.92890499356389,-5.748371803051233,-0.508996181646362
1789223406929580300,11.441580322265626,-7.812239100557565,-5.902110996910929,-0.5517172791283578
1789223406939575300,11.4515751953125,-7.773160305100679,-5.968769873210787,-0.34949981249943374
1789223406949569300,11.4615693359375,-7.835902884739637,-5.896282144626975,-0.05360726512155961
1789223406959563300,11.471563232421875,-7.944976422920822,-5.748593921369314,-0.03741733993451344
1789223406969557200,11.48155712890625,-7.993321643894911,-5.6786617224872105,-0.17318532381411642
1789223406979551200,11.49155126953125,-7.974340464571118,-5.699508111160993,-0.30964100911337883
1789223406989545500,11.50154541015625,-8.009227653557062,-5.652409675377607,-0.27004229970192534
1789223406999540200,11.511540283203125,-8.031006354644894,-5.62558479681611,-0.16162603811938314
1789223407009534500,11.521534423828125,-7.996314980491995,-5.674889802733063,-0.15797969923997296
1789223407019528200,11.531528076171876,-7.92280667668879,-5.777850410991907,-0.12634843417690134
1789223407029522200,11.541522216796874,-7.836320233368873,-5.895920910099148,-0.02423582561609801
1789223407039516200,11.55151611328125,-7.784037672945857,-5.96410305044353,0.09285869089872575
1789223407049510100,11.56151025390625,-7.779197247177362,-5.969391219979524,0.14435545297260396
1789223407059505200,11.571505126953125,-7.836946840834617,-5.892423715633154,0.17886106789559125
1789223407069499100,11.5814990234375,-7.895251145765185,-5.812919970807433,0.2129702582463622
1789223407079493400,11.591493408203124,-7.927267163228988,-5.7692772284358735,0.2103836575529538
1789223407089487400,11.6014873046875,-7.946886055934429,-5.742746364384889,0.19558314318098127
1789223407099481300,11.6114814453125,-7.942834150195122,-5.747132032123208,0.22857191466707735
1789223407109475000,11.62147509765625,-7.947710231798887,-5.73851033425033,0.2716397980264388
1789223407119470300,11.63147021484375,-7.953807964152097,-5.730131797483563,0.2700208002561703
1789223407129464000,11.641464111328125,-7.955601861831545,-5.725224151697755,0.31714970424305644
1789223407139458300,11.651458251953125,-7.91887167532742,-5.76456539748311,0.48128527749795463
1789223407149452300,11.661452392578125,-7.813239217510819,-5.888838842883706,0.6672735303923487
1789223407159446300,11.6714462890625,-7.7495386064946645,-5.9605368823945515,0.7661848632603884
1789223407169440300,11.681440185546874,-7.792024580046534,-5.906313709297776,0.7551127765607089
1789223407179435300,11.691435302734375,-7.866523648452758,-5.8156987878710025,0.6825231950376183
1789223407189429200,11.70142919921875,-7.904286100614071,-5.771813468915224,0.6154837949875742
1789223407199423000,11.711423095703125,-7.94222157125473,-5.721879517444968,0.5929573077397421
1789223407209417200,11.721417236328126,-7.989929663369059,-5.649396465036273,0.6447638846814632
1789223407219411200,11.7314111328125,-7.991246591186523,-5.6339504741013045,0.7542934960670769
1789223407229405200,11.7414052734375,-7.951213271483779,-5.66387390320003,0.9322676981255411
1789223407239400200,11.751400146484375,-7.9076967858403915,-5.702807737228274,1.0567398809686301
1789223407249394200,11.761394287109376,-7.896158323737978,-5.721793008205294,1.0402691500958055
1789223407259388200,11.77138818359375,-7.943605134567618,-5.6588674732148645,1.0231076604798435
1789223407269382100,11.781382080078124,-7.996189308285713,-5.587301535651087,1.0066804034225643
1789223407279376400,11.79137646484375,-7.988408737412095,-5.604374835526943,0.9729805245250462
1789223407289370000,11.8013701171875,-7.9457415620744225,-5.66758444815576,0.95606497249417
1789223407299365400,11.811365478515626,-7.889629798752069,-5.731846784707903,1.034435475506261
1789223407309359000,11.821359130859374,-7.849545625644922,-5.753691536769271,1.204180632271245
1789223407319353000,11.83135302734375,-7.901101625359058,-5.6463739023447035,1.3643465712428091
1789223407329347000,11.84134716796875,-7.975272192463279,-5.530250445652007,1.4077471754215656
1789223407339341000,11.851341064453125,-8.011646405136585,-5.492025636675954,1.3496518370665609
1789223407349336000,11.861336181640626,-8.07056913422644,-5.430548546928167,1.2431577939845622
1789223407359330300,11.871330322265624,-8.121493850299716,-5.373857522413134,1.154716928661242
1789223407369324300,11.88132421875,-8.126496773153542,-5.379414572018384,1.0919423464488238
1789223407379318300,11.891318359375,-8.072860460034013,-5.450083853003382,1.138371212407574
1789223407389312300,11.901312255859375,-7.979177967730164,-5.5513966940551995,1.2981108887910842
1789223407399306000,11.911305908203126,-7.888854138204455,-5.649354379460215,1.4216739939652383
1789223407409301200,11.92130126953125,-7.8663868703305715,-5.668773950201273,1.4681091435343026
1789223407419295000,11.931294921875,-7.901973732018471,-5.619240396225452,1.4674249606624246
1789223407429289200,11.941289306640625,-7.919296038219332,-5.590332281649112,1.4843578291542827
1789223407439283200,11.951283203125,-7.928371909600496,-5.578327955600619,1.4810666786544024
1789223407449277200,11.961277099609376,-7.964832046991586,-5.5446635864079,1.410153505910933
1789223407459271200,11.971271240234374,-8.009918558430671,-5.48774226026833,1.3770502777323126
1789223407469266200,11.98126611328125,-8.038423937425017,-5.437373424512147,1.4103512204401194
1789223407479260200,11.99126025390625,-8.027945213508605,-5.450783525705337,1.4182500108659266
1789223407489254100,12.001254150390626,-7.9995959018588065,-5.496930359852314,1.4002179489605129
1789223407499248400,12.011248291015624,-7.992458889585733,-5.507373427933454,1.3999394242800771
1789223407509242000,12.0212421875,-8.018897983700036,-5.46788079097867,1.4035489930793643
1789223407519236000,12.031236083984375,-8.023240981340408,-5.469527973663807,1.3719510548971592
1789223407529231000,12.041231201171875,-7.978598122015595,-5.528869220426678,1.3942561179466544
1789223407539225000,12.05122509765625,-7.953382432216405,-5.546776633039117,1.4653895093120635
1789223407549219000,12.061218994140624,-7.946371092149615,-5.556734547951817,1.4656994520440696
1789223407559213000,12.071213134765625,-7.918544343069195,-5.602787858596444,1.4407668169699608
1789223407569207300,12.081207275390625,-7.867560005763172,-5.667832869958877,1.465452783806622
1789223407579201300,12.091201171875,-7.839026569718122,-5.704523893496394,1.475959126382321
1789223407589196300,12.1011962890625,-7.889021311464905,-5.651113790348172,1.4137338486157356
1789223407599190300,12.111190185546874,-7.931556384855508,-5.614401139500737,1.3188221067778765
1789223407609184300,12.121184326171875,-7.973430363988876,-5.556763189524411,1.3104105445243417
1789223407619178000,12.131177978515625,-8.030915753751993,-5.470204265490174,1.3234953592859209
1789223407629172000,12.141171875,-8.023556038638949,-5.483439594638347,1.3133245322749019
1789223407639166200,12.151166259765626,-7.976935741761326,-5.54374880965054,1.343773300421983
1789223407649161200,12.1611611328125,-7.968455498185754,-5.54065376624465,1.4054383139573037
1789223407659155200,12.1711552734375,-7.968543760991096,-5.539173756819963,1.4107612625457346
1789223407669149200,12.181149169921875,-7.961997115826606,-5.55493831218481,1.3855150314778089
1789223407679143200,12.19114306640625,-7.931195150327682,-5.599867587235569,1.3813053048282862
1789223407689137200,12.20113720703125,-7.880231855809688,-5.654076147285103,1.4504342245034874
1789223407699131100,12.211131103515624,-7.856159490826726,-5.664204158067703,1.5388079428747294
1789223407709126100,12.221126220703125,-7.855335899484157,-5.660724499258398,1.5557264905802906
1789223407719120400,12.231120361328125,-7.860894702655076,-5.672257700663804,1.4839844657972454
1789223407729114000,12.241114013671876,-7.907571113634109,-5.630668383690715,1.3915012662805617
1789223407739108000,12.251108154296874,-7.9773682879596945,-5.551754421451688,1.307672351732105
1789223407749102000,12.26110205078125,-8.067358940008281,-5.431890609186888,1.2580410364702344
1789223407759097000,12.27109716796875,-8.13826787496805,-5.327365820351242,1.2482600855596362
1789223407769091000,12.281091064453125,-8.112087724050879,-5.355446251931786,1.2975418567314743
1789223407779085000,12.2910849609375,-8.059829713547229,-5.416225422543287,1.3689505579069257
1789223407789079300,12.301079345703124,-8.061196910247206,-5.405933745631575,1.4012038912579416
1789223407799073300,12.3110732421875,-8.084881737217307,-5.383678659203648,1.3494710736721753
1789223407809067300,12.3210673828125,-8.10393539725542,-5.360453850960731,1.3274590022198856
1789223407819062300,12.331062255859376,-8.081043766489625,-5.384553103950619,1.3688327767461537
1789223407829056300,12.34105615234375,-8.023788093829154,-5.462805387410521,1.3953395292691886
1789223407839050000,12.351050048828125,-7.9919158687502145,-5.509817898476124,1.3934025698572396
1789223407849044000,12.3610439453125,-7.975219000971316,-5.530626877748966,1.4065684870310127
1789223407859038200,12.3710380859375,-7.994770673659444,-5.511324211385846,1.3708859098836779
1789223407869032200,12.3810322265625,-8.050220173680781,-5.47105240675211,1.1966280249346046
1789223407879027200,12.391027099609374,-8.118882791018486,-5.402648732611537,1.0322334354173393
1789223407889021200,12.401021240234375,-8.138547276431321,-5.378168371349573,1.0048554530177265
1789223407899015200,12.41101513671875,-8.077949307605623,-5.455773589077592,1.0731528903048484
1789223407909009200,12.421009033203125,-8.020109113055467,-5.533849346926808,1.1066842807676642
1789223407919003100,12.431003173828126,-7.9865815219849345,-5.597630037441849,1.025399351613596
1789223407928997400,12.440997314453124,-7.919594728904962,-5.709321064645051,0.9241502234477549
1789223407938992400,12.450992431640625,-7.879289022001624,-5.766743910565972,0.9120605572033673
1789223407948986000,12.460986083984375,-7.928333915677666,-5.695885829010606,0.9320892728187143
1789223407958980000,12.47097998046875,-7.998252086034417,-5.598267166301608,0.9261470232881605
1789223407968974000,12.48097412109375,-7.999266816034913,-5.601756177461147,0.8957887829687445
1789223407978968000,12.490968017578124,-7.996506119149923,-5.610587134170532,0.8646304052475839
1789223407988963000,12.500963134765625,-8.035862562504411,-5.571556854030489,0.7436713450919836
1789223407998957000,12.51095703125,-8.04873198094964,-5.575486010172963,0.5497754974108189
1789223408008951300,12.520951416015626,-8.019459709236026,-5.625520499408244,0.4606252782417461
1789223408018945300,12.5309453125,-7.9887758171588175,-5.667375773841142,0.48030971046406773
1789223408028939300,12.540939208984375,-7.934917970243096,-5.740975847581028,0.4986546377109363
1789223408038933200,12.550933349609375,-7.872997812902927,-5.8271443109929555,0.4802940014382824
1789223408048928300,12.56092822265625,-7.859068071749806,-5.844427454227208,0.49810113201402123
1789223408058922000,12.570921875,-7.850805854839086,-5.855859533345699,0.4941096146924421
1789223408068916000,12.580916015625,-7.845339406126737,-5.8689119071424,0.42060368550941346
1789223408078910200,12.59091015625,-7.879061642986535,-5.829014196518063,0.3367006462788209
1789223408088904200,12.600904296875,-7.891917032906413,-5.814419269454479,0.28383106148177756
1789223408098898200,12.610898193359375,-7.879939594864845,-5.832355908161402,0.2460925747179426
1789223408108893200,12.62089306640625,-7.915653882324695,-5.784665936225652,0.2246065364337526
1789223408118887200,12.63088720703125,-7.9587407443791625,-5.7255555756092065,0.21644346904857084
1789223408128881200,12.640881103515625,-7.973576494461297,-5.705616364908218,0.19598253602841867
1789223408138875100,12.650875244140625,-8.012875654670596,-5.652169436880945,0.13108907109904103
1789223408148869400,12.660869384765626,-8.063479468226433,-5.580686501425505,0.08135827751806937
1789223408158863000,12.670863037109376,-8.032665812289714,-5.624370744851231,0.11454730255031026
1789223408168858400,12.6808583984375,-7.979661951854824,-5.697730580094456,0.17676805940540508
1789223408178852400,12.690852294921875,-7.971738173118233,-5.710661373338103,0.10057756731351837
1789223408188846300,12.700846435546875,-7.976923466801643,-5.703903715771436,-0.06753385076979175
1789223408198840300,12.71084033203125,-8.009161602583527,-5.656707664832473,-0.15928873601192609
1789223408208834300,12.720834228515624,-8.007052063083648,-5.658066678225993,-0.2092383782416582
1789223408218829300,12.730829345703125,-7.9602178311944005,-5.722271147111058,-0.24683743826849386
1789223408228823300,12.7408232421875,-7.967742966002225,-5.7140539383858435,-0.18720405842494217
