time,seconds_elapsed,z,y,x
1789316187410848300,0.06584814453125,-1.2397019544422625,-0.21480945637226104,-0.8935082708161324
1789316187420881200,0.075881103515625,-1.5599182431817054,-0.3600079086408019,-0.8305795940205455
1789316187430914000,0.0859140625,-1.5390782842487096,-0.5605307732462883,-0.8480895317479967
1789316187440947200,0.095947265625,-1.557869493958354,-0.841017109143734,-1.0393425367701798
1789316187450980000,0.10597998046875,-1.6830699910759925,-1.1134244757428764,-1.4226641740463672
1789316187461013000,0.116012939453125,-1.8098738317370413,-1.2378788306683302,-1.6220263243094086
1789316187471046100,0.126046142578125,-1.9834218879163263,-1.0475716551288963,-1.300857118759304
1789316187481079000,0.1360791015625,-2.102080416044593,-0.8412918344318866,-1.0091950165919958
1789316187491112200,0.1461123046875,-1.9136925181299447,-0.7836205667078494,-0.9168725605949759
1789316187501145000,0.15614501953125,-1.5047265173137188,-0.760171009798348,-0.782184542555362
1789316187511178200,0.16617822265625,-1.0681138001590966,-0.6403109969258308,-0.5570233496472239
1789316187521211100,0.176211181640625,-0.743657974153757,-0.5331164043590426,-0.481522118461132
1789316187531245300,0.186245361328125,-0.46710254796445366,-0.43628100098222494,-0.37968905292749405
1789316187541278200,0.1962783203125,2.2236627226650714,0.566467762079835,3.0580358637496827
1789316187551311400,0.206311279296875,3.4173657269984483,1.546664501594007,4.557184580931067
1789316187561344300,0.21634423828125,2.8421956030249595,1.6876386141657829,3.3776609085977074
1789316187571377200,0.226377197265625,2.1581267129153012,1.4152230642601846,1.4120710299700499
1789316187581410000,0.23641015625,1.7561802354723215,0.8808665967121719,0.5899199493378401
1789316187591443200,0.246443115234375,1.7218693850696085,0.35579175225049253,1.474481016653776
1789316187601476000,0.25647607421875,1.1445955668151377,-0.025072774197161196,1.8684221745565532
1789316187611509000,0.266509033203125,0.7251806526988744,-0.24923019689023493,0.7578644864216446
1789316187621542100,0.276542236328125,0.6881149506300688,-0.4865349781870842,-0.043187692080438135
1789316187631575000,0.286574951171875,0.7435510066479444,-0.6137523680850863,-0.02551350370198488
1789316187641609200,0.296609130859375,0.47829614215195176,-0.46796121062040325,0.15805588801503181
1789316187651642000,0.30664208984375,-0.4593021033465862,-0.06700432873666286,-0.47793490762412544
1789316187661675300,0.31667529296875,-2.7339000634789463,0.5218205188408493,-0.4559092460379004
1789316187671708200,0.326708251953125,-4.22345473062396,0.7500725173711776,0.5465872958287596
1789316187681741300,0.3367412109375,-1.4538976628303526,0.40876960146129127,1.0741852290272713
1789316187691774200,0.346774169921875,1.410884450533986,-0.09135258805155753,1.4137836791068314
1789316187701807400,0.356807373046875,2.10956404979825,-0.5690028335154056,1.5204364198818803
1789316187711840300,0.36684033203125,2.124165406602621,-0.6531883064165711,0.5453951634347438
1789316187721873400,0.376873291015625,2.045387637963891,0.02454407414793968,-0.14986147564351557
1789316187731906000,0.386906005859375,0.4804243863523006,0.5013832954898476,-1.2505392825379966
1789316187741939200,0.396939208984375,-1.0118237576603888,-0.03556698794364929,-2.9102108623698353
1789316187751973000,0.40697314453125,-1.107360353398323,-0.4044669358313083,-2.312273903053999
1789316187762006300,0.41700634765625,0.2520820791900158,-0.14077332930266856,-0.30363544855564834
1789316187772039200,0.4270390625,1.2863351108014582,0.2701914441153407,0.22531594507843256
1789316187782072300,0.437072265625,1.4536159232795238,0.7620435256719589,-0.4810723288670182
1789316187792105200,0.447105224609375,0.5042758020609617,1.3604142002299426,-1.0338184395864605
1789316187802138000,0.45713818359375,-0.336911402952671,1.3404437176078556,-0.2422352234363556
1789316187812171300,0.467171142578125,-0.4316524643987417,0.7298074357166886,0.7759107229828834
1789316187822204200,0.4772041015625,0.022592940080165862,0.18884557855427264,0.9600596681535244
1789316187832237300,0.4872373046875,0.43012861583232875,0.14815613303035496,0.8165370401427149
1789316187842270200,0.497270263671875,0.4332487936794758,0.03834434370249509,0.4865528061047196
1789316187852303400,0.507303466796875,0.0663058250784874,-0.26134353627115486,0.44641807185411453
1789316187862336300,0.517336181640625,-0.389471026751399,-0.2833835186436772,0.36934330774098634
1789316187872370200,0.5273701171875,-0.792312407207489,-0.1720969805881381,0.30664252141714093
1789316187882403000,0.537403076171875,-1.124995963332057,-0.119705406832695,0.11840776823759078
1789316187892436200,0.547436279296875,-0.7821259442359209,-0.05443681584745645,0.04272913465797901
1789316187902469000,0.55746923828125,0.4699252041697502,0.03378434231057763,0.49502895802706476
1789316187912502300,0.567502197265625,1.5658973175913093,0.4682148931205272,0.5031406605511903
1789316187922535200,0.57753515625,1.3647189116865395,0.671729486887902,-0.3857774329304695
1789316187932568300,0.587568359375,0.5790349827080965,0.5285360908314586,-0.9316934053689241
1789316187942601200,0.597601318359375,0.18814239872097968,0.422659741256386,-1.1109832200706005
1789316187952634000,0.607634033203125,0.2546270874977112,0.06461363420784473,-1.6260460813447832
1789316187962667300,0.617667236328125,0.6300678353309631,-0.14064225026890634,-1.7941417173370717
1789316187972700200,0.6277001953125,0.7587456531703471,-0.1562500076368451,-1.139436576616764
1789316187982734000,0.637734130859375,0.11801555404961109,-0.49711029434576626,-1.4654703194633125
1789316187992767000,0.64776708984375,-0.554359975656867,-1.0400739928498863,-1.8007865621790289
1789316188002800000,0.657800048828125,-1.0215858577400445,-0.7676485060721635,-1.6032234241619705
1789316188012833000,0.6678330078125,-0.45394028405249115,-0.7075897586897015,-1.064584749250114
1789316188022866200,0.6778662109375,-0.2305003619790077,-1.0968421742543577,-0.9543480125084519
1789316188032899000,0.687899169921875,-0.1113093344092369,-1.50480805811733,-1.0714625260651112
1789316188042932200,0.69793212890625,-0.454727635037899,-0.9097513304129242,-1.0774769640490411
1789316188052965000,0.707965087890625,0.2332026066750288,0.08583996210992335,-1.3614455891042947
1789316188062998300,0.717998291015625,0.9528361466407775,0.77245283761397,-1.6406538678899407
1789316188073031200,0.72803125,0.845222744140029,0.5003831785365939,-1.5373717725917697
1789316188083064000,0.73806396484375,0.1473603064775467,-0.6781307322323322,-0.9688429863288998
1789316188093098200,0.74809814453125,-1.3350620245695113,-1.98475328265056,0.01409457632601261
1789316188103131400,0.75813134765625,-2.277128939914703,-2.535209382736683,0.7113792141005396
1789316188113164300,0.768164306640625,-2.03153213109076,-2.2432269625738264,0.838489928753674
1789316188123197200,0.778197265625,-1.8017255965948105,-2.4395792634963986,0.6011822248473763
1789316188133230300,0.788230224609375,-2.1718951260268686,-2.926162757000327,-0.4052840974330902
1789316188143263000,0.798262939453125,-2.1904542805463074,-2.4588603025496005,-0.49506315255761146
1789316188153296100,0.808296142578125,-1.4233645774006842,-1.886186671566963,0.32187808447182176
1789316188163329000,0.8183291015625,-0.20664894627034663,-1.8012341598160564,1.0760720656871796
1789316188173362200,0.828362060546875,0.05882277584671974,-2.063791601921618,2.0558570095300674
1789316188183395000,0.83839501953125,-0.6668892072498798,-2.7607617669194937,2.7016969990104434
1789316188193428200,0.84842822265625,-1.1049147138118742,-3.4308570767343043,4.1658185342133045
1789316188203462100,0.858462158203125,0.15517770223021507,-4.302517745944857,5.304396448174119
1789316188213495300,0.868495361328125,0.740250796058774,-5.348404516726732,4.110400013852119
1789316188223528200,0.878528076171875,0.9295248291581869,-5.030151637014747,1.2561907324284314
1789316188233561300,0.888561279296875,0.9361001158952712,-4.657221118436754,-1.0364256994754075
1789316188243594200,0.89859423828125,-0.025188217270374298,-5.555621033751964,-2.847072853672504
1789316188253627400,0.90862744140625,-0.9008306495934725,-6.984701066190004,-3.1716151889175173
1789316188263660300,0.918660400390625,-1.5313567500859497,-6.375423505431414,-0.7651157727241515
1789316188273693200,0.928693115234375,-0.9048755410701036,-4.406800542718172,0.20999884122014045
1789316188283726300,0.938726318359375,0.22998247558474538,-3.197273069526255,0.7928864077031612
1789316188293759200,0.94875927734375,1.2731301767915486,-2.9731489645808935,1.2738245887964963
1789316188303792000,0.958792236328125,2.2852137544319033,-2.787847634504735,1.9969751969724892
1789316188313826000,0.968825927734375,3.0085721601396798,-1.1645946910098195,1.1690233211070298
1789316188323859200,0.978859130859375,3.581898409812152,1.5196972919523715,-1.324495622369647
1789316188333892000,0.98889208984375,4.00495109590888,4.805739070516824,-1.5989742422848938
1789316188343925000,0.998925048828125,3.5335964434579012,4.063514636297524,-2.076865310767293
1789316188353958100,1.008958251953125,2.6340122867941855,2.2660756309807297,-1.795733662703633
1789316188363991000,1.018990966796875,0.6714914403483271,2.0530054194912313,-0.6917465851306915
1789316188374024200,1.029024169921875,0.4513379925996065,2.427045652876794,-0.4558160147964954
1789316188384057000,1.03905712890625,1.7348218056231737,2.731359439085424,-0.7349053433775902
1789316188394090200,1.04909033203125,2.5264026836857196,3.622032559540868,-0.628305501833558
1789316188404123100,1.059123046875,3.2752044504687188,4.279918960645794,-0.4324713795661926
1789316188414156000,1.069156005859375,4.320163877272606,4.693356261657178,-0.5139502238571644
1789316188424189200,1.079189208984375,9.830932208341359,6.2252411272704595,0.016447276932001112
1789316188434223000,1.08922314453125,10.738925004649161,7.151155364716052,1.2977151674717664
1789316188444256000,1.099256103515625,9.392574108824133,4.888252810813486,1.0830541796594857
1789316188454289000,1.109288818359375,9.187200589317083,3.0877155472204088,2.562178638204932
1789316188464322000,1.119322021484375,6.3207034887284035,1.3547723949506878,4.3249253925859925
1789316188474355000,1.12935498046875,3.749457162448764,0.8794076300755143,2.5049761570364235
1789316188484388000,1.13938818359375,3.0083307525992393,1.299840196801722,0.9539531679719686
1789316188494421000,1.1494208984375,0.4700122979313135,0.47240240793824195,-0.9072983843028545
1789316188504454100,1.1594541015625,-0.013626374292373657,0.6897068959966302,-2.358855621486902
1789316188514487000,1.169487060546875,2.0571265910744665,0.9821578104540705,-1.3873960229188202
1789316188524520200,1.179520263671875,4.3903871680557724,0.9221350111678243,-3.529275365388393
1789316188534553000,1.189552978515625,3.6218840909808874,3.1382334360584614,-3.1773464260458946
1789316188544587000,1.1995869140625,0.21235267433729021,4.34012033136934,-2.431702831032872
1789316188554620000,1.209619873046875,0.091467117809318,1.071954985757172,-0.31762685676813124
1789316188564653000,1.219653076171875,1.2798837427049874,1.0811071372449397,-3.100596363842487
1789316188574686000,1.22968603515625,-1.734934618347883,0.8283511043161154,-1.8419851262688636
1789316188584719000,1.239718994140625,-0.39827104033324867,-0.588685439106822,0.7121504907339811
1789316188594752000,1.249751953125,-0.48947987253256137,-0.08435469198822974,-0.24842238763868807
1789316188604785000,1.259784912109375,-1.1820341938495635,0.9661252518028021,0.699352968481183
1789316188614818000,1.269818115234375,-1.8053589846611022,0.08568097215592861,1.9090104977935551
1789316188624851000,1.279850830078125,-1.6749977437794208,-2.125888577133417,1.4858236639231444
1789316188634884000,1.289884033203125,-1.8562858926914632,-4.845704585680365,1.2476298248320816
1789316188644917000,1.2999169921875,-2.3068588922679423,-4.687828730407357,-0.8207873910635709
1789316188654951200,1.309951171875,-0.5772773253858089,-3.3746769243508576,-0.9075263478398322
1789316188664984000,1.319984130859375,2.1181576906204223,-0.049509004056453705,-1.1430091744065285
1789316188675017200,1.330017333984375,3.949151467275619,2.220125780710578,1.1693366248399018
1789316188685050000,1.340050048828125,1.6656868945986032,1.151822010937333,1.0772674129515887
1789316188695083300,1.350083251953125,0.6754290720582008,-1.7721236545354127,1.7088152577072382
1789316188705116200,1.3601162109375,0.8540466135215014,-1.7971540508955717,1.6589660619109867
1789316188715149000,1.370149169921875,1.1185473717145622,2.0725936247974635,2.0168144544303415
1789316188725182000,1.380181884765625,2.142184316765517,2.928844543430209,3.215934223115444
1789316188735215000,1.390215087890625,2.1392979476742444,2.3312919072568414,2.8927111537754535
1789316188745248000,1.400248046875,0.47032384809851646,2.8912884274959563,1.7234826654851436
1789316188755281000,1.410281005859375,-1.904717769035697,0.7973316966742277,3.2327427345752713
1789316188765314000,1.42031396484375,-2.2097247982054946,-2.3221616753399372,3.5445138510525225
1789316188775348200,1.43034814453125,-2.252659246177226,1.2061410456240176,-2.7964591032445427
1789316188785381000,1.440381103515625,-1.522638459970802,4.267149495443702,-5.560376703846455
1789316188795414000,1.4504140625,-1.808593144276738,5.391827478867769,-5.083375277680158
1789316188805447200,1.460447265625,-1.7068787366867064,5.422405572482943,-2.701030059534311
1789316188815480000,1.47047998046875,0.244644038143754,3.8088691363602876,0.9201701408356427
1789316188825513200,1.48051318359375,1.2976339189291,1.9326959092855451,2.609917125457525
1789316188835546000,1.490546142578125,-0.34821780986487866,2.226530387055874,0.23416823683679103
1789316188845579300,1.500579345703125,-0.2859966237515211,3.710330436196923,-1.1369555734559893
1789316188855612200,1.510612060546875,0.02830897963941097,5.737396820050478,-1.9495511824965477
1789316188865645000,1.52064501953125,0.4342454765666276,6.717049077424407,-2.1996567009165884
1789316188875678000,1.530677978515625,0.6902724209249019,7.207355975365639,-2.6996976418867704
1789316188885712100,1.540712158203125,0.963956748657301,7.418498141402006,-3.153862674605846
1789316188895745000,1.5507451171875,1.2838731046020984,7.505103242665529,-3.225623550219834
1789316188905778200,1.560778076171875,1.2800199363052844,7.443237445861101,-2.8368498580828305
1789316188915811000,1.57081103515625,1.2631675857037306,7.249137600040435,-2.6111773546516894
1789316188925844000,1.580843994140625,1.9308149178445337,6.830515882128477,-2.6433330728471276
1789316188935877000,1.590877197265625,3.5615579248338936,5.919633794119954,-1.680241781912744
1789316188945910000,1.600909912109375,1.316022685317695,5.333121607398986,-0.4978421157516539
1789316188955943200,1.610943115234375,-1.4029425516188143,-3.119075438863039,-3.0339053388386965
1789316188965976000,1.62097607421875,-0.6285363879799842,-22.49364851580858,-3.580633796703815
1789316188976009200,1.63100927734375,-9.901106399285792,-29.510878225159644,5.676527633067965
1789316188986042000,1.6410419921875,-9.200203278753161,-29.48721911715269,9.051814798271655
1789316188996076000,1.651075927734375,8.729228857791423,-26.540090144491195,1.4575518014237283
1789316189006109000,1.66110888671875,6.374697529244423,-11.559223150891064,-2.7766291981369253
1789316189016142000,1.67114208984375,-0.08158566566631198,0.09572773439586162,-2.6575264333724973
1789316189026175000,1.681175048828125,-1.3746170592360198,3.1206705990999937,-1.8466171699836849
1789316189036208000,1.6912080078125,-2.949592732426524,4.8758816972792145,-1.394439657820016
1789316189046241000,1.701240966796875,-1.8865246713496744,4.37274863551259,-0.7574329631365835
1789316189056274200,1.711274169921875,0.6374193671375513,4.7443929136723275,0.6082957101143897
1789316189066307000,1.72130712890625,2.362133035722375,3.033333091908693,1.6681003854811192
1789316189076340000,1.731340087890625,2.6771441570341588,1.9331378078341483,1.0970135852985083
1789316189086373000,1.741373046875,1.8157038530647753,0.9434767821431159,0.9394064639642834
1789316189096406000,1.751406005859375,1.246186786416918,0.10432897400259972,0.994070658826828
1789316189106440200,1.761440185546875,0.38153848018646236,-0.5844301197499037,0.8006387753956019
1789316189116472800,1.771472900390625,-0.5151876566976309,-0.3682897070348263,0.6992267117530107
1789316189126506000,1.781506103515625,-0.31581425438821314,-0.006284779357910156,0.4757755376331508
1789316189136539000,1.791538818359375,-0.05069821384102106,0.35684710652232166,0.4748424945667386
1789316189146572000,1.801572021484375,0.07584332262203097,0.844756295672059,0.23428236473575234
1789316189156605000,1.81160498046875,0.20280513032376765,0.728092740753293,0.03204641260206699
1789316189166638000,1.82163818359375,0.4170211508475244,0.5666413650810718,-0.08177432010620832
1789316189176671000,1.8316708984375,0.602873392804712,0.3941343423873186,-0.2115241510912776
1789316189186704100,1.8417041015625,0.5224846818380058,0.22609423597455022,-0.1646095474421978
1789316189196737000,1.851737060546875,0.3298385419569909,0.08494330553114414,-0.03684899057820439
1789316189206770200,1.861770263671875,0.3992833957135677,-0.05133388139605522,0.0936766470849514
1789316189216803000,1.871802978515625,0.4269588997550308,-0.0011468319475650788,0.17361118454337118
1789316189226837200,1.881837158203125,-0.004925912094861268,0.16278583914637565,0.11552563693001866
1789316189236870100,1.8918701171875,0.2499083884127438,-0.17580138806402681,-0.20114362685233353
1789316189246903300,1.9019033203125,0.28163784402012826,-0.32834523465931414,-0.2163334510691464
1789316189256936200,1.911936279296875,0.13493556305989624,-0.2803893052637577,-0.37463206179887054
1789316189266969000,1.921968994140625,0.12364493823871016,-0.2722422391653061,-0.21234262786731123
1789316189277002000,1.932001953125,0.28311186209544537,-0.374532400816679,0.04594502796456217
1789316189287035000,1.942034912109375,0.39042306677922606,-0.5304162054896354,0.12202785843089223
1789316189297068000,1.952068115234375,0.28097835719808933,-0.6810153477579355,0.09051949822828173
1789316189307101000,1.962100830078125,0.3410625312827527,-0.7459598213553428,-0.08654927942305803
1789316189317134000,1.972134033203125,0.3665886022053659,-0.706246235126257,-0.33353491225689647
1789316189327167000,1.9821669921875,0.42615488989576694,-0.5007487969785929,-0.5043170108541846
1789316189337201200,1.992201171875,0.4200963205091655,-0.1732353369683027,-0.4807055413812399
1789316189347234000,2.002234130859375,0.39776130071282384,0.2767494874566793,-0.2275062947295606
1789316189357267200,2.01226708984375,0.3891339037515223,0.7467980257451534,0.11717588835507631
1789316189367300000,2.022300048828125,0.45773558468222614,0.8335381515651941,0.3708645259588957
1789316189377333000,2.0323330078125,0.6549620380908251,0.5482417850375175,0.46713688862547276
1789316189387366100,2.0423662109375,0.7732347817718982,-0.0016267244189977644,0.7218601299740374
1789316189397399000,2.05239892578125,0.9637648062817752,-0.23016250832676885,1.0147466593697667
1789316189407432200,2.06243212890625,1.3002883789606392,-0.1492640942722559,0.9965646675996481
1789316189417465000,2.072465087890625,1.346430829193443,0.09078560181856155,0.8902376516476272
1789316189427498000,2.082498046875,1.0852759473621845,0.6239683494120836,0.9543595568157732
1789316189437531000,2.09253076171875,0.8412428807236254,1.1620166572153567,0.821652775721252
1789316189447565000,2.10256494140625,0.8111988939851522,1.1111416255027056,0.5695870631441473
1789316189457598000,2.112597900390625,0.5312362166356295,0.7966384537130594,0.27620135205462576
1789316189467631000,2.122631103515625,0.10905205700173973,0.5502005178898572,0.01325476450100541
1789316189477664000,2.1326640625,-0.11951821369752287,0.37346038767099377,-0.17864231057837604
1789316189487697200,2.142697265625,-0.1708224306076765,0.2544242584019899,-0.3628561376787722
1789316189497730000,2.15272998046875,-0.16401516174562275,0.10251169544756412,-0.4723040621303022
1789316189507763000,2.162762939453125,0.005751695394515991,-0.055471711853146546,-0.5296572038158774
1789316189517796000,2.172796142578125,0.20486198978833853,-0.1954173581600189,-0.45857451972439883
1789316189527829000,2.1828291015625,0.5140706353664398,-0.338789471784234,-0.42370647383034227
1789316189537862100,2.192862060546875,0.8007084065657109,-0.4583849885016679,-0.5519342098146677
1789316189547895000,2.20289501953125,0.793535811522603,-0.442989266449213,-0.5325768906548619
1789316189557929000,2.212928955078125,0.6264414615273475,-0.1825643063277006,-0.4563847545951605
1789316189567961900,2.2229619140625,0.5704056860506534,0.15736439861953258,-0.3005288608424365
1789316189577995000,2.2329951171875,0.42034664200842375,0.4955886377364397,0.027834201734513044
1789316189588028000,2.24302783203125,0.21768526753690093,0.71964990657866,0.442711326290667
1789316189598061000,2.25306103515625,0.23809268027152863,0.7560399013429879,0.5972422550499439
1789316189608094000,2.263093994140625,0.4156283813148737,0.6307657544672489,0.6894917919412255
1789316189618127000,2.273127197265625,0.6015946050405502,0.5255857165932655,0.5929014493666589
1789316189628160000,2.283159912109375,0.6861883664816617,0.3788923495918512,0.4525584743052721
1789316189638193200,2.293193115234375,0.6237947464108466,0.3764280053049326,0.46631753506660456
1789316189648226000,2.30322607421875,0.4211725714385509,0.5652759219467639,0.7356566001363098
1789316189658259000,2.313259033203125,0.47222354423999785,0.7258031685113906,1.1648710237331688
1789316189668293000,2.323293212890625,0.7188859364688396,0.9274602978438139,1.6353592686131595
1789316189678326000,2.333325927734375,0.9813117150187491,1.134298629206419,2.127781989664584
1789316189688359000,2.34335888671875,1.3082277936577795,0.9126754011660814,2.5346131704092025
1789316189698391800,2.353391845703125,1.4502315415382385,0.4177583790808916,2.8516867772087453
1789316189708425000,2.363425048828125,1.5039222151935099,-0.23621640153825282,2.8735423429250715
1789316189718457900,2.373457763671875,1.4512088621377943,-0.8239309497863054,2.6717799996525047
1789316189728491000,2.383490966796875,1.5070377168655396,-1.0790145488798617,2.4141715582564474
1789316189738524000,2.39352392578125,1.4479087976790963,-0.9527589897513389,2.1768355050384995
1789316189748557000,2.40355712890625,1.2781997351408003,-0.4664952297210693,1.7214742482721805
1789316189758590000,2.41358984375,1.2214449977397919,0.02691957110762596,1.2953756186082959
1789316189768623000,2.423623046875,1.4696926133334636,0.1369675072789192,1.0175071370590478
1789316189778657000,2.433656982421875,1.669574695817381,-0.12346914328038691,0.8043678789213299
1789316189788690200,2.443690185546875,1.6737866144239901,-0.6035106677949428,0.5117308673072606
1789316189798723000,2.45372314453125,1.479642491070181,-1.1126017611831427,0.2233317124586552
1789316189808756200,2.463756103515625,1.2988532315909862,-1.3202975861579178,0.2688926364764571
1789316189818789000,2.4737890625,0.8739068407021462,-1.1106734234690665,0.4685459517057985
1789316189828822000,2.483822021484375,0.383011621478945,-0.7500999898999929,0.4329744337175041
1789316189838855000,2.49385498046875,0.20959785920381543,-0.47358489572107787,0.4645243680395186
1789316189848887800,2.5038876953125,0.19047829432263969,-0.3523994794636965,0.4088244003884494
1789316189858921000,2.5139208984375,0.3183274062529206,-0.47245676847398277,0.3440435929201543
1789316189868953900,2.523953857421875,0.6110007312893867,-0.5344166733026504,0.5724012437820434
1789316189878987000,2.533987060546875,0.9490684646703302,-0.6805693575561046,0.3128767396315932
1789316189889020000,2.54402001953125,1.3355381176486611,-0.9918892231345177,0.7719219456076621
1789316189899054000,2.55405419921875,1.5470385956034063,-1.2105804893761873,1.3442884103372692
1789316189909087000,2.5640869140625,1.358306122034788,-1.190254325184226,1.1390846213739365
1789316189919120100,2.5741201171875,0.9244397809788584,-1.0949258192390203,1.1016397107291966
1789316189929153000,2.584153076171875,0.7189815057978034,-0.8939321222513914,0.8511326988361776
1789316189939186200,2.594186279296875,0.8270259931921958,-0.47640579836070535,0.9008297728106379
1789316189949219000,2.604218994140625,1.3124480417013167,-0.1075795002311468,1.1405669688861817
1789316189959252200,2.614252197265625,1.961609576819837,0.006314005452394485,1.0109500435657799
1789316189969285000,2.62428515625,2.2581483451128004,-0.05465104312002658,0.9319414618458598
1789316189979318000,2.634318115234375,2.493289518634975,-0.3367161726415157,1.1024826643593608
1789316189989351000,2.644350830078125,2.0996312693268058,-0.6130605864286423,1.443040753251314
1789316189999385000,2.654385009765625,1.4899603253364562,-0.7864303634315729,1.743842878077179
1789316190009418000,2.66441796875,1.1398512948974966,-0.9978495928436517,1.3584250722393392
1789316190019451100,2.674451171875,1.0521309258684515,-0.9229805220812558,0.9218814747981726
1789316190029484000,2.684484130859375,0.8247498649537562,-0.6575310117959976,0.9491857343744486
1789316190039517000,2.694516845703125,0.9108619220033287,-0.3303045520335436,1.2199940682791173
1789316190049550000,2.704550048828125,1.15883072065562,-0.007462006443738937,1.1026007377810776
1789316190059583000,2.7145830078125,1.2480147324964403,0.11331015283763408,1.0675329315312205
1789316190069616000,2.7246162109375,1.0950459384873508,0.13919512020051478,1.3013272204890847
1789316190079649000,2.73464892578125,0.7332502696469426,0.14430384151637554,1.5526786473169922
1789316190089682200,2.74468212890625,0.18431962556242942,0.11846095972955226,1.0851640114203094
1789316190099715000,2.754715087890625,0.03955868792831897,0.10047697474956511,0.6248213129796087
1789316190109749000,2.7647490234375,0.17979279578775167,-0.06628653585612773,0.2689462298272177
1789316190119782000,2.774781982421875,0.48217561393380165,-0.39219256066977976,-0.15380586588773876
1789316190129815000,2.78481494140625,0.6056134852930903,-0.6298258432686329,0.02804562969522085
1789316190139848000,2.794847900390625,0.21747955236434935,-0.8699690628618001,0.21614718951573594
1789316190149881000,2.804881103515625,-0.5724642260156572,-1.2020868017971515,-0.03519105817019008
1789316190159914000,2.8149140625,-1.0842553721427917,-1.4310516247719525,-0.1664187888212502
1789316190169947000,2.82494677734375,-1.0169615589402616,-1.793141308122873,-0.26963795668473467
1789316190179980000,2.83497998046875,-0.6999145478866994,-1.8842220934957266,-0.06771866928478702
1789316190190013000,2.845012939453125,-0.5430455315686762,-1.368291509476304,0.08960107734226622
1789316190200046000,2.855046142578125,-0.7848255585834384,-1.1505956840127707,-0.29878879397576674
1789316190210079000,2.865078857421875,-0.7514074923019856,-1.4952929185360668,-0.621949703066051
1789316190220112100,2.875112060546875,-0.6311024390757084,-1.5924562386929988,-0.9071787034459412
1789316190230146000,2.88514599609375,-0.3464589834988117,-1.428805307149887,-0.9127738931044935
1789316190240179000,2.895178955078125,0.020023381853103636,-1.3170365385353564,-0.500840018926002
1789316190250211800,2.9052119140625,-0.02272035671896301,-1.3115560612976551,-0.6718802935354411
1789316190260245000,2.915244873046875,-0.3433598484396934,-1.2251865223556757,-1.2573532003365457
1789316190270278000,2.92527783203125,-0.9759639242500067,-1.0048726233482361,-1.3655921873897314
1789316190280311000,2.93531103515625,-1.4194798449218273,-1.1863315987825394,-1.534944545444846
1789316190290344000,2.945343994140625,-0.9732581724226474,-1.3037807511210442,-2.0840654514044523
1789316190300377000,2.955377197265625,-0.5862116694044321,-1.0948907479256391,-2.4194281636103985
1789316190310410000,2.965409912109375,-0.5670253959625959,-0.603454553693533,-2.220119643230736
1789316190320443000,2.97544287109375,-0.9073826285202056,-0.06679214729070664,-1.8272721257835625
1789316190330477000,2.98547705078125,-1.3083733396083115,0.5695253960847855,-1.4041224090531468
1789316190340510500,2.995510498046875,-1.370900815191865,1.3138777822434902,-1.1788500108554958
1789316190350543600,3.005543701171875,-1.294043785482645,2.1105571524888274,-0.9546185730781406
1789316190360576500,3.015576416015625,-1.1733167805172502,2.6822709985285997,-0.594382408639416
1789316190370609400,3.025609375,-1.1335488337524235,3.082511256575584,-0.0635984475496225
1789316190380642300,3.035642333984375,-1.05652565369606,3.299796163150668,0.5326321279734373
1789316190390675200,3.04567529296875,-0.7733511016279458,3.2676199866890907,0.780221571919322
1789316190400708400,3.055708251953125,-0.28572423655092716,3.08024389616549,0.7059026823855936
1789316190410741200,3.0657412109375,0.12609481560885905,2.972045387253165,0.48778497824817896
1789316190420774400,3.0757744140625,0.2988992138139903,3.079620795831084,0.6208711140491068
1789316190430807300,3.085807373046875,0.3920347397595644,3.4500755719453093,1.0183699644334614
1789316190440841500,3.095841552734375,0.7905335609667002,3.9073341867655516,1.211610416945815
1789316190450874400,3.105874267578125,1.909008744227886,4.011173915946483,1.2327362070828676
1789316190460907500,3.115907470703125,3.4794659170806406,3.108323158702254,1.3930816673398017
1789316190470940400,3.1259404296875,4.356367994076013,1.485262522909045,0.9154418702047318
1789316190480973600,3.1359736328125,3.418879054170847,-0.19588731375932691,-0.4957902612557634
1789316190491006500,3.14600634765625,1.8501283929750323,-1.2293512408196925,-1.3713713553130626
1789316190501039600,3.15603955078125,0.4020842784784734,-1.6953583947628736,-2.213521852400899
1789316190511072500,3.166072509765625,-0.4475434226222336,-1.2495868041187523,-2.9443171301111577
1789316190521105400,3.17610546875,0.23940146131515502,0.07896598468720913,-2.9175004348561164
1789316190531138300,3.18613818359375,1.2251746857874095,1.3575000663489103,-2.2687315523169933
1789316190541171200,3.196171142578125,1.3402676303885876,2.202213691923022,-1.2480015807539224
1789316190551205400,3.206205322265625,0.7957141784749925,2.770402286446094,-0.44582310163564975
1789316190561238300,3.21623828125,0.33040976597368715,2.545166128605604,-0.0973744604232721
1789316190571271400,3.226271484375,-0.0973585504680872,1.4180992042183875,-0.0370883705583401
1789316190581304300,3.23630419921875,0.2112333514511585,-0.41675300143063065,-0.1123265577609185
1789316190591337500,3.24633740234375,0.3543804241478443,-1.9901433051258324,-0.011832211751444265
1789316190601370400,3.256370361328125,-0.7100995495535433,-2.691079158884287,0.6711983756858855
1789316190611403500,3.266403564453125,-2.7866555021107193,-2.106511091968417,0.9325544791776686
1789316190621436400,3.2764365234375,-4.7860517887502905,-0.9512100067436694,0.8325075664084404
1789316190631469600,3.286469482421875,-3.8813305614590643,-1.1706015302091837,1.2014092678617685
1789316190641502500,3.29650244140625,-0.1817588351637125,-3.184545982161164,1.5320149217337369
1789316190651535600,3.30653564453125,0.9155882198728621,-4.523452407199144,1.1600452840771525
1789316190661569300,3.3165693359375,-0.9277939137123524,-3.9797482655912635,0.08115922954832203
1789316190671602400,3.3266025390625,-1.5579828912049531,-1.5515642563343046,-0.6524234595239162
1789316190681635300,3.33663525390625,0.1677764870405197,1.2602975832253693,-0.7251650898035615
1789316190691668500,3.34666845703125,1.7656467136062681,3.0082442433595658,-0.2687558400879614
1789316190701701400,3.356701416015625,2.79266029548347,3.7774668668806552,0.2642190551748499
1789316190711734300,3.366734375,3.02283858590126,4.002085769605636,1.265710255923867
1789316190721767400,3.376767333984375,2.50412509316504,3.8906238749831914,1.9476969329319893
1789316190731800300,3.38680029296875,1.8779197784811257,3.66206938637495,2.4243448694854974
1789316190741833500,3.39683349609375,1.1830734737694262,3.140783997324109,2.4602722151741383
1789316190751866400,3.406866455078125,0.9229892899096012,2.2488626303732393,2.184465707655996
1789316190761900500,3.416900634765625,1.3993284527748822,0.9135217888623476,1.586117537190765
1789316190771933400,3.426933349609375,2.1118606363028287,-0.7092278812855481,1.6863808691896498
1789316190781966300,3.43696630859375,1.7524971630454063,-2.0473872873485086,1.6983100841753185
1789316190791999200,3.446999267578125,1.4212801723420618,-2.9182524222671984,1.251796735253185
1789316190802032400,3.457032470703125,0.874760388791561,-2.8068852201908827,0.8535694975290447
1789316190812065300,3.467065185546875,0.8053741333544254,-1.9916718298673628,0.3478847785182297
1789316190822098400,3.477098388671875,1.0985469323456287,-1.4449614921808243,0.4386668732054531
1789316190832131300,3.48713134765625,1.643605411171913,-1.2589140199124813,0.9481320606030523
1789316190842164500,3.49716455078125,2.0979250499308106,-1.0681108775496482,1.5226327608823775
1789316190852197400,3.507197265625,2.329677457797527,-0.757908617824316,2.0631436594069004
1789316190862230300,3.517230224609375,2.507006201559305,-0.3004606179118156,2.3220617220968007
1789316190872264400,3.527264404296875,2.7963702559173105,0.2145756476163864,2.1648510527342557
1789316190882297600,3.537297607421875,3.0259575947046278,0.4850871174663305,1.866663932712376
1789316190892330500,3.54733056640625,3.3873125340402126,0.16063012241721153,1.5127116708487272
1789316190902363400,3.55736328125,3.9163001680314538,-0.6240671336114406,0.8933404399685562
1789316190912396500,3.567396484375,4.456868349701166,-1.7514947080045937,0.4591081882096827
1789316190922429400,3.577429443359375,4.2401790709316725,-2.979911882844567,0.2703925196453929
1789316190932462300,3.58746240234375,3.4023628036558624,-3.9079736537128684,0.1120499236434698
1789316190942495200,3.5974951171875,2.5773066492319106,-4.240112435436249,0.30521131957024333
1789316190952528400,3.6075283203125,1.5868680632971226,-3.7868227242469787,0.6665175974585116
1789316190962561300,3.617561279296875,1.2625066375769673,-3.1163924833893772,1.2062307697340846
1789316190972595500,3.627595458984375,1.8393442563712596,-2.9861551611483095,1.5827059751816093
1789316190982628400,3.63762841796875,2.4871499929666516,-3.4332892723172903,2.030108820289373
1789316190992661500,3.64766162109375,2.4621686964452265,-3.8775907904088496,2.0675579687178134
1789316191002694400,3.6576943359375,1.8186476514317094,-3.947126683449745,1.8562195494569838
1789316191012727600,3.6677275390625,0.8290354333184659,-3.278472804614901,1.7840629525236784
1789316191022760400,3.677760498046875,0.44810617107152934,-2.38502583553195,1.631650038831681
1789316191032793300,3.68779345703125,0.5353204902745783,-2.0432804365515707,1.514794176211208
1789316191042826500,3.697826416015625,0.3767291071433574,-1.9526140771985052,1.3105460074722766
1789316191052859400,3.707859375,0.32703298301696776,-1.762994007140398,0.9457475035540759
1789316191062892500,3.717892578125,0.4722949289757758,-1.695678128236532,0.38803324903324243
1789316191072925400,3.727925537109375,0.7678606875181198,-2.1468986319363115,0.027310762382298705
1789316191082959400,3.73795947265625,0.8907856409192084,-2.6603946822851894,-0.4502214096598327
1789316191092992300,3.7479921875,0.9674871878057718,-2.90569747659862,-0.5075418181195854
1789316191103025400,3.758025390625,0.9302800314396619,-2.519319155165553,-0.45676060217022896
1789316191113058300,3.768058349609375,0.30283852602429684,-1.3148042494386434,-0.4868599723577499
1789316191123091500,3.778091552734375,-1.2778903769306837,-0.03213292184174061,-0.9545219077706336
1789316191133124400,3.788124267578125,-2.1237673471957446,0.20642507438659666,-1.2541755932137368
1789316191143157500,3.798157470703125,-1.203277472886443,0.8813117101311683,-0.6245841432228684
1789316191153190400,3.8081904296875,-0.12260463540554047,1.9167904841452836,-0.527755754108727
1789316191163223600,3.8182236328125,2.0041845438294112,2.91625452644825,-0.7250903440669179
1789316191173256400,3.82825634765625,3.374408044281602,3.574481119292974,-0.9552402851730585
1789316191183289300,3.838289306640625,4.435815624800324,3.422538161200285,-1.1322186080619692
1789316191193323300,3.8483232421875,3.3457427985504267,3.281110751903057,-0.6647323214769363
1789316191203356400,3.8583564453125,-0.9171011086538433,4.665676519832015,-0.3954161988914013
1789316191213389300,3.868389404296875,-10.870807171487808,5.35773348608613,-1.2600477001175283
1789316191223422200,3.878422119140625,7.502370018309354,-8.775253526863455,1.343313135564327
1789316191233455400,3.888455322265625,10.224475599098206,-14.646851312088966,-1.9682149664342403
1789316191243488300,3.89848828125,-1.791229921543598,-4.4868414631605145,-2.515956985256076
1789316191253521400,3.908521484375,2.6503923437088726,-1.8320429934471845,-1.601426603873074
1789316191263554300,3.91855419921875,2.4355481082841752,2.2208260379344225,-0.6181666773959994
1789316191273587500,3.92858740234375,2.232043012997508,3.1808529728621244,-0.6631053047969937
1789316191283620400,3.938620361328125,1.4152958372354507,3.061117755413055,-0.7249366148099303
1789316191293654500,3.948654541015625,0.41357203330695624,2.621855400532484,0.1684048480719328
1789316191303687400,3.9586875,0.3189280024945736,1.2328221318006516,1.2982538043931127
1789316191313720600,3.968720458984375,-0.7697861026227474,1.8872043241769074,2.344629819996655
1789316191323753500,3.97875341796875,-1.6040566601157187,1.458182792803645,2.9088825363755224
1789316191333786400,3.988786376953125,-1.7877303889900444,1.596456121984124,3.7076799216881393
1789316191343819300,3.9988193359375,-2.8999504573792216,1.921873486497998,3.935904739950597
1789316191353852200,4.00885205078125,-2.9821266362845895,2.6071359703063965,3.5740728307530283
1789316191363885000,4.018885009765625,-1.7945587737053632,3.857964298918843,2.537435826614499
1789316191373918000,4.02891796875,-1.4023568606853485,4.790437456488609,1.1912190785631536
1789316191383951000,4.038951171875,-1.4761737920463085,5.269621487390995,0.6692948070868849
1789316191393984000,4.04898388671875,-1.8779460819661615,5.224887442651391,0.8823743709266185
1789316191404018200,4.05901806640625,-2.541560797590017,5.282888380721211,1.323490244719386
1789316191414051000,4.069051025390625,-2.9561361627206204,4.745261513200402,1.9683640195161103
1789316191424084200,4.079084228515625,-2.813842199721932,3.5086166082412,2.4005206340447067
1789316191434117000,4.0891171875,-2.753093424248695,2.567672559446096,2.2711922433421012
1789316191444150300,4.099150390625,-2.908714778593182,2.2252795102119443,1.853125821225345
1789316191454183200,4.10918310546875,-2.633696644973755,1.5590116497308015,1.3713196251258253
1789316191464216300,4.11921630859375,-2.4007576576709746,0.704332510459423,0.8424655543863773
1789316191474249200,4.129249267578125,-2.3167156848937274,0.5323053802371025,0.3184711986377835
1789316191484282400,4.139282470703125,-1.8760311882555483,0.3575134614765644,0.2831532170191407
1789316191494315300,4.149315185546875,-1.2889420784294605,-0.28502339480519295,0.32836569292545315
1789316191504349200,4.15934912109375,-1.2349486224353312,-0.8497802613139152,0.009015373365581034
1789316191514382000,4.169382080078125,-0.35143092669248577,-1.5549568213820457,-0.9382856432408094
1789316191524415200,4.179415283203125,0.7051309673607349,-1.4995909079909324,-1.8759642604991793
1789316191534448000,4.1894482421875,1.6487269919693468,-1.0668155770421028,-2.137822029902786
1789316191544481000,4.19948095703125,2.4952596496641632,-0.5345224717646837,-1.6694110296882687
1789316191554514200,4.20951416015625,2.4883850877195597,0.2124976722985506,-1.0339791831061242
1789316191564547000,4.219547119140625,1.6801228317081927,0.5422866760253906,-0.41564606310203667
1789316191574580200,4.229580322265625,0.3362193290352821,0.6625327656060457,0.5808275652132928
1789316191584613000,4.239613037109375,-0.7535200274765491,0.30564649611711503,1.422392663628608
1789316191594646300,4.249646240234375,-0.7607324430733918,-0.9079302524656057,1.8169776723928748
1789316191604680000,4.259679931640625,-0.7669803975522518,-1.7138672803997992,1.125329725331068
1789316191614713000,4.269713134765625,-0.6892085910856723,-1.1548843211174011,-0.0671017977617681
1789316191624746000,4.27974609375,-0.631339754962921,0.5302034395217895,-1.4684391061410307
1789316191634779100,4.289779052734375,-0.9891209274649619,2.3267285448640584,-2.4967200776055454
1789316191644812000,4.29981201171875,-0.40510698730051514,2.874967991814017,-2.781727398058772
1789316191654845200,4.30984521484375,1.1063690042734144,1.4457447515130042,-2.1315403192847966
1789316191664878000,4.319878173828125,2.231185519385338,-1.4209826507002115,-1.9010536935701965
1789316191674911200,4.3299111328125,3.2521202197402714,-6.6754363795757286,-2.7023703682273625
1789316191684944100,4.339944091796875,4.985097274279594,-10.192934797930716,-3.3039427614361045
1789316191694977000,4.34997705078125,4.846821607011556,-9.426219773316383,-1.1920954960715024
1789316191705011200,4.36001123046875,2.134547684407234,-3.666230597707629,1.6169813158795237
1789316191715044400,4.37004443359375,1.2473802339851856,2.0678017143458125,3.019939357328415
1789316191725077200,4.3800771484375,3.193790780368447,2.611608147284388,1.955511990597099
1789316191735110100,4.390110107421875,2.077068139863014,1.2592805151373148,0.4347889723261818
1789316191745143300,4.400143310546875,-0.2386135258078575,0.09638941317498684,-0.3762180523486808
1789316191755176200,4.41017626953125,-1.9619044681131839,0.45796588630676266,-1.4688430107668042
1789316191765209000,4.420208984375,-2.8601363333851095,2.469094111794233,-1.6959519767418503
1789316191775242000,4.430241943359375,-2.096895122361183,2.511349783721566,-0.9660678225271403
1789316191785275100,4.440275146484375,-1.130706742194295,1.890396398216486,0.040783480482921
1789316191795308000,4.45030810546875,-0.6279448518276214,1.9499357978999614,0.40860801769141103
1789316191805342200,4.46034228515625,-0.9630845689326524,2.1800229029029605,0.7873724665872752
1789316191815375000,4.470375,-1.4433563950717447,1.7124556600362062,1.0829157941021024
1789316191825408300,4.480408203125,-1.6444366012990475,1.5685434481859206,1.5075345604717731
1789316191835441200,4.490441162109375,-1.1780167749017476,1.530569399100542,1.8529368745245038
1789316191845474300,4.500474365234375,-0.1819020430266857,1.4536229375422,1.5877112361229955
1789316191855507200,4.510507080078125,0.43833764125108715,1.737784747081995,1.1255288280997424
1789316191865540400,4.520540283203125,0.9277537278324365,1.7469652478814124,0.7294223819218576
1789316191875573200,4.5305732421875,1.1462351507157087,1.4799749378949403,0.1336012183167506
1789316191885606100,4.540606201171875,1.1404437078326939,1.3036439729988574,-0.2976648314471356
1789316191895639300,4.550639404296875,1.1266530828893184,1.2091209382176398,-0.6399324459370225
1789316191905672200,4.560672119140625,1.180610298526287,0.9392927744567394,-0.7433542419668286
1789316191915706000,4.5707060546875,1.0541939958781004,0.9080950876384973,-0.9449531383059918
1789316191925739000,4.580739013671875,1.4102116658389567,1.074327267846465,-0.98431053150855
1789316191935772200,4.590772216796875,1.8700240567952393,1.0486784473270176,-1.0597156819090245
1789316191945805000,4.60080517578125,1.825432635396719,1.1748965970546006,-1.2157032392174005
1789316191955838200,4.610838134765625,1.9670821630120277,1.3096160331457853,-0.8355069674201309
1789316191965871000,4.62087109375,2.6820740146517754,1.0043658428698778,0.006336445613065734
1789316191975904300,4.630904296875,2.7777929812192914,0.19993103619217872,0.5670660932991654
1789316191985937200,4.640937255859375,1.9291946231663226,-0.43010698852241036,0.6280819952759892
1789316191995970300,4.65097021484375,1.3918606011122465,-0.6122165368199348,0.9388959571588784
1789316192006003200,4.661003173828125,1.523851489022374,-0.5177940398037433,1.6846552144408224
1789316192016037000,4.671037109375,1.4120862275391817,-0.4918751701712608,2.049787334227562
1789316192026070000,4.681070068359375,1.3171037585526704,-0.5250339279294014,1.7918723111003636
1789316192036103200,4.691103271484375,1.4298431257650255,-0.4482032017052173,1.4881575136981904
1789316192046136000,4.701135986328125,1.1302172051116823,-0.34020459927916524,1.069858524934575
1789316192056169000,4.7111689453125,0.9629244099348783,-0.08527239135503768,0.9284604147970675
1789316192066202000,4.7212021484375,1.4795868153601883,0.2095861687660217,1.0879815530590713
1789316192076235000,4.731235107421875,1.4076333397835492,0.4370382490903139,0.9631161331146955
1789316192086268200,4.74126806640625,1.3149433656483889,0.6411831035852432,1.2773890032798052
1789316192096301000,4.751301025390625,1.751365528666973,0.755073686659336,1.793213350445777
1789316192106334200,4.761334228515625,1.4645248553067445,0.843739812105894,1.8186736626558004
1789316192116368100,4.7713681640625,1.1725941653311251,0.9257616772323847,1.4465302028022706
1789316192126401300,4.7814013671875,1.5853022752851247,0.9529045357018708,1.0996139770552515
1789316192136434200,4.79143408203125,1.9574884052366017,0.6161801797538995,0.8756414824750274
1789316192146467300,4.80146728515625,2.0712074311360715,0.008532266023755073,0.6873151054892689
1789316192156500200,4.811500244140625,1.9576231375321744,-0.767533939781785,0.5532679426364601
1789316192166533000,4.821533203125,1.6037030243724584,-1.2146242118090391,0.8911960483510046
1789316192176566000,4.83156591796875,1.1427633829519153,-1.2105524323254824,1.2155067667972295
1789316192186599200,4.84159912109375,0.9655816464453935,-0.8918623302400112,1.3211203007176517
1789316192196632000,4.851632080078125,0.8934253417730331,-0.4114852901607752,1.3455629603177308
1789316192206665000,4.8616650390625,1.0289540484204889,0.3318009280711412,1.3550383524104952
1789316192216699100,4.87169921875,0.9184589530035853,0.8905079930216073,1.1996867549180983
1789316192226732300,4.881732177734375,1.4667852014541625,1.8131968386799096,1.4210472403690217
1789316192236765200,4.89176513671875,1.306615682286024,2.3562585907310245,1.4873643174938858
1789316192246798000,4.901798095703125,0.6093123398110271,2.602621707752347,1.6225275518298148
1789316192256831200,4.911831298828125,0.5367798953026532,2.73154327121973,1.5854001827016473
1789316192266864000,4.921864013671875,0.07309972300231456,2.542892338454723,1.3846379563823341
1789316192276897300,4.931897216796875,-0.7182441314339637,2.3056220439493655,1.1056751037251205
1789316192286930200,4.94193017578125,-0.9019618455804884,2.445914311736822,1.0044552747189999
1789316192296963300,4.95196337890625,-0.9291565803676843,2.5753403175950047,0.8998303865097462
1789316192306996200,4.961996337890625,-0.9227749165065586,2.8293022191822526,0.6292511121205985
1789316192317029000,4.972029052734375,-0.6603266338638961,3.08927066770792,0.27150004249587656
1789316192327063000,4.98206298828125,-0.4211737404823303,3.1008173131167887,-0.23386048606187104
1789316192337096200,4.99209619140625,0.14013912305235862,3.163111564466357,-0.9341649100489914
1789316192347128600,5.002128662109375,0.32827450751066206,3.0274148077756164,-1.6003100209333
1789316192357161700,5.01216162109375,0.2706920871138572,2.852368037471175,-2.2181454205483195
1789316192367194600,5.022194580078125,0.35806145074814555,2.5906559601485726,-2.6398312022060155
1789316192377227500,5.0322275390625,0.1456342133373022,2.094075388765335,-2.620712075716257
1789316192387260700,5.0422607421875,-0.10286839993074536,1.3325555947065353,-2.1273611339040097
1789316192397293600,5.05229345703125,0.11967179682403802,0.518870729124546,-1.7885047343634068
1789316192407326700,5.06232666015625,-0.7043881861694157,-0.14897943211197853,-0.5346822289036587
1789316192417359600,5.072359619140625,-2.3962816813006995,-0.9183756586343049,1.1995723347581921
1789316192427393800,5.082393798828125,-2.6761545614749194,-2.326158636021614,1.3240630761712788
1789316192437426700,5.0924267578125,-1.9703888033419847,-4.259049191096425,0.6789632375337183
1789316192447459600,5.10245947265625,0.07492445421144366,-6.361402578863501,0.17379468788411467
1789316192457492500,5.112492431640625,3.152861096347868,-9.175440593418479,0.5124181554516777
1789316192467525600,5.122525634765625,6.454891594421863,-12.796575327336788,-2.6100807915866375
1789316192477558500,5.13255859375,4.889576168371737,-15.469668747675417,-2.82805777207911
1789316192487591700,5.142591796875,2.292651795478165,-11.20335102688074,-0.6547067481555044
1789316192497624600,5.15262451171875,1.8450123651355503,-5.412887802553176,0.28568394107315687
1789316192507657700,5.16265771484375,0.9844389071285724,-1.8044927232205867,1.0594965592656285
1789316192517690600,5.172690673828125,0.26157646824419495,0.022035890719294546,1.7279042813196777
1789316192527724800,5.182724853515625,-0.6510954257905482,0.5219271940857172,2.4119828160405157
1789316192537757700,5.1927578125,-0.6789657217517495,0.42977322652339933,2.1647341483563185
1789316192547790800,5.202790771484375,0.7448287714987992,0.22955635912716388,1.01039489390105
1789316192557823700,5.21282373046875,1.6696473226621746,0.19723229862749575,0.23196352986674754
1789316192567856600,5.222856689453125,1.823060061046481,0.39132922183871266,0.2687717500431463
1789316192577889800,5.232889892578125,1.8560466771081088,1.2037900985836982,0.007887355716340243
1789316192587922700,5.242922607421875,1.4621882290527224,2.306384260493517,-0.4982344395374879
1789316192597955600,5.25295556640625,0.6880480228736996,3.20288711001575,-0.37370256239641453
1789316192607988500,5.262988525390625,-0.3416191422522068,3.764679866021871,-0.1741641422510147
1789316192618021600,5.273021728515625,-1.497036255072057,4.1376282125175,-0.30703656223602593
1789316192628055600,5.2830556640625,-2.4417490087509153,4.345979286530613,-0.5210172396339475
1789316192638088700,5.293088623046875,-2.7385847141638395,4.31644339544475,-0.368409534022212
1789316192648121600,5.30312158203125,-2.4458903463393447,3.935544382205605,0.03605959376618266
1789316192658154800,5.31315478515625,-2.06937290918529,3.1362446003288027,0.722655372004956
1789316192668187600,5.323187744140625,-1.6921324184536932,2.3038877675026654,1.1998140345595776
1789316192678220800,5.333220703125,-0.8014759568721056,1.589445950961113,1.435446352599561
1789316192688253700,5.343253662109375,0.731569184692204,0.543414218750596,1.6003978453472256
1789316192698286600,5.35328662109375,1.7762623617753386,-0.7267378190129995,1.2817913298919796
1789316192708319700,5.36331982421875,1.6911749715983866,-1.5031179130733012,0.7425945827059447
1789316192718352600,5.3733525390625,1.437563490884006,-1.8815595962882041,0.768696699950844
1789316192728386600,5.383386474609375,1.0993211315885185,-1.929208651691675,1.2097372434850782
1789316192738419700,5.393419677734375,0.7260872461497784,-1.7865052311092615,1.6612402904532848
1789316192748452600,5.40345263671875,0.3974176018416881,-1.6010113010704516,1.8207069220490752
1789316192758485500,5.413485595703125,0.1804208645582199,-1.3749427840590476,1.771447947230935
1789316192768518700,5.4235185546875,0.37074294540584085,-1.1004074655205012,1.798729337388277
1789316192778551600,5.433551513671875,1.0842214698731898,-0.8506155430942773,2.1533649053409696
1789316192788584700,5.443584716796875,2.0539114284202453,-0.6552472847729921,2.254969861207157
1789316192798617600,5.45361767578125,2.7403029162585733,-0.5239104768574238,1.9756126754701135
1789316192808650800,5.463650634765625,4.037894165089726,-0.5097936886996031,1.4322517943419515
1789316192818683600,5.47368359375,4.334129858782887,-0.6455301928788423,0.9138511669471859
1789316192828717800,5.4837177734375,3.9662364575892686,-0.7005962465405464,0.8025691589362919
1789316192838750700,5.493750732421875,3.6882068671941757,-0.9899626389861106,0.9297326266899705
1789316192848783600,5.50378369140625,2.8737977789908644,-0.9840256501525639,0.8407901685200632
1789316192858816500,5.51381640625,2.074059897957742,-0.868994080349803,0.7500276553161442
1789316192868849700,5.523849609375,1.9138702127844094,-0.5964081423133611,0.897089271108061
1789316192878882600,5.533882568359375,1.7004565946847199,-0.21411562888920305,1.2262483063682914
1789316192888915500,5.54391552734375,1.071798626151681,0.4007084600806236,0.9632254387080669
1789316192898948600,5.553948486328125,0.731546680599451,0.9003443273812531,0.8611912976443767
1789316192908981500,5.5639814453125,0.6735112557381391,0.8938836069345474,1.0688371459975838
1789316192919015700,5.574015625,0.6066489658206701,0.6835001503109932,1.142366492588818
1789316192929048600,5.584048583984375,0.5850163952052593,0.7159113045722246,0.9146139680132269
1789316192939081700,5.594081787109375,0.706684334282577,0.7800427082210779,0.4854164955511689
1789316192949114600,5.604114501953125,0.6580842617645859,0.593939121851325,-0.18408888554647565
1789316192959147800,5.614147705078125,0.810410373955965,0.14665128142535686,-0.811674987064302
1789316192969180700,5.6241806640625,0.8112234439045191,-0.11781097138822078,-1.0800507600598037
1789316192979213800,5.6342138671875,0.35770401561260223,-0.2233119117796421,-0.9644906363382935
1789316192989246700,5.644246826171875,-0.07253390581309795,-0.06259820273220539,-0.6438394633129239
1789316192999279600,5.654279541015625,-0.6848609172701835,0.052289574685692786,-0.3495215859398246
1789316193009312500,5.6643125,-0.8749497738838196,-0.06037585050761699,-0.10922434482872485
1789316193019346700,5.6743466796875,-0.9637281275331974,-0.29746552774906154,0.191240510866791
1789316193029379600,5.684379638671875,-1.0207938305795192,-0.6133487557202577,0.3789766668744385
1789316193039412700,5.694412841796875,-0.9870581497162579,-0.7772089460998773,0.4072643114648759
1789316193049445600,5.704445556640625,-0.8557844701647758,-0.5820131217360496,0.25019904192239045
1789316193059478800,5.714478759765625,-0.8688748378843069,-0.03898468743264675,-0.019651041409373283
1789316193069511700,5.72451171875,-1.0877104810327292,0.549686138626933,-0.03328077670261264
1789316193079544600,5.734544677734375,-1.5833634161770342,0.7739578353494405,0.20770181632414458
1789316193089577700,5.74457763671875,-1.7847458202213047,0.45791444838047024,0.2812858157120645
1789316193099610600,5.754610595703125,-1.887363314130902,0.42725101456940173,0.22960940448865294
1789316193109643800,5.764643798828125,-2.3974434185564517,0.8467693890601397,0.06388385862857103
1789316193119677400,5.774677490234375,-2.9384412238150834,1.4151251568436622,0.35673896997272964
1789316193129710600,5.784710693359375,-2.6489333770722148,1.148230123925209,0.5649531197331845
1789316193139743500,5.794743408203125,-2.2507138111978766,0.9520452885240316,0.19124723286852238
1789316193149776600,5.804776611328125,-2.119297508305311,1.3849994831711052,-0.3908743176780641
1789316193159809500,5.8148095703125,-2.0834253999352454,3.1736575084000824,-0.5657043764919042
1789316193169842700,5.8248427734375,-2.622062321281433,4.6721489307165145,-0.2965950285248458
1789316193179875600,5.83487548828125,-2.472470310229063,4.691027818709611,-0.09804346399232744
1789316193189908700,5.84490869140625,-2.0404443363428113,4.681513555911183,-0.33179771320074797
1789316193199941600,5.854941650390625,-2.9673019921183585,3.7833389737844465,-0.64335014542602
1789316193209974800,5.864974853515625,-2.8818671036779877,3.3623201316028832,-0.3772329650122672
1789316193220008700,5.8750087890625,-1.9503221668690442,2.7744676361888647,0.5632293646804988
1789316193230041900,5.885041748046875,0.10006488681733608,1.4519155491024256,0.2601362063080072
1789316193240074800,5.89507470703125,0.6627753421902656,1.538260538125038,1.7957392156615852
1789316193250107600,5.905107666015625,-0.049444706648588174,1.8700795863747595,4.878254271629452
1789316193260140500,5.915140625,0.19998948838114738,1.749623653435707,4.604608303146064
1789316193270173400,5.92517333984375,0.9160100985467433,1.8164993873566389,3.4531025185510513
1789316193280206600,5.93520654296875,2.450681087747216,0.5636871914505959,2.1778924667455253
1789316193290239500,5.945239501953125,4.793301613748073,-2.672364521542191,1.3558164971761404
1789316193300272600,5.955272705078125,4.798576923802495,-5.629924287325143,1.7131233301647006
1789316193310305500,5.965305419921875,3.5879023264020677,-5.350044685149192,-0.4198356237463653
1789316193320339700,5.975339599609375,4.17032110632956,-5.928641276440024,-0.7967197022557259
1789316193330372600,5.98537255859375,4.035240435710549,-6.995220706638693,-1.1092840149372816
1789316193340406300,5.99540625,3.1934470814973115,-5.93515694194436,-0.5939632699118926
1789316193350439400,6.005439453125,2.7299580478549004,-4.087335364606976,0.062121223737066605
1789316193360472300,6.015472412109375,1.9433178410649299,-2.5690555382370945,0.13522714815130457
1789316193370505200,6.025505126953125,-0.034027357286214824,-0.7115864271104335,0.24751952051483092
1789316193380538000,6.0355380859375,-1.7445611093491316,1.0913017835229635,0.06845922198640182
1789316193390571000,6.045571044921875,-2.3814959078401325,2.0812375345021485,-0.0885298587810248
1789316193400604200,6.055604248046875,-2.2781033379048106,2.5846546739071607,-0.1947219597743824
1789316193410638000,6.06563818359375,-2.1480255901396275,2.969413869705796,-0.3242472612885758
1789316193420671200,6.075671142578125,-2.0936942804932595,3.259280612888932,-0.4978896081551909
1789316193430704000,6.0857041015625,-1.9299691146701574,3.5015906551271674,-0.5309231320984661
1789316193440737300,6.0957373046875,-2.2046353661119937,3.7278327751398086,-0.567963590128161
1789316193450770200,6.105770263671875,-2.2556840008258816,3.9079549490123986,-0.6812875157628208
1789316193460803300,6.11580322265625,-1.4817571451365947,3.860947698643803,-0.6771485893271864
1789316193470836200,6.125836181640625,-0.7560445775181055,3.4630765078157184,-0.9911118090212344
1789316193480869400,6.135869384765625,-0.770849932461977,2.8714538462132215,-1.092440139903128
1789316193490902300,6.14590234375,0.07438800924718379,2.3634072934418917,-0.818437320806086
1789316193500935200,6.15593505859375,0.7036170556664466,1.7587772662281989,-0.6854021114747971
1789316193510969000,6.165968994140625,0.6310550928026437,1.321886316654086,-0.3354448375314474
1789316193521002200,6.176002197265625,0.6272855111360549,1.0555722984939813,0.743767133616656
1789316193531035100,6.18603515625,1.2854583279669285,0.7702303392589092,1.5375516592033207
1789316193541068000,6.196068115234375,1.1196177774250506,0.633665567561984,2.1539190320923924
1789316193551101200,6.20610107421875,0.5790402434051036,0.9298129984498024,2.3053267142646012
1789316193561134000,6.216134033203125,0.3101487759724259,1.368673786792159,2.3422337186403572
1789316193571167200,6.226167236328125,0.6596329525113105,1.9669898085534572,2.184581589120626
1789316193581200100,6.2362001953125,0.8247066103339195,2.125115839195251,1.7780211881414054
1789316193591233300,6.2462333984375,1.1401458939298987,1.7511463329583405,1.4553803026035428
1789316193601267200,6.25626708984375,2.465574997757375,1.1740689140588045,1.1043340643797068
1789316193611300400,6.26630029296875,1.8356795963838695,0.4141290826678276,0.7222381695061921
1789316193621333200,6.276333251953125,0.9190215553224086,-0.29666005658507344,0.5071104409649968
1789316193631366100,6.2863662109375,1.0854881288081406,-0.8201286348938941,0.34457368120886384
1789316193641399000,6.29639892578125,1.2861761208474636,-1.451377788963914,0.25589312537815423
1789316193651432200,6.30643212890625,1.402803435409069,-2.0240023201078174,0.20461258160453288
1789316193661465000,6.316465087890625,1.6731722819179295,-2.649457693207264,0.27124466122901064
1789316193671498200,6.326498291015625,1.4921265634596348,-3.6499727058678864,0.5878151590783148
1789316193681531100,6.33653125,1.1530991912662982,-4.709933010187745,0.6479936603829264
1789316193691564000,6.34656396484375,0.9551011689633131,-5.3383846424937245,0.3210488671060651
1789316193701597200,6.35659716796875,0.3588537701696157,-5.237069463354349,-0.21652214204166084
1789316193711631400,6.36663134765625,-0.06580693564563989,-4.57457936784625,-0.8652604467794298
1789316193721664300,6.376664306640625,-0.1485223359942436,-3.6393607109606263,-1.1793093719955534
1789316193731697200,6.386697265625,-0.13594956240803002,-2.7763661632865664,-1.2703551591202615
1789316193741730300,6.396730224609375,-0.13570347869247198,-1.9069599950045346,-1.3665974189095198
1789316193751763200,6.40676318359375,-0.20876900716423988,-1.3358932146966456,-1.4031605782836676
1789316193761796400,6.41679638671875,-0.3840224059566855,-1.1157464889496564,-0.996683836999908
1789316193771829200,6.426829345703125,-0.39846331150233744,-0.9238917917072772,-0.5761812737774104
1789316193781862100,6.436862060546875,-0.2821218281447887,-0.5509890379190444,-0.28922135795168574
1789316193791895000,6.44689501953125,-0.1479309459723532,-0.1405360134154558,0.4134994795273989
1789316193801929200,6.45692919921875,0.2257199958346784,0.15586743806004524,0.5880063708014786
1789316193811962000,6.466962158203125,0.44797377686351536,0.25610358979105946,0.2257010719384998
1789316193821995300,6.476995361328125,0.7358756497144698,0.5233779774159193,0.10148739390112459
1789316193832028200,6.487028076171875,0.4072117044948041,0.8083505188167095,0.5054560978867113
1789316193842061300,6.497061279296875,-0.30767069542109965,1.2194126151293516,0.7334875124689191
1789316193852094200,6.50709423828125,-0.905691825889051,1.7321458644121883,0.7444929636731743
1789316193862127400,6.51712744140625,-1.2311030529230833,2.130015886196494,0.6441246369298547
1789316193872160300,6.52716015625,-1.1773404830753802,2.3540368230283257,0.2534803286153823
1789316193882193200,6.537193115234375,-0.678726067776978,2.423964930257201,-0.31599077999889846
1789316193892226300,6.547226318359375,0.1633750372111797,2.298250053876638,-0.9030625733640044
1789316193902260200,6.55726025390625,0.9353691712722182,1.821194851696491,-1.520787425276637
1789316193912293000,6.567293212890625,1.4150827790066598,1.0680991871118546,-1.6310080876663327
1789316193922326000,6.577325927734375,1.3681456712648272,0.030021044254302978,-1.0305890292111783
1789316193932359200,6.587359130859375,1.2670648854032158,-1.0332213504761456,-0.6866081993289291
1789316193942392000,6.59739208984375,1.1429898851841687,-1.7533575792670248,-0.5150557008810341
1789316193952425200,6.60742529296875,0.7063461883693933,-2.203519513824582,0.0764254333589226
1789316193962458000,6.6174580078125,0.4023866224259138,-2.4868390273213383,0.7297616238135844
1789316193972491300,6.6274912109375,0.6843167273908853,-2.4922026001811024,1.2480455660261214
1789316193982524200,6.637524169921875,1.145716095277667,-2.2444015593111515,1.3616298596300185
1789316193992557300,6.647557373046875,1.4020844734847544,-2.0199282025367022,1.6670146360710263
1789316194002591200,6.65759130859375,1.6788994273930786,-1.7391951984018086,1.6339743901260195
1789316194012624400,6.667624267578125,1.7369219927728174,-1.1600982563734055,1.0997042856872081
1789316194022657300,6.6776572265625,1.2031067924946546,-0.6176145964711904,0.9272942936271429
1789316194032690200,6.687690185546875,0.5227522467330098,-0.1968213797390461,0.8275150918833911
1789316194042723000,6.69772314453125,0.18799013076871632,0.03350011854171753,0.6948546341486275
1789316194052756200,6.707756103515625,0.2480418638885021,0.08010171071887016,0.5508746177591383
1789316194062789000,6.7177890625,0.6007482173442841,-0.12554711859822273,0.45256694987267254
1789316194072822000,6.727822021484375,1.3242153441235422,-0.8282534891605376,0.5736212870962918
1789316194082855200,6.737855224609375,2.0134750808745623,-1.7758166638344526,0.6485308359995484
1789316194092889300,6.747889404296875,2.0447657066732643,-2.291656646960974,0.6145585699014365
1789316194102922200,6.757922119140625,1.8935782431229948,-2.5575720211923123,0.7462244636408984
1789316194112955100,6.767955078125,1.5019456544235348,-2.6532231832206246,0.9249661429405212
1789316194122988300,6.77798828125,0.958519745235145,-2.252152904090285,1.1459757691271601
1789316194133021200,6.788021240234375,0.10389525876045226,-1.1755196973890065,1.3787332623831927
1789316194143054300,6.798054443359375,-0.23902590600103138,-0.20201777933835982,1.6171604718387127
1789316194153087200,6.808087158203125,-0.16391455091536045,0.7374339850723743,1.8369426020570099
1789316194163120400,6.818120361328125,0.3182826903283596,2.2840274672567844,1.6865370826646684
1789316194173153300,6.8281533203125,1.049302716705203,3.3004403062731025,1.562828577670455
1789316194183186200,6.838186279296875,0.8445476213574409,3.3923990435242652,1.472543326589465
1789316194193220000,6.84822021484375,0.3932020299732685,2.5575989091992377,1.1813853745520113
1789316194203253200,6.858253173828125,-0.05903261920511722,1.4309130930840968,0.647592532236129
1789316194213286100,6.8682861328125,-0.4177367517709732,0.5763964508980512,0.5146937357008456
1789316194223319300,6.8783193359375,-0.5090075067579746,-0.16907880181074142,0.3419197326339781
1789316194233352200,6.888352294921875,-0.4166986408948898,-0.6593149726033211,0.12743541656285523
1789316194243385000,6.898385009765625,-0.030012860947847365,-1.208629939830303,0.34926030465513463
1789316194253418200,6.908418212890625,-0.25673136630058285,-1.6931565008044243,0.33004078653082247
1789316194263451100,6.918451171875,-0.1544265916019678,-1.445094178649783,0.20792568820789456
1789316194273484300,6.928484375,-0.5071867210716009,-0.7163485269457102,0.04576353391781449
1789316194283518000,6.93851806640625,-1.041850062611699,-0.41497196323275565,-0.34913989314585925
1789316194293551000,6.948551025390625,-1.5261609350085257,0.40426702934503556,-0.41631738649234173
1789316194303584000,6.958583984375,-2.2242186029821633,1.9440549231678246,0.0020659926190972327
1789316194313617200,6.9686171875,-2.5476117681920525,2.5672774226486683,0.481401853082329
1789316194323650000,6.978650146484375,-1.5684095926731825,1.418279236960411,0.5958185058571398
1789316194333683200,6.98868310546875,-0.7738514523655176,-0.10613806925117969,0.5618291424937546
1789316194343715600,6.998715576171875,-0.3040466597050428,-2.0788100150942803,0.20067922421097753
1789316194353748700,7.008748779296875,1.1153379081487655,-3.79452263109982,-0.4707549329921603
1789316194363781600,7.01878173828125,1.4108651613116263,-4.6167181353956455,-0.6871108881540596
1789316194373814800,7.028814697265625,0.36963527642488475,-3.7986622151225804,-0.7229566930390894
1789316194383848700,7.0388486328125,-1.4252519985824823,-0.9313263256222009,-0.3886844064183533
1789316194393881900,7.0488818359375,-1.731255053052306,-0.1365548348248005,-0.36203766090273853
1789316194403914800,7.058914794921875,-1.0987526840507984,0.954463455581665,-0.19066899458914993
1789316194413948000,7.068947998046875,-2.313049563601613,1.2860779211699962,-0.766655403381586
1789316194423980800,7.078980712890625,-2.566995683097839,1.3900064976781605,-0.7254756901226938
1789316194434014000,7.089013916015625,-3.121208943760395,1.9029542664945125,0.11170388668477535
1789316194444046800,7.099046875,-3.6261037545025347,2.62240368206501,0.13876228174120186
1789316194454079700,7.109079833984375,-3.5968168697416782,2.386534486529231,0.06448620843589306
1789316194464112600,7.119112548828125,-2.845446713775396,2.061883430212736,-0.154841163752228
1789316194474146800,7.129146728515625,-3.0569203037232158,3.0727713683277367,0.02158157108053565
1789316194484179700,7.1391796875,-2.702666136303544,3.472944990879297,1.2217972452435641
1789316194494212900,7.149212890625,-1.7964783435910938,3.322131913599372,2.0966148441150785
1789316194504245800,7.159245849609375,-0.539365235620737,2.449700260016322,2.3497261202223596
1789316194514279000,7.16927880859375,0.2203267584890127,2.062647984844446,2.6507822198092934
1789316194524311800,7.179311767578125,0.3501145833969116,1.9822469989180564,2.5934187028601765
1789316194534344700,7.1893447265625,0.19947803172767162,1.91713301397264,1.6812096040315925
1789316194544377900,7.1993779296875,0.015483400335907935,1.7559779908984898,0.5407582243490964
1789316194554410800,7.20941064453125,0.23460312112271783,1.2453478513747454,-0.6649141808498651
1789316194564444000,7.21944384765625,0.38004561128020287,0.6015864217340946,-1.203013999644667
1789316194574477600,7.2294775390625,0.7857458882987499,-0.34190497345626353,-1.2656981270946561
1789316194584510700,7.2395107421875,0.8318973986208439,-0.6556026740819215,-0.8778528749141842
1789316194594543600,7.249543701171875,0.8426251288622617,-0.826462514090538,-0.11542515396391972
1789316194604576800,7.25957666015625,0.44982349638342856,-1.0728776535600424,0.3841842454548925
1789316194614609700,7.269609619140625,0.18580898733735082,-1.0864981826335192,0.7394768160115927
1789316194624642800,7.279642822265625,0.23439269324243067,-0.8319476675033569,0.7924372756961733
1789316194634675700,7.28967578125,0.017632687324285506,-0.5444359630137682,0.6078079631300642
1789316194644708900,7.299708984375,0.2081318783044815,-0.3214174812227487,0.33593598204925657
1789316194654741800,7.30974169921875,0.5822334864884614,0.030160160464048385,0.11466153091397135
1789316194664776000,7.31977587890625,0.4992664494663477,0.2981803980201483,-0.1192007635124959
1789316194674808800,7.329808837890625,0.11895078907310962,0.7061983043313026,-0.16936406675921753
1789316194684842000,7.339842041015625,-0.24183891759514808,1.0434849703371525,-0.014616307778330518
1789316194694875000,7.349875,-0.14978373423218727,1.2691788088172673,0.22907253939928485
1789316194704907800,7.35990771484375,-0.39363457617163655,1.2796639624744652,0.38839020924475043
1789316194714940700,7.369940673828125,-0.751256174197793,1.4047966550529003,0.5418103272179141
1789316194724973600,7.3799736328125,-1.3066051608920097,1.5658885497629642,0.6173311764199286
1789316194735006700,7.3900068359375,-1.1298533402353526,1.7594050427377224,0.6240382728431374
1789316194745039600,7.40003955078125,0.21744857270419596,1.9020394897371529,0.5856533779345452
1789316194755072800,7.41007275390625,0.4835480713307857,1.750423863902688,0.4193841536518186
1789316194765106700,7.420106689453125,0.8758540292471647,1.3674153111636638,0.37661074146069584
1789316194775139800,7.430139892578125,0.8267015835434198,0.905581643512845,0.7019049910515547
1789316194785172700,7.4401728515625,1.007698202162981,0.6094599315881729,1.0979925863984972
1789316194795206000,7.450205810546875,1.3172078034490347,0.5242705423414706,1.2885266294963658
1789316194805238800,7.46023876953125,0.9547814354896544,0.46598377306759353,1.3520133055008947
1789316194815272000,7.47027197265625,1.045706738039851,0.4724737196087837,1.2771816441394388
1789316194825304800,7.480304931640625,1.499483648224175,0.38775837761461734,0.9641980100672691
1789316194835338000,7.490337890625,1.4897700634613633,0.16890636785328386,0.43691246728617694
1789316194845371000,7.500370849609375,1.3664493887409568,-0.2228150681734085,0.3196351278506219
1789316194855404800,7.51040478515625,1.246139001752436,-0.6057751055955887,0.34505032227728516
1789316194865437700,7.520437744140625,0.6154366679102182,-1.0915946289896965,0.36277076095025984
1789316194875470800,7.530470947265625,0.014344751694798468,-1.4728788421541452,0.41862895137034356
1789316194885503700,7.540503662109375,-0.05710837314426899,-1.7975462650835512,0.25627368566095826
1789316194895536600,7.55053662109375,-0.14778817650079726,-2.2754501930475235,-0.28169987640567123
1789316194905569800,7.56056982421875,-0.2234530738160014,-2.8419144479960203,-0.7740089810147881
1789316194915602700,7.570602783203125,-0.3456587730318308,-3.4873528709381816,-0.461216156806983
1789316194925635800,7.5806357421875,-0.6241475053712725,-4.433569891700149,0.6534383356548845
1789316194935668700,7.590668701171875,-0.18248130421936512,-5.12639842684865,1.0648854857623578
1789316194945702000,7.600701904296875,0.6078048578575254,-5.273587468412519,1.1176464042868464
1789316194955735800,7.61073583984375,0.8846931692630052,-4.695554940745234,1.2709151310905813
1789316194965768700,7.620768798828125,0.6979828491717577,-3.418580363485217,0.8164032576952129
1789316194975801600,7.630801513671875,0.5054579975828528,-1.8063596861362456,0.0666460533509031
1789316194985834800,7.640834716796875,0.16060060406178234,-0.3791051155596971,-0.46653395429626104
1789316194995867600,7.65086767578125,-0.5365998625606299,0.7915782477140426,-1.087432175548002
1789316195005900800,7.66090087890625,-0.8785235407173633,1.8113602709025143,-1.8905485200382768
1789316195015933700,7.67093359375,-0.9049410075217484,2.7503590308487413,-2.412124708729237
1789316195025966800,7.680966796875,-1.1391840631604193,3.454173654913902,-2.4343496922798455
1789316195035999700,7.690999755859375,-1.474039118105173,3.9489311025232072,-2.066159792357683
1789316195046034000,7.701033935546875,-1.5564005904495715,4.148178832626343,-1.8008537821963428
1789316195056066800,7.71106689453125,-1.420436999516189,3.6569139033079145,-1.3383195650607347
1789316195066100000,7.721099853515625,-1.2539955604717135,2.2258821522802115,-0.41569921806138005
1789316195076132900,7.7311328125,-1.0731900805100798,0.22339725197553634,0.015281192294694483
1789316195086165800,7.741165771484375,-0.5899225796863437,-1.8221826936900614,0.3629622649343684
1789316195096199000,7.751198974609375,0.25761428661495445,-3.4703298399448395,1.0336397220186888
1789316195106231800,7.761231689453125,1.7533242615193128,-4.3269256264925,1.1730524304926395
1789316195116264700,7.7712646484375,3.112515934216976,-4.220483021336793,0.7261923139594495
1789316195126297600,7.781297607421875,2.5096213524937627,-3.4059178657889366,0.7195216040238738
1789316195136331800,7.791331787109375,1.4306862985908984,-2.2013976993650197,0.6288313523385674
1789316195146364700,7.80136474609375,0.5246022585138678,-1.3929250154733657,0.1531871860001236
1789316195156397800,7.811397705078125,-0.0925485198378563,-1.2212737328261136,0.5353682749390601
1789316195166430700,7.8214306640625,-0.0639309126406908,-1.5922890654325483,0.8725327028047293
1789316195176464000,7.8314638671875,0.8272571715995669,-2.3238801696956157,0.28573979944624006
1789316195186496800,7.841496826171875,2.5607977052405477,-3.1509663686424494,0.2707408216264099
1789316195196530000,7.851530029296875,4.199688070589303,-3.807225460806489,0.7462612154547125
1789316195206562800,7.861562744140625,4.734022326305508,-4.48382883734107,0.8389468787409364
1789316195216596000,7.871595947265625,3.067751494339108,-3.5352181994408367,0.9937743062287568
1789316195226628900,7.88162890625,1.5201970581680535,-1.3169576280802489,1.5158131439954041
1789316195236662800,7.891662841796875,-0.4417869049221277,0.7130185057401657,1.7648586319684982
1789316195246695700,7.90169580078125,-1.8368208753734825,2.060396991047263,1.3799582741335032
1789316195256728800,7.911728759765625,-2.127492505198717,2.623351192048192,1.275705287976563
1789316195266761700,7.92176171875,-1.5185843622744082,2.3715596202373503,1.144390107370913
1789316195276794600,7.931794677734375,-0.8455454002231358,1.620554205930233,0.6566673807039857
1789316195286827800,7.941827880859375,-0.3254910142719745,0.7049561953157186,0.28811989951580763
1789316195296860700,7.951860595703125,0.37997020795643327,-0.4534264893114566,0.20784443966522811
1789316195306893800,7.961893798828125,1.2343114935755728,-1.5331950714290141,0.01012991047874093
1789316195316926700,7.9719267578125,1.3638707704246043,-1.7923983808010815,-0.3429145888902247
1789316195326959900,7.9819599609375,0.8899345770478249,-0.8613239841133356,-0.327443755774945
1789316195336993800,7.991993896484375,0.3709504506766796,-0.02265022322535515,-0.2572946992717683
1789316195347027000,8.00202685546875,-0.5287041408747434,1.6663444817245006,0.4817075580306351
1789316195357059800,8.012059814453124,-1.4954279430925845,3.317068200469017,1.2715442227743565
1789316195367092700,8.0220927734375,-1.8550725713789462,3.874950505033135,1.6410481279045341
1789316195377125600,8.032125732421875,-2.30945592302382,3.2185271622180935,1.9386741069123148
1789316195387158800,8.04215869140625,-2.695606865441799,1.9923685799598692,1.7649571239069104
1789316195397191700,8.052191650390625,-2.6022423530459404,0.5956336508095265,1.3283062666989862
1789316195407224800,8.062224853515625,-2.558057174360752,-0.19526947412192822,1.186998684389144
1789316195417257700,8.0722578125,-1.7970786475718021,-0.5975257481664419,1.2457980793602763
1789316195427292000,8.0822919921875,0.7994014886856079,-2.263738712465763,1.233818010970205
1789316195437324800,8.09232470703125,3.989939404737949,-5.26043514137268,0.1637690049648285
1789316195447358000,8.10235791015625,3.6902328200638292,-6.488423277145624,-1.3682628679037094
1789316195457390800,8.112390869140626,0.5353051465749741,-4.804340894156694,-2.0155349360138177
1789316195467423700,8.122423828125,-0.6987064872711897,-2.12580791311264,-1.3306816175282001
1789316195477457000,8.132456787109374,-1.2214625333964824,0.0805313343077898,-0.8434119683910161
1789316195487489800,8.14248974609375,-2.1647318102687594,1.4968027385771274,-0.9579962328176945
1789316195497523000,8.15252294921875,-2.679550633653998,1.6230851857125759,-0.7634924823712557
1789316195507555800,8.162555908203124,-1.8430407728016376,2.0307617312401534,-0.5013521696992218
1789316195517589800,8.17258984375,-2.149520212611556,1.7670745544522999,-0.6483437159296125
1789316195527622700,8.18262255859375,-2.115648338147998,1.1290250727176665,-0.600010696849972
1789316195537655800,8.19265576171875,-2.02034262855649,1.3193489071309565,0.004497822875902056
1789316195547688700,8.202688720703126,-2.310456624498963,1.2146323951154947,0.45686059194598344
1789316195557721900,8.212721923828125,-2.5598826362222433,1.7848457734644412,0.5390228884564713
1789316195567754800,8.222754638671875,-3.2275486730635166,2.0806050818175077,0.425056975123845
1789316195577788000,8.232787841796876,-3.7074072422266005,2.0782512121677397,-0.17462620680481195
1789316195587820800,8.24282080078125,-3.347641033387184,2.547646839505434,-0.38616796661801633
1789316195597853700,8.252853759765625,-2.7419547751188276,2.8366578426420688,-0.23225787317082283
1789316195607888000,8.262887939453124,-2.670154444277286,3.0550802288144827,-0.30831600758731365
1789316195617920800,8.272920654296875,-2.4863094504892826,2.9602853913545606,-0.3263903011992574
1789316195627953700,8.28295361328125,-2.694023980164528,3.2646453547924756,-0.4478797053718939
1789316195637986600,8.292986572265624,-2.751820335572958,4.103862136515975,-0.502273778056167
1789316195648019700,8.303019775390625,-1.838925738698244,3.845377204546332,-0.20232744807573033
1789316195658052600,8.313052490234375,-0.9869161108970641,2.7541128304243085,0.5185315237654373
1789316195668085800,8.323085693359374,-0.7532955710709095,2.064894886988401,1.1201204662501811
1789316195678118700,8.33311865234375,0.1478600726932287,0.7613280708789825,1.3305986154198646
1789316195688151800,8.34315185546875,0.8652385272085666,-1.119080017286539,1.3593139839030801
1789316195698184700,8.353184814453124,1.587616397446394,-2.6943320232003924,1.0020600501455366
1789316195708219000,8.363218994140626,2.808674441695213,-3.3488761281400916,0.6831858967300504
1789316195718251800,8.373251708984375,3.141319419375062,-3.604168986070156,-0.15117387341633437
1789316195728285000,8.383284912109374,1.9382067816615103,-3.4364088656425475,-0.7170528758227824
1789316195738317800,8.39331787109375,2.001608117470145,-2.6872008561462164,-0.2612465787027031
1789316195748351000,8.40335107421875,1.6182348230719565,-1.9440701207369564,-0.21933672453835606
1789316195758383900,8.4133837890625,0.6551911706715822,-1.1212766505479812,-0.1857115913774818
1789316195768416800,8.423416748046876,0.4656880049914121,-0.2367658521145582,-0.1785927723482251
1789316195778449700,8.43344970703125,0.5833785648703574,0.31621114475131035,-0.28886355748996134
1789316195788482600,8.443482666015624,-0.27088907099068166,0.4716963054955005,-0.3736142630584538
1789316195798516700,8.453516845703126,-0.2150461877375841,0.1940881553828716,-0.32018728184066714
1789316195808550000,8.4635498046875,-0.640933512738347,-0.6115595342159271,-0.6576061959240586
1789316195818582800,8.473582763671875,-1.2677543289721012,-1.279832304778695,-0.9208499397933483
1789316195828615700,8.48361572265625,-0.8265250579327345,-1.4928706598252057,-0.8973167231883853
1789316195838648800,8.49364892578125,0.5582879627555608,-1.3806804509282111,-1.123740337247774
1789316195848681700,8.503681640625,0.37967794701158997,-1.3400076642781495,-1.2468765222467482
1789316195858715000,8.51371484375,-0.16684359010457991,-1.0670599071919917,-1.2457314438648521
1789316195868747800,8.523747802734375,-0.7228291211366653,-0.37902269797325133,-1.1897593812741338
1789316195878781000,8.533781005859375,-0.775928258639574,0.5088397489756346,-1.0775580664612352
1789316195888813800,8.543813720703126,-0.8418430385738611,1.3967787682920694,-0.6218124134872108
1789316195898847700,8.55384765625,-1.2967711646199225,1.987438137820363,-0.0989416914736852
1789316195908880600,8.563880615234375,-1.1237842494547365,2.4913696564882994,0.22955984799219295
1789316195918913800,8.573913818359374,-0.22017244471013545,2.8758704936116932,0.006643858461268246
1789316195928946700,8.58394677734375,0.8506868547648191,2.8826702367544175,-0.5445664575256407
1789316195938979800,8.593979736328125,1.4374340192854405,2.4627070411056278,-0.8445962828047573
1789316195949012700,8.6040126953125,1.7175901003152132,1.6080331625312565,-0.5872374322555959
1789316195959046000,8.6140458984375,2.116545286987722,0.703030780211091,0.07892251087166369
1789316195969078800,8.624078857421875,2.594743521723151,0.21146657568514346,0.4210184768553823
1789316195979111700,8.634111572265626,2.6835078468471765,-0.17748188849687574,0.44050183354765177
1789316195989145900,8.644145751953126,2.754193494445085,-0.6395622243851423,1.1266717875897885
1789316195999179000,8.654178955078125,2.8377997061535716,-0.979808909240365,2.143403337166458
1789316196009212000,8.6642119140625,2.742832726997137,-1.4627882407724857,2.723378961725533
1789316196019244500,8.67424462890625,2.8221593616902827,-1.8907962111890315,3.398501452052593
1789316196029277700,8.684277587890625,2.870157961183786,-2.140909036132693,3.517069671548903
1789316196039310600,8.694310546875,2.4334400300890207,-2.219825336459279,2.5129054887309668
1789316196049343700,8.70434375,1.6077660360276698,-2.222839131322503,1.493359027864039
1789316196059376600,8.714376708984375,0.8161854502260685,-2.0681021585971116,0.280078193487972
1789316196069409800,8.724409912109374,0.3818558755725622,-1.5445692828804254,-1.2788827489688992
1789316196079443700,8.734443603515626,0.45785102775543923,-1.0676976205736397,-2.3347576836712656
1789316196089476900,8.744476806640625,0.24156243874132632,-0.712107820636034,-2.5425892638549206
1789316196099509800,8.754509765625,-0.4646981171712279,-0.3907365166425705,-2.3116982951231297
1789316196109543000,8.76454296875,-1.5964456005901098,-0.4611456853866577,-2.120154563526064
1789316196119575800,8.774575927734375,-2.638524795782566,-0.9993740259319543,-2.1732747438170015
1789316196129609000,8.78460888671875,-2.731084713797271,-1.7843395775079727,-1.8056543143458663
1789316196139641900,8.794641845703126,-1.9599390132591128,-2.3308108457416297,-1.5325575041778385
1789316196149675000,8.804675048828125,-0.7845943801760673,-2.51729203325212,-1.7121878028802573
1789316196159708000,8.8147080078125,0.06406506041437388,-2.4008272157758475,-1.6893201375119387
1789316196169741800,8.824741943359374,0.5045081495121121,-2.0350953765302897,-1.1553004276376218
1789316196179774700,8.834774658203125,0.7852204031199216,-1.4024480461001396,-0.9011236411906778
1789316196189807900,8.844807861328125,0.6461801812201738,-0.6199065068006515,-0.6940439022876321
1789316196199840800,8.8548408203125,0.4330032944858074,0.14404314475357533,0.006235314192995428
1789316196209873700,8.864873779296875,0.2231912080094218,0.8384405366539954,0.9802708276636898
1789316196219906800,8.87490673828125,0.3299710822954774,1.538581440642476,1.7874039335146545
1789316196229939700,8.884939697265626,0.6673416271924972,2.000914289987087,2.444265667746961
1789316196239972900,8.894972900390625,0.5386036035984755,2.029739986976981,2.481550857785344
1789316196250005800,8.905005859375,0.23925182371139525,1.7633084799170493,2.1195824627265334
1789316196260039700,8.915039794921874,0.1279644088730216,1.4937123713463545,1.5351558501079678
1789316196270072600,8.925072509765625,0.26137831532359124,1.4287468549609184,1.0568923681166023
1789316196280105700,8.935105712890625,0.6234574772804975,1.1797837845742702,0.9435432715080678
1789316196290138600,8.945138671875,0.5962094048708677,0.8483587040781975,0.5567387605521827
1789316196300171800,8.955171875,0.17984277240931987,0.7348784553706645,0.2893107167355716
1789316196310204700,8.96520458984375,-0.09653612816929817,0.611235124567151,0.24582769497036933
1789316196320237800,8.97523779296875,-0.10650690256357193,0.5251508323073387,0.11129713251478969
1789316196330270700,8.985270751953125,-0.16974048058986663,-0.18575638036727904,0.019580095065012574
1789316196340303600,8.9953037109375,-0.49410395213663577,-0.5411778380006551,-0.3191542855311185
1789316196350337000,9.0053369140625,-0.2539893741160631,-0.478292050498724,-0.32268034076541663
1789316196360371200,9.01537109375,0.41542964387238024,-0.6243564719468355,-0.10250986881665884
1789316196370404000,9.025404052734375,0.9267845905393362,-1.1204232485890389,0.534962032225728
1789316196380437200,9.035437255859375,1.358102708417177,-1.1955196983665226,0.9917992067635059
1789316196390470100,9.04547021484375,1.4431336922317743,-1.647876512619853,1.1280629496872425
1789316196400503000,9.0555029296875,0.7043687508165836,-2.5749545331478116,0.7913390321306883
1789316196410536000,9.065535888671874,0.8096516645431518,-3.203717715620994,0.26982936933729795
1789316196420568800,9.07556884765625,1.0806763446122407,-1.7018407425194977,-0.6236689280740917
1789316196430602000,9.08560205078125,-0.31323826642036434,-1.2384224360257385,-0.7162633328802883
1789316196440635000,9.095634765625,-0.8050573224902152,-1.10421387206614,-1.0317829882360994
1789316196450669000,9.1056689453125,-0.9793266786813736,-0.6729565444648266,-1.128196878265217
1789316196460702000,9.115701904296875,-1.3841864132225512,-1.1474421884179116,-0.6870018748216331
1789316196470735000,9.125735107421875,-0.25585399894416333,-1.0821242053329945,-0.37244200440868735
1789316196480768000,9.13576806640625,0.5399462503790855,-1.26674953584373,-0.3039855041023344
1789316196490801200,9.14580126953125,0.45149873611927027,-1.6590654306322334,-0.19483911988064645
1789316196500834000,9.155833984375,0.30259879898428915,-1.8251064721822738,-0.1188308342215605
1789316196510867200,9.1658671875,0.6112438923954964,-2.058808260551095,-0.19006357604190707
1789316196520900000,9.175900146484375,0.7747697362542152,-1.4603396785765885,-0.5438453036442399
1789316196530933200,9.185933349609375,0.1096843635559082,-1.0549439374625682,-1.0307065181110053
1789316196540967000,9.195966796875,0.18464111260175703,-0.4445405875444412,-1.3559411464691162
1789316196551000000,9.206,0.30355273870825766,-0.7326555186241864,-1.436082604676485
1789316196561033000,9.216032958984375,1.0501917744994163,-0.4995435128420591,-1.6800776773922144
1789316196571066000,9.226066162109374,-0.2975117049783468,-0.28158114539682866,-1.312717067901045
1789316196581099000,9.23609912109375,-1.2763012080430984,0.5624222860813141,-0.6615627515301108
1789316196591132000,9.2461318359375,-2.6451252169609067,2.76246506370604,-0.8075405906733125
1789316196601165000,9.2561650390625,-3.8071605788767338,2.9871073473066088,-0.4921995432874188
1789316196611198000,9.266197998046875,-4.3371185192048545,2.890419827967882,-0.11662194426674395
1789316196621231000,9.276231201171875,-5.175089100259542,3.7206466630280017,-0.32877325081303715
1789316196631265000,9.28626513671875,-5.043596224999427,3.6978994091689583,-0.3030566257543862
1789316196641298200,9.296298095703126,-3.712917530080676,3.343599064520001,-0.28793179306518285
1789316196651331000,9.3063310546875,-3.004457710558176,3.092426501390338,-0.49133342797737567
1789316196661364000,9.316364013671874,-2.0434879418224097,2.0084663128018376,-0.7483585530601441
1789316196671396900,9.32639697265625,-0.8330787173599005,0.6220756675332785,-0.6479334546282887
1789316196681430000,9.336429931640625,-0.6501023230999707,0.08452011168301105,-0.384715027863346
1789316196691463000,9.346462890625,-1.2783604786604643,0.3840887491911649,0.0772355806980282
1789316196701496000,9.35649609375,-2.071544408005476,1.1449240681171418,0.16153499883506447
1789316196711529000,9.366529052734375,-2.3399644585341215,1.7952093465685843,-0.3187611214950681
1789316196721561900,9.376561767578124,-2.0561106920301913,2.120762320160866,-0.688511840993166
1789316196731596000,9.386595947265626,-1.5115081402778625,1.9565975938767193,-0.5650611832175404
1789316196741629200,9.396629150390625,-1.307283206284046,1.3961404703885316,-0.6564679856743663
1789316196751662000,9.406662109375,-1.2259645209908485,1.1353080985099075,-1.0085887212619185
1789316196761695000,9.416695068359376,-0.5976642798542976,0.8288760049730539,-0.6903191826760768
1789316196771728100,9.42672802734375,0.770536628729105,0.6072141984879971,-0.18354966410323975
1789316196781761000,9.436760986328125,1.2159709502428768,-0.10480535934269428,0.20352723405323922
1789316196791794200,9.446794189453126,1.9428712663412093,-0.5960650279641151,0.8705470819454639
1789316196801827000,9.4568271484375,2.6319927636653184,-1.0140800121545792,1.2679714788541196
1789316196811860000,9.46685986328125,2.600530872952938,-1.2984382210493086,1.1037975463502108
1789316196821894000,9.476893798828126,1.2717431063473223,-1.1519850925445556,1.300004885844141
1789316196831927000,9.486927001953125,0.6529039365172385,-0.7085603572875261,1.3136232229605316
1789316196841960000,9.4969599609375,0.6198071380794048,0.28798808982968327,0.8469866120073943
1789316196851993000,9.5069931640625,0.3546241697758436,1.4400953474491833,0.21629023298192768
1789316196862026000,9.51702587890625,-1.0081015222668648,2.4082366152495145,0.24265648105572907
1789316196872059100,9.52705908203125,-1.013022612056136,3.013248919779062,0.18658629185277967
1789316196882092000,9.537092041015624,0.19229601126909254,3.046709875354171,-0.15487386044543236
1789316196892125200,9.547125244140625,0.028519407519698142,2.215794473508,-0.47143440315630286
1789316196902158000,9.557157958984375,0.1668915208995342,1.2354530648261308,-0.33926680697239936
1789316196912192000,9.56719189453125,0.8752899656236172,0.1515939985245466,0.23552125888094305
1789316196922225000,9.577224853515625,0.8736077116250991,-1.3181377777755259,0.6899227307043969
1789316196932258000,9.587258056640625,1.3759294570088385,-2.5901339821010825,0.5786025826402008
1789316196942291000,9.597291015625,1.5586697044253348,-3.467364560398459,0.019389431331120432
1789316196952323800,9.60732373046875,1.3963053055614232,-3.9384681606978176,-0.4694065140578896
1789316196962357000,9.61735693359375,1.8146259947001933,-3.8078023839116093,-0.7033117160443216
1789316196972390000,9.627389892578124,2.1451327913075686,-3.1406974880844354,-0.8133288917511701
1789316196982423000,9.637423095703125,2.4240327347964046,-2.2357629103034733,-0.9350823902200907
1789316196992456000,9.6474560546875,1.552421749946475,-1.5095710347354412,-0.5409106384318322
1789316197002490000,9.657489990234374,0.2779559406369924,-1.015973278555274,-0.09064280494754202
1789316197012523000,9.66752294921875,-0.5350742604285478,-0.6517068356871605,-0.1277719276413787
1789316197022556200,9.67755615234375,-1.2258774272292852,-0.7510241190075874,0.09702780241006985
1789316197032589000,9.687589111328125,-1.5770684076860546,-0.694205668720603,0.378422320927307
1789316197042622200,9.697622314453126,-1.6377844499334693,-0.5507283411562442,0.22183933674274012
1789316197052655000,9.707655029296875,-1.2906719709619878,-0.33901568175554275,0.1059261800661683
1789316197062688000,9.71768798828125,-0.44081104562729595,0.18529753068387508,0.14007910909396595
1789316197072721000,9.727720947265626,0.37351942438185215,0.7127256602734326,0.07061233576652594
1789316197082754000,9.737754150390625,0.8787526732981205,0.9700321961134671,-0.19589421842414884
1789316197092787000,9.747786865234374,1.2570216302946209,1.1721774012237787,-0.2458080404218286
1789316197102821000,9.757821044921876,1.657833550749719,1.3594091148406267,-0.3548557500420138
1789316197112854000,9.76785400390625,1.941786393713951,1.234492110839486,-0.4891374888356775
1789316197122887200,9.77788720703125,1.6524688088461756,1.080886772492528,-0.3928589156240225
1789316197132920000,9.787920166015626,0.7213333296209573,1.00510760114789,0.05159004811421036
1789316197142953000,9.797952880859375,-0.01068389109969139,1.1058885272800922,0.5574833683744073
1789316197152986000,9.807986083984375,-0.7103232753068208,1.1171990258455275,0.8358698824483901
1789316197163019000,9.81801904296875,-1.424454418464005,0.6585860738068818,1.103584049730003
1789316197173052200,9.82805224609375,-1.4761954193562268,-0.35349370444118977,1.072229491849616
1789316197183085800,9.8380859375,-0.9396990171700715,-1.4938801291286945,0.8755384604919701
1789316197193119000,9.848118896484374,-0.08964461508989334,-2.393593757390976,0.6548854657232761
1789316197203152000,9.85815185546875,0.8089490692317486,-2.7637363988161083,0.4306276513956487
1789316197213185000,9.86818505859375,1.4163625896841288,-2.575880415821075,0.024074264679104087
1789316197223218000,9.878218017578124,1.5455711533993481,-2.082498932740092,-0.610149630885385
1789316197233251000,9.8882509765625,0.9619374447241424,-1.4235662374526261,-0.37546858568824826
1789316197243284000,9.898283935546875,0.4247556906223297,-0.8385282149374484,0.3928073315672576
1789316197253317000,9.908317138671874,-0.024895956325531005,-0.7085363918900489,0.5543312975516542
1789316197263350000,9.91835009765625,-0.12255933495908974,-0.9456348369598389,0.592073547175154
1789316197273383200,9.928383056640625,0.38518122060298915,-1.4756670115679502,0.5892505621762946
1789316197283417000,9.9384169921875,1.0614853219300509,-2.0238550205916166,0.1629118401462212
1789316197293450200,9.9484501953125,1.784245469483733,-2.4938696566104888,0.07614398606903851
1789316197303483100,9.958483154296875,1.4751158074259758,-2.7527590777277946,0.24561003363169728
1789316197313516000,9.96851611328125,0.061419806602597236,-2.1051836427569386,-0.22352277805134652
1789316197323549000,9.978548828125,-1.0184037205725909,-1.1117793388843535,0.11017959972694516
1789316197333581800,9.988581787109375,-2.067575504374504,-0.21901275328099726,0.6629207420103251
1789316197343615200,9.998615234375,-3.0841555166512724,0.43936990690827366,0.47394510733559725
1789316197353648400,10.0086484375,-3.423164768666029,0.5356979452848434,0.28778599138632416
1789316197363681300,10.018681396484375,-2.965875758707523,0.34878362705409527,0.1041682304829359
1789316197373715500,10.028715576171875,-1.8751865541249513,-0.04513327319025993,0.19947920077145098
1789316197383748400,10.038748291015626,-0.83278119571805,-0.5350777675598859,-0.08297543952427804
1789316197393781500,10.048781494140625,0.7831202159702777,-2.186676515573263,0.04652626191861927
1789316197403814400,10.058814453125,1.2703589585125445,-2.575989136892557,0.10123312687911093
1789316197413847600,10.06884765625,1.5076976420789956,-1.973849757450819,-0.0077715473169460885
1789316197423880400,10.07888037109375,1.9827146164298057,-0.955636591014266,0.19381967717241494
1789316197433913300,10.088913330078125,2.3474095138430595,0.7975731042146682,0.10246120736934244
1789316197443946200,10.0989462890625,0.6931050140023232,0.9772925425052642,0.15778538224427027
1789316197453979400,10.1089794921875,-0.6021592531859874,0.4171504763156175,0.19367166527016086
1789316197464013300,10.119013427734375,-0.6238567057311535,0.5671668502599001,0.8971240501604973
1789316197474046500,10.12904638671875,0.04875906247198582,0.40788229723274705,1.4782517673641442
1789316197484079400,10.139079345703125,0.9736246676474809,0.2385825461477041,1.4363652210101485
1789316197494112500,10.149112548828125,0.7120254030495882,0.2218167047858238,1.1999095308233052
1789316197504145400,10.1591455078125,0.4024345532208681,-1.047971175840497,0.5748776073003188
1789316197514178600,10.169178466796875,2.0221990700781345,-1.306391810402274,-0.17929087414760142
1789316197524211500,10.17921142578125,1.1721101812064647,-0.6190653798013925,-0.6932076706591993
1789316197534244400,10.189244384765624,-0.021714403679966927,-0.32745559234321114,-0.9962743063509464
1789316197544277500,10.199277587890625,-0.2267752039760351,-0.41559097191393374,-1.0368447286050766
1789316197554311400,10.2093115234375,0.2722287951618433,-0.3429682187736034,-1.311146457583457
1789316197564344300,10.21934423828125,0.448584309977293,0.057547933605313295,-1.4839908955380319
1789316197574377200,10.229377197265626,0.050012861925363535,-0.07565525270402432,-0.9451479302257298
1789316197584410400,10.239410400390625,-1.3747364478319883,-0.05591244135797024,-0.688095296081528
1789316197594443300,10.249443359375,-2.6398382164686915,-0.07956979579925537,-0.4582504388691857
1789316197604476400,10.259476318359376,-2.5853549311310053,0.07287877372801303,-0.40692945348732174
1789316197614509300,10.26950927734375,-2.8317607182502744,-0.5348252541035413,-0.30553465150678527
1789316197624542500,10.27954248046875,-3.0946687273591755,0.3080868750065565,-0.6675309392195194
1789316197634575400,10.289575439453126,-3.69215238994956,1.0489216084331274,-0.9077364834591746
1789316197644609500,10.299609619140625,-3.3739047709345815,0.9860895969450473,-0.6729615129008889
1789316197654642400,10.309642333984375,-3.140007752254605,0.8403285423576832,-0.6067139938808978
1789316197664675600,10.319675537109376,-3.4344928028881547,1.6484668797284363,-0.726253834888339
1789316197674708500,10.32970849609375,-3.6430583964347836,2.771314725115895,-0.5617403682317584
1789316197684741400,10.339741455078125,-3.615882804739475,3.784891463923454,-0.32326895430833097
1789316197694774300,10.349774169921876,-3.8165801491290328,4.752274022310972,-0.46848826670181004
1789316197704807400,10.359807373046875,-3.9340094277232884,5.218504463616013,-0.5138761357076466
1789316197714840300,10.36984033203125,-3.329472339490056,4.715029456543922,-0.5851370989754796
1789316197724873200,10.379873291015626,-3.043489744263887,3.7695004180461167,-0.6014581922445446
1789316197734907400,10.389907470703125,-2.971232317304611,2.976055791938305,-0.6397866077255457
1789316197744940500,10.3999404296875,-2.305619705861807,2.362147648769617,-0.5917026315035299
1789316197754973400,10.409973388671874,-1.2588204964101313,1.7816507768154144,-0.44826011952422556
1789316197765006300,10.42000634765625,0.1259884326249361,1.19903092135787,-0.28564868709668517
1789316197775039500,10.43003955078125,1.3483096286773681,0.5282791934609413,0.17505827807914465
1789316197785072400,10.440072265625,1.6093366463452576,-0.5396159955114126,0.883279795333743
1789316197795105500,10.45010546875,1.15880295586586,-1.5801999837100504,1.4515700966656206
1789316197805138400,10.460138427734375,1.4061831409752368,-2.0561551156938074,1.3609417312353849
1789316197815171600,10.470171630859374,0.9444406587392091,-2.048321353328228,0.5577777847437188
1789316197825205200,10.480205322265626,0.9604735096514224,-1.7636667918354272,0.06971249171681702
1789316197835238400,10.49023828125,1.451209446659684,-1.4498814129263162,-0.22045038486868143
1789316197845271300,10.500271240234374,1.694689701721072,-1.3650357225507497,-0.8178323406502604
1789316197855304400,10.510304443359376,2.2327251500427723,-1.5793611947983501,-1.3682711973406374
1789316197865337300,10.52033740234375,1.5807278069764374,-2.333795414510369,-1.4002654413640498
1789316197875370500,10.53037060546875,1.0448054052859543,-3.0399031179487706,-0.992759283967316
1789316197885403400,10.5404033203125,0.8014636819124221,-3.5781361346691845,-0.2701862564835697
1789316197895436300,10.550436279296875,1.3424673323899508,-3.7762633363097904,-0.011558956901170312
1789316197905469400,10.560469482421874,1.1394453444451094,-4.081263935738802,-0.059252034109458326
1789316197915503600,10.570503662109376,-0.32740240085124966,-3.9896494818806647,0.14327084520682692
1789316197925536500,10.58053662109375,-0.11703998701572417,-3.0371055961847304,0.6016127617517486
1789316197935569400,10.5905693359375,-0.5372188712418079,-1.6567805345654487,0.5863891813958063
1789316197945602300,10.600602294921876,-0.1496650762885809,-0.10375964968204497,0.16316610716823488
1789316197955635200,10.61063525390625,0.43508302336931226,1.2994938675820826,-0.23505627171769736
1789316197965668400,10.62066845703125,0.6335363882243633,2.3255308595120905,-0.4307074021009728
1789316197975701200,10.630701171875,0.3150046915709972,2.660265502947569,-0.5518282286895438
1789316197985734400,10.640734375,0.1397562612146139,2.2898861301571127,-0.5465455390462651
1789316197995767300,10.650767333984374,-0.09072130441069602,1.5358014545351266,0.130802627973631
1789316198005801500,10.660801513671874,-0.27808628901839255,0.7355056473582983,0.8679299582496285
1789316198015834400,10.67083447265625,-0.08664134162068367,0.018617022186517715,1.0745616611242295
1789316198025867500,10.680867431640625,0.6495178012102842,-0.3818313256531954,0.24602161010727286
1789316198035900400,10.690900390625,1.5425918453276157,-0.46686698564290996,-0.9589536066077649
1789316198045933600,10.70093359375,2.2348364431083203,-0.26482699447274205,-1.2471654221907258
1789316198055966500,10.710966552734375,2.334981409424543,-0.17005436884462832,-1.0965863728623837
1789316198065999600,10.72099951171875,1.8751696029901503,-0.4327595488578081,-0.5304652322631329
1789316198076032500,10.731032470703125,1.2156453715503215,-1.120288808554411,0.36806141470428555
1789316198086065400,10.7410654296875,0.7257146134451031,-2.0456068336725233,1.0860217972934245
1789316198096099300,10.751099365234374,0.2945952330097556,-3.097605365332961,1.072050262825191
1789316198106132500,10.761132568359375,0.6612298663139343,-3.7923125538349147,0.003671747315302491
1789316198116165400,10.771165283203125,1.7960457973927257,-3.475429208910465,-1.3896937784671783
1789316198126198300,10.7811982421875,2.013406107291579,-2.268244791713357,-1.596618911330402
1789316198136231400,10.7912314453125,0.49496349157541986,-0.919608415299654,-1.2899974327012895
1789316198146264300,10.801264404296875,-1.200554769924283,0.17226152350008486,-1.0436593039907514
1789316198156297500,10.81129736328125,-2.2464356954872606,0.9879097981095314,-0.7599459688708186
1789316198166330400,10.821330322265625,-2.403399696612358,1.7270932571977375,-0.10177117927856742
1789316198176363500,10.831363525390625,-2.300577912302315,1.7800374963998793,0.7628885251287371
1789316198186397400,10.8413974609375,-1.8427894283890722,1.0611778634160756,0.5919389244774356
1789316198196430300,10.851430419921876,-0.7154588846296072,0.19623510428369045,0.2133522798338905
1789316198206463200,10.861463134765625,0.4145060992866754,-0.6222124456554651,0.36495190438162534
1789316198216496400,10.871496337890624,1.4718296253621577,-1.0911077222555876,0.2404671908505261
1789316198226529300,10.881529296875,1.9727450110793112,-1.3007681253015995,0.1396223143703304
1789316198236562400,10.8915625,2.055619109120965,-1.4283990644365547,0.39233569546751673
1789316198246595300,10.90159521484375,1.8093834178715944,-1.3463847980946302,0.5088558963928371
1789316198256628500,10.91162841796875,0.9462199433714151,-1.0215320817261935,0.5068202258467674
1789316198266661400,10.921661376953125,-0.08147358359396457,-0.5207265861243009,0.5664645837420598
1789316198276695600,10.931695556640625,-0.9387222810924053,0.13666414041817188,0.7513827231869101
1789316198286728400,10.941728515625,-1.56321085498631,0.7844552639663219,0.7323696143548936
1789316198296761600,10.95176171875,-1.74338914296031,1.1516659435927867,0.63032319833152
1789316198306794500,10.96179443359375,-1.4445949969559908,1.064795469391346,0.4188280176063999
1789316198316827400,10.971827392578126,-0.6454676490366459,0.5047697230577468,0.49384683557040987
1789316198326860500,10.981860595703125,0.0959767407208681,0.0934147812783718,0.07115688183885067
1789316198336893400,10.9918935546875,1.1360732376635074,-0.4687824638754129,-0.3076828973155469
1789316198346926300,11.00192626953125,1.9940426506519315,-1.4496253923386335,-0.2670071880560368
1789316198356959200,11.011959228515625,1.7660902195900678,-2.079270618343353,-0.3607220117269084
1789316198366993400,11.021993408203125,1.1989385668992996,-2.184066040813923,-0.015612616206146776
1789316198377026300,11.0320263671875,0.7591852136313915,-1.6214719052970408,0.20669636560864746
1789316198387059200,11.04205908203125,0.3786836752772331,-1.3766519260644912,0.13658745845276862
1789316198397092400,11.05209228515625,-0.12633096245229244,-1.9616595534414052,0.1176119782174006
1789316198407125200,11.062125244140624,-0.11516367174983023,-1.480904327699542,0.25168939007800073
1789316198417158400,11.072158447265625,0.15373217959702015,-0.8645616508603096,0.3945057329829782
1789316198427191300,11.08219140625,-0.26960370735526085,-0.47211365412473677,0.309774170506373
1789316198437224400,11.092224365234374,-1.22605453736186,0.2815402288645506,0.057836797016672784
1789316198447257300,11.10225732421875,-0.4861030165106058,-0.01358662680387497,0.5779541652014478
1789316198457291300,11.112291259765625,1.1982155133217574,-1.791964665558934,1.1658032630819826
1789316198467324200,11.12232421875,2.3754478598475455,-3.6560020491600036,0.9777476658616214
1789316198477357300,11.132357421875,1.2960831823557615,-4.397317259579896,-0.03810212787787896
1789316198487390200,11.14239013671875,0.053822191080451005,-3.8964252547383307,-0.628433365996927
1789316198497423400,11.15242333984375,-1.0380109228402377,-1.9930337658703325,-0.4922295000342652
1789316198507456300,11.162456298828126,-1.2689251263171433,-1.4568804780334232,-0.7826314095400273
1789316198517489400,11.172489501953125,-1.060912490478158,0.47329088121056556,-1.5375827849939465
1789316198527522300,11.182522216796874,-1.1801041025698185,1.2043296122878788,-1.7579301478795706
1789316198537555200,11.19255517578125,-0.7043558913350105,1.10169633628726,-1.960731040419638
1789316198547589400,11.20258935546875,-1.4404881461590529,1.0268845486700535,-2.358144404477626
1789316198557622500,11.21262255859375,-2.7730256206870076,1.708621196439862,-2.3170231434077024
1789316198567655400,11.222655517578126,-3.9629263101279735,3.512129000276327,-1.8505124238565562
1789316198577688300,11.232688232421875,-4.792613046962022,4.441788269469142,-1.3307194653205572
1789316198587721500,11.242721435546875,-4.44535385299623,3.9896868912816044,-0.644311537804082
1789316198597754400,11.25275439453125,-3.4302129336118696,3.235411077001691,-0.2341418237539008
1789316198607787300,11.262787353515625,-2.7903946886390445,2.0205477957397697,-0.1487164429273922
1789316198617820200,11.272820068359374,-2.033261146840453,1.157933771815896,0.14352441810909658
1789316198627853300,11.282853271484376,-1.6695201891511677,0.8818786963641643,0.27128055452629923
1789316198637887200,11.29288720703125,-1.6297493197768926,1.6358441295206545,0.7227267567407339
1789316198647920400,11.30292041015625,-1.3582178592294454,2.4593676675498486,0.6420659508343786
1789316198657953300,11.312953369140626,-1.317072778892517,2.3834113860726354,-0.048162046426907176
1789316198667986400,11.322986328125,-0.9986568175733089,1.9704419948339462,-0.1639728935064748
1789316198678019300,11.333019287109375,-0.7407686824530363,1.551412865164876,-0.4723922518704086
1789316198688052500,11.343052490234374,-0.47477147515714163,1.0131745877474545,-0.5765376129344105
1789316198698085400,11.35308544921875,-0.4264776921093464,0.7469991012752055,-0.1552839756162837
1789316198708118300,11.3631181640625,-0.3284861044347286,0.5996358721882105,0.04270093147680163
1789316198718151400,11.3731513671875,-0.16119593960642814,0.2183434757173061,0.1580741543240845
1789316198728184300,11.383184326171875,0.2734089448571205,-0.5528939947575331,0.44611543564572925
1789316198738218200,11.39321826171875,0.20918460222780702,-1.3637468517839908,0.44969249041490256
1789316198748251100,11.403251220703124,-0.4042033164590597,-1.7373597996681927,-0.16860665425434707
1789316198758284300,11.4132841796875,-0.9616963294446468,-1.7466496060609817,-0.544898246763274
1789316198768317200,11.423317138671875,-0.8754150533080101,-1.3282529290765523,-0.4684698177296668
1789316198778350300,11.433350341796874,-0.8345493744343518,-0.6133756437271833,-0.4215120325259864
1789316198788383200,11.44338330078125,-0.6385030707210302,0.3856073370605707,-0.5628580836826935
1789316198798416400,11.45341650390625,-0.6890911021858454,1.1499486182808876,-0.37110388767272234
1789316198808449300,11.46344921875,-0.9513573062598705,1.6527110931694506,-0.036854433938302095
1789316198818482400,11.473482421875,-0.910482859557867,2.032823339945078,-0.10672456390224397
1789316198828516400,11.483516357421875,-0.7086901211470366,2.2722873451024292,-0.3399072968330234
1789316198838549200,11.49354931640625,-0.15343699604272842,2.01069977094233,-0.5605865585541352
1789316198848582100,11.50358203125,-1.54420629478693,1.4377514146715402,-0.5093806509193033
1789316198858615300,11.513615234375,-1.8477672168016432,1.1168892292439936,-0.36919915002994236
1789316198868648200,11.523648193359374,-1.6095827300608156,0.7519219446301459,-0.46012543896082786
1789316198878681300,11.533681396484376,0.073180971544981,0.058896425604820245,-0.7032499759197235
1789316198888714200,11.54371435546875,-1.225693302834034,-0.6486907027363776,-0.21455953673180192
1789316198898747100,11.5537470703125,-0.016880407652258872,-0.6075801091909409,0.11785999816171824
1789316198908780300,11.5637802734375,1.3552683617740868,-0.8006611333578825,0.10362849758304656
1789316198918814500,11.573814453125,1.9248919575363397,-1.0531728361368178,0.08832469159774482
1789316198928847400,11.583847412109375,2.6444196990400552,-1.1301204667389393,0.2263059424964711
1789316198938880300,11.59388037109375,3.0466011542826887,-1.3126076161772011,0.18419683943297713
1789316198948913400,11.603913330078125,3.399074283504486,-1.6667735207915304,-0.2734542818361893
1789316198958946300,11.6139462890625,3.0794886938840147,-2.272756131657958,-0.7891499976538121
1789316198968979500,11.6239794921875,2.5504578052729365,-2.8122715894043444,-1.3461957052633164
1789316198979012400,11.634012451171875,1.9649445664614438,-3.2021862682700157,-1.1778712289512157
1789316198989045500,11.64404541015625,1.3484043212234973,-3.4303456200808284,-0.5914009816758334
1789316198999079200,11.6540791015625,0.8071475727677345,-3.4261867468357083,-0.2068606893248856
1789316199009112300,11.6641123046875,0.4516203166723251,-3.140961107456684,0.2767992448825389
1789316199019145200,11.674145263671875,-0.15409399864673615,-2.686348623231053,0.3863931536760181
1789316199029178400,11.684178466796874,-0.6469523346364497,-2.182606489655375,-0.0412297264130786
1789316199039211300,11.694211181640625,-0.692409432953596,-1.6103905393123625,-0.2272513883867301
1789316199049244400,11.704244384765625,-0.8598930745273828,-1.0191741204231977,-0.2775862122754566
1789316199059277300,11.71427734375,-1.23728203381896,-0.4829606268316507,-0.5657668107362464
1789316199069310500,11.724310546875,-1.4852639842137694,0.07292202834784985,-0.7090078087940812
1789316199079343400,11.73434326171875,-1.6168386925384401,0.585994300326705,-0.3083730715367943
1789316199089377300,11.744377197265624,-1.7697241921782492,0.8862047428697347,-0.017123486559977755
1789316199099410200,11.75441015625,-1.624845181122422,1.1302964078277349,-0.3393074677763507
1789316199109443300,11.764443359375,-0.9799877729386091,1.2983096262335776,-0.8309924126051366
1789316199119476200,11.774476318359374,0.02014554692804813,1.3604875577270983,-1.1515054923340677
1789316199129509000,11.784509033203125,0.9775509011805057,1.4183914651632308,-0.9404228744652122
1789316199139542300,11.794542236328125,1.661791056203842,1.4701701677173376,-0.12516920693023129
1789316199149575200,11.8045751953125,1.7865046465873717,1.5422896475106478,0.40490043187774716
1789316199159608300,11.8146083984375,1.5149515587300062,1.5600503451287746,1.0227177113141863
1789316199169641200,11.82464111328125,0.9437281265556812,1.3487877675831317,1.5087845605328678
1789316199179674400,11.83467431640625,0.49568099219501016,0.8807160823255776,1.072538923124969
1789316199189708300,11.844708251953126,0.4995096105724573,0.40526714629828925,1.1176423856988549
1789316199199741400,11.854741455078125,0.5380272650152444,0.03985445600450039,1.5743208625435827
1789316199209774300,11.8647744140625,0.8168342695236206,-0.26821312977969647,0.7946166655618697
1789316199219807500,11.874807373046876,0.9655068276435136,-0.6861825212627649,0.8186695951920002
1789316199229840400,11.88484033203125,0.8497878600984812,-1.2010995443254708,1.003837435081601
1789316199239873500,11.89487353515625,0.6733306384742259,-1.7304413985818623,0.6465826976064593
1789316199249906200,11.90490625,0.7104016012400388,-2.144324397534132,0.3129232821870595
1789316199259939300,11.914939208984375,0.5328150833249092,-2.507956049630046,0.49253513191733506
1789316199269973200,11.92497314453125,0.1509802505403757,-2.8849492876023053,0.2248157587376423
1789316199280006400,11.93500634765625,0.23320436024069785,-3.191963564941287,0.11610555570982396
1789316199290039300,11.945039306640625,0.8382353694707154,-3.229647106647491,0.46325496915820985
1789316199300072400,11.955072509765625,1.1966834814488887,-3.3385967261880634,0.2902739357445389
1789316199310105300,11.965105224609376,1.5903075362265109,-3.8231191955089567,-0.10935783501528203
1789316199320138200,11.97513818359375,1.8403022877484558,-4.626060548758507,0.09117193425502627
1789316199330171400,11.98517138671875,1.8370856637895105,-4.826643911379575,-0.03372062942460179
1789316199340204300,11.995204345703126,1.4953735825568437,-4.177918721851706,-0.5108571532126516
1789316199350237400,12.005237548828125,0.6409183151692152,-3.1329122410356995,-0.4660977183034643
1789316199360271400,12.015271240234375,-0.5553367117345333,-1.71392164093554,-0.48259570250939576
1789316199370304300,12.02530419921875,-1.9306313779711721,-0.46582244502604003,-0.34237368694655596
1789316199380337400,12.03533740234375,-2.7247113793730735,0.4801332944512367,-0.010035437128320336
1789316199390370300,12.045370361328125,-2.820382999667525,1.2843985897809267,-0.19970855254791675
1789316199400403500,12.055403564453124,-2.455064417397976,1.9986556974053382,-0.23911599543727932
1789316199410436400,12.065436279296875,-2.47506792550683,2.63391116450727,-0.14009137492049484
1789316199420469200,12.07546923828125,-2.2309663236767054,2.0084131213098764,-0.06617419805545359
1789316199430502400,12.08550244140625,-2.3981717328310013,2.066599937340617,-0.5193012294963002
1789316199440535300,12.095535400390625,-2.8743314474761483,2.4877310077250003,-0.5040559122325852
1789316199450568400,12.105568359375,-1.9754203677684068,2.04139827606678,-0.9681919020090252
1789316199460602400,12.115602294921874,-1.889723028999567,1.3288526485353707,-1.6056189409963786
1789316199470635500,12.125635498046876,-0.906782835996151,-0.11553718123733997,-1.7292121490478514
1789316199480668400,12.13566845703125,2.2487580009549855,-2.141664822936058,-1.7909439442090689
1789316199490701300,12.145701416015624,1.9133716156125067,-2.9895109013170003,-1.6904738375917077
1789316199500734200,12.155734130859376,-0.020157237365841865,-3.0308494583994148,-1.0027473017573356
1789316199510767400,12.165767333984375,0.523300236004591,-2.3395897800028322,-0.8982268237706273
1789316199520800300,12.17580029296875,0.4874485859006643,-1.2799468710690736,-0.36759544116035103
1789316199530833400,12.18583349609375,0.6433294679641723,-0.49434769776463505,0.2327962543638423
1789316199540866300,12.1958662109375,0.46871232124865053,1.057844335079193,0.23299683670355006
1789316199550900500,12.205900390625,-0.8434276774168014,0.9730652801990508,0.6129335990481078
1789316199560933400,12.215933349609376,-0.7794272066712379,0.5424234541475772,0.7543197264868765
1789316199570966500,12.225966552734375,-1.3678279836177825,0.776747173807025,0.6994523372024297
1789316199580999400,12.23599951171875,-1.7919196573734282,-0.006145663148164749,0.9882309928879142
1789316199591032600,12.246032470703126,-1.1743442238688468,0.28764965165555473,0.504330345259793
1789316199601065500,12.2560654296875,-1.1260784978717564,0.4838566988885402,-0.030607538905367253
1789316199611098400,12.266098388671875,-0.6369973423331976,0.49549336066842076,-0.02032139668529853
1789316199621131500,12.276131591796876,-0.561305264750123,0.48420858106613157,0.2807619379684329
1789316199631165400,12.28616552734375,-0.7174813303679227,0.4305500561147928,-0.0637749914266169
1789316199641198300,12.2961982421875,-1.2578928601711987,0.585956890925765,-0.5351503213394433
1789316199651231200,12.306231201171874,-2.1774211959719656,1.1429612436115741,-0.7886646983548998
1789316199661264400,12.316264404296875,-3.144379391467571,1.9680746811807155,-1.171267446772009
1789316199671297300,12.32629736328125,-3.669104691839218,2.230255545058846,-1.3811872314065694
1789316199681330400,12.336330322265624,-3.4165245999991893,2.3069155908912418,-0.9933725204948335
1789316199691363300,12.34636328125,-2.839571684262156,2.5331758310824632,-0.6023103155618533
1789316199701396500,12.356396484375,-2.516320557871461,2.6476310623019934,-0.41452396373692896
1789316199711429400,12.366429443359374,-2.891891069564223,3.003205664670467,0.06441073204688727
1789316199721463600,12.376463623046876,-3.206025408041477,2.948020368543267,0.07262359339054673
1789316199731496400,12.386496337890625,-3.272486715942621,2.5452228272289035,-0.1443515165830031
1789316199741529300,12.396529296875,-2.57221604809463,1.8332202205330133,-0.18187935627084226
1789316199751562200,12.406562255859376,-1.6835574823319912,0.6046101534694432,-0.42616321933269496
1789316199761595400,12.416595458984375,-0.9497042783558368,-0.3842337106198072,-0.5024926815038546
1789316199771628300,12.426628173828124,-0.4751701190859079,-0.8036106308132409,-0.3918890111459419
1789316199781661400,12.436661376953126,-0.015172434690594672,-0.6744564276337623,-0.23881558771859854
1789316199791694300,12.4466943359375,-0.2112690072864294,-0.6532651710450649,-0.1555923474457115
1789316199801727200,12.456727294921874,-0.3045820817559957,-0.6876245367646217,0.007971636466309428
1789316199811760400,12.466760498046876,0.40190906804203985,-0.5274205308049917,0.16090934121739117
1789316199821794600,12.476794677734375,0.12960837668776512,-0.2842839746147394,0.0026747721672058106
1789316199831827500,12.486827392578125,-0.28747254152297974,0.0740349580258131,-0.10560403543971478
1789316199841860400,12.4968603515625,-0.6186708275258541,0.4745785829335451,-0.21262370983101425
1789316199851893500,12.5068935546875,0.39499066695570945,0.986873440799117,-0.5516956883510574
1789316199861926400,12.516926513671875,0.3962263462305069,1.0681418572098016,-0.5770694547887891
1789316199871959600,12.52695947265625,-0.19448855287730693,0.9432114092051982,-0.21669972709827123
1789316199881992400,12.536992431640625,1.1436410425692796,0.8193038745075464,-0.19683370949765666
1789316199892025300,12.547025390625,1.2432751367539168,0.29316987638175485,-0.149682794608362
1789316199902059300,12.557059326171874,-0.5345271479398012,-0.40833588621914385,0.44693003996424374
1789316199912092400,12.567092529296875,0.2877875988215208,-0.5651935043603181,0.852658447098732
1789316199922125300,12.577125244140625,0.07008242100775242,-0.8251128530472517,0.9554305470481514
1789316199932158500,12.587158447265624,0.1553191565275192,-0.850409206867218,0.7083211417041718
1789316199942191400,12.59719140625,0.24239012173712252,-0.9476227959066629,0.35894554010629653
1789316199952224500,12.607224609375,0.7092676287740468,-1.002092052718997,-0.07942262414721772
1789316199962257400,12.61725732421875,1.4360942951142788,-1.0016343720793723,-0.3335123350989073
1789316199972290600,12.62729052734375,1.6447686097323893,-0.9595388591498136,-0.4400109812907874
1789316199982323500,12.637323486328125,1.3123200314074754,-1.1309253533810377,-0.33427433244735
1789316199992357400,12.647357421875,0.837995715495944,-1.7814760047703981,-0.2236397737608291
1789316200002390300,12.657390380859376,0.7665665560543536,-2.575310506978631,0.33910949751883745
