time,seconds_elapsed,z,y,x
1789316187410848300,0.06584814453125,9.3499104406178,2.9195091443300245,0.4754208059113472
1789316187420881200,0.075881103515625,9.336883785784243,2.9470927323043346,0.5546478526875377
1789316187430914000,0.0859140625,9.325770271095633,2.964907790458202,0.6400933355871588
1789316187440947200,0.095947265625,9.315531785675883,2.9711083986639975,0.7508412367213517
1789316187450980000,0.10597998046875,9.304562063372135,2.965040184666216,0.8966879968307911
1789316187461013000,0.116012939453125,9.292052710410951,2.9474881613627075,1.067918131456524
1789316187471046100,0.126046142578125,9.27810484907925,2.9198370611101385,1.249680912142992
1789316187481079000,0.1360791015625,9.262389393553137,2.882947300130129,1.4377569676294921
1789316187491112200,0.1461123046875,9.242044524660706,2.8394918970242142,1.6408192875847218
1789316187501145000,0.15614501953125,9.213307674998044,2.7925489440634843,1.8673564450211821
1789316187511178200,0.16617822265625,9.173384245410562,2.7452631690144536,2.1172946440503
1789316187521211100,0.176211181640625,9.121418495851755,2.7012159374952316,2.381919540079683
1789316187531245300,0.186245361328125,9.061089407095313,2.684735342815518,2.6190155009314418
1789316187541278200,0.1962783203125,8.996763942179083,2.7385779921621083,2.780074954676628
1789316187551311400,0.206311279296875,8.922499267050624,2.849987572075426,2.904644168153405
1789316187561344300,0.21634423828125,8.833128792726994,2.9925767186284062,3.0316166433796283
1789316187571377200,0.226377197265625,8.726961497381328,3.138997113907337,3.1870404293254015
1789316187581410000,0.23641015625,8.609366214570402,3.279657338224351,3.360512789919972
1789316187591443200,0.246443115234375,8.48715554691851,3.410137529310584,3.5368820409998296
1789316187601476000,0.25647607421875,8.366969078570603,3.5222532116666434,3.709170160245895
1789316187611509000,0.266509033203125,8.257564700999856,3.609791502127051,3.8668352953776717
1789316187621542100,0.276542236328125,8.168634956181048,3.6715710819527505,3.9954157903224226
1789316187631575000,0.286574951171875,8.10900963177979,3.706462362591922,4.083685025405884
1789316187641609200,0.296609130859375,8.080675517699122,3.709560620868206,4.136692685233056
1789316187651642000,0.30664208984375,8.09186735832095,3.672073478516936,4.148246052643657
1789316187661675300,0.31667529296875,8.148387117922306,3.587377718006074,4.111556198149919
1789316187671708200,0.326708251953125,8.228205920046568,3.4735984863519667,4.049830978859961
1789316187681741300,0.3367412109375,8.310890632995962,3.369280326004326,3.968302157947421
1789316187691774200,0.346774169921875,8.381699614712595,3.300031725472212,3.876504456476867
1789316187701807400,0.356807373046875,8.42417506687045,3.268016292530298,3.811001764474809
1789316187711840300,0.36684033203125,8.436658116346598,3.2634666664019223,3.7872120158255096
1789316187721873400,0.376873291015625,8.433284840521216,3.2644904564917088,3.793836402401328
1789316187731906000,0.386906005859375,8.430195642334223,3.2401553489193318,3.82146295273453
1789316187741939200,0.396939208984375,8.437589844238758,3.174066089200973,3.8604096462443467
1789316187751973000,0.40697314453125,8.448431556248664,3.080436203867197,3.9121991624534127
1789316187762006300,0.41700634765625,8.456826459628344,2.984785626360774,3.967811451821029
1789316187772039200,0.4270390625,8.463003686958551,2.90227539319545,4.015563383077085
1789316187782072300,0.437072265625,8.46436445391774,2.83299990465641,4.061899894577264
1789316187792105200,0.447105224609375,8.462158468306065,2.7731746737688776,4.107524166154861
1789316187802138000,0.45713818359375,8.458791622221469,2.725359614148736,4.146280597789585
1789316187812171300,0.467171142578125,8.449684186658263,2.691656374250352,4.186670475845038
1789316187822204200,0.4772041015625,8.43282949796915,2.6713275797098874,4.233412645536661
1789316187832237300,0.4872373046875,8.408066812634468,2.661738790370524,4.288349812121689
1789316187842270200,0.497270263671875,8.37995657043755,2.6573767957687378,4.345694039848446
1789316187852303400,0.507303466796875,8.358441488721967,2.6480633162394165,4.392562758529186
1789316187862336300,0.517336181640625,8.351238425475358,2.62132114752531,4.422202109989524
1789316187872370200,0.5273701171875,8.36277805662155,2.5659993655368685,4.432829302465915
1789316187882403000,0.537403076171875,8.389452128535508,2.483829616372287,4.4292283553645015
1789316187892436200,0.547436279296875,8.423519817832112,2.393871113027632,4.41407725572288
1789316187902469000,0.55746923828125,8.45565800037086,2.320912844322622,4.391536630351841
1789316187912502300,0.567502197265625,8.478227559575439,2.2740438333809374,4.372501382753253
1789316187922535200,0.57753515625,8.490563309535384,2.247849800068885,4.362097477638721
1789316187932568300,0.587568359375,8.498580611774324,2.2357193634226915,4.352708302524686
1789316187942601200,0.597601318359375,8.506550567740202,2.2341559134982525,4.337918145149946
1789316187952634000,0.607634033203125,8.510994103145599,2.244743504616618,4.3237130941867825
1789316187962667300,0.617667236328125,8.513537357887625,2.271930640619248,4.3044621580108995
1789316187972700200,0.6277001953125,8.517438456979393,2.305195635230839,4.278983141100406
1789316187982734000,0.637734130859375,8.530738083535432,2.3207436252355573,4.243940761552751
1789316187992767000,0.64776708984375,8.555632286295294,2.2982269652619958,4.2059117674097415
1789316188002800000,0.657800048828125,8.579781223645806,2.243972958635539,4.18596817279458
1789316188012833000,0.6678330078125,8.599912157526612,2.167454220969975,4.184977700452507
1789316188022866200,0.6778662109375,8.610805307462812,2.0724793507680297,4.2106119079247115
1789316188032899000,0.687899169921875,8.61282015441656,1.9589581855282185,4.260539137393236
1789316188042932200,0.69793212890625,8.609228851926327,1.8315189695730805,4.324014415220916
1789316188052965000,0.707965087890625,8.593620363906025,1.703975416460633,4.40642089575082
1789316188062998300,0.717998291015625,8.562618491920828,1.5862847104512154,4.509506007172167
1789316188073031200,0.72803125,8.522689801636337,1.480070507223904,4.6199067023038864
1789316188083064000,0.73806396484375,8.485233054423333,1.3779859511472283,4.719359886963665
1789316188093098200,0.74809814453125,8.463647245559097,1.2705329999051986,4.787776128324866
1789316188103131400,0.75813134765625,8.459854867538809,1.1533061850804835,4.824014731919765
1789316188113164300,0.768164306640625,8.46131032704413,1.017545350177586,4.851928867022693
1789316188123197200,0.778197265625,8.458952950263022,0.8380080635208637,4.890218850189447
1789316188133230300,0.788230224609375,8.447845865315198,0.5915169727383182,4.9451393579006195
1789316188143263000,0.798262939453125,8.423309389951825,0.285224433802627,5.013669873291254
1789316188153296100,0.808296142578125,8.377922434261441,-0.04383925132434815,5.09694846048057
1789316188163329000,0.8183291015625,8.308178451427818,-0.35938323740381745,5.197634109544754
1789316188173362200,0.828362060546875,8.22227185382247,-0.6495871401194483,5.304966357016563
1789316188183395000,0.83839501953125,8.123331002599,-0.920472777044028,5.416143004956841
1789316188193428200,0.84842822265625,8.00260969672203,-1.1694519217826425,5.546260500210523
1789316188203462100,0.858462158203125,7.841605480295419,-1.396130971907824,5.721051834449172
1789316188213495300,0.868495361328125,7.628232194206118,-1.6187224604584276,5.946444059634208
1789316188223528200,0.878528076171875,7.35920131830275,-1.8555721914641559,6.210426419976353
1789316188233561300,0.888561279296875,7.035543949198723,-2.116125015749037,6.495654397442936
1789316188243594200,0.89859423828125,6.664608696091174,-2.3997123864017427,6.781943282139301
1789316188253627400,0.90862744140625,6.263094180324673,-2.677847921389341,7.055010281690954
1789316188263660300,0.918660400390625,5.868453057458996,-2.9112355292424557,7.297694417938589
1789316188273693200,0.928693115234375,5.522243080285191,-3.070590809418261,7.499779417294263
1789316188283726300,0.938726318359375,5.232538249665499,-3.149306910997629,7.672861025005578
1789316188293759200,0.94875927734375,4.975137021279335,-3.152565036010742,7.840900546896457
1789316188303792000,0.958792236328125,4.723063125395774,-3.1063772853314875,8.013330997222662
1789316188313826000,0.968825927734375,4.4544531052529805,-3.079576079906523,8.175844449168443
1789316188323859200,0.978859130859375,4.144489622719585,-3.1049580661833285,8.327834169012307
1789316188333892000,0.98889208984375,3.794759362465143,-3.164813107687235,8.47078191974461
1789316188343925000,0.998925048828125,3.417519163994491,-3.2331752807736396,8.604505330535769
1789316188353958100,1.008958251953125,3.050870209904015,-3.3017180711239575,8.715575010970234
1789316188363991000,1.018990966796875,2.723336291627586,-3.372958429995179,8.796418479967118
1789316188374024200,1.029024169921875,2.4478902879849076,-3.4504169327288863,8.847194142958521
1789316188384057000,1.03905712890625,2.225038102671504,-3.531172138920426,8.874143524682522
1789316188394090200,1.04909033203125,2.0364969138912854,-3.6081165546521543,8.888452036020158
1789316188404123100,1.059123046875,1.8760706434831023,-3.6849601403579113,8.892234477168321
1789316188414156000,1.069156005859375,1.7453963911294936,-3.758720080834627,8.887970974504947
1789316188424189200,1.079189208984375,1.7170507327415048,-3.8139804880246517,8.86993029090166
1789316188434223000,1.08922314453125,1.7290294859573243,-3.860924025507271,8.847265454629063
1789316188444256000,1.099256103515625,1.7093391354508698,-3.8967537560403347,8.835374525827168
1789316188454289000,1.109288818359375,1.6266602677203714,-3.9062332397863266,8.846790822854638
1789316188464322000,1.119322021484375,1.4953173223249614,-3.9119296978622673,8.867425030082464
1789316188474355000,1.12935498046875,1.3231082596644759,-3.9438358252108094,8.880649837836623
1789316188484388000,1.13938818359375,1.1095466844614594,-3.997806192590296,8.885766742458939
1789316188494421000,1.1494208984375,0.8478458591852337,-4.063854243515432,8.88462867833972
1789316188504454100,1.1594541015625,0.6066403075901791,-4.121495700623095,8.87781782928109
1789316188514487000,1.169487060546875,0.45439113309253004,-4.189490209440887,8.855060638549924
1789316188524520200,1.179520263671875,0.4010089408645406,-4.290327541935444,8.809237629529834
1789316188534553000,1.189552978515625,0.3879545943064615,-4.425565741203725,8.742668185079097
1789316188544587000,1.1995869140625,0.35776644985694434,-4.559189783273637,8.675031988179683
1789316188554620000,1.209619873046875,0.29175467582158743,-4.688545354244113,8.608297124034166
1789316188564653000,1.219653076171875,0.15244712648885322,-4.8621509858295315,8.515084587329625
1789316188574686000,1.22968603515625,-0.046051767141511664,-5.091376213306188,8.38129746365249
1789316188584719000,1.239718994140625,-0.26192972039496526,-5.363450110167265,8.20580294958055
1789316188594752000,1.249751953125,-0.4611674222944304,-5.668613206681608,7.9890265770494935
1789316188604785000,1.259784912109375,-0.6338181277751922,-5.968361292409896,7.755470919153094
1789316188614818000,1.269818115234375,-0.7823244624827057,-6.229800398010015,7.533122299447656
1789316188624851000,1.279850830078125,-0.9038569386120885,-6.416771999385952,7.360601832750439
1789316188634884000,1.289884033203125,-0.9510651183802634,-6.520318298578262,7.263008889004587
1789316188644917000,1.2999169921875,-0.8864080834221094,-6.5619257357299325,7.233655953270197
1789316188654951200,1.309951171875,-0.6980838983934372,-6.558117575618624,7.2576973385930055
1789316188664984000,1.319984130859375,-0.4182749503009021,-6.506414276388287,7.325436995866895
1789316188675017200,1.330017333984375,-0.09673097488796338,-6.41940585502088,7.412979670241475
1789316188685050000,1.340050048828125,0.23396244859900325,-6.3674406899839635,7.454619840618967
1789316188695083300,1.350083251953125,0.578384300247021,-6.406019719225168,7.40261843522489
1789316188705116200,1.3601162109375,0.8913261044714599,-6.52673634892702,7.264821491384506
1789316188715149000,1.370149169921875,1.1486118167191743,-6.6880152906417845,7.07965547812581
1789316188725182000,1.380181884765625,1.35529510365054,-6.857728883224725,6.877869753977656
1789316188735215000,1.390215087890625,1.508417919177562,-7.032755195263028,6.665988752272725
1789316188745248000,1.400248046875,1.6127809415802359,-7.208782208776474,6.450022527080774
1789316188755281000,1.410281005859375,1.694027730681002,-7.361783736011385,6.25338351817131
1789316188765314000,1.42031396484375,1.6978145557433366,-7.491371654433012,6.096487321585417
1789316188775348200,1.43034814453125,1.6222357292763887,-7.611078230309486,5.967428979995846
1789316188785381000,1.440381103515625,1.4915136922582983,-7.725874237790704,5.852918803718686
1789316188795414000,1.4504140625,1.3210736850969493,-7.833314621812105,5.750160440033674
1789316188805447200,1.460447265625,1.1452886636458337,-7.937963329288363,5.643354262262583
1789316188815480000,1.47047998046875,1.0230857409089804,-8.056033243873715,5.497637046816945
1789316188825513200,1.48051318359375,0.9427401384316384,-8.196226142939924,5.301273347717523
1789316188835546000,1.490546142578125,0.8795807946853339,-8.35104787133932,5.065246915793419
1789316188845579300,1.500579345703125,0.8257393874477594,-8.50621563669741,4.809660920135676
1789316188855612200,1.510612060546875,0.7842230626456439,-8.65398335493207,4.545763607728481
1789316188865645000,1.52064501953125,0.7540268810201436,-8.792523810616135,4.277076138435304
1789316188875678000,1.530677978515625,0.733828507926315,-8.921903639245032,4.003938996256887
1789316188885712100,1.540712158203125,0.7260506404664367,-9.0429651368618,3.723982529452443
1789316188895745000,1.5507451171875,0.7290517950437962,-9.154557964387536,3.439904598803818
1789316188905778200,1.560778076171875,0.7390403242904693,-9.254600054851174,3.158570706166327
1789316188915811000,1.57081103515625,0.7653194786027073,-9.339574924564362,2.8908500360786915
1789316188925844000,1.580843994140625,0.8332908988058566,-9.403983391588925,2.653508137641847
1789316188935877000,1.590877197265625,0.9378949634227901,-9.443599362662434,2.4716750681981443
1789316188945910000,1.600909912109375,1.0376265996977687,-9.473293074658512,2.313095594700426
1789316188955943200,1.610943115234375,1.1355402267653494,-9.511385781687498,2.1010648092612625
1789316188965976000,1.62097607421875,1.1795018258277326,-9.556631283080577,1.8574072979368268
1789316188976009200,1.63100927734375,1.0896962480224668,-9.598855390825866,1.6866899351388216
1789316188986042000,1.6410419921875,1.054680098894611,-9.619971828612684,1.5856236161939798
1789316188996076000,1.651075927734375,1.151940522750467,-9.614449265798926,1.5510618597701191
1789316189006109000,1.66110888671875,1.2626559829197823,-9.595942718249558,1.5792292389817535
1789316189016142000,1.67114208984375,1.3584436308093368,-9.572128127419948,1.6429834798812866
1789316189026175000,1.681175048828125,1.4254938445143401,-9.548654312852024,1.7209215828254818
1789316189036208000,1.6912080078125,1.456957634922862,-9.530808275038003,1.7920267710097133
1789316189046241000,1.701240966796875,1.4802585771419108,-9.517737781062722,1.8417068938493728
1789316189056274200,1.711274169921875,1.506738149397075,-9.507058566138149,1.8750899618826806
1789316189066307000,1.72130712890625,1.5290433585770427,-9.499323587971926,1.8961176984727381
1789316189076340000,1.731340087890625,1.5347053298614919,-9.496570489871502,1.9053151504069565
1789316189086373000,1.741373046875,1.5221128286615013,-9.498258589088916,1.9070000347539782
1789316189096406000,1.751406005859375,1.4996632425747811,-9.503068035197257,1.9008187157705425
1789316189106440200,1.761440185546875,1.4655881006240843,-9.510122629883885,1.8920899042613804
1789316189116472800,1.771472900390625,1.4264806635946035,-9.518566048580407,1.8794781138390302
1789316189126506000,1.781506103515625,1.3912595664791763,-9.526827680969237,1.8639580347545444
1789316189136539000,1.791538818359375,1.3654140543438493,-9.533820900857448,1.8472335483163593
1789316189146572000,1.801572021484375,1.349754128397256,-9.53914998692572,1.83116533382982
1789316189156605000,1.81160498046875,1.3444478386826813,-9.542346152618526,1.8183721954911947
1789316189166638000,1.82163818359375,1.3500494580820201,-9.543100770378112,1.8102382811352609
1789316189176671000,1.8316708984375,1.3635145043328403,-9.54178033542931,1.8071097738511859
1789316189186704100,1.8417041015625,1.3806060705177485,-9.538938974523544,1.8091266666315495
1789316189196737000,1.851737060546875,1.4005704156599939,-9.534856089124084,1.8152919112630188
1789316189206770200,1.861770263671875,1.4243500813066958,-9.529512974530459,1.824827216849476
1789316189216803000,1.871802978515625,1.4469532505199312,-9.523436869487165,1.8387154569484292
1789316189226837200,1.881837158203125,1.4659873290747403,-9.517529691269994,1.8541539952293038
1789316189236870100,1.8918701171875,1.4828950631253421,-9.511887885990738,1.8696030549041927
1789316189246903300,1.9019033203125,1.4939619621932505,-9.50733446047008,1.8838949073679745
1789316189256936200,1.911936279296875,1.497610840089619,-9.504412435543536,1.8956981578864156
1789316189266969000,1.921968994140625,1.4955834259152412,-9.502833641919493,1.9051925469405948
1789316189277002000,1.932001953125,1.491739902229607,-9.501997191095352,1.9123620001785455
1789316189287035000,1.942034912109375,1.485433641692251,-9.50233562926948,1.9155873919658362
1789316189297068000,1.952068115234375,1.4757671109415589,-9.504217205232381,1.9137264203995465
1789316189307101000,1.962100830078125,1.4616215350806712,-9.507956391760706,1.9059927574075757
1789316189317134000,1.972134033203125,1.4426798109844325,-9.513253329125046,1.89395569813326
1789316189327167000,1.9821669921875,1.419624952480942,-9.520032029479742,1.8772417330890894
1789316189337201200,1.992201171875,1.3944089704208076,-9.527769345733523,1.856772799425572
1789316189347234000,2.002234130859375,1.370206987708807,-9.535426582488418,1.835362347128242
1789316189357267200,2.01226708984375,1.3475601254843175,-9.542048046454786,1.8176384743891656
1789316189367300000,2.022300048828125,1.3271416068337858,-9.546935818496346,1.806961159160733
1789316189377333000,2.0323330078125,1.3103779574289918,-9.550589664828777,1.7998728083349764
1789316189387366100,2.0423662109375,1.2962532782256602,-9.553930791950226,1.7923508883975445
1789316189397399000,2.05239892578125,1.2833427971176803,-9.55733329387009,1.783476384807378
1789316189407432200,2.06243212890625,1.2680915981024503,-9.560721182742714,1.7762202761992811
1789316189417465000,2.072465087890625,1.2448432628534734,-9.565090483868122,1.7691216962404548
1789316189427498000,2.082498046875,1.2101651135083287,-9.57109995341599,1.760665125801414
1789316189437531000,2.09253076171875,1.1653976779557764,-9.578085574519633,1.7528621969655156
1789316189447565000,2.10256494140625,1.1162830069791525,-9.584521160525084,1.7496461575284599
1789316189457598000,2.112597900390625,1.0679407086145132,-9.590091654133795,1.7492931063070891
1789316189467631000,2.122631103515625,1.0228067778371275,-9.59519628379643,1.7482791069589554
1789316189477664000,2.1326640625,0.9815805220227688,-9.600116204541921,1.7448992552623153
1789316189487697200,2.142697265625,0.9423537694625556,-9.605128479745984,1.738923541853577
1789316189497730000,2.15272998046875,0.9027760115075856,-9.610484453821181,1.7303072508081794
1789316189507763000,2.162762939453125,0.8621461141511797,-9.616354222637414,1.7183783280834555
1789316189517796000,2.172796142578125,0.8203048682436347,-9.622753568285702,1.7029606864601372
1789316189527829000,2.1828291015625,0.7779005085606128,-9.629618777880072,1.6839543726950883
1789316189537862100,2.192862060546875,0.7329270290419458,-9.63691536462903,1.662245083581656
1789316189547895000,2.20289501953125,0.6812926303293556,-9.644530515807867,1.6398953046076
1789316189557929000,2.212928955078125,0.6206383282065391,-9.652516838386655,1.6168243717521429
1789316189567961900,2.2229619140625,0.5515768477443606,-9.660848613402246,1.5919013812892138
1789316189577995000,2.2329951171875,0.47508485195524985,-9.66927215835452,1.5652077278919516
1789316189588028000,2.24302783203125,0.3940330009046942,-9.67755483353138,1.536245837301761
1789316189598061000,2.25306103515625,0.31107736205942926,-9.685363461455703,1.5057644820593297
1789316189608094000,2.263093994140625,0.22856126540889962,-9.692370125347376,1.4751657840475438
1789316189618127000,2.273127197265625,0.14644400448338127,-9.698521633714437,1.4448634386338293
1789316189628160000,2.283159912109375,0.06274762114025652,-9.703858903089165,1.414769183012843
1789316189638193200,2.293193115234375,-0.02599222484634956,-9.708277888575196,1.3852980277262628
1789316189648226000,2.30322607421875,-0.11905371972462162,-9.711575176554918,1.3570252884440124
1789316189658259000,2.313259033203125,-0.2134999994751997,-9.713487732177972,1.3315332659214734
1789316189668293000,2.323293212890625,-0.3061850965058431,-9.71388111540973,1.3104065990015863
1789316189678326000,2.333325927734375,-0.3941335021371022,-9.712872815150021,1.2942803707174957
1789316189688359000,2.34335888671875,-0.4774395253226161,-9.71061948326528,1.2830911604441702
1789316189698391800,2.353391845703125,-0.5592895044809207,-9.707410458090902,1.274270871259272
1789316189708425000,2.363425048828125,-0.6436561426352709,-9.703612234851718,1.2633389967478812
1789316189718457900,2.373457763671875,-0.7323492291539907,-9.69948317222297,1.2466301462702452
1789316189728491000,2.383490966796875,-0.8254388701312243,-9.694892921823262,1.2239675019547342
1789316189738524000,2.39352392578125,-0.9226803700909018,-9.689466220599412,1.1971928922757507
1789316189748557000,2.40355712890625,-1.0214217532195151,-9.682975105014442,1.1692249080937356
1789316189758590000,2.41358984375,-1.1165491836346686,-9.675551677015424,1.1434179744031279
1789316189768623000,2.423623046875,-1.2019905018158257,-9.66783540354967,1.1218616838943212
1789316189778657000,2.433656982421875,-1.2761778739243745,-9.660434771904349,1.1035113498199731
1789316189788690200,2.443690185546875,-1.3408432383194564,-9.65369815712571,1.0856505528282374
1789316189798723000,2.45372314453125,-1.3980902892820537,-9.647686934012174,1.0666939234238118
1789316189808756200,2.463756103515625,-1.450436562591046,-9.641853405553102,1.0494145795818417
1789316189818789000,2.4737890625,-1.5031332567729054,-9.63540320650041,1.0344142865877597
1789316189828822000,2.483822021484375,-1.5588639118231833,-9.628014849814772,1.0206051761396229
1789316189838855000,2.49385498046875,-1.618585682336241,-9.619621115478873,1.006712552126497
1789316189848887800,2.5038876953125,-1.6838612875841557,-9.61002209700644,0.9911849473226815
1789316189858921000,2.5139208984375,-1.7533511495262384,-9.599349896344542,0.973964347930625
1789316189868953900,2.523953857421875,-1.8230650294825435,-9.588417583441734,0.9534534017562866
1789316189878987000,2.533987060546875,-1.8875949309296904,-9.578284896484016,0.9294145737167447
1789316189889020000,2.54402001953125,-1.942767221444845,-9.5693820435822,0.9071616061806679
1789316189899054000,2.55405419921875,-1.9880213445357977,-9.561981411936879,0.8869580454550683
1789316189909087000,2.5640869140625,-2.029430190375447,-9.555072363200782,0.8674060074407607
1789316189919120100,2.5741201171875,-2.0724596231542525,-9.54775005748868,0.8460433398079127
1789316189929153000,2.584153076171875,-2.1191410025693473,-9.539550968942045,0.822563972282037
1789316189939186200,2.594186279296875,-2.1674797938026487,-9.53060895307362,0.7999512315228581
1789316189949219000,2.604218994140625,-2.2114704728290437,-9.5221994366467,0.779433124955371
1789316189959252200,2.614252197265625,-2.2481660264112056,-9.51518634301424,0.7598613593272865
1789316189969285000,2.62428515625,-2.2767032618485388,-9.509885313996673,0.7410069481883198
1789316189979318000,2.634318115234375,-2.3004072319105267,-9.505548746097087,0.7232458121787756
1789316189989351000,2.644350830078125,-2.3269309355683623,-9.500049564158916,0.7105436400592327
1789316189999385000,2.654385009765625,-2.3607012493535873,-9.492624967116116,0.6982428152821958
1789316190009418000,2.66441796875,-2.4011475337713954,-9.48381680676043,0.6797887285724282
1789316190019451100,2.674451171875,-2.449297816695273,-9.473542080983519,0.6506601761784404
1789316190029484000,2.684484130859375,-2.5054797226443886,-9.461263029646872,0.6143775873113423
1789316190039517000,2.694516845703125,-2.5640581683412194,-9.44821299393773,0.5720658378152177
1789316190049550000,2.704550048828125,-2.6176480119705197,-9.436317973482609,0.5236607398800551
1789316190059583000,2.7145830078125,-2.659845231708884,-9.427354914826154,0.46969424495808776
1789316190069616000,2.7246162109375,-2.6862925091296432,-9.422412197726965,0.41516569570656864
1789316190079649000,2.73464892578125,-2.697543094201386,-9.421535414892434,0.35819362576045094
1789316190089682200,2.74468212890625,-2.6925454320445654,-9.425171725568175,0.2944946952447295
1789316190099715000,2.754715087890625,-2.666745512616634,-9.434420030906796,0.2248210559672676
1789316190109749000,2.7647490234375,-2.6145465388238427,-9.450516594704984,0.14929079048293642
1789316190119782000,2.774781982421875,-2.534754040184617,-9.473115380004048,0.07404901395062916
1789316190129815000,2.78481494140625,-2.433586452822387,-9.49989291229248,0.00996233992606867
1789316190139848000,2.794847900390625,-2.321235208144784,-9.527898525071144,-0.037479904326307587
1789316190149881000,2.804881103515625,-2.202714481052011,-9.555808860781788,-0.07030348444648553
1789316190159914000,2.8149140625,-2.0754928533703088,-9.584071663191914,-0.09110752724930643
1789316190169947000,2.82494677734375,-1.9344898069649934,-9.61343336675465,-0.10011659873826428
1789316190179980000,2.83497998046875,-1.7695551192216574,-9.645204469546675,-0.09523658074489794
1789316190190013000,2.845012939453125,-1.5759731597952544,-9.678855394735931,-0.0804732839776203
1789316190200046000,2.855046142578125,-1.3564884050883352,-9.712194769757986,-0.05974279046820011
1789316190210079000,2.865078857421875,-1.1193619029678403,-9.742489954778552,-0.03585712771335384
1789316190220112100,2.875112060546875,-0.8727551864489912,-9.767731363540888,-0.010548811744246631
1789316190230146000,2.88514599609375,-0.6204992119967937,-9.786982007455824,0.01913811660130741
1789316190240179000,2.895178955078125,-0.3689785295492038,-9.799541044777632,0.05701480854272376
1789316190250211800,2.9052119140625,-0.1284130750891287,-9.805319628179072,0.09787039071405305
1789316190260245000,2.915244873046875,0.08762901008431799,-9.805348854273557,0.13357475956808776
1789316190270278000,2.92527783203125,0.274612749422621,-9.801507376414538,0.15951310108602046
1789316190280311000,2.93531103515625,0.43561289246231316,-9.7954225035429,0.17414012205461038
1789316190290344000,2.945343994140625,0.580758664695546,-9.787807936885953,0.17872982446504757
1789316190300377000,2.955377197265625,0.7162467470716685,-9.77882558900714,0.17875477624321356
1789316190310410000,2.965409912109375,0.8432565586335956,-9.76867595091462,0.17966122356364503
1789316190320443000,2.97544287109375,0.9602047026474029,-9.757813780638575,0.18290440673595293
1789316190330477000,2.98547705078125,1.06985129147619,-9.746350137338041,0.1856234929689206
1789316190340510500,2.995510498046875,1.1769706999149172,-9.733985745805501,0.18615412924690172
1789316190350543600,3.005543701171875,1.2844671249724924,-9.720378076213597,0.18652873471295459
1789316190360576500,3.015576416015625,1.391787682006508,-9.70551076194942,0.19066019022818653
1789316190370609400,3.025609375,1.4961207476623355,-9.689759066066145,0.2014146988786757
1789316190380642300,3.035642333984375,1.5959690691195427,-9.673460257694124,0.2178005279470235
1789316190390675200,3.04567529296875,1.6927245391279457,-9.656547116816043,0.23701491323849186
1789316190400708400,3.055708251953125,1.7880857782989739,-9.638860068956017,0.25596781631587073
1789316190410741200,3.0657412109375,1.8806949422828851,-9.620743397507072,0.2732718379413709
1789316190420774400,3.0757744140625,1.9636209166422485,-9.603670097631216,0.2899729617702774
1789316190430807300,3.085807373046875,2.0299993685655293,-9.589407179000974,0.3045760721403174
1789316190440841500,3.095841552734375,2.0811615466564892,-9.57815045644939,0.31334632990472017
1789316190450874400,3.105874267578125,2.1267174291729924,-9.56796633156538,0.3185567214967683
1789316190460907500,3.115907470703125,2.1772842717193064,-9.556357142314313,0.3253565011721104
1789316190470940400,3.1259404296875,2.233672075504064,-9.543247485372424,0.3278969794351607
1789316190480973600,3.1359736328125,2.284258791794628,-9.531454756247996,0.3223603150308132
1789316190491006500,3.14600634765625,2.3169798887878654,-9.524057047212123,0.3071486443083733
1789316190501039600,3.15603955078125,2.324312862024456,-9.523121812188625,0.279455750740692
1789316190511072500,3.166072509765625,2.310980648373067,-9.527462471741437,0.2391684197442606
1789316190521105400,3.17610546875,2.2887260003365575,-9.533817978247999,0.19604120741309597
1789316190531138300,3.18613818359375,2.261830102365464,-9.540880756241082,0.1615347613730468
1789316190541171200,3.196171142578125,2.2243995125070213,-9.550018002420662,0.13993513404601252
1789316190551205400,3.206205322265625,2.173694576664269,-9.561853986164927,0.12799286778252572
1789316190561238300,3.21623828125,2.1109275932364167,-9.57603857886195,0.11772509233620948
1789316190571271400,3.226271484375,2.0453410223431883,-9.590407295954227,0.10517338893748819
1789316190581304300,3.23630419921875,1.9869431939102709,-9.602831308719516,0.0898808623980265
1789316190591337500,3.24633740234375,1.9305856391333043,-9.61440191952586,0.08051597234187648
1789316190601370400,3.256370361328125,1.8563234482228754,-9.629033086946606,0.07848607394946738
1789316190611403500,3.266403564453125,1.740539014226198,-9.650665073040127,0.07465618606354109
1789316190621436400,3.2764365234375,1.5838070682913064,-9.677698625916243,0.06397133598262444
1789316190631469600,3.286469482421875,1.4307153785549103,-9.701619015207886,0.04522156339506619
1789316190641502500,3.29650244140625,1.320201578437537,-9.717357851609588,0.02032549518839223
1789316190651535600,3.30653564453125,1.2426353775456547,-9.727585815635322,-0.01860966771383537
1789316190661569300,3.3165693359375,1.1682613968238234,-9.736484576883912,-0.08026144045838154
1789316190671602400,3.3266025390625,1.0903650871947408,-9.744577866968513,-0.15711599508272484
1789316190681635300,3.33663525390625,1.0115175412554294,-9.751633046177028,-0.22997184459287673
1789316190691668500,3.34666845703125,0.930224282664433,-9.758247495880722,-0.28580124730989337
1789316190701701400,3.356701416015625,0.8423361558530479,-9.765065943723917,-0.3230266699850559
1789316190711734300,3.366734375,0.7445875100888312,-9.772111770582198,-0.349030295291543
1789316190721767400,3.376767333984375,0.637217195628956,-9.778863582929969,-0.37171372666675595
1789316190731800300,3.38680029296875,0.5216687988778576,-9.78479121941328,-0.39510928836669773
1789316190741833500,3.39683349609375,0.3997931353339925,-9.789332369974256,-0.42370420880801973
1789316190751866400,3.406866455078125,0.27845119507433846,-9.791944013777375,-0.4589944256369024
1789316190761900500,3.416900634765625,0.17081877734586595,-9.79241923007369,-0.4997485704274848
1789316190771933400,3.426933349609375,0.08152711301264352,-9.791291687348485,-0.5425510260500014
1789316190781966300,3.43696630859375,0.004996665501332609,-9.788798701488972,-0.5914409118274226
1789316190791999200,3.446999267578125,-0.06930460960224737,-9.784932673710584,-0.648607627562806
1789316190802032400,3.457032470703125,-0.14826930194809101,-9.779283269646763,-0.7169502191659063
1789316190812065300,3.467065185546875,-0.23061627997625617,-9.771638892373442,-0.7951515761561692
1789316190822098400,3.477098388671875,-0.31235092565920203,-9.762446116614342,-0.8760574428647756
1789316190832131300,3.48713134765625,-0.3920361279990524,-9.752467158913612,-0.9518730006970465
1789316190842164500,3.49716455078125,-0.472262414945662,-9.74245663703084,-1.0158099046871065
1789316190852197400,3.507197265625,-0.5590155829103663,-9.732584646835923,-1.0652105529982596
1789316190862230300,3.517230224609375,-0.6553906387664378,-9.722565357124806,-1.1011685860861091
1789316190872264400,3.527264404296875,-0.7595031204741448,-9.71192472064495,-1.1278623856138437
1789316190882297600,3.537297607421875,-0.8660889334928243,-9.700518945011495,-1.1490020581457763
1789316190892330500,3.54733056640625,-0.9660268329296261,-9.688505266612768,-1.1704906902458518
1789316190902363400,3.55736328125,-1.0492439722552895,-9.676387543317675,-1.1987507161770015
1789316190912396500,3.567396484375,-1.1120185544677077,-9.664507720431684,-1.2373732192337512
1789316190922429400,3.577429443359375,-1.1627325503997503,-9.651745854014157,-1.2892751097761095
1789316190932462300,3.58746240234375,-1.2134643742494284,-9.636473466080426,-1.3550894980758428
1789316190942495200,3.5974951171875,-1.2739626820929348,-9.617527358070015,-1.4319827681422233
1789316190952528400,3.6075283203125,-1.3443060921244323,-9.59556803971827,-1.512718246719986
1789316190962561300,3.617561279296875,-1.4110970703713595,-9.573324059206247,-1.5907992652662097
1789316190972595500,3.627595458984375,-1.4555239488579332,-9.554373859542608,-1.6630615145310759
1789316190982628400,3.63762841796875,-1.4642277720563113,-9.540890693113207,-1.7314323093153536
1789316190992661500,3.64766162109375,-1.4340085748814047,-9.532332708126306,-1.8024002809859812
1789316191002694400,3.6576943359375,-1.3722786794163286,-9.526691487368941,-1.8786648977600038
1789316191012727600,3.6677275390625,-1.288572514464706,-9.522726090869307,-1.9564456181854009
1789316191022760400,3.677760498046875,-1.1873162989709525,-9.520591416928172,-2.029536281098425
1789316191032793300,3.68779345703125,-1.0722198472384363,-9.520114447066188,-2.094789236123115
1789316191042826500,3.697826416015625,-0.9459502595845609,-9.520848606559634,-2.1515090483412145
1789316191052859400,3.707859375,-0.8058728035915642,-9.521925880402327,-2.203152141816914
1789316191062892500,3.717892578125,-0.6455754933252931,-9.522203528299928,-2.2541638055212796
1789316191072925400,3.727925537109375,-0.456016177011095,-9.519596560671925,-2.310780303495377
1789316191082959400,3.73795947265625,-0.22834009693888946,-9.511726557949185,-2.375983866420388
1789316191092992300,3.7479921875,0.04600859928664285,-9.496865088903903,-2.44495774166435
1789316191103025400,3.758025390625,0.3678260350458324,-9.472789216789602,-2.5102538051784036
1789316191113058300,3.768058349609375,0.7224786271985619,-9.436509112140536,-2.569189393749833
1789316191123091500,3.778091552734375,1.0706422226581722,-9.386657578256726,-2.6295982697442173
1789316191133124400,3.788124267578125,1.3824626581698656,-9.32728593635559,-2.6946114246636625
1789316191143157500,3.798157470703125,1.6379747118085621,-9.265506648790836,-2.7636601187095042
1789316191153190400,3.8081904296875,1.848824178508669,-9.204291424849629,-2.834301927165687
1789316191163223600,3.8182236328125,2.0272018468014896,-9.145218473634124,-2.902723429223895
1789316191173256400,3.82825634765625,2.174453724468499,-9.088626233318447,-2.9730457964673636
1789316191183289300,3.838289306640625,2.302515163975209,-9.03125424080193,-3.0504516922309994
1789316191193323300,3.8483232421875,2.401687631997466,-8.977813742515444,-3.130675568024814
1789316191203356400,3.8583564453125,2.4080900463856754,-8.94665755675137,-3.2138425115332003
1789316191213389300,3.868389404296875,2.398176993528008,-8.93242561778128,-3.260504309464991
1789316191223422200,3.878422119140625,2.6394673373296857,-8.874052339267731,-3.2333854163929816
1789316191233455400,3.888455322265625,2.8595380752310153,-8.805400827845931,-3.2339363282740115
1789316191243488300,3.89848828125,3.038309711277485,-8.73857886993885,-3.2521237268716097
1789316191253521400,3.908521484375,3.179488698771596,-8.67984903307259,-3.274365077035129
1789316191263554300,3.91855419921875,3.3041014591291544,-8.628008371198177,-3.2879730388879773
1789316191273587500,3.92858740234375,3.423061600552499,-8.581123870426415,-3.288973448102176
1789316191283620400,3.938620361328125,3.539504790718853,-8.537105865001678,-3.2802637796849012
1789316191293654500,3.948654541015625,3.6544758625060316,-8.493485334461926,-3.2673999141976235
1789316191303687400,3.9586875,3.773061909919977,-8.44819774749279,-3.2499770702317354
1789316191313720600,3.968720458984375,3.884643047007918,-8.404820962581038,-3.2309336393266914
1789316191323753500,3.97875341796875,3.991823611049354,-8.36276110548675,-3.209354552464187
1789316191333786400,3.988786376953125,4.095890426984429,-8.321020397344231,-3.1866417853966356
1789316191343819300,3.9988193359375,4.195063625659048,-8.2801249078542,-3.164073979757726
1789316191353852200,4.00885205078125,4.293699940977991,-8.237550086975098,-3.1428175489783285
1789316191363885000,4.018885009765625,4.3898739578366275,-8.192068438738584,-3.1288039289340377
1789316191373918000,4.02891796875,4.4835450519636275,-8.143966378870607,-3.12154416706413
1789316191383951000,4.038951171875,4.576515304344892,-8.095079306104779,-3.113774702106416
1789316191393984000,4.04898388671875,4.663599421297014,-8.050194454717635,-3.1009011920079588
1789316191404018200,4.05901806640625,4.7457229932323095,-8.010781897261738,-3.0782907162711024
1789316191414051000,4.069051025390625,4.826306934510171,-7.976535344266891,-3.0417142590239643
1789316191424084200,4.079084228515625,4.903830611434579,-7.948214674189686,-2.9914392390310764
1789316191434117000,4.0891171875,4.971619953069091,-7.927839994680881,-2.9330390725105997
1789316191444150300,4.099150390625,5.032371651151776,-7.913304104328155,-2.8679680499240754
1789316191454183200,4.10918310546875,5.087005158615112,-7.902897861126065,-2.799461207669973
1789316191464216300,4.11921630859375,5.1316439262866975,-7.897562345317006,-2.7322388522684573
1789316191474249200,4.129249267578125,5.165067472460866,-7.898366062915325,-2.666135856285691
1789316191484282400,4.139282470703125,5.191102661949396,-7.903887456685304,-2.5983462223902345
1789316191494315300,4.149315185546875,5.212140189281106,-7.913172002381086,-2.5269912972286344
1789316191504349200,4.15934912109375,5.230422280424833,-7.924370272743701,-2.453046647834778
1789316191514382000,4.169382080078125,5.2493683884352444,-7.93476014933288,-2.3778332936793563
1789316191524415200,4.179415283203125,5.2684021747291085,-7.9447864533066745,-2.301019810850918
1789316191534448000,4.1894482421875,5.285179706528782,-7.956331929671764,-2.2212710052229463
1789316191544481000,4.19948095703125,5.2963703781068325,-7.9717767515629525,-2.137668885167688
1789316191554514200,4.20951416015625,5.299054502624273,-7.993053932869434,-2.0497522629141804
1789316191564547000,4.219547119140625,5.294635517138242,-8.020425923919678,-1.951920103584975
1789316191574580200,4.229580322265625,5.2871624047785994,-8.052087136596441,-1.8385317709445952
1789316191584613000,4.239613037109375,5.288287609416246,-8.079020736229419,-1.7128391063958406
1789316191594646300,4.249646240234375,5.307320226666331,-8.092172478747367,-1.5872838044911621
1789316191604680000,4.259679931640625,5.3454421597898,-8.089191417109966,-1.4702445481278001
1789316191614713000,4.269713134765625,5.402643471914529,-8.06982445333898,-1.3637329693891107
1789316191624746000,4.27974609375,5.475707539081573,-8.036473972401023,-1.2657391897574066
1789316191634779100,4.289779052734375,5.560848413011431,-7.9921578608125445,-1.171645851630345
1789316191644812000,4.29981201171875,5.656639275771379,-7.938556034484505,-1.0733864798650146
1789316191654845200,4.30984521484375,5.754365490508079,-7.881658089220523,-0.9680530780602246
1789316191664878000,4.319878173828125,5.8401166052907705,-7.831109805244207,-0.8585628488369286
1789316191674911200,4.3299111328125,5.905401855149865,-7.791527151918411,-0.7672766770850866
1789316191684944100,4.339944091796875,5.9399441762208935,-7.771060117951035,-0.7057464689105749
1789316191694977000,4.34997705078125,5.929031152540445,-7.783152122282981,-0.662961950803548
1789316191705011200,4.36001123046875,5.876152379789948,-7.82653592145741,-0.6217416863385588
1789316191715044400,4.37004443359375,5.819554878777265,-7.871945088979602,-0.5793500034740194
1789316191725077200,4.3800771484375,5.781771383827924,-7.902793816229701,-0.5360496447993442
1789316191735110100,4.390110107421875,5.759303531432152,-7.9220444601446385,-0.49195050042979416
1789316191745143300,4.400143310546875,5.742434229695797,-7.936502024564146,-0.4547195247966796
1789316191755176200,4.41017626953125,5.7202019396215675,-7.954360921859741,-0.4216785116666928
1789316191765209000,4.420208984375,5.69472087688446,-7.97441060719788,-0.3864048441138118
1789316191775242000,4.430241943359375,5.672185804471373,-7.992424987316131,-0.3432612103708088
1789316191785275100,4.440275146484375,5.654550194537639,-8.006982504978776,-0.2909774809040129
1789316191795308000,4.45030810546875,5.638859288930893,-8.019985194414854,-0.23128751203501596
1789316191805342200,4.46034228515625,5.620704039037228,-8.034294290274381,-0.16787275048922745
1789316191815375000,4.470375,5.59594895248711,-8.052600346815586,-0.10653034737124108
1789316191825408300,4.480408203125,5.560751966899633,-8.077479936528205,-0.05230883650858886
1789316191835441200,4.490441162109375,5.51765692153871,-8.10714149982035,-0.009850475907785584
1789316191845474300,4.500474365234375,5.47189002662003,-8.1380837505728,0.019695873781654518
1789316191855507200,4.510507080078125,5.427905923464894,-8.167413305431603,0.03984879344869405
1789316191865540400,4.520540283203125,5.390843728527426,-8.191856841814518,0.0516859051375417
1789316191875573200,4.5305732421875,5.3625517000228164,-8.210374495279789,0.056288946520164605
1789316191885606100,4.540606201171875,5.342904165744781,-8.22318546153605,0.05450378013644367
1789316191895639300,4.550639404296875,5.330209519344568,-8.231464045059681,0.04751717265211045
1789316191905672200,4.560672119140625,5.319946484005451,-8.238166173046826,0.034221667432051614
1789316191915706000,4.5707060546875,5.308546553590894,-8.245573818954824,0.014656259621161735
1789316191925739000,4.580739013671875,5.296247043988108,-8.25348999890685,-0.007786789981028414
1789316191935772200,4.590772216796875,5.279660066324472,-8.264053478497265,-0.031441713290743065
1789316191945805000,4.60080517578125,5.255868271848559,-8.279091473153233,-0.05367255347669124
1789316191955838200,4.610838134765625,5.227942738568783,-8.296644665500521,-0.06845373296053149
1789316191965871000,4.62087109375,5.198291112148762,-8.315210249760746,-0.0736733764381148
1789316191975904300,4.630904296875,5.158686246991158,-8.339767767912148,-0.08134244062812067
1789316191985937200,4.640937255859375,5.102426015108824,-8.374120703890918,-0.09866411664132028
1789316191995970300,4.65097021484375,5.034475929954648,-8.414820963069795,-0.12337100753500126
1789316192006003200,4.661003173828125,4.961741533133387,-8.457469433706999,-0.15072009263369254
1789316192016037000,4.671037109375,4.887357323278486,-8.500147714960574,-0.17782100252443925
1789316192026070000,4.681070068359375,4.815195173387229,-8.54061065825224,-0.20556411017570644
1789316192036103200,4.691103271484375,4.746747952365875,-8.578086110165716,-0.23494256394384427
1789316192046136000,4.701135986328125,4.678415005373955,-8.61455852251649,-0.2686987944047898
1789316192056169000,4.7111689453125,4.610178796754777,-8.64997236572504,-0.30761399679780005
1789316192066202000,4.7212021484375,4.538089419838786,-8.686107508945465,-0.35730113390013574
1789316192076235000,4.731235107421875,4.452175223448872,-8.727560047796368,-0.422176268588379
1789316192086268200,4.74126806640625,4.3534792868971826,-8.773389486557244,-0.49523335802536456
1789316192096301000,4.751301025390625,4.243116585688293,-8.822785093367099,-0.5699260127749294
1789316192106334200,4.761334228515625,4.118454140970111,-8.876585657137632,-0.6441681107454001
1789316192116368100,4.7713681640625,3.985115053321421,-8.931822391191124,-0.7154007977668195
1789316192126401300,4.7814013671875,3.8508819394424556,-8.98485255511105,-0.7832801557723432
1789316192136434200,4.79143408203125,3.716320908783376,-9.035390902215243,-0.8491556996747851
1789316192146467300,4.80146728515625,3.5788097961470484,-9.084503015908599,-0.9134175978355109
1789316192156500200,4.811500244140625,3.4344182763472197,-9.133836078876257,-0.9737493900056928
1789316192166533000,4.821533203125,3.2771763350635763,-9.18563816230595,-1.0269173549611121
1789316192176566000,4.83156591796875,3.1054484800487754,-9.239989345696568,-1.072004523987323
1789316192186599200,4.84159912109375,2.9196088053122162,-9.29651319695115,-1.1050437470190226
1789316192196632000,4.851632080078125,2.7240640213802454,-9.353715093597769,-1.1215555405545978
1789316192206665000,4.8616650390625,2.5256869366317987,-9.409266300427912,-1.1211544124078006
1789316192216699100,4.87169921875,2.3372058074757454,-9.459803478488325,-1.1045171658616513
1789316192226732300,4.881732177734375,2.170904799815267,-9.502774020686745,-1.0746361876651644
1789316192236765200,4.89176513671875,2.029404763673246,-9.538265020784735,-1.0360573776196689
1789316192246798000,4.901798095703125,1.9156727321617304,-9.566308042964339,-0.9931520096119493
1789316192256831200,4.911831298828125,1.833479748252034,-9.586741174662112,-0.9503381192799657
1789316192266864000,4.921864013671875,1.7756728714495895,-9.601297523280978,-0.9123816789165139
1789316192276897300,4.931897216796875,1.7362286036811767,-9.611678047519922,-0.8783755105488001
1789316192286930200,4.94193017578125,1.7123991075433789,-9.619090954124927,-0.8432954293392598
1789316192296963300,4.95196337890625,1.7003887901455164,-9.624618193113804,-0.803613407292217
1789316192306996200,4.961996337890625,1.6971490775719285,-9.628834349504112,-0.7586875663075595
1789316192317029000,4.972029052734375,1.7006075474627316,-9.631876785939932,-0.710836266330257
1789316192327063000,4.98206298828125,1.7140424908362328,-9.632798576959967,-0.6645636869117617
1789316192337096200,4.99209619140625,1.7426009151920676,-9.630299745881556,-0.6253581963352859
1789316192347128600,5.002128662109375,1.7879006309904157,-9.623739656713605,-0.5978664148302748
1789316192357161700,5.01216162109375,1.850420800050348,-9.612695700129866,-0.5851654117545113
1789316192367194600,5.022194580078125,1.9279525141507385,-9.597438509765267,-0.585308108160831
1789316192377227500,5.0322275390625,2.014683872142434,-9.579397241640091,-0.5887151401253417
1789316192387260700,5.0422607421875,2.1090593151465056,-9.55918155208528,-0.5867656134927645
1789316192397293600,5.05229345703125,2.2076412699297068,-9.53782779841125,-0.5714298049340024
1789316192407326700,5.06232666015625,2.2938389594361186,-9.519704112699626,-0.5328323997858911
1789316192417359600,5.072359619140625,2.35767517953068,-9.507024663868545,-0.47772042462322856
1789316192427393800,5.082393798828125,2.3985766603700815,-9.499251691779493,-0.4259381418725475
1789316192437426700,5.0924267578125,2.4231919000580904,-9.494442830193043,-0.3925568274049088
1789316192447459600,5.10245947265625,2.447815907574445,-9.488959430345892,-0.37176512806043027
1789316192457492500,5.112492431640625,2.5019433652117846,-9.474791204261779,-0.3728062346111983
1789316192467525600,5.122525634765625,2.5784312693476674,-9.453189613306522,-0.3991316026853397
1789316192477558500,5.13255859375,2.624775671893358,-9.438559614929556,-0.44107506685834375
1789316192487591700,5.142591796875,2.6268340657278895,-9.435864384496211,-0.48433454553335903
1789316192497624600,5.15262451171875,2.5962314221933482,-9.442834223508834,-0.5126841494441032
1789316192507657700,5.16265771484375,2.54790607496351,-9.455437684494257,-0.5227465476445854
1789316192517690600,5.172690673828125,2.488463121391833,-9.471650568148494,-0.5155404156580567
1789316192527724800,5.182724853515625,2.422205811630189,-9.48985842501223,-0.4958733729619533
1789316192537757700,5.1927578125,2.367925939910114,-9.504546291056275,-0.47637332086320966
1789316192547790800,5.202790771484375,2.3441401367835697,-9.510828732326626,-0.4685571306869387
1789316192557823700,5.21282373046875,2.3556048029974104,-9.507684589082002,-0.4748254338340834
1789316192567856600,5.222856689453125,2.400161737604439,-9.495580309790371,-0.49352743089031426
1789316192577889800,5.232889892578125,2.4708742732092737,-9.475757418945431,-0.5245861110966652
1789316192587922700,5.242922607421875,2.557676358349621,-9.450531792274116,-0.5622471121774986
1789316192597955600,5.25295556640625,2.6500673495382068,-9.422723163372277,-0.5998396145993843
1789316192607988500,5.262988525390625,2.7380653664648533,-9.395093982690572,-0.6368717431921511
1789316192618021600,5.273021728515625,2.814296080969274,-9.369708197021485,-0.6772796683609486
1789316192628055600,5.2830556640625,2.8771944356918335,-9.34716669486761,-0.722920160420984
1789316192638088700,5.293088623046875,2.9316169307529925,-9.326309784799813,-0.7719786442309617
1789316192648121600,5.30312158203125,2.9830890515759587,-9.306037981143593,-0.8180657110147178
1789316192658154800,5.31315478515625,3.0330393696591256,-9.28635011485517,-0.857179504719749
1789316192668187600,5.323187744140625,3.0846599590420722,-9.266375832840799,-0.8885678187392652
1789316192678220800,5.333220703125,3.1468960504636168,-9.243259745669365,-0.9108168407525866
1789316192688253700,5.343253662109375,3.2329289047971366,-9.212518570446967,-0.9208934136088937
1789316192698286600,5.35328662109375,3.3432889756575226,-9.172838301965594,-0.9229605752717703
1789316192708319700,5.36331982421875,3.472070838393271,-9.12504253156781,-0.9212620277255773
1789316192718352600,5.3733525390625,3.6136031693696973,-9.070266985285281,-0.9178853178340941
1789316192728386600,5.383386474609375,3.762553959909081,-9.009598873832822,-0.9168963067967444
1789316192738419700,5.393419677734375,3.915371655009687,-8.943857696899771,-0.9206838625114411
1789316192748452600,5.40345263671875,4.067169943934679,-8.87481747842133,-0.9306624548859894
1789316192758485500,5.413485595703125,4.212789251963794,-8.804454486906527,-0.9509851119466125
1789316192768518700,5.4235185546875,4.346133892570435,-8.736020417627692,-0.9815583101909607
1789316192778551600,5.433551513671875,4.464640152746439,-8.671723009762168,-1.019111868841946
1789316192788584700,5.443584716796875,4.562913772232831,-8.615250596433878,-1.0619091003000736
1789316192798617600,5.45361767578125,4.6345860927805305,-8.57076380445361,-1.110408123596385
1789316192808650800,5.463650634765625,4.684332120463252,-8.536547646597027,-1.163951643865928
1789316192818683600,5.47368359375,4.719244151629507,-8.510046593162416,-1.215819851334393
1789316192828717800,5.4837177734375,4.747609829892218,-8.487900812327862,-1.2594127632148564
1789316192838750700,5.493750732421875,4.771405423760414,-8.469228845083713,-1.2946988883905113
1789316192848783600,5.50378369140625,4.784654489172995,-8.456610771051048,-1.3278607148885726
1789316192858816500,5.51381640625,4.788619593411684,-8.449237611934542,-1.360100019714236
1789316192868849700,5.523849609375,4.7870513211816546,-8.444546823769807,-1.3943350284017622
1789316192878882600,5.533882568359375,4.7818444001883265,-8.44152192299068,-1.4300545765586197
1789316192888915500,5.54391552734375,4.7745425527423615,-8.438941843369603,-1.469150323150307
1789316192898948600,5.553948486328125,4.769729891763627,-8.434448039081692,-1.5100200936771928
1789316192908981500,5.5639814453125,4.770604336510599,-8.426491527119278,-1.5511191429153084
1789316192919015700,5.574015625,4.780155131927132,-8.413778760540485,-1.590231986772269
1789316192929048600,5.584048583984375,4.800141396640241,-8.395313714045285,-1.6271882371172308
1789316192939081700,5.594081787109375,4.831852001416683,-8.370559212017058,-1.6605205978766082
1789316192949114600,5.604114501953125,4.874466569784284,-8.339779458349943,-1.6905708682253955
1789316192959147800,5.614147705078125,4.9248997029483315,-8.30429488799274,-1.718846383986622
1789316192969180700,5.6241806640625,4.975861243900656,-8.268329256120323,-1.7452569826588034
1789316192979213800,5.6342138671875,5.0217678395509715,-8.235701828759908,-1.767892154445499
1789316192989246700,5.644246826171875,5.056812849447131,-8.210415411812066,-1.7855268875963985
1789316192999279600,5.654279541015625,5.0834588643103835,-8.191527755990624,-1.796580927182734
1789316193009312500,5.6643125,5.10789772451818,-8.175228363096714,-1.80149807144925
1789316193019346700,5.6743466796875,5.135175607544183,-8.158256185507774,-1.8008922145105897
1789316193029379600,5.684379638671875,5.166353420618176,-8.139553238603472,-1.7963440496869385
1789316193039412700,5.694412841796875,5.19995407692492,-8.119943113726377,-1.7881199728295205
1789316193049445600,5.704445556640625,5.231487863829732,-8.102055574858188,-1.7772507882907986
1789316193059478800,5.714478759765625,5.256399017724394,-8.088582345300912,-1.765076512502879
1789316193069511700,5.72451171875,5.273223895797133,-8.080946735855937,-1.7498009096987543
1789316193079544600,5.734544677734375,5.283153753659128,-8.078667685008048,-1.7302645807102321
1789316193089577700,5.74457763671875,5.291053566998243,-8.078059197720885,-1.7088284094497561
1789316193099610600,5.754610595703125,5.300746108973026,-8.07627582143545,-1.6870793728478253
1789316193109643800,5.764643798828125,5.314478281727433,-8.072170139682292,-1.6633600590862332
1789316193119677400,5.774677490234375,5.337880200102925,-8.063074979078769,-1.6322499044209717
1789316193129710600,5.784710693359375,5.373833557015657,-8.047271260747314,-1.5917660644717513
1789316193139743500,5.794743408203125,5.416895284628867,-8.027658797782658,-1.544120662330091
1789316193149776600,5.804776611328125,5.456216072148084,-8.010504249364137,-1.493961085410416
1789316193159809500,5.8148095703125,5.4784027695149184,-8.004856598865985,-1.4421328446261583
1789316193169842700,5.8248427734375,5.474604546275734,-8.017296978244184,-1.386379100961238
1789316193179875600,5.83487548828125,5.448762249010801,-8.045304344588518,-1.3245612349517644
1789316193189908700,5.84490869140625,5.397264701485634,-8.089061068728565,-1.2676786333873866
1789316193199941600,5.854941650390625,5.328134466636181,-8.142282371306418,-1.2184409205529838
1789316193209974800,5.864974853515625,5.267689058023691,-8.189180316081643,-1.1658300049584358
1789316193220008700,5.8750087890625,5.252075893828272,-8.208556632202864,-1.0980340143874288
1789316193230041900,5.885041748046875,5.296614123734831,-8.190245899486541,-1.017900958682224
1789316193240074800,5.89507470703125,5.390664280307293,-8.140121978402137,-0.9217060451660305
1789316193250107600,5.905107666015625,5.51929825900495,-8.064926744425296,-0.8152939812790602
1789316193260140500,5.915140625,5.6740352317303415,-7.967664640069008,-0.7014609736111015
1789316193270173400,5.92517333984375,5.848657054620981,-7.8506357589691875,-0.5754215779839084
1789316193280206600,5.93520654296875,6.035266836947202,-7.717261892268061,-0.4356617731053382
1789316193290239500,5.945239501953125,6.210598853933811,-7.583946477755903,-0.2874040976629592
1789316193300272600,5.955272705078125,6.33894992403686,-7.480723419168591,-0.16392532803770155
1789316193310305500,5.965305419921875,6.404746630549431,-7.426013339337706,-0.06259598794223274
1789316193320339700,5.975339599609375,6.4086079821527004,-7.422922972106933,0.01845451254309737
1789316193330372600,5.98537255859375,6.357240783008932,-7.466654561805725,0.07035013203322887
1789316193340406300,5.99540625,6.269485342666506,-7.540307827037572,0.08773927465891465
1789316193350439400,6.005439453125,6.168391697323322,-7.623303505632281,0.08108191739525646
1789316193360472300,6.015472412109375,6.064538524138927,-7.70640907434225,0.05496221426131669
1789316193370505200,6.025505126953125,5.9610232046067715,-7.786931640821695,0.016740503707935568
1789316193380538000,6.0355380859375,5.861091004258394,-7.862402769130468,-0.02461536526888376
1789316193390571000,6.045571044921875,5.7677937118798495,-7.930870156157016,-0.06499827701072208
1789316193400604200,6.055604248046875,5.682507876521349,-7.991808901244402,-0.10230863802297971
1789316193410638000,6.06563818359375,5.604504599386454,-8.046168852463364,-0.13813290692963637
1789316193420671200,6.075671142578125,5.533263655993342,-8.094669556260108,-0.1723372556174174
1789316193430704000,6.0857041015625,5.467252429947257,-8.138710358038544,-0.20230107152545823
1789316193440737300,6.0957373046875,5.404485300388932,-8.179850177678466,-0.22795873293848706
1789316193450770200,6.105770263671875,5.344502833113074,-8.218564815998077,-0.2487101185388863
1789316193460803300,6.11580322265625,5.291979449671507,-8.252062596452236,-0.262276214011386
1789316193470836200,6.125836181640625,5.243077763858437,-8.28305277799964,-0.2674899666042998
1789316193480869400,6.135869384765625,5.195932566323876,-8.312875669333339,-0.262229068667721
1789316193490902300,6.14590234375,5.151256389251351,-8.341130288437009,-0.24593493647081777
1789316193500935200,6.15593505859375,5.1041176214575765,-8.370663841435313,-0.22439444631934163
1789316193510969000,6.165968994140625,5.046045956239104,-8.406329613578318,-0.20354979294491932
1789316193521002200,6.176002197265625,4.980832602572441,-8.445574997773766,-0.1842721696915105
1789316193531035100,6.18603515625,4.911334703454375,-8.486443014734983,-0.17165959381787105
1789316193541068000,6.196068115234375,4.835060734330117,-8.530191555568575,-0.1685271592773497
1789316193551101200,6.20610107421875,4.750602581967414,-8.577491651403903,-0.1696987786062993
1789316193561134000,6.216134033203125,4.663804880741238,-8.625049521392583,-0.16680219864826648
1789316193571167200,6.226167236328125,4.578431367099284,-8.670754456990958,-0.16237897537853568
1789316193581200100,6.2362001953125,4.49386274009943,-8.71485604904592,-0.16388035638481377
1789316193591233300,6.2462333984375,4.420237531918287,-8.752389953148365,-0.1659529979404062
1789316193601267200,6.25626708984375,4.3593958174645895,-8.782841205513478,-0.16655518335094674
1789316193611300400,6.26630029296875,4.297366939052939,-8.813287197181582,-0.1702249761711806
1789316193621333200,6.276333251953125,4.22731491318345,-8.846945136633515,-0.178207006167341
1789316193631366100,6.2863662109375,4.147189529328048,-8.884469688385725,-0.19343979274304582
1789316193641399000,6.29639892578125,4.056036263240873,-8.925840978693962,-0.21983046287205069
1789316193651432200,6.30643212890625,3.9575150987342,-8.968974602499603,-0.25683619664823637
1789316193661465000,6.316465087890625,3.8562361599519845,-9.011651130187511,-0.29997511768350377
1789316193671498200,6.326498291015625,3.7516242773547765,-9.054110215732456,-0.3446540895013138
1789316193681531100,6.33653125,3.6427857169732447,-9.09653013831079,-0.39196379341520365
1789316193691564000,6.34656396484375,3.5268446311101314,-9.139652071678638,-0.44554738996680826
1789316193701597200,6.35659716796875,3.39809754742682,-9.18530264674127,-0.5035339707177132
1789316193711631400,6.36663134765625,3.2572780408948656,-9.232633137714862,-0.5648262419505045
1789316193721664300,6.376664306640625,3.1062592119097707,-9.280349413135648,-0.629809257460013
1789316193731697200,6.386697265625,2.953475711339712,-9.325724093866349,-0.6915433907087892
1789316193741730300,6.396730224609375,2.810325716033578,-9.365988299715518,-0.742095620207861
1789316193751763200,6.40676318359375,2.68557062459588,-9.399857251569628,-0.7751139465820044
1789316193761796400,6.41679638671875,2.583695473486185,-9.42727074367404,-0.7883432843808085
1789316193771829200,6.426829345703125,2.5070070783421396,-9.447939437693357,-0.7885137455768882
1789316193781862100,6.436862060546875,2.4508196194350718,-9.46305926541388,-0.7838299716748297
1789316193791895000,6.44689501953125,2.412696078876406,-9.473230530816316,-0.7792137100510299
1789316193801929200,6.45692919921875,2.391142126455158,-9.478888118186592,-0.7768488806158304
1789316193811962000,6.466962158203125,2.388705839218944,-9.479614678895473,-0.7754694820214062
1789316193821995300,6.476995361328125,2.406364683897793,-9.475747482073306,-0.7681229917161166
1789316193832028200,6.487028076171875,2.4391945019625125,-9.468626251891255,-0.7522082872908562
1789316193842061300,6.497061279296875,2.4813068198963997,-9.459207850682734,-0.732739251384884
1789316193852094200,6.50709423828125,2.5282117789343,-9.447909042555093,-0.7180069616772234
1789316193862127400,6.51712744140625,2.577841194500029,-9.434724566811322,-0.7149032235082239
1789316193872160300,6.52716015625,2.6313693710699675,-9.41902606242001,-0.7267839231770485
1789316193882193200,6.537193115234375,2.690454012723267,-9.400218486097454,-0.7534689548764377
1789316193892226300,6.547226318359375,2.7548575113117693,-9.378054000562429,-0.7957732882510871
1789316193902260200,6.55726025390625,2.820534683097899,-9.353502327629924,-0.8526143156960606
1789316193912293000,6.567293212890625,2.8786186232760547,-9.329889396852254,-0.9149261027023196
1789316193922326000,6.577325927734375,2.921664568798244,-9.310544644913076,-0.9736567432861775
1789316193932359200,6.587359130859375,2.9494235133394597,-9.295962577331066,-1.0277895346857606
1789316193942392000,6.59739208984375,2.966956539681554,-9.284360986864566,-1.0808293432168663
1789316193952425200,6.60742529296875,2.9828190024629233,-9.273086728656292,-1.1327174244295806
1789316193962458000,6.6174580078125,3.0092011056929824,-9.258366713908314,-1.1822657375831156
1789316193972491300,6.6274912109375,3.055276628169417,-9.236841695320607,-1.2314357920087873
1789316193982524200,6.637524169921875,3.122247639158368,-9.207663531631232,-1.2809750450730324
1789316193992557300,6.647557373046875,3.205706259089708,-9.171916510945557,-1.3303300276115535
1789316194002591200,6.65759130859375,3.299843217162788,-9.130779613915085,-1.3821343029983342
1789316194012624400,6.667624267578125,3.396396296466887,-9.087084849095344,-1.4351916471861301
1789316194022657300,6.6776572265625,3.4859374511823056,-9.044635115900634,-1.487687119707465
1789316194032690200,6.687690185546875,3.564598899964988,-9.00514423251152,-1.5399398695141076
1789316194042723000,6.69772314453125,3.6342034743279217,-8.967913695269823,-1.5935782284602522
1789316194052756200,6.707756103515625,3.700146311312914,-8.930867282423376,-1.6489153541482984
1789316194062789000,6.7177890625,3.771961839723587,-8.890567420738934,-1.7030882583625613
1789316194072822000,6.727822021484375,3.8592309578537938,-8.843273170122504,-1.7530648799307644
1789316194082855200,6.737855224609375,3.963649071444571,-8.787700335982441,-1.7989448798350989
1789316194092889300,6.747889404296875,4.082594892081618,-8.724214829021692,-1.8414372831277548
1789316194102922200,6.757922119140625,4.212383593772351,-8.653575943174959,-1.8819735839165745
1789316194112955100,6.767955078125,4.348136464564502,-8.577228032031655,-1.922300771999359
1789316194122988300,6.77798828125,4.480956789036095,-8.499158703923225,-1.9635956360705196
1789316194133021200,6.788021240234375,4.603105205106735,-8.424031274485587,-2.0043680837027726
1789316194143054300,6.798054443359375,4.713489241364598,-8.355307282349466,-2.0352476444825527
1789316194153087200,6.808087158203125,4.801482874377071,-8.300567391902208,-2.0534682146973906
1789316194163120400,6.818120361328125,4.861572309158742,-8.261002274233102,-2.071554783269018
1789316194173153300,6.8281533203125,4.900886959198117,-8.231747538176178,-2.0952393179781734
1789316194183186200,6.838186279296875,4.928471716216206,-8.208784595739841,-2.12047415086925
1789316194193220000,6.84822021484375,4.952601364344358,-8.188162663471699,-2.143854441934824
1789316194203253200,6.858253173828125,4.974478265109658,-8.168346202367543,-2.168658920584619
1789316194213286100,6.8682861328125,4.9996407634168865,-8.147011737915873,-2.19093417301774
1789316194223319300,6.8783193359375,5.028063140302896,-8.12323864814043,-2.2140356471419333
1789316194233352200,6.888352294921875,5.068781519660353,-8.09268861157596,-2.2329859929360447
1789316194243385000,6.898385009765625,5.120833778458834,-8.055883021748066,-2.247263670744002
1789316194253418200,6.908418212890625,5.183849329820275,-8.012637754261494,-2.2573731229566034
1789316194263451100,6.918451171875,5.2546746781498195,-7.9647168961793176,-2.263198175848275
1789316194273484300,6.928484375,5.323871548494696,-7.917890263074636,-2.265786877167225
1789316194283518000,6.93851806640625,5.381490209248661,-7.878242727819084,-2.2678718667477367
1789316194293551000,6.948551025390625,5.420329935252666,-7.850832742846012,-2.27042578901425
1789316194303584000,6.958583984375,5.4415767214208834,-7.837681584849953,-2.2650354742780325
1789316194313617200,6.9686171875,5.461953154495358,-7.831229047709703,-2.238147321221977
1789316194323650000,6.978650146484375,5.494750093203782,-7.82217012746334,-2.1890100730873643
1789316194333683200,6.98868310546875,5.544747173038124,-7.8044538535088295,-2.1252428265757857
1789316194343715600,6.998715576171875,5.618575210314988,-7.770037204644083,-2.056334856174886
1789316194353748700,7.008748779296875,5.714570655736327,-7.71664872880578,-1.9918308198213577
1789316194363781600,7.01878173828125,5.810944871342182,-7.6580545010179275,-1.9384305074147878
1789316194373814800,7.028814697265625,5.88416851298511,-7.613150360408425,-1.893905867642164
1789316194383848700,7.0388486328125,5.923507420682907,-7.592929410156607,-1.8519887800194321
1789316194393881900,7.0488818359375,5.9463967133611435,-7.58833682166934,-1.7966344109356402
1789316194403914800,7.058914794921875,5.958682778960466,-7.594333431735635,-1.7293309531219303
1789316194413948000,7.068947998046875,5.965853108981252,-7.605273343423009,-1.6549297921322286
1789316194423980800,7.078980712890625,5.973795007896423,-7.616427190122008,-1.572957903627306
1789316194434014000,7.089013916015625,5.98467412930727,-7.624646736934781,-1.4895667959742247
1789316194444046800,7.099046875,6.002199264603853,-7.6259858765840525,-1.4100835094146429
1789316194454079700,7.109079833984375,6.032916474428773,-7.615321274706721,-1.3346101891487836
1789316194464112600,7.119112548828125,6.077918230193853,-7.592339627569913,-1.2592341917775571
1789316194474146800,7.129146728515625,6.134816175457835,-7.5598045546680686,-1.1763348862294107
1789316194484179700,7.1391796875,6.20418489523828,-7.517050285568833,-1.0827838382855057
1789316194494212900,7.149212890625,6.285606456384063,-7.462903684839606,-0.9831614345386623
1789316194504245800,7.159245849609375,6.376279245477915,-7.3985150915592905,-0.880584126508981
1789316194514279000,7.16927880859375,6.471616519251466,-7.32719757579863,-0.7750747105501592
1789316194524311800,7.179311767578125,6.565836187171936,-7.253530866563319,-0.6681813659522682
1789316194534344700,7.1893447265625,6.651229574558139,-7.1843760817944995,-0.5623692041872069
1789316194544377900,7.1993779296875,6.721949708947539,-7.125573764213919,-0.46040286766272037
1789316194554410800,7.20941064453125,6.773823104047775,-7.0819620015025135,-0.3626471345705911
1789316194564444000,7.21944384765625,6.804355604955553,-7.0568030103266235,-0.26956967722149566
1789316194574477600,7.2294775390625,6.8134501810371875,-7.050791202691197,-0.18339251904645934
1789316194584510700,7.2395107421875,6.803211111095547,-7.062256599557399,-0.1060144154720474
1789316194594543600,7.249543701171875,6.777220929792523,-7.087870348763466,-0.041993628024240025
1789316194604576800,7.25957666015625,6.7389166258394715,-7.124419918003678,0.0056217089143639895
1789316194614609700,7.269609619140625,6.693929483121633,-7.166614215132594,0.03654383590245852
1789316194624642800,7.279642822265625,6.644597589197755,-7.212271219936013,0.053464016159391024
1789316194634675700,7.28967578125,6.5908122229963535,-7.261409052592516,0.059276419632043685
1789316194644708900,7.299708984375,6.535286150607466,-7.311447048959136,0.05626408150696661
1789316194654741800,7.30974169921875,6.479464310142397,-7.361056006258726,0.04230825606451835
1789316194664776000,7.31977587890625,6.421472724422812,-7.411802443155646,0.015801159906544487
1789316194674808800,7.329808837890625,6.3572150640457865,-7.466974295279384,-0.02232174247294897
1789316194684842000,7.339842041015625,6.287347747093439,-7.525636327606439,-0.06663694759584031
1789316194694875000,7.349875,6.213398713785409,-7.586279889139533,-0.1114574193767272
1789316194704907800,7.35990771484375,6.132535371044278,-7.651083492961526,-0.15271108378781936
1789316194714940700,7.369940673828125,6.0395987286716695,-7.723843608745932,-0.18941382516259325
1789316194724973600,7.3799736328125,5.930705807754397,-7.806824089771509,-0.2249814158944413
1789316194735006700,7.3900068359375,5.817849828425049,-7.890506581586599,-0.2508421621315181
1789316194745039600,7.40003955078125,5.7083501737862825,-7.9695444624662395,-0.2673741399385966
1789316194755072800,7.41007275390625,5.604157977905869,-8.042834739604592,-0.2767794807361439
1789316194765106700,7.420106689453125,5.501700642994046,-8.113077904132009,-0.28218934042304755
1789316194775139800,7.430139892578125,5.394780483454466,-8.184403603199124,-0.2868102051567286
1789316194785172700,7.4401728515625,5.284563035935163,-8.255941483712196,-0.2884530587266199
1789316194795206000,7.450205810546875,5.168834131518006,-8.328769404035807,-0.2917904595210217
1789316194805238800,7.46023876953125,5.045087924861908,-8.40395937731564,-0.30155729057472197
1789316194815272000,7.47027197265625,4.918249597409368,-8.478384795963764,-0.31336583832278847
1789316194825304800,7.480304931640625,4.7926276600092645,-8.549590668043495,-0.32494609374031425
1789316194835338000,7.490337890625,4.670061895309388,-8.616696703588962,-0.3368049103708938
1789316194845371000,7.500370849609375,4.552166752769053,-8.679125394973159,-0.34776692429222167
1789316194855404800,7.51040478515625,4.437246534386277,-8.738045201453566,-0.3574701337914914
1789316194865437700,7.520437744140625,4.317666507498919,-8.797505106160044,-0.363369347897917
1789316194875470800,7.530470947265625,4.191519377180934,-8.858250959023833,-0.36460977641306813
1789316194885503700,7.540503662109375,4.060063619060814,-8.919199640983342,-0.3662572878917679
1789316194895536600,7.55053662109375,3.9273347722649574,-8.978045797705649,-0.3756581534435972
1789316194905569800,7.56056982421875,3.799641873809695,-9.032128101027011,-0.39211668242197484
1789316194915602700,7.570602783203125,3.6824276992708445,-9.079961865347624,-0.4054848807021975
1789316194925635800,7.5806357421875,3.583081189855933,-9.119406571507453,-0.41027708341479296
1789316194935668700,7.590668701171875,3.5123671929463742,-9.146784407776593,-0.4123158957660198
1789316194945702000,7.600701904296875,3.4759546940892934,-9.160604258814454,-0.4140502452779561
1789316194955735800,7.61073583984375,3.4748487786740063,-9.161036805012822,-0.4137910463524982
1789316194965768700,7.620768798828125,3.504738597764075,-9.149781836026907,-0.41073578696772456
1789316194975801600,7.630801513671875,3.5561551890075203,-9.130202690809964,-0.4043780154388398
1789316194985834800,7.640834716796875,3.6164018601775165,-9.106870330539346,-0.3961266852483153
1789316194995867600,7.65086767578125,3.675697806493938,-9.083297731772065,-0.3915859365461394
1789316195005900800,7.66090087890625,3.73450684607625,-9.059207246610521,-0.3932206981411204
1789316195015933700,7.67093359375,3.7917496592551467,-9.035138388758897,-0.39911688004024326
1789316195025966800,7.680966796875,3.841339619593322,-9.013809769526123,-0.40711883857958014
1789316195035999700,7.690999755859375,3.876620776332915,-8.998152766188978,-0.41887185674812644
1789316195046034000,7.701033935546875,3.8950866996109483,-8.98925458946228,-0.4381737924588844
1789316195056066800,7.71106689453125,3.898286080174148,-8.986705489501357,-0.4613718588253483
1789316195066100000,7.721099853515625,3.8870185439676046,-8.990100392636656,-0.48945872014667835
1789316195076132900,7.7311328125,3.8672231256514786,-8.996649375888705,-0.5246475954929366
1789316195086165800,7.741165771484375,3.8512735691085456,-9.001104601731896,-0.5640752043874934
1789316195096199000,7.751198974609375,3.855623581011593,-8.996427257570623,-0.6073220062440261
1789316195106231800,7.761231689453125,3.899535203452408,-8.973612783694266,-0.6620400867182761
1789316195116264700,7.7712646484375,3.984497213684022,-8.931166557630895,-0.7269406481087207
1789316195126297600,7.781297607421875,4.097178420968354,-8.874690637171268,-0.7895521487139165
1789316195136331800,7.791331787109375,4.22396881762594,-8.809685373297333,-0.8473022538278251
1789316195146364700,7.80136474609375,4.352834851513803,-8.74143075223863,-0.9003277415726333
1789316195156397800,7.811397705078125,4.477379515071213,-8.673213540580868,-0.9480689322389662
1789316195166430700,7.8214306640625,4.59705306546092,-8.60446733661294,-1.0003232894808054
1789316195176464000,7.8314638671875,4.718761044287682,-8.530382109704613,-1.0659501923844217
1789316195186496800,7.841496826171875,4.853745561055839,-8.444600599783659,-1.140284644813463
1789316195196530000,7.851530029296875,5.01080571603179,-8.34304868927896,-1.206546630750224
1789316195206562800,7.861562744140625,5.173633056232333,-8.235816395050287,-1.2550892009273171
1789316195216596000,7.871595947265625,5.318089457961917,-8.136365256217122,-1.2991846555024384
1789316195226628900,7.88162890625,5.429271951121091,-8.054844910871982,-1.346423230408877
1789316195236662800,7.891662841796875,5.502081751266122,-7.9970771970361465,-1.3943560711897909
1789316195246695700,7.90169580078125,5.545139971747994,-7.9591113312572235,-1.4402623745791614
1789316195256728800,7.911728759765625,5.57289774724543,-7.931445910218358,-1.4850481495060026
1789316195266761700,7.92176171875,5.5993514544069765,-7.903961106443405,-1.5313528045631943
1789316195276794600,7.931794677734375,5.637240747818351,-7.868971626126766,-1.5720007490329444
1789316195286827800,7.941827880859375,5.697930486580729,-7.820074616488814,-1.596999873472005
1789316195296860700,7.951860595703125,5.786595442983508,-7.753597526496648,-1.6023171229720115
1789316195306893800,7.961893798828125,5.8995116280674935,-7.670564438501,-1.5901535147085786
1789316195316926700,7.9719267578125,6.022988954654336,-7.578806192258,-1.5670597854994237
1789316195326959900,7.9819599609375,6.145427001321315,-7.485910466417669,-1.5379384665638207
1789316195336993800,7.991993896484375,6.25649843532145,-7.39922528565526,-1.509326704585552
1789316195347027000,8.00202685546875,6.350504752752184,-7.32309423213303,-1.4878706595808266
1789316195357059800,8.012059814453124,6.430326477485894,-7.256876669859886,-1.4693652810752391
1789316195367092700,8.0220927734375,6.502068940660357,-7.1969053084999315,-1.4484646779961883
1789316195377125600,8.032125732421875,6.567992488422989,-7.142623098692297,-1.4194314757354556
1789316195387158800,8.04215869140625,6.631224897405505,-7.092018116092682,-1.3785929771296679
1789316195397191700,8.052191650390625,6.689443277618288,-7.046061836081742,-1.3321966982662676
1789316195407224800,8.062224853515625,6.743270729395747,-7.003496367552876,-1.2844126183062792
1789316195417257700,8.0722578125,6.804251560059189,-6.954385422903299,-1.2284401173241435
1789316195427292000,8.0822919921875,6.887033303642273,-6.883608005368709,-1.1640868876181543
1789316195437324800,8.09232470703125,6.981040790116786,-6.797512607192993,-1.1087304727077483
1789316195447358000,8.10235791015625,7.051652203434705,-6.730562638992071,-1.0696329725503921
1789316195457390800,8.112390869140626,7.082595623230934,-6.703389969906211,-1.03527660250552
1789316195467423700,8.122423828125,7.078655361172556,-6.713734253787994,-0.9943873235605657
1789316195477457000,8.132456787109374,7.048949374216795,-6.752423173144459,-0.9420638466052711
1789316195487489800,8.14248974609375,7.002964452633261,-6.809086725130677,-0.8747651380319148
1789316195497523000,8.15252294921875,6.956791899523139,-6.865788271039724,-0.7964794637590646
1789316195507555800,8.162555908203124,6.922489232426881,-6.908648338600993,-0.7211869799528271
1789316195517589800,8.17258984375,6.905452172908187,-6.93196608582437,-0.6579924918279051
1789316195527622700,8.18262255859375,6.910635713025927,-6.931521849188208,-0.6062179174596444
1789316195537655800,8.19265576171875,6.936686100083589,-6.90966014599204,-0.5562116679381579
1789316195547688700,8.202688720703126,6.978252036181092,-6.871531783127784,-0.5063906387904659
1789316195557721900,8.212721923828125,7.02447018199861,-6.827782073250413,-0.4567222063886001
1789316195567754800,8.222754638671875,7.061712994199991,-6.792393949005008,-0.4073997378801927
1789316195577788000,8.232787841796876,7.082931723317503,-6.7731310301303855,-0.3565872134771198
1789316195587820800,8.24282080078125,7.090526416230201,-6.7678755938202135,-0.3011176022495143
1789316195597853700,8.252853759765625,7.089974627566337,-6.770929136171937,-0.23910065173767506
1789316195607888000,8.262887939453124,7.087755782473087,-6.775370333489775,-0.1687287279977463
1789316195617920800,8.272920654296875,7.088413954120874,-6.776193924832343,-0.089302952912217
1789316195627953700,8.28295361328125,7.094267356324195,-6.770654410883784,-0.0016317159733574952
1789316195637986600,8.292986572265624,7.111362283509969,-6.751999394774437,0.09705511054210364
1789316195648019700,8.303019775390625,7.143728429585694,-6.7152768070548765,0.20636764511093497
1789316195658052600,8.313052490234375,7.187449497890472,-6.663993779063224,0.31958876795824614
1789316195668085800,8.323085693359374,7.23903823083043,-6.601458120173215,0.43296815010719
1789316195678118700,8.33311865234375,7.293318687072396,-6.533299360704421,0.5421159225683659
1789316195688151800,8.34315185546875,7.3408876629769795,-6.470988158220052,0.6387969391010702
1789316195698184700,8.353184814453124,7.372234402877092,-6.427874992680549,0.709195586451143
1789316195708219000,8.363218994140626,7.3774565214395516,-6.41797026925981,0.7437582927230745
1789316195718251800,8.373251708984375,7.3385495754182335,-6.462251309534907,0.7452350872773676
1789316195728285000,8.383284912109374,7.2531333916783325,-6.559532703113556,0.7314180127184837
1789316195738317800,8.39331787109375,7.135113745975494,-6.689689361333847,0.713152068991959
1789316195748351000,8.40335107421875,6.994456736528873,-6.838759394338727,0.6923411900229751
1789316195758383900,8.4133837890625,6.839258576032519,-6.996264078211784,0.6687417763140052
1789316195768416800,8.423416748046876,6.684594668543339,-7.145904020059108,0.6501008617952465
1789316195778449700,8.43344970703125,6.538473548471927,-7.28124304935336,0.6342271469675004
1789316195788482600,8.443482666015624,6.4109688660651445,-7.394679458919167,0.6233594237335026
1789316195798516700,8.453516845703126,6.305446298363805,-7.48562931138873,0.614075608690083
1789316195808550000,8.4635498046875,6.2116422255069015,-7.5650880480289455,0.5961050677135586
1789316195818582800,8.473582763671875,6.119603408756852,-7.64216076631546,0.564113892430067
1789316195828615700,8.48361572265625,6.03256693033874,-7.713882186701893,0.523970865275152
1789316195838648800,8.49364892578125,5.949451424756646,-7.781031476867199,0.47955048959460106
1789316195848681700,8.503681640625,5.862005196493864,-7.849835548502206,0.4328479577936232
1789316195858715000,8.51371484375,5.764337433946133,-7.924214789921045,0.38681156175117937
1789316195868747800,8.523747802734375,5.655931419762969,-8.003975139856339,0.342361558117345
1789316195878781000,8.533781005859375,5.541735716262459,-8.084991627332567,0.3040812926270067
1789316195888813800,8.543813720703126,5.422099283012748,-8.166682653069495,0.27659838854819535
1789316195898847700,8.55384765625,5.298081273677945,-8.248125841525196,0.26294445039546116
1789316195908880600,8.563880615234375,5.176269834476709,-8.325141276666521,0.26199962555970996
1789316195918913800,8.573913818359374,5.066036604866385,-8.392560031422972,0.2656965621151961
1789316195928946700,8.58394677734375,4.970365569093823,-8.449639178472756,0.26354700113218277
1789316195938979800,8.593979736328125,4.885352997718751,-8.499387251982093,0.2532284727461636
1789316195949012700,8.6040126953125,4.804514497157931,-8.54568197016716,0.2415745675705373
1789316195959046000,8.6140458984375,4.725334869720042,-8.589979961577058,0.23202448454005642
1789316195969078800,8.624078857421875,4.645322006328404,-8.633819103303551,0.22032832939159125
1789316195979111700,8.634111572265626,4.5646381118074055,-8.677173676383495,0.20279011541772632
1789316195989145900,8.644145751953126,4.489313698492944,-8.716828225901722,0.18265713571030645
1789316195999179000,8.654178955078125,4.425758925688267,-8.749628087219595,0.1644574073540978
1789316196009212000,8.6642119140625,4.380665399986505,-8.772423856395482,0.15729456652002408
1789316196019244500,8.67424462890625,4.362690182834863,-8.781208051353692,0.16646494778422638
1789316196029277700,8.684277587890625,4.375743433414399,-8.774405970123409,0.18182231058767065
1789316196039310600,8.694310546875,4.414575560633838,-8.754746160885691,0.1905970618641004
1789316196049343700,8.70434375,4.464228649336099,-8.729586000666021,0.18811863425290212
1789316196059376600,8.714376708984375,4.50612513256222,-8.708349151369928,0.17287485135914757
1789316196069409800,8.724409912109374,4.527154476587474,-8.697974472349882,0.14313328163335098
1789316196079443700,8.734443603515626,4.5237344390109175,-8.70034529313445,0.10096744341393932
1789316196089476900,8.744476806640625,4.497609817673266,-8.71431361273229,0.051422171600861474
1789316196099509800,8.754509765625,4.449547213032841,-8.73910143250823,-0.002447091758018359
1789316196109543000,8.76454296875,4.377760033933818,-8.775085769081116,-0.059017942225793374
1789316196119575800,8.774575927734375,4.28603510543853,-8.819696479701996,-0.1151331944131758
1789316196129609000,8.78460888671875,4.1873578735873105,-8.866116285571456,-0.16851453725779428
1789316196139641900,8.794641845703126,4.097212615498901,-8.906973196616768,-0.22149443229520693
1789316196149675000,8.804675048828125,4.027839804065227,-8.937017621746659,-0.2767952262945473
1789316196159708000,8.8147080078125,3.9864749434977766,-8.953674157515168,-0.33183483034074307
1789316196169741800,8.824741943359374,3.977885686589777,-8.955337122291326,-0.3856676158804446
1789316196179774700,8.834774658203125,4.001237628343701,-8.942298777019976,-0.4424725490987301
1789316196189807900,8.844807861328125,4.051692681078612,-8.91634834320545,-0.5029073267193511
1789316196199840800,8.8548408203125,4.1233115178734066,-8.880035505330563,-0.560044085707888
1789316196209873700,8.864873779296875,4.209673165769875,-8.836120960280299,-0.6099178679561242
1789316196219906800,8.87490673828125,4.306399848075211,-8.786278194224835,-0.6531508970156311
1789316196229939700,8.884939697265626,4.407767049662769,-8.732661170327663,-0.69470302378349
1789316196239972900,8.894972900390625,4.507176395180821,-8.678288359627127,-0.7369259624850004
1789316196250005800,8.905005859375,4.60287139635086,-8.624192612302302,-0.7792785189155489
1789316196260039700,8.915039794921874,4.696202006477117,-8.569924431020022,-0.8200377417400478
1789316196270072600,8.925072509765625,4.792332476454973,-8.513488842570782,-0.8511407360121608
1789316196280105700,8.935105712890625,4.892782855458558,-8.454415891355275,-0.8682754837516695
1789316196290138600,8.945138671875,4.990509946978092,-8.396228490802645,-0.8766639573905617
1789316196300171800,8.955171875,5.079469502413272,-8.3423040083915,-0.8805288161251693
1789316196310204700,8.96520458984375,5.163414444556832,-8.290935640203953,-0.8774478743098676
1789316196320237800,8.97523779296875,5.244463665258884,-8.241064817097783,-0.866518191755563
1789316196330270700,8.985270751953125,5.322510781535506,-8.192751744827628,-0.8485724198941141
1789316196340303600,8.9953037109375,5.398026333507895,-8.14528506025374,-0.8282668600987643
1789316196350337000,9.0053369140625,5.475293697583675,-8.095492563080787,-0.8090288564696908
1789316196360371200,9.01537109375,5.559300014525651,-8.040258751636744,-0.7866366996586323
1789316196370404000,9.025404052734375,5.65158374594748,-7.978740160834789,-0.7547795990835875
1789316196380437200,9.035437255859375,5.74998216085732,-7.912022832345962,-0.7127250026863068
1789316196390470100,9.04547021484375,5.848406879252195,-7.84378574694395,-0.6644856532394886
1789316196400503000,9.0555029296875,5.941036647632718,-7.778022358179092,-0.6138688340716063
1789316196410536000,9.065535888671874,6.031030806812644,-7.711895981320739,-0.5689548661878332
1789316196420568800,9.07556884765625,6.110009066459536,-7.652155506107211,-0.5316829740224406
1789316196430602000,9.08560205078125,6.17065262799263,-7.605908134195208,-0.49355662045218046
1789316196440635000,9.095634765625,6.218197638499737,-7.5695298298686735,-0.4545673664422705
1789316196450669000,9.1056689453125,6.254351486420631,-7.541998264342546,-0.41441721542682497
1789316196460702000,9.115701904296875,6.289906199404597,-7.514629780423641,-0.37123529550004747
1789316196470735000,9.125735107421875,6.339221142193675,-7.475202025398612,-0.32561745366323736
1789316196480768000,9.13576806640625,6.403238564074039,-7.42225720167458,-0.281097471799422
1789316196490801200,9.14580126953125,6.478667606806755,-7.357797296723723,-0.24509552650460972
1789316196500834000,9.155833984375,6.5611284478724,-7.285279757523536,-0.21605819605803117
1789316196510867200,9.1658671875,6.647227937701344,-7.207649989876151,-0.18582608460262418
1789316196520900000,9.175900146484375,6.728807319757342,-7.132300442120433,-0.1543637554988265
1789316196530933200,9.185933349609375,6.799083217510581,-7.065888818579912,-0.12674040176970883
1789316196540967000,9.195966796875,6.858501621162891,-7.008609180521964,-0.10362401320417411
1789316196551000000,9.206,6.916760917907953,-6.951385656565427,-0.08393621084783226
1789316196561033000,9.216032958984375,6.975022552740573,-6.893152663305401,-0.06245223208998795
1789316196571066000,9.226066162109374,7.027911262363195,-6.839373142322898,-0.042700438286457205
1789316196581099000,9.23609912109375,7.072962702488899,-6.792883193826675,-0.01809127214620821
1789316196591132000,9.2461318359375,7.107767473888397,-6.756442345657944,0.02269130415441468
1789316196601165000,9.2561650390625,7.130761395984887,-6.731788381394743,0.07515946854371577
1789316196611198000,9.266197998046875,7.1413266291409725,-6.719646692702174,0.13487770452597178
1789316196621231000,9.276231201171875,7.141477435788512,-6.717887866336107,0.19918708595708012
1789316196631265000,9.28626513671875,7.137924127221107,-6.719381319764256,0.26519840333471073
1789316196641298200,9.296298095703126,7.134830252858996,-6.719871733629703,0.3284836202166974
1789316196651331000,9.3063310546875,7.135053540220857,-6.716499626848101,0.38733525683172043
1789316196661364000,9.316364013671874,7.1419403771251435,-6.70603902311027,0.4383094380699098
1789316196671396900,9.32639697265625,7.15347182496488,-6.690926794174313,0.47929183865841474
1789316196681430000,9.336429931640625,7.16277916701436,-6.678450174438953,0.5131040553566069
1789316196691463000,9.346462890625,7.163457796928286,-6.675003248855472,0.5473517773952334
1789316196701496000,9.35649609375,7.153686344498396,-6.682113957643509,0.5869522586386651
1789316196711529000,9.366529052734375,7.133754148060083,-6.699281950065493,0.6321021907027811
1789316196721561900,9.376561767578124,7.104433945551515,-6.7254106630563735,0.6828256120502948
1789316196731596000,9.386595947265626,7.06695381746292,-6.758917795860767,0.7386408035788684
1789316196741629200,9.396629150390625,7.020895830643177,-6.800601805379986,0.7932367555107921
1789316196751662000,9.406662109375,6.969055753290653,-6.84787325964272,0.8421916328158229
1789316196761695000,9.416695068359376,6.9203019515156745,-6.891892434111237,0.8840998795449733
1789316196771728100,9.42672802734375,6.878937675470113,-6.928954044526815,0.9166242849223315
1789316196781761000,9.436760986328125,6.843959301069378,-6.960932652589678,0.9359631185773759
1789316196791794200,9.446794189453126,6.815417681717872,-6.988167280995845,0.9412650243777781
1789316196801827000,9.4568271484375,6.787095842596888,-7.017568147525191,0.9270626037631183
1789316196811860000,9.46685986328125,6.745085669863224,-7.062861579713225,0.8889264959838241
1789316196821894000,9.476893798828126,6.678951694220304,-7.132700839614868,0.8285901007037609
1789316196831927000,9.486927001953125,6.593297025549411,-7.220436990734934,0.7510764337167143
1789316196841960000,9.4969599609375,6.496208524194359,-7.316316700822115,0.6642034752972423
1789316196851993000,9.5069931640625,6.388345530846714,-7.41811761765182,0.5752926543746143
1789316196862026000,9.51702587890625,6.274147489258646,-7.520456294620037,0.49819918556101617
1789316196872059100,9.52705908203125,6.166242410334944,-7.612212202775478,0.44952308866474777
1789316196882092000,9.537092041015624,6.071084584781527,-7.6896660293340675,0.4258674877891317
1789316196892125200,9.547125244140625,5.983470014214515,-7.758670007455349,0.4141232739815488
1789316196902158000,9.557157958984375,5.904654836174846,-7.8190587174445385,0.4095964442068711
1789316196912192000,9.56719189453125,5.830270334059,-7.8749886944592,0.403580983309634
1789316196922225000,9.577224853515625,5.754738999995589,-7.931110979175567,0.3883658785210922
1789316196932258000,9.587258056640625,5.673947553446888,-7.990441704544424,0.3599245412062853
1789316196942291000,9.597291015625,5.5794923232048745,-8.058472453719377,0.3172950675304979
1789316196952323800,9.60732373046875,5.471761431804299,-8.133844797828793,0.26604895574944093
1789316196962357000,9.61735693359375,5.358102903920412,-8.210641037261485,0.21564271059231832
1789316196972390000,9.627389892578124,5.2486114325881,-8.282039217042923,0.17407703022314233
1789316196982423000,9.637423095703125,5.146432914617657,-8.346458205461502,0.14574408518625423
1789316196992456000,9.6474560546875,5.04554911263287,-8.408108898210525,0.12850945726884527
1789316197002490000,9.657489990234374,4.9428994700193405,-8.46910434192121,0.11129275773377158
1789316197012523000,9.66752294921875,4.838203124009072,-8.529607618200778,0.08931499040988274
1789316197022556200,9.67755615234375,4.7341316318988795,-8.588010122808814,0.06697497477801516
1789316197032589000,9.687589111328125,4.633715155164897,-8.642731893077492,0.0474463313390268
1789316197042622200,9.697622314453126,4.540603740747272,-8.692087167876958,0.030299975360115056
1789316197052655000,9.707655029296875,4.46224098265022,-8.732613824054598,0.015429975948506034
1789316197062688000,9.71768798828125,4.408002904245257,-8.760129607489704,0.0025255860837729415
1789316197072721000,9.727720947265626,4.3812154350847,-8.773554321730137,-0.009859537138720042
1789316197082754000,9.737754150390625,4.381009098857641,-8.773633232185244,-0.02257667393195443
1789316197092787000,9.747786865234374,4.404217248226702,-8.761946301522851,-0.03940115471247118
1789316197102821000,9.757821044921876,4.44348981269002,-8.741929933932424,-0.06667343911475036
1789316197112854000,9.76785400390625,4.486345788598061,-8.719663741588592,-0.10267923403419553
1789316197122887200,9.77788720703125,4.516191476285457,-8.703724998700618,-0.1398509354944341
1789316197132920000,9.787920166015626,4.522567148797214,-8.699772461682558,-0.1753404012224637
1789316197142953000,9.797952880859375,4.5072938840806485,-8.706880247861147,-0.2119701960920356
1789316197152986000,9.807986083984375,4.4771506747514005,-8.721482189187407,-0.24749486099760978
1789316197163019000,9.81801904296875,4.441447493207455,-8.739016092312335,-0.27114987735133617
1789316197173052200,9.82805224609375,4.409989986409246,-8.754497739082574,-0.284836274735257
1789316197183085800,9.8380859375,4.390342452131211,-8.763928415250778,-0.2980870206482708
1789316197193119000,9.848118896484374,4.389631088991463,-8.763685254144669,-0.31520803212337195
1789316197203152000,9.85815185546875,4.41145772087425,-8.751925258246064,-0.33650556209813803
1789316197213185000,9.86818505859375,4.455417274110019,-8.728491775688529,-0.36479897884223605
1789316197223218000,9.878218017578124,4.515051366339623,-8.696346578887104,-0.39780923150777814
1789316197233251000,9.8882509765625,4.5842304087668655,-8.658715644150972,-0.4264393328603357
1789316197243284000,9.898283935546875,4.65708697066307,-8.618567758157848,-0.44966969406120477
1789316197253317000,9.908317138671874,4.729053013460338,-8.578122935044766,-0.4714321381339803
1789316197263350000,9.91835009765625,4.801577566923201,-8.53645061596334,-0.49421033512055873
1789316197273383200,9.928383056640625,4.878471421511471,-8.49094558685124,-0.5241582776060327
1789316197283417000,9.9384169921875,4.9662172172427175,-8.437460080379248,-0.5624442421847954
1789316197293450200,9.9484501953125,5.069754748606681,-8.37296218150556,-0.6012222280642018
1789316197303483100,9.958483154296875,5.181662633430958,-8.301119765087961,-0.6420000459913164
1789316197313516000,9.96851611328125,5.293361843940615,-8.226844568565488,-0.6853760271854699
1789316197323549000,9.978548828125,5.4009898594886065,-8.153332173109055,-0.7230952977921813
1789316197333581800,9.988581787109375,5.501009738120437,-8.083329831600189,-0.7543492448423057
1789316197343615200,9.998615234375,5.594625010406971,-8.016269388762115,-0.7810011779896915
1789316197353648400,10.0086484375,5.687929901570081,-7.947996647524834,-0.8044846371687948
1789316197363681300,10.018681396484375,5.794923710867762,-7.868971041604876,-0.8176404713399708
1789316197373715500,10.028715576171875,5.924678802549838,-7.771935147219896,-0.8158363445274531
1789316197383748400,10.038748291015626,6.080272684365511,-7.653840098193287,-0.7870174426045269
1789316197393781500,10.048781494140625,6.250894039443135,-7.520912806215882,-0.729771560685709
1789316197403814400,10.058814453125,6.422061337965727,-7.382991943734884,-0.6472607429984957
1789316197413847600,10.06884765625,6.583356646293401,-7.247417352119088,-0.5520226552831009
1789316197423880400,10.07888037109375,6.732478701746463,-7.115815171265601,-0.45748117152974005
1789316197433913300,10.088913330078125,6.861288621532917,-6.9970590279817575,-0.36642186733633275
1789316197443946200,10.0989462890625,6.961606606328487,-6.900996362543106,-0.287521166437678
1789316197453979400,10.1089794921875,7.038520919182896,-6.824781722390651,-0.2279386765311472
1789316197464013300,10.119013427734375,7.105559150189161,-6.756327779367566,-0.18290389527929946
1789316197474046500,10.12904638671875,7.176342412942647,-6.682187022879719,-0.13734912700764834
1789316197484079400,10.139079345703125,7.253750062271952,-6.598928309434652,-0.08738209525169804
1789316197494112500,10.149112548828125,7.3268059461325405,-6.518118158185482,-0.049345949848694726
1789316197504145400,10.1591455078125,7.3996701068133115,-6.435405972707271,-0.028700364993617403
1789316197514178600,10.169178466796875,7.46841631078124,-6.3555024149090045,-0.027059358604229054
1789316197524211500,10.17921142578125,7.522133872443437,-6.291797712239623,-0.03418065956822829
1789316197534244400,10.189244384765624,7.5574641290217635,-6.249266730502248,-0.04221065460867248
1789316197544277500,10.199277587890625,7.580864878353476,-6.220836754831671,-0.045484137021121564
1789316197554311400,10.2093115234375,7.600804089054465,-6.196494340735674,-0.040380443506827575
1789316197564344300,10.21934423828125,7.621820573598146,-6.170692960003018,-0.02809697172339074
1789316197574377200,10.229377197265626,7.641808299615978,-6.14597703641951,-0.010886712203902424
1789316197584410400,10.239410400390625,7.653829576799273,-6.1310039236932985,0.008291588564854464
1789316197594443300,10.249443359375,7.658084896156192,-6.125602356910705,0.033429279511922504
1789316197604476400,10.259476318359376,7.656573322549462,-6.12721622184813,0.06710239598338957
1789316197614509300,10.26950927734375,7.650092143836617,-6.134822020676732,0.10217711146464571
1789316197624542500,10.27954248046875,7.6360203638643025,-6.151735161554813,0.1331750744597055
1789316197634575400,10.289575439453126,7.615500722926854,-6.176403738865256,0.162990093014203
1789316197644609500,10.299609619140625,7.591440632903575,-6.205149940878153,0.19112844706075266
1789316197654642400,10.309642333984375,7.564042922890186,-6.237606687846779,0.2188533066692762
1789316197664675600,10.319675537109376,7.532467634931206,-6.274662453043461,0.2468149341757409
1789316197674708500,10.32970849609375,7.498620894908904,-6.313835356524586,0.27668064173785967
1789316197684741400,10.339741455078125,7.464262698233127,-6.352822382044792,0.3111482718711719
1789316197694774300,10.349774169921876,7.430477917531133,-6.390207233065366,0.3516212251001969
1789316197704807400,10.359807373046875,7.400963069233298,-6.421740435448289,0.3967098919637501
1789316197714840300,10.36984033203125,7.378665897229314,-6.444241605591774,0.4443280407723039
1789316197724873200,10.379873291015626,7.360235337525606,-6.461780184891819,0.4926716177785769
1789316197734907400,10.389907470703125,7.342296360731124,-6.478622598621249,0.5371352115463465
1789316197744940500,10.3999404296875,7.3232672506123775,-6.49723319106698,0.5710526421846821
1789316197754973400,10.409973388671874,7.304628601115941,-6.516333612856268,0.5917626180624589
1789316197765006300,10.42000634765625,7.287208095237612,-6.534958818349242,0.601084719289653
1789316197775039500,10.43003955078125,7.266625910457968,-6.557476939627528,0.6050025137878954
1789316197785072400,10.440072265625,7.233048635026812,-6.594356763735413,0.6065122242311015
1789316197795105500,10.45010546875,7.181248889684677,-6.650466188970208,0.6093886564502492
1789316197805138400,10.460138427734375,7.108645425766706,-6.7278709156900645,0.6109825380455702
1789316197815171600,10.470171630859374,7.016579136487842,-6.823841811192035,0.6108919006200507
1789316197825205200,10.480205322265626,6.913306978061795,-6.928332113236189,0.612186105149053
1789316197835238400,10.49023828125,6.806990629634261,-7.032775069007277,0.6126505808556452
1789316197845271300,10.500271240234374,6.704318775188923,-7.131087559199333,0.6083397684518248
1789316197855304400,10.510304443359376,6.607265929669142,-7.221723523414134,0.6009296383257955
1789316197865337300,10.52033740234375,6.51002720618844,-7.309749597391486,0.5979085369389504
1789316197875370500,10.53037060546875,6.410439289233088,-7.396720609357953,0.6043000646069645
1789316197885403400,10.5404033203125,6.3094648863554,-7.482476984837651,0.6112103189194574
1789316197895436300,10.550436279296875,6.211238905403017,-7.564470792913436,0.6080144454875961
1789316197905469400,10.560469482421874,6.1019672143012285,-7.654812742617726,0.5832829224761575
1789316197915503600,10.570503662109376,5.981159983706474,-7.751964372336864,0.5505986503619701
1789316197925536500,10.58053662109375,5.852201010838151,-7.852172467017173,0.5152822761785238
1789316197935569400,10.5905693359375,5.725453284278512,-7.9469602902144185,0.4851656991278752
1789316197945602300,10.600602294921876,5.614130505865812,-8.026948603686689,0.46905276871677487
1789316197955635200,10.61063525390625,5.52647911041975,-8.08780376214385,0.46460035588517784
1789316197965668400,10.62066845703125,5.459108286458253,-8.133714449447393,0.4595873865613714
1789316197975701200,10.630701171875,5.405341624957323,-8.170221348589658,0.4473811081999913
1789316197985734400,10.640734375,5.358078354001045,-8.202067270183562,0.43297059779260305
1789316197995767300,10.650767333984374,5.309482373136282,-8.233879874029755,0.4277946199268102
1789316198005801500,10.660801513671874,5.252339513200521,-8.270058271870017,0.43526382329631597
1789316198015834400,10.67083447265625,5.186440515357256,-8.311084109741449,0.4439607783624902
1789316198025867500,10.680867431640625,5.117216172483563,-8.354161619445682,0.4387201012300327
1789316198035900400,10.690900390625,5.053284090799093,-8.39407335859537,0.41741522819902743
1789316198045933600,10.70093359375,4.9984951005131,-8.428069151699543,0.3912383286848664
1789316198055966500,10.710966552734375,4.951023155242204,-8.457002400717139,0.36994624207019805
1789316198065999600,10.72099951171875,4.905807464465498,-8.483845399457216,0.357484198849462
1789316198076032500,10.731032470703125,4.862334525702893,-8.509039461946488,0.35259328500274567
1789316198086065400,10.7410654296875,4.822398821155726,-8.5319755163759,0.34675825870633126
1789316198096099300,10.751099365234374,4.789790683017671,-8.551082367905973,0.32751017207466065
1789316198106132500,10.761132568359375,4.774056815052032,-8.561319099760055,0.28737342853005976
1789316198116165400,10.771165283203125,4.782322246833146,-8.558426885449887,0.23045113427611066
1789316198126198300,10.7811982421875,4.806178338716924,-8.546513160294294,0.16772946956101803
1789316198136231400,10.7912314453125,4.831087446784973,-8.53344734249413,0.10606474828664213
1789316198146264300,10.801264404296875,4.849468029867112,-8.523536189332605,0.04886841373112984
1789316198156297500,10.81129736328125,4.864196227921545,-8.515279817640781,-0.0018591724775535111
1789316198166330400,10.821330322265625,4.880800156719983,-8.50567670751512,-0.04053426866193768
1789316198176363500,10.831363525390625,4.900530985367298,-8.494126554974914,-0.0706648833710933
1789316198186397400,10.8413974609375,4.925324065840244,-8.479462069806456,-0.1014269232850056
1789316198196430300,10.851430419921876,4.957385676011443,-8.460270462602377,-0.13613928542700596
1789316198206463200,10.861463134765625,4.998184719389677,-8.435500763005018,-0.17566044522337615
1789316198216496400,10.871496337890624,5.048329098740219,-8.40444511500597,-0.22370765136526896
1789316198226529300,10.881529296875,5.108704949247837,-8.366269990390538,-0.2775881850368343
1789316198236562400,10.8915625,5.18100504630506,-8.319742632493377,-0.3308344941917807
1789316198246595300,10.90159521484375,5.2627890110224484,-8.266185229828952,-0.3789705293945968
1789316198256628500,10.91162841796875,5.348734771594405,-8.20871386859119,-0.422424763456732
1789316198266661400,10.921661376953125,5.4338610324770205,-8.150473861068487,-0.46186786218136544
1789316198276695600,10.931695556640625,5.513892016047239,-8.094391908362507,-0.4981959706906229
1789316198286728400,10.941728515625,5.587115657690167,-8.041878461793065,-0.5317054050499573
1789316198296761600,10.95176171875,5.6556648777812715,-7.991749864533543,-0.5619387403480708
1789316198306794500,10.96179443359375,5.724978652504086,-7.940792415234446,-0.582082570243068
1789316198316827400,10.971827392578126,5.797938674774765,-7.887140904545784,-0.5893157363669946
1789316198326860500,10.981860595703125,5.877106904035807,-7.828481210306286,-0.5872569406736642
1789316198336893400,10.9918935546875,5.967223812812566,-7.760836830100416,-0.5762263184955343
1789316198346926300,11.00192626953125,6.065288465723395,-7.6854510419875375,-0.5625836141228675
1789316198356959200,11.011959228515625,6.164551973029971,-7.607070163711905,-0.5487751247292384
1789316198366993400,11.021993408203125,6.261543443751335,-7.528910819232463,-0.5281704723894596
1789316198377026300,11.0320263671875,6.355335241648555,-7.452253111487627,-0.49400060136001556
1789316198387059200,11.04205908203125,6.442396854507923,-7.380290283560752,-0.44409273417908696
1789316198397092400,11.05209228515625,6.520046495899558,-7.315123107123375,-0.38516401373986153
1789316198407125200,11.062125244140624,6.590431699246167,-7.2546397045880555,-0.32680746716540304
1789316198417158400,11.072158447265625,6.6547787914723155,-7.197912439715862,-0.272700723522529
1789316198427191300,11.08219140625,6.709407038238644,-7.1487798677563665,-0.22178736909348518
1789316198437224400,11.092224365234374,6.7590545739829535,-7.103368946668505,-0.16647367907995358
1789316198447257300,11.10225732421875,6.815324742737412,-7.0506550090909,-0.10001171359168365
1789316198457291300,11.112291259765625,6.885357479384541,-6.982934056517482,-0.029455386895290574
1789316198467324200,11.12232421875,6.961788977158069,-6.906766178116202,0.021532252046093343
1789316198477357300,11.132357421875,7.029004318296909,-6.8382222187221045,0.04693071910024155
1789316198487390200,11.14239013671875,7.080598896455764,-6.78470631711185,0.05711705420764628
1789316198497423400,11.15242333984375,7.110753211700916,-6.753133951762318,0.05244453235196415
1789316198507456300,11.162456298828126,7.125590715348721,-6.737573394536971,0.03788509901015786
1789316198517489400,11.172489501953125,7.127220362377166,-6.735923289242386,0.021155287942884023
1789316198527522300,11.182522216796874,7.12266284520328,-6.740771313795447,0.0082176710911619
1789316198537555200,11.19255517578125,7.117972641560435,-6.745727474898099,-0.00206538540702677
1789316198547589400,11.20258935546875,7.113848255106807,-6.750073395147919,-0.006877768252664828
1789316198557622500,11.21262255859375,7.111019169160723,-6.753053872263431,-0.0074473465890798245
1789316198567655400,11.222655517578126,7.11279786927104,-6.751184571260214,-0.0014025010515040775
1789316198577688300,11.232688232421875,7.12471451703608,-6.738575849577784,0.020642294636159204
1789316198587721500,11.242721435546875,7.150502453765273,-6.710996937778591,0.05683430544324219
1789316198597754400,11.25275439453125,7.188361352038383,-6.669893358495831,0.10186209983187727
1789316198607787300,11.262787353515625,7.233284781870245,-6.620258097711205,0.14886607139799743
1789316198617820200,11.272820068359374,7.278657709035277,-6.5692784365803,0.190017800671421
1789316198627853300,11.282853271484376,7.317441905459761,-6.524861787226795,0.227162285331171
1789316198637887200,11.29288720703125,7.345905783399939,-6.4912850963175295,0.2669763179937377
1789316198647920400,11.30292041015625,7.363623810920119,-6.4692065355002875,0.3111255485827103
1789316198657953300,11.312953369140626,7.37380442867279,-6.455200221979617,0.3574629733983427
1789316198667986400,11.322986328125,7.380102067512273,-6.4452048976659775,0.4047397979559377
1789316198678019300,11.333019287109375,7.38482792699039,-6.436631715109944,0.45219117536284026
1789316198688052500,11.343052490234374,7.387729493650793,-6.42975715316534,0.5000727974131703
1789316198698085400,11.35308544921875,7.387619019013643,-6.42604543916583,0.5471848598631098
1789316198708118300,11.3631181640625,7.383599261978268,-6.426673215675353,0.5922114212758839
1789316198718151400,11.3731513671875,7.3759730048835275,-6.431446421426534,0.6339576823763549
1789316198728184300,11.383184326171875,7.363195940896868,-6.44251375888586,0.6691336251758039
1789316198738218200,11.39321826171875,7.340331782659888,-6.466189818027615,0.6915935134608299
1789316198748251100,11.403251220703124,7.300700614017248,-6.510216006758808,0.6980243502259253
1789316198758284300,11.4132841796875,7.242734747260808,-6.575595364642143,0.6889992591839283
1789316198768317200,11.423317138671875,7.168873392236232,-6.658354896393418,0.6662908029653132
1789316198778350300,11.433350341796874,7.0826675194233655,-6.753133951762318,0.6335485170535743
1789316198788383200,11.44338330078125,6.99106767861247,-6.850849060583114,0.6010157457066699
1789316198798416400,11.45341650390625,6.895161080518364,-6.9494532271981235,0.5764066800311207
1789316198808449300,11.46344921875,6.79964435852468,-7.044452647319436,0.5575932219570502
1789316198818482400,11.473482421875,6.7110349317014215,-7.130527587229013,0.5366333629714325
1789316198828516400,11.483516357421875,6.640324734184145,-7.197907763540744,0.5163300316657871
1789316198838549200,11.49354931640625,6.579773527109623,-7.255049454432726,0.49115463734436776
1789316198848582100,11.50358203125,6.518458934447169,-7.312374100676179,0.4574564024146646
1789316198858615300,11.513615234375,6.452565197300911,-7.372938167232275,0.4178313712518662
1789316198868648200,11.523648193359374,6.391252358204126,-7.42785341424644,0.3863540637746453
1789316198878681300,11.533681396484376,6.326071153241395,-7.484512874579429,0.3650689914226532
1789316198888714200,11.54371435546875,6.251570915791392,-7.547558821079135,0.35013113267291335
1789316198898747100,11.5537470703125,6.177610192045569,-7.6085718004465095,0.3422755603343248
1789316198908780300,11.5637802734375,6.1074582129329436,-7.665235936954617,0.33690449828784913
1789316198918814500,11.573814453125,6.04331044267118,-7.716039656996727,0.33395258967969566
1789316198928847400,11.583847412109375,5.984731996974348,-7.7616463929176325,0.33199192059859634
1789316198938880300,11.59388037109375,5.9295595603287214,-7.8040628083646295,0.32756376542542126
1789316198948913400,11.603913330078125,5.871873095035553,-7.8479335142731665,0.31849509097002443
1789316198958946300,11.6139462890625,5.80419656612575,-7.89871093083024,0.30342624451806766
1789316198968979500,11.6239794921875,5.723454803937673,-7.958045747852325,0.2863125578328967
1789316198979012400,11.634012451171875,5.629462515032291,-8.02527219490707,0.2730126024832949
1789316198989045500,11.64404541015625,5.523403356236219,-8.098932474401593,0.26399383158423007
1789316198999079200,11.6540791015625,5.409845950639248,-8.175515947866439,0.2547447225280106
1789316199009112300,11.6641123046875,5.294762942910194,-8.250800029170513,0.2452864459668286
1789316199019145200,11.674145263671875,5.181617625245452,-8.322638353934883,0.23430368151841685
1789316199029178400,11.684178466796874,5.07757214435935,-8.38689601431191,0.22049564878251401
1789316199039211300,11.694211181640625,4.990000828412175,-8.439719842004775,0.20345897285630926
1789316199049244400,11.704244384765625,4.9203088680267335,-8.481017482554913,0.1824167328168638
1789316199059277300,11.71427734375,4.866592475408315,-8.51250392318666,0.15471227667555212
1789316199069310500,11.724310546875,4.828018414603173,-8.534927936440706,0.12497226871917955
1789316199079343400,11.73434326171875,4.802622984322905,-8.549557350295782,0.1012746005338151
1789316199089377300,11.744377197265624,4.789261106185615,-8.557225692966579,0.08505900433268397
1789316199099410200,11.75441015625,4.789680500641465,-8.557109957632422,0.07220430853255093
1789316199109443300,11.764443359375,4.808315935267507,-8.546755152356624,0.058862377204746005
1789316199119476200,11.774476318359374,4.84906178715378,-8.523789287310839,0.04478578405999578
1789316199129509000,11.784509033203125,4.9117362699925895,-8.487870417189598,0.035863566587294914
1789316199139542300,11.794542236328125,4.990797531747818,-8.441636489281057,0.03314201440260513
1789316199149575200,11.8045751953125,5.077372237873077,-8.389856033161282,0.03174209132667165
1789316199159608300,11.8146083984375,5.162776146653294,-8.33758633221984,0.02818719587366795
1789316199169641200,11.82464111328125,5.238848747986554,-8.290027293187379,0.017369333955162436
1789316199179674400,11.83467431640625,5.30157846814394,-8.250068207764626,-0.003976827498756756
1789316199189708300,11.844708251953126,5.348776272648573,-8.219491867715119,-0.03037558417986147
1789316199199741400,11.854741455078125,5.38373126617372,-8.196450599345564,-0.06343003218015655
1789316199209774300,11.8647744140625,5.412130262184143,-8.177332641899586,-0.10224338163388892
1789316199219807500,11.874807373046876,5.437935150048136,-8.15964442499578,-0.13946444779434242
1789316199229840400,11.88484033203125,5.463123367318511,-8.142122796830535,-0.1746954726487398
1789316199239873500,11.89487353515625,5.490690588679909,-8.122745896187425,-0.20904236247921362
1789316199249906200,11.90490625,5.524398212492466,-8.098966961193085,-0.24109717758344484
1789316199259939300,11.914939208984375,5.564019444262981,-8.070823985770344,-0.2718197029042989
1789316199269973200,11.92497314453125,5.610666044625639,-8.037398686030507,-0.301729541869089
1789316199280006400,11.93500634765625,5.669400557667017,-7.994943692138791,-0.33038656776119024
1789316199290039300,11.945039306640625,5.742826443883776,-7.941099289226531,-0.35955610975269225
1789316199300072400,11.955072509765625,5.829550203090906,-7.87614312519133,-0.39127935481499876
1789316199310105300,11.965105224609376,5.926736904123425,-7.801777327775954,-0.4200600801520049
1789316199320138200,11.97513818359375,6.026445232588053,-7.72353030501306,-0.4465612431844696
1789316199330171400,11.98517138671875,6.118996090513467,-7.648343838864564,-0.4807334888340905
1789316199340204300,11.995204345703126,6.1986927275627846,-7.581202732005715,-0.5214926385933533
1789316199350237400,12.005237548828125,6.264407601010799,-7.524127676609158,-0.561313959513232
1789316199360271400,12.015271240234375,6.315935543674231,-7.478316358026862,-0.5950943563010543
1789316199370304300,12.02530419921875,6.35616350916624,-7.442225638470053,-0.6187486420024186
1789316199380337400,12.03533740234375,6.390383758676052,-7.412095288622379,-0.6278696676995605
1789316199390370300,12.045370361328125,6.428145041793584,-7.380035432016849,-0.6200060947176068
1789316199400403500,12.055403564453124,6.475527555215359,-7.3405679295033215,-0.5949639713870362
1789316199410436400,12.065436279296875,6.535334081402421,-7.291082306322455,-0.5476430519593879
1789316199420469200,12.07546923828125,6.606669717341661,-7.231214405336976,-0.4814994682379067
1789316199430502400,12.08550244140625,6.680799367913603,-7.167446574303507,-0.406207313225232
1789316199440535300,12.095535400390625,6.756828130105138,-7.1003095590978855,-0.31820272042732684
1789316199450568400,12.105568359375,6.834602274659275,-7.028969246983528,-0.22846005179043857
1789316199460602400,12.115602294921874,6.909466669246554,-6.957320891833305,-0.15920706734415144
1789316199470635500,12.125635498046876,6.998978597867488,-6.868199423834681,-0.11192894587861374
1789316199480668400,12.13566845703125,7.103143321219086,-6.760724553021788,-0.0913475191507954
1789316199490701300,12.145701416015624,7.204346856677532,-6.652837009754776,-0.08677195486356504
1789316199500734200,12.155734130859376,7.294788759624957,-6.553588115495443,-0.08317274306151085
1789316199510767400,12.165767333984375,7.37397335549891,-6.464487690284848,-0.07277162812568713
1789316199520800300,12.17580029296875,7.442895500555634,-6.38523879700303,-0.049145253344555384
1789316199530833400,12.18583349609375,7.506832258415222,-6.310123642525077,-0.014175718695757678
1789316199540866300,12.1958662109375,7.568173739084601,-6.236352888393402,0.03231055484741228
1789316199550900500,12.205900390625,7.630989383959769,-6.158906076097488,0.0791403366071172
1789316199560933400,12.215933349609376,7.697323266088962,-6.074974577957391,0.12764421874163673
1789316199570966500,12.225966552734375,7.759897503423691,-5.993562953683734,0.1777232229720801
1789316199580999400,12.23599951171875,7.814234658288955,-5.921149459379911,0.2193444329207763
1789316199591032600,12.246032470703126,7.855812869346141,-5.86449350617826,0.2535840812508017
1789316199601065500,12.2560654296875,7.882365945228933,-5.82756516675353,0.27960451156161725
1789316199611098400,12.266098388671875,7.89472039988935,-5.809723220592737,0.3014904541498981
1789316199621131500,12.276131591796876,7.894445674601196,-5.809062710857391,0.3207813022110611
1789316199631165400,12.28616552734375,7.883925449630618,-5.822441832390427,0.3365644161459058
1789316199641198300,12.2961982421875,7.864393066164851,-5.848112864741682,0.3482529177108779
1789316199651231200,12.306231201171874,7.836266457355022,-5.8851271288841955,0.35860618861671534
1789316199661264400,12.316264404296875,7.800503070056438,-5.931525891965627,0.37354930806346237
1789316199671297300,12.32629736328125,7.761543517065048,-5.981071720901132,0.39447679914943873
1789316199681330400,12.336330322265624,7.725040125054121,-6.0263078699439765,0.42160723652876914
1789316199691363300,12.34636328125,7.69561120147407,-6.061480890133977,0.454318688910827
1789316199701396500,12.356396484375,7.673280711722374,-6.086901747116446,0.49068946751803155
1789316199711429400,12.366429443359374,7.654705775111913,-6.107288117063045,0.5262088534602896
1789316199721463600,12.376463623046876,7.636943908450007,-6.126771400690078,0.5569018056267873
1789316199731496400,12.386496337890625,7.619159829956293,-6.146700674518942,0.5803955670041964
1789316199741529300,12.396529296875,7.601685548064112,-6.1668748630195855,0.5953280189264565
1789316199751562200,12.406562255859376,7.582122184938192,-6.190282626613974,0.6018377296140417
1789316199761595400,12.416595458984375,7.557401585179567,-6.220769534814357,0.5984103489812463
1789316199771628300,12.426628173828124,7.525644510912895,-6.260480782955884,0.5843229695810005
1789316199781661400,12.436661376953126,7.483585238340496,-6.312721842324733,0.5620328118396922
1789316199791694300,12.4466943359375,7.427691501682997,-6.380898721972107,0.5328287830566987
1789316199801727200,12.456727294921874,7.362239663085341,-6.459068003323674,0.49825234052035955
1789316199811760400,12.466760498046876,7.290211953228711,-6.542956246843934,0.461433452819474
1789316199821794600,12.476794677734375,7.210864275747537,-6.632564621576666,0.427682939713262
1789316199831827500,12.486827392578125,7.123965159973502,-6.727521371600031,0.39994120203517375
1789316199841860400,12.4968603515625,7.036478015178441,-6.8202604455739255,0.3773747846357524
1789316199851893500,12.5068935546875,6.956854443365335,-6.902496830233932,0.3579150280147791
1789316199861926400,12.516926513671875,6.87780721013546,-6.982568145814538,0.3315140739537775
1789316199871959600,12.52695947265625,6.799941295644641,-7.059498240759968,0.3076793171189725
1789316199881992400,12.536992431640625,6.731037270766496,-7.125480825233459,0.3017296514669433
1789316199892025300,12.547025390625,6.653400488856435,-7.198197101876139,0.297674311661534
1789316199902059300,12.557059326171874,6.566269317892194,-7.277649408775567,0.3005097908157855
1789316199912092400,12.567092529296875,6.470744412592053,-7.362457105228304,0.3067336702993139
1789316199922125300,12.577125244140625,6.366878379926085,-7.452391058653593,0.30840872737206515
1789316199932158500,12.587158447265624,6.256203251767158,-7.545756740093231,0.30307945864070207
1789316199942191400,12.59719140625,6.142945121377706,-7.638582323306799,0.29437223790884015
1789316199952224500,12.607224609375,6.035048810282349,-7.724324085739254,0.2887655587418936
1789316199962257400,12.61725732421875,5.9383460933744905,-7.799001433321833,0.2863763985830359
1789316199972290600,12.62729052734375,5.851925701028108,-7.8641417217522855,0.28393899710197
1789316199982323500,12.637323486328125,5.768381740900874,-7.925740976575017,0.28070401550242674
1789316199992357400,12.647357421875,5.6808162701725955,-7.9888114729940884,0.27855682913959023
1789316200002390300,12.657390380859376,5.588393422541022,-8.05359871020317,0.2824850902329199
1789316200012423400,12.66742333984375,5.493128044959902,-8.118599297901987,0.2902975723484531
1789316200022456300,12.677456298828124,5.396572043046355,-8.182852866625785,0.2971863820141181
1789316200032489200,12.6874892578125,5.298994296869635,-8.246338958108424,0.2982079436141997
1789316200042522400,12.6975224609375,5.202458753222227,-8.307760518276691,0.29310512231616304
1789316200052555300,12.70755517578125,5.11239152880609,-8.36373258086741,0.28603100094515826
1789316200062588400,12.71758837890625,5.033348971751332,-8.411874388223886,0.27592943977806716
1789316200072621300,12.727621337890625,4.967214996108413,-8.451544719833135,0.26183278109282254
1789316200082655500,12.737655517578125,4.916549223232269,-8.481653442370892,0.24386916304742917
1789316200092688400,12.7476884765625,4.885065412949025,-8.500295598998665,0.22693634935449808
1789316200102721500,12.757721435546875,4.873110479000211,-8.507528472861647,0.21247226386265827
1789316200112754400,12.76775439453125,4.875635029041767,-8.506475748938321,0.1960794387979433
1789316200122787600,12.77778759765625,4.8860813119933,-8.500892980369924,0.17727374390522016
1789316200132820500,12.787820556640625,4.900352706190944,-8.493045774000883,0.1584572170912288
1789316200142853400,12.797853271484374,4.916674310916662,-8.483979839491843,0.13707662107604554
1789316200152886300,12.80788623046875,4.9365597456038,-8.472779815563559,0.11300568086518906
1789316200162919400,12.81791943359375,4.960873518127203,-8.45884481371343,0.08980861914572305
1789316200172953300,12.827953369140625,4.987588506573438,-8.443305299276114,0.07024600037189666
1789316200182986500,12.837986572265624,5.015382522428036,-8.426939855408667,0.05494002982897218
1789316200193019400,12.848019287109375,5.048201088446379,-8.407401042202114,0.04082778084895108
