time,seconds_elapsed,z,y,x
1789317360187412200,0.054412109375,1.4799872128546236,1.8505109625518321,-0.3550910566352308
1789317360197367300,0.0643671875,1.7627485079467295,-2.5891601686328647,-0.3481048510096967
1789317360207322400,0.074322265625,1.8815227714091538,-2.8042607169061897,0.02050298206359148
1789317360217277200,0.084277099609375,1.2906880453139542,0.484103367125988,-0.056747796203568575
1789317360227232300,0.094232177734375,0.04832885436117649,2.4697365013509986,-0.30028124275691803
1789317360237187300,0.104187255859375,-2.9640982276409864,-1.6433149037927388,-0.04709229830354452
1789317360247142400,0.114142333984375,-1.7903320959210394,-0.48611470694839953,0.6372790818840265
1789317360257097200,0.12409716796875,-0.31214521048665045,-0.4260305328637361,0.8652192379862069
1789317360267052300,0.13405224609375,1.2618705316305159,0.23674013315141199,0.6274919934935868
1789317360277007400,0.14400732421875,1.5010177259236572,5.011653272771835,0.01771528757382184
1789317360286962200,0.153962158203125,0.7308218734562396,0.12663082218170166,-2.231134665980935
1789317360296917200,0.163917236328125,0.752315327861905,-4.408170662027597,-2.277471177481115
1789317360306872300,0.173872314453125,1.113173423591256,-5.600047619977593,-0.8866321745015681
1789317360316827400,0.183827392578125,0.7348375388383865,2.8103526040405034,0.5750498585946857
1789317360326782200,0.1937822265625,0.7716478048413992,4.85677309218347,-0.1495889057798311
1789317360336737300,0.2037373046875,-1.376689335465431,-0.7929413527607917,-1.4950368979483841
1789317360346692400,0.2136923828125,-2.055911954587698,1.1557435682952404,-1.7898267767474054
1789317360356647200,0.223647216796875,-2.5127286708593366,-2.6748446479201315,-2.3103385510772467
1789317360366602200,0.233602294921875,-1.3414637083053589,0.8103010683625936,-1.7374968700513242
1789317360376557300,0.243557373046875,0.357296019333601,1.3919541246145963,-1.6181344314374029
1789317360386512400,0.253512451171875,0.772886406725645,-1.8148200559675693,-1.3275219844534993
1789317360396467200,0.26346728515625,4.483011091217398,0.43395606516599655,-0.6915154797885567
1789317360406422300,0.27342236328125,3.691811029165983,-2.5995015299052,-1.5522795649968086
1789317360416377300,0.28337744140625,3.2955589639723297,0.5913719017118215,-1.7848305758953094
1789317360426332200,0.293332275390625,1.3695476470172405,-0.6790659672558307,-1.8112354754790663
1789317360436287200,0.303287353515625,-1.6477023250967264,-1.485462429395318,-1.5649454236939548
1789317360446242300,0.3132421875,-3.607794775351882,1.786821165190637,-1.2531639319531618
1789317360456197400,0.323197265625,-5.312946249854565,-0.2027151139527559,-0.6672695848695933
1789317360466152200,0.333152099609375,-1.5458090538084506,2.0511717743232847,1.1614669143781065
1789317360476107300,0.343107177734375,-1.6951035432189703,-1.0402081406235695,-0.10148297345433384
1789317360486062300,0.353062255859375,0.1918453448921442,-0.6414923156648874,-0.2847815488733351
1789317360496017200,0.36301708984375,4.2388966299057005,0.21190145997107027,0.7311469406921416
1789317360505972500,0.372972412109375,3.223927559956908,-0.8186609004288912,-0.3311107903825119
1789317360515927300,0.38292724609375,1.48920687662065,-0.0054524201869964595,-1.7632333688542245
1789317360525882400,0.39288232421875,1.2144167065382003,0.08617986158877611,-1.5421914478331804
1789317360535837200,0.402837158203125,-1.9236925186187028,-0.8052557676717639,-0.21574049014467744
1789317360545792300,0.412792236328125,-2.1931173622757196,0.07521101606786251,0.635768531190604
1789317360555747300,0.422747314453125,-3.425706269842386,2.5678417785331606,1.120369253379479
1789317360565702100,0.4327021484375,-4.55479213283658,3.6192198402076956,0.3158362470243126
1789317360575657500,0.442657470703125,-5.008334357482195,1.1289882478386164,-0.5700183307008817
1789317360585612300,0.4526123046875,-0.06557517271637917,-1.8811516000092028,-0.2974516453541815
1789317360595567000,0.462567138671875,2.8374492852807043,-1.895645989307761,-1.0025142967190592
1789317360605522400,0.4725224609375,3.7382431099951265,-0.97358901181221,-1.4100968072876334
1789317360615477200,0.482477294921875,4.6648891688466065,-1.0113146390944718,-1.468080501961708
1789317360625432300,0.492432373046875,2.1755437116622924,1.9447037424653768,-1.4963473960250615
1789317360635387100,0.50238720703125,-1.8665952513903379,-0.34728549745082854,-1.813142916535586
1789317360645342500,0.512342529296875,-5.023134451729059,-0.4955956519991159,0.24696822504131122
1789317360655297300,0.52229736328125,-1.920202922937274,-0.8401061317786573,2.0605080502063036
1789317360665252000,0.532252197265625,-3.573830546429753,-0.5948720187872648,1.7402015989653765
1789317360675207400,0.54220751953125,-0.007636193966865539,1.2302870603650808,0.8985536445721983
1789317360685162200,0.552162353515625,2.2867326345622536,1.4171698144137859,-0.6757922062821686
1789317360695117300,0.562117431640625,2.6426994511187076,2.28284264138639,-2.647166951921582
1789317360705072000,0.572072021484375,2.3688088602244854,-2.096382496663928,-3.0048236212611195
1789317360715027500,0.58202734375,1.3273925128549338,-1.471896260857582,-0.7407718242581933
1789317360724982300,0.591982177734375,0.36552258040904995,-3.9586458563297984,-0.1123699128454551
1789317360734937000,0.60193701171875,-2.9637551132917404,0.49439562855958935,1.5494501867897807
1789317360744891400,0.611891357421875,0.24244097514152527,6.0256800934344525,1.7525505006678401
1789317360754846200,0.62184619140625,-2.7943092317342755,-2.1073720927119255,-1.3450415667921305
1789317360764801500,0.631801513671875,-1.2305541868686676,-0.4299918377101421,-1.5125434746749697
1789317360774756400,0.64175634765625,-0.539589107504487,0.3519885605752468,-1.239872927094996
1789317360784711400,0.65171142578125,-1.8237153100848198,1.560347866770625,-1.028030796095729
1789317360794666200,0.661666259765625,0.41215164511501784,-0.9877993234723805,-0.05631422252531629
1789317360804621600,0.67162158203125,0.6243804373443126,-4.108841093972325,1.0639099187284708
1789317360814576400,0.681576416015625,3.4317350286126134,-0.15418927571475505,2.0402700026892124
1789317360824531200,0.69153125,2.4059984809339046,0.9463555524498224,0.8238880604926496
1789317360834486500,0.701486572265625,-0.4852402622014284,3.1905484374463557,-0.6085533016046509
1789317360844441300,0.71144140625,-0.8687433204591274,-1.6783762803018092,-0.7196211919408291
1789317360854396400,0.721396484375,-2.5448376273036,-4.727271098479628,0.2987434387303889
1789317360864351500,0.7313515625,0.08000760269463061,1.354355923104286,1.6407095435999333
1789317360874306600,0.741306640625,-0.5455354486882686,2.223493795838952,1.7035500306554137
1789317360884261400,0.751261474609375,-0.5537281074941158,2.1728765382796524,1.9196959963284432
1789317360894216200,0.76121630859375,-1.8788351397603749,-1.7253905449330806,0.8412010874085127
1789317360904171500,0.771171630859375,-2.1843892814189196,-3.660014207410812,-0.11479509416576474
1789317360914126300,0.781126220703125,0.3517150043308735,-0.8022802589923143,1.170103955950588
1789317360924081400,0.791081298828125,0.7998696907192469,0.8070388516962528,1.7144686072938142
1789317360934036500,0.801036376953125,1.2949509634554386,0.6784528037935496,1.4053874605529009
1789317360943991300,0.8109912109375,1.2785294054865837,-2.2871154963999984,0.5206086953656748
1789317360953946400,0.8209462890625,0.669811232176423,-1.7323428482890129,0.13772439006082712
1789317360963901400,0.8309013671875,1.4920377161324023,-0.0027601123631000517,0.17022826410681008
1789317360973856500,0.8408564453125,2.0268670618891713,1.5160609812766312,-0.3018619726097211
1789317360983811300,0.850811279296875,0.6058703826636076,1.4265923072755335,-0.5176643490094691
1789317360993766400,0.860766357421875,-0.8883400013327598,-2.5235130997240542,-0.9877417480662465
1789317361003721500,0.870721435546875,-0.9995534741520881,-1.5035574735343455,-0.13863123924005777
1789317361013676300,0.88067626953125,-0.1906990974664688,1.4505465988367796,0.9753200003232806
1789317361023631400,0.89063134765625,-0.2363905890613794,2.19444071983397,1.1082942001823335
1789317361033586400,0.90058642578125,-0.48714580356180665,1.5966899307399987,0.9192544872954487
1789317361043541500,0.91054150390625,-1.5845897431015967,-2.4073341134518382,-0.15396580568980425
1789317361053496300,0.920496337890625,-0.8201338955909013,1.2502829696893691,0.35444296799004077
1789317361063451400,0.930451416015625,0.1527881767451763,2.0664169819891454,0.21949465504642574
1789317361073406500,0.940406494140625,-0.819517224997282,2.425657121127844,-0.46205355747919524
1789317361083361300,0.950361328125,-2.16568224286139,1.079256540942192,-0.8496693482853471
1789317361093316400,0.96031640625,-2.5107132393836973,-3.1829683575809,-1.2390863067619502
1789317361103271400,0.970271484375,0.8292553596794605,-1.3704051406294107,0.5632329448770731
1789317361113226500,0.9802265625,2.439319735777378,-0.7153361350327729,1.3576964657038448
1789317361123181300,0.990181396484375,2.133831060570478,4.653157229998707,1.122825122098997
1789317361133136400,1.000136474609375,1.134024488440156,1.1447013652771711,-1.3834057842388747
1789317361143091500,1.010091552734375,-2.040133955219388,-4.953908939811587,-2.911078585115075
1789317361153046300,1.02004638671875,0.11846622042655944,-3.126485422858596,-0.5451274524092674
1789317361163001300,1.03000146484375,2.0227830074459314,2.857797076782584,1.659069083894044
1789317361172956400,1.039956298828125,0.9008908553481102,3.103358814293146,1.486020063278079
1789317361182911500,1.049911376953125,-1.25134446144104,3.065543755161762,-0.44050512148328125
1789317361192866300,1.0598662109375,-3.7494028019130226,0.5665525177538394,-2.4638112029552457
1789317361202821400,1.0698212890625,-4.308605541425943,-1.0096353077054023,-1.7495057261444626
1789317361212776400,1.0797763671875,0.7198164953172207,-0.35161972726285456,-0.4102304677940905
1789317361222731300,1.089731201171875,0.23163141183555125,-3.199080118948221,-0.937524084283784
1789317361232686600,1.0996865234375,1.9842723672658205,1.652057597696781,-0.6569202594865113
1789317361242641400,1.109641357421875,3.8193168806165456,-0.3099333796560764,-1.2743307847529648
1789317361252596500,1.119596435546875,3.600110066068172,-1.084006950339675,-2.021585468224436
1789317361262551300,1.12955126953125,3.616356851992011,-0.5119014746338129,-2.919198470945656
1789317361272506400,1.13950634765625,-0.2735094826221466,-4.066521709159017,-2.2212995006650686
1789317361282461400,1.14946142578125,-1.1979448796868324,1.985295280572772,-0.16727175238877534
1789317361292416300,1.159416259765625,-2.3330022183060644,2.4514684387326238,0.2727490927089006
1789317361302371600,1.16937158203125,-3.331474911484122,1.3270271866738796,-0.111632027024962
1789317361312326400,1.179326416015625,-1.6749983283013103,-1.270543082907796,-1.1553241738393902
1789317361322281500,1.189281494140625,-2.797889428308606,-3.499304590016603,0.08499057873897253
1789317361332236300,1.199236328125,1.4870733717232942,2.72525849186182,0.8043120570808648
1789317361342191400,1.20919140625,1.6753876198798416,0.34070202740728855,0.08897511833049357
1789317361352146400,1.219146484375,3.17196473300755,-4.638016944012046,0.07446889246366918
1789317361362101200,1.229101318359375,4.172527676463127,-2.3338567893087863,0.7800488457009196
1789317361372056600,1.239056640625,3.1362603824198243,0.47166006513833997,-0.2826347461029887
1789317361382011400,1.249011474609375,-0.8473065646767616,2.8604665882527827,-1.6520144892074167
1789317361391966500,1.258966552734375,-2.0185604213148354,-2.825712085735798,-1.0110706012055277
1789317361401921500,1.268921630859375,-3.6096430335670706,-1.6608955686688422,1.7060402400359511
1789317361411876400,1.27887646484375,-1.7003087106466293,-0.45388709256052967,2.5576746047839523
1789317361421831400,1.28883154296875,-0.4391460350245237,3.1896061881601807,1.06269455158934
1789317361431786200,1.2987861328125,0.816738407933712,1.0912217040240764,-2.410467735302448
1789317361441741600,1.308741455078125,1.6973387549251318,-1.403961373272538,-1.3825639265872538
1789317361451696400,1.3186962890625,3.776027189466357,2.2697709783673283,-0.58484264607355
1789317361461651200,1.328651123046875,-1.4279238481402396,-3.9089953979760406,-2.1697952311381696
1789317361471606500,1.3386064453125,-0.8458668872624635,1.135365381655097,0.7198067045755684
1789317361481561300,1.348561279296875,-3.4626790329307315,5.059926597553491,3.995312622208893
1789317361491516400,1.358516357421875,-5.335434560516476,2.251660736659169,2.0355567104317247
1789317361501471500,1.368471435546875,-4.4432641872406,0.9368898049682378,-0.9005232641447335
1789317361511426600,1.378426513671875,-2.5980226895242926,1.4501935476154089,-1.9509232015021145
1789317361521381400,1.38838134765625,-0.8129764250516891,-1.19108609983325,-1.6977837222136556
1789317361531336200,1.398336181640625,1.424644680339098,-0.791941235807538,-0.1535908348975703
1789317361541291500,1.40829150390625,5.013288765019178,0.19206921677589414,0.7439185247860849
1789317361551246300,1.418246337890625,4.170840746289492,-3.4368642081946135,1.005664139052108
1789317361561201400,1.428201416015625,3.47422626286149,-3.1154975803762675,1.9734249561674893
1789317361571156500,1.438156494140625,0.35523148801922794,-1.001896237885952,0.22856186819709837
1789317361581111600,1.448111572265625,-1.2384002241939305,4.084037492105365,-1.0169285334534943
1789317361591066400,1.45806640625,-1.2479355297803878,-0.24745558843314647,-0.7901919809874147
1789317361601021200,1.468021240234375,-2.170881565070152,-1.7653566446185112,1.118736172284931
1789317361610976500,1.4779765625,-2.7393349480092524,3.1586586767107248,2.5920176038905978
1789317361620931300,1.487931396484375,-3.5873248187750577,2.0444009650140997,1.275220427069068
1789317361630886400,1.497886474609375,0.2016787566423416,0.7924696435958146,0.8088603680349886
1789317361640841500,1.507841552734375,1.6817805357873439,-3.8605817879408595,0.19218882456757128
1789317361650796300,1.51779638671875,3.4775855101615187,-1.4536521636366844,-1.1344430791784077
1789317361660751400,1.52775146484375,5.039200035867094,2.0506220314860344,-1.7820649105742572
1789317361670706400,1.53770654296875,4.334790368518233,1.1834849771797655,-2.5557208403676746
1789317361680661500,1.54766162109375,0.48134676189422604,1.0671545997381209,-2.068455502079427
1789317361690616300,1.5576162109375,-1.669732370597124,-2.3313509439677,-1.0025247450478374
1789317361700571400,1.5675712890625,-4.611019046971202,-3.35085590378046,1.1319171408973634
1789317361710526500,1.5775263671875,-2.0375234804600475,3.7758752137750387,3.5579181070268153
1789317361720481300,1.587481201171875,-3.646931438475847,2.2721342003673315,2.0142636009037496
1789317361730436400,1.597436279296875,-2.4341817883670327,2.276894546636939,0.5440971595134586
1789317361740391400,1.607391357421875,-0.9284756123661995,-2.0556401519089937,-0.502274472175911
1789317361750346800,1.6173466796875,1.017784127369523,-4.894550741913914,-0.5032076613727957
1789317361760301600,1.627301513671875,4.754102406781912,0.8972317483186721,1.2935782137975096
1789317361770256600,1.637256591796875,4.229433220511675,-0.8537544256418943,0.4522805341467261
1789317361780211700,1.647211669921875,3.274374137124419,2.755268430200219,-0.3584776303336024
1789317361790166500,1.65716650390625,-0.6885211933434009,-4.22819169601798,-2.6722762587368485
1789317361800121600,1.66712158203125,-3.709840022331476,-1.8571102146863936,-1.9852941115289926
1789317361810076700,1.67707666015625,-0.6260673675179481,-0.045754035437107085,-0.8944915827650576
1789317361820031700,1.68703173828125,-0.4921159931898117,-2.4528590163081883,0.5313573587972671
1789317361829986600,1.696986572265625,3.781788237211108,7.612167779111862,2.1145053055927154
1789317361839941600,1.706941650390625,-1.905387046599388,-0.5734685807526111,-0.5027338698485866
1789317361849896700,1.716896728515625,-0.007210077509284019,0.47537470174729823,-2.5742554449677466
1789317361859851500,1.7268515625,-0.03299684519469738,-2.9284692803770302,-2.0120501626379785
1789317361869806800,1.736806884765625,0.5427981326788663,-6.659587068536878,-0.15315635247044265
1789317361879761700,1.74676171875,3.763186997115612,3.094292879784107,1.02305373833552
1789317361889716700,1.756716796875,-1.2788321878254414,-1.2298100905030964,-0.3498490643285215
1789317361899671600,1.766671630859375,0.9399404247105121,3.938896030721068,0.3625247868325561
1789317361909626600,1.776626708984375,-0.9052724314332008,2.0325719955325123,-0.48468547786287963
1789317361919581700,1.786581787109375,-4.266050594291091,-3.6920810782790183,-1.1887941164385527
1789317361929536500,1.79653662109375,1.3012532784700392,3.076004943421483,1.0573634927596895
1789317361939491800,1.806491943359375,-1.9410949043184518,-3.3122610924482343,-0.8208566569074988
1789317361949446700,1.81644677734375,-0.4040975179970264,1.6172610096037388,-0.3398146866461262
1789317361959401700,1.826401611328125,3.5027544382095335,1.5925538538485764,0.38770321336127817
1789317361969356500,1.8363564453125,2.1711633046209813,0.4481026639401912,-0.136344297346659
1789317361979311600,1.8463115234375,1.0225906508684157,3.0315608215391636,-1.3326122933298348
1789317361989266700,1.8562666015625,-3.4219121382564306,-3.3390520687401293,-1.8292571621209381
1789317361999221500,1.866221435546875,-2.37790109821856,2.4988813472926616,0.6459170733045786
1789317362009176800,1.8761767578125,-3.896336991932988,-0.20099428150951862,0.8198569783456623
1789317362019131600,1.886131591796875,-1.8835802884608506,-0.12656944738328457,0.21683133585499598
1789317362029086500,1.89608642578125,-0.6912509105682373,2.252587788376212,-0.5375598666992039
1789317362039041800,1.906041748046875,-1.2132733817219734,1.2050947514414787,-1.9356031750343738
1789317362048996600,1.91599658203125,1.7428291709899901,1.924012836614251,-1.5368775593340396
1789317362058951700,1.92595166015625,0.6772592100948095,-4.668189963957667,-0.9017740679234266
1789317362068906500,1.935906494140625,1.5068231973320245,0.9796271229326724,0.2768377867946401
1789317362078861800,1.94586181640625,0.6593482903510332,1.241193069782853,-0.18343591979676857
1789317362088816600,1.955816650390625,1.4911533345133066,-0.1748883648723364,-0.033276246657967565
1789317362098771500,1.965771484375,2.1122177791774273,-0.5351654458433389,0.29129697691565376
1789317362108726800,1.975726806640625,-0.2624719557791948,-1.8447241958439349,0.4715716562025249
1789317362118681600,1.985681640625,-1.7602759803533552,2.146226431763172,0.7049193704366683
1789317362128636700,1.99563671875,-3.489098253300786,1.3917548026502131,-0.7137570491477847
1789317362138591700,2.005591796875,-2.4400258382201194,0.5459592270582914,0.25863928228113797
1789317362148546800,2.015546875,1.3332283794015645,0.4317138391971588,2.0062239407025277
1789317362158501600,2.025501708984375,0.20240882448256015,-0.39967327181398865,1.7911930966645477
1789317362168456400,2.03545654296875,-1.5636907474577426,-0.9197147982835769,-0.0757706592446193
1789317362178411800,2.045411865234375,1.2400976757615805,-0.9963345121055841,-0.964718161483854
1789317362188366600,2.05536669921875,2.302065812772512,-1.0340256525963545,-0.42845143986772743
1789317362198321700,2.06532177734375,2.6976754884094,-1.9200696519464253,-1.0443005245037376
1789317362208276700,2.07527685546875,1.5337141268670558,0.6066583181709051,-1.5022677259847521
1789317362218231600,2.0852314453125,-1.2122329327583312,-2.1315859119921923,-1.6322509273342787
1789317362228186600,2.0951865234375,-0.899634133285284,2.3963491935789585,0.07511164734661578
1789317362238141400,2.105141357421875,-1.368838037443161,-2.394411503514647,1.1475021749768406
1789317362248096800,2.1150966796875,0.2246627418667078,0.7672942858070134,1.4537021402582526
1789317362258051600,2.125051513671875,-0.4780599953085184,0.24193127205371856,0.1066889811322093
1789317362268006700,2.135006591796875,-0.7818260845065116,-4.428630097210407,-0.9678115243893116
1789317362277961700,2.144961669921875,3.297023191305995,3.534328557124734,0.2345156985675916
1789317362287916500,2.15491650390625,-1.0552338603198528,-3.745440328022837,-0.8306032671570778
1789317362297871600,2.16487158203125,-0.4063841676294803,0.3665022390961647,-0.408054877320677
1789317362307826700,2.17482666015625,1.210987901133299,-4.94163164204061,0.6177046128422021
1789317362317781800,2.18478173828125,2.3702608125984668,-5.637991858446598,2.414731530226767
1789317362327736600,2.194736572265625,8.758484178370237,9.609223640105128,3.391351288037002
1789317362337691600,2.204691650390625,-3.016938421946764,2.6553046656697985,-1.331578858628869
1789317362347646700,2.214646728515625,-5.011014390346408,-2.410236264634132,-5.7712523279011245
1789317362357601500,2.2246015625,-5.006805248218774,-4.287670305424928,-1.9934661659382282
1789317362367556600,2.234556640625,-1.7972621874451635,-5.123808410355449,1.7605542127728462
1789317362377511700,2.24451171875,4.169072567573189,7.012346028962731,1.761618481003493
1789317362387466800,2.254466796875,-0.423287371635437,4.20346174390912,0.06036671735309064
1789317362397421600,2.264421630859375,3.10648483735919,0.15942776089012622,-0.5644274884238839
1789317362407376600,2.274376708984375,-0.6044394730776548,-1.3573539358764886,-1.5329954572036861
1789317362417331700,2.284331787109375,-1.2141904965668917,-2.7960996222823855,-3.4300755709677935
1789317362427286500,2.29428662109375,-0.27160394126176834,2.5192472589731216,-0.938785263326019
1789317362437241600,2.30424169921875,-1.616851844280958,-2.4856121158748863,1.2502996285632253
1789317362447196700,2.31419677734375,-2.3276386454463003,-1.0766145020008087,3.4402260858431455
1789317362457151700,2.32415185546875,1.265311611995101,5.123462373396754,3.6098598911881443
1789317362467106600,2.3341064453125,-1.8489549652814865,0.612827946716547,-0.1164926553312689
1789317362477061600,2.3440615234375,-1.9582026909857988,0.7512193493187427,-2.1120411074362693
1789317362487016700,2.3540166015625,-0.6795704096466303,-3.5755940489709377,-1.3528557476744054
1789317362496971500,2.363971435546875,1.3168401391804216,0.2279611988902092,0.5769385949507355
1789317362506926600,2.373926513671875,0.8871230267584324,0.3736047645777464,1.196059723527357
1789317362516881700,2.383881591796875,0.254808289283514,-4.031707585409284,2.006322140379995
1789317362526836700,2.393836669921875,4.046757855024934,1.6551239995300768,2.8328385766148565
1789317362536791600,2.40379150390625,3.969294091594219,2.26150642336905,1.8171768482267856
1789317362546746600,2.41374658203125,2.528032038453221,4.5549493692249055,0.6243511381845921
1789317362556701700,2.42370166015625,-4.502155936670303,-1.0591530795902013,-2.197459775394201
1789317362566656500,2.433656494140625,-6.549951220297813,-1.9859248106479643,-2.280354039441049
1789317362576611800,2.44361181640625,-4.26362892010212,2.14678991086483,1.2742217714205384
1789317362586566700,2.453566650390625,-0.8565174606144428,-0.47432373138964173,2.8677462238669396
1789317362596521700,2.463521728515625,1.0212783992260694,-1.4697224239498377,0.99634693319574
1789317362606476500,2.4734765625,3.0030390759319063,0.9854998143583535,-0.6442717172503472
1789317362616431600,2.483431640625,4.389932994547486,0.22311200529336928,-1.62966105697155
1789317362626386700,2.49338671875,4.367252376183867,2.270549561524391,-2.17778593763113
1789317362636341500,2.503341552734375,0.6352829396307468,-2.44110603467226,-2.5501675901547074
1789317362646296800,2.513296875,-1.7845540970414875,-0.4546954863339662,-0.40223296623416244
1789317362656251600,2.523251708984375,-4.205447364768386,-1.9353011233478783,2.358615090729296
1789317362666206700,2.533206787109375,-1.8860761969298123,-1.0639642792642117,4.077629670889675
1789317362676161800,2.543161865234375,0.9989163452923298,4.902110948035121,3.979882121104002
1789317362686116600,2.55311669921875,-1.1658593041181564,-1.6454337956428526,0.8897031063795089
1789317362696071700,2.56307177734375,0.3157686616808176,1.160009409046173,-1.2931678794309496
1789317362706026500,2.573026611328125,1.1509329531431198,-2.3666841231554745,-1.402471426975727
1789317362715981800,2.58298193359375,2.8182056556284425,-3.213457603868842,0.5854887619573622
1789317362725936600,2.5929365234375,3.0001299104869363,-1.6419892081469296,1.3659931694060563
1789317362735891500,2.602891357421875,-0.7559381945341825,-4.212254706695676,1.9593862016819417
1789317362745847000,2.612846923828125,2.049816560322046,3.8372459205389022,2.622193254184723
1789317362755801900,2.6228017578125,-0.7888345019638537,1.2845868058294057,0.5494266109079122
1789317362765757000,2.6327568359375,-2.251619235605001,0.20634382584393024,-0.6500624294809997
1789317362775712000,2.6427119140625,-2.392189735811949,-2.873661585390568,-0.6941162368714809
1789317362785666800,2.652666748046875,-3.287275119751692,-4.492141907656192,0.0683136577695608
1789317362795622000,2.662621826171875,1.7212310871660708,2.4634815326094626,2.1967641943454743
1789317362805577000,2.672576904296875,2.789066070383787,-0.2555588153898716,2.1738114810422062
1789317362815532000,2.682531982421875,4.75727519159913,0.9099842623859643,1.390686588896811
1789317362825486800,2.69248681640625,4.08941801609993,-0.9961895506769418,-0.11614055395796895
1789317362835442000,2.70244189453125,-0.43565877743065357,-3.1013626720398664,-1.6630039391249418
1789317362845397000,2.71239697265625,-2.867301402708888,1.5713511990830302,-1.2629184332482517
1789317362855351800,2.722351806640625,-2.1389275069266556,1.0531678677007554,-0.45455600479803976
1789317362865307000,2.732306884765625,-3.2613661869913337,1.0363713389396667,1.2737176212906838
1789317362875262000,2.742261962890625,1.18994862023592,1.1023656138509512,2.4657480162367222
1789317362885217000,2.752217041015625,-2.59401813005805,2.2185388037800786,2.058233675533533
1789317362895171800,2.762171875,-1.4265081361234186,4.490350932586193,-0.07718691925071179
1789317362905127200,2.772127197265625,-1.3143652734994888,-2.7255098362743855,-1.6104918077297508
1789317362915082000,2.78208203125,1.287573712685704,-3.5541631384074686,-0.2839134608019143
1789317362925036800,2.792036865234375,3.985263814142346,1.601353830897808,1.3870871031001208
1789317362934992000,2.801991943359375,1.408213770020008,0.1315390524893999,0.5299428158242255
1789317362944947000,2.811947021484375,1.9540496629595756,3.7841964673966166,0.42087928758040066
1789317362954902000,2.821902099609375,-1.2781827840059994,-1.8167536543786524,-0.3955790613029152
1789317362964856800,2.83185693359375,-2.8101602963387964,-0.9337126362368464,-0.8372301379509269
1789317362974812000,2.84181201171875,-2.4727538033455607,-1.8779151023060083,-0.1051835450053215
1789317362984767000,2.85176708984375,-2.059628929284215,2.639761059579253,0.8318456684336065
1789317362994721800,2.8617216796875,-0.8844728045105934,4.837967269426584,0.3139990947250277
1789317363004677000,2.871677001953125,-1.6522446447014807,-5.406880671092868,-0.7296084060132503
1789317363014632000,2.8816318359375,2.008775524881482,1.3374006966501473,0.197933505699411
1789317363024587000,2.8915869140625,1.813891835206747,-3.893242533048987,-1.0734631983630358
1789317363034541800,2.901541748046875,3.1999761910051108,1.4740063848793505,-0.8108921661235392
1789317363044497000,2.911496826171875,3.9039305158019064,0.5059674084097147,0.24546594898588953
1789317363054452000,2.921451904296875,0.11971066752970218,0.26312662029564376,0.22618271797560155
1789317363064406800,2.93140673828125,-1.7043664616048335,-2.3157123530700803,-0.48059345930889247
1789317363074362000,2.941362060546875,-1.150490470072627,-1.6908642982140183,0.4263705784730613
1789317363084317000,2.95131689453125,-0.4907826987594366,1.5275205329239367,1.4585666775546968
1789317363094271000,2.96127099609375,-1.2081506318807602,4.150298308998346,1.570165204168856
1789317363104226800,2.971226806640625,-1.6925667182177304,4.120782291656733,-0.7632171725612134
1789317363114181000,2.98118115234375,-4.38903049274981,-6.004858839201927,-2.797561511528492
1789317363124136000,2.991135986328125,1.6932120303839444,-1.8954788160473106,0.08411153088212013
1789317363134091000,3.001091064453125,4.654330365431308,-1.5741811618119477,2.0908307077556847
1789317363144045800,3.0110458984375,5.26306607439816,0.7233774026691914,1.3559423155128956
1789317363154001000,3.0210009765625,3.781358613622188,6.048152037483454,-0.7278339436866342
1789317363163956000,3.0309560546875,-2.9588322699367997,-4.142499033424258,-2.8131773060724137
1789317363173910800,3.040910888671875,-3.4446184755831957,-0.11396773996353149,-0.5674290083274245
1789317363183866000,3.0508662109375,-3.1080121930569407,-1.5546125379890203,1.5574436697617173
1789317363193821000,3.060821044921875,-1.4161089071840047,-1.602969157139957,1.5098429835446179
1789317363203776000,3.07077587890625,-1.236642566871643,5.695279095289111,0.6354832845084368
1789317363213731000,3.08073095703125,-0.26276655481159683,-2.661528070229292,-0.7146112548243254
1789317363223686000,3.090685791015625,3.8390228670835493,1.7209844189286232,-0.5979052490033209
1789317363233641000,3.100640869140625,2.253634082558751,-3.401004374784231,-1.7932284018844364
1789317363243595800,3.110595703125,2.384326162829995,-1.7748247301876543,-1.0192024697348474
1789317363253551000,3.120551025390625,2.3612533302783967,1.1896920151263475,0.3594568506292999
1789317363263506000,3.130505859375,-2.7621511754512786,-6.756444683745503,0.03344451589696109
1789317363273461000,3.1404609375,1.268213178655505,5.309086651816964,1.234575989730656
1789317363283416000,3.150416015625,-1.0064414801001549,-3.9740228736817835,-1.2295523163497448
1789317363293371000,3.160370849609375,-0.6526040767878294,1.0796423253893852,-1.0842167206328361
1789317363303326000,3.170325927734375,-0.08923895689845085,3.4390146642267703,-0.8250818733870983
1789317363313281000,3.180281005859375,-4.388054925715923,-3.1877760501235723,-1.1412369771022348
1789317363323236000,3.190236083984375,0.7889256873786449,2.084575154492259,0.4919926590710878
1789317363333191000,3.20019091796875,-0.8800111489266157,-5.836188618192076,0.14769443380273878
1789317363343145700,3.210145751953125,3.045802112859487,2.9552690244972704,0.5442254620682447
1789317363353101000,3.22010107421875,3.153568660095334,4.8915983218491075,-0.5308250785514712
1789317363363055900,3.230055908203125,-0.027748423147201537,1.5134236185103653,-2.021035579256713
1789317363373011000,3.240010986328125,-0.8879963024616241,1.4558186940208075,-0.7021105966262519
1789317363382966000,3.249966064453125,-3.9281197851628065,-6.534462559264898,0.7765445639070123
1789317363392921000,3.259921142578125,-1.3619102840065955,0.4355219993084669,3.0450150541350243
1789317363402876000,3.2698759765625,-1.420409234726429,5.5568724951177835,3.1407234993085265
1789317363412830700,3.279830810546875,-1.888008626297116,2.8983932910650965,0.480158355827257
1789317363422786000,3.2897861328125,-1.0516220995634793,0.1160544831097126,-0.6489268495798111
1789317363432740900,3.299740966796875,-1.327451549565792,-5.069904386210442,-1.79205614323467
1789317363442696000,3.309696044921875,0.681335081231594,-1.187630406421423,-1.2552917377620936
1789317363452651000,3.319651123046875,3.8475902044206856,1.7958207564651965,0.9939816653691231
1789317363462606000,3.329606201171875,3.822203249707818,-0.9587281272888183,2.9716081648796795
1789317363472561000,3.339560791015625,3.1723125235319136,0.8947568826377391,1.4558033503212033
1789317363482516000,3.349515869140625,-0.7610878323823214,-2.906030069553852,-0.8263013321794569
1789317363492471000,3.359470947265625,-0.6823603326261043,1.025805229000747,-0.807865511778742
1789317363502425900,3.36942578125,-2.72671336684525,-1.2100988433390856,-0.7806890433005989
1789317363512381000,3.379380859375,-1.5387737483441828,0.6467687947630882,0.01744308303631842
1789317363522336000,3.3893359375,-1.1766109997570513,3.2788580045402047,0.1848933337971568
1789317363532290800,3.399290771484375,-2.667314252415299,-0.7221890696674584,-0.7721363190107047
1789317363542246000,3.409245849609375,0.7818237464189529,2.0513433314979075,-0.9563308568887412
1789317363552201000,3.419200927734375,1.4013415461629628,-1.7767916463464497,-0.7849804568842053
1789317363562156000,3.429156005859375,2.9013743527024984,-1.9571733479380606,-0.3711677466891706
1789317363572110800,3.43911083984375,2.1107325090557336,-0.15330430957376956,-0.10439560949802398
1789317363582066200,3.449066162109375,-0.011329787787795066,-1.4747703549891709,-0.004419935334101319
1789317363592021000,3.45902099609375,1.2600631899476051,1.5101888743728398,0.15766192026138304
1789317363601975800,3.468975830078125,-1.5921563789635895,-0.10182137509584427,-0.9257468449894338
1789317363611931000,3.478930908203125,-1.4446546181887387,1.0009995813071728,-0.978769921581447
1789317363621886000,3.488885986328125,-1.9834440997481344,1.4142156407833097,-0.4291323713365942
1789317363631841000,3.498841064453125,-3.282940305417776,-3.544950488904118,-0.10338833215162158
1789317363641795800,3.5087958984375,0.17053016966283321,1.90581257853508,1.4309673074893652
1789317363651751200,3.518751220703125,0.9097463619768619,-2.4755419727593657,1.4430981825269757
1789317363661706000,3.5287060546875,5.040374924865365,1.5056196667611599,1.6700854218184946
1789317363671660800,3.538660888671875,5.527354139688611,-0.07058335626721382,1.074122831315547
1789317363681616000,3.548615966796875,2.7291426398187872,-4.1589229294806715,-0.8369494943786412
1789317363691571000,3.558571044921875,-2.444702013337612,1.030704983741045,-1.5431183534197508
1789317363701526000,3.568526123046875,-0.018617022186517715,-3.1734523412168025,-1.4138465152099728
1789317363711480800,3.578480712890625,-3.0770448078632353,-0.09625789574980735,1.9693433859422802
1789317363721436000,3.588435791015625,-0.005799041667580604,-0.9288315861970186,2.5457620486721395
1789317363731391000,3.598390869140625,-3.3278912077784537,1.274293375352025,2.029280406641215
1789317363741345800,3.608345703125,-0.20872224541306494,1.916004302203655,0.9999711150422692
1789317363751300400,3.61830029296875,-1.0373708713710308,-4.907866150560975,-0.3760662227878347
1789317363761255200,3.628255126953125,1.7525252200961112,-0.5392670359432697,-0.3199292884916067
1789317363771210500,3.63821044921875,3.778546478810906,-3.1943495832949873,-0.954866191163659
1789317363781165300,3.648165283203125,3.453537695097923,0.6383131011068821,0.007630567943677306
1789317363791120400,3.658120361328125,3.057214902755618,1.7456138332724571,0.5121235929518938
1789317363801075200,3.6680751953125,-0.9884580796420573,-2.830532637760043,-0.9728993490476161
1789317363811030300,3.6780302734375,-2.2645634728521107,2.6295398175552487,-1.395746210373938
1789317363820985300,3.6879853515625,-5.345920298695564,1.3945607999816536,-1.2878233035326003
1789317363830940200,3.697940185546875,-3.6412463785767555,2.6462279175058008,1.098490525983274
1789317363840895500,3.7078955078125,-0.9375076446056365,1.8139391814798116,2.1187800603024662
1789317363850850300,3.717850341796875,-3.436911554467678,-3.076539780950546,1.2446075544014572
1789317363860805400,3.727805419921875,0.16038111609220504,2.868272878089547,2.359009789135307
1789317363870760200,3.73776025390625,1.5139286454230545,-0.21119126587510106,1.18431134500131
1789317363880715300,3.74771533203125,2.676865340092778,-0.6418868679404258,-0.08811945134922862
1789317363890670300,3.75767041015625,3.7863019152432678,1.5112468589931725,-0.015211305396258831
1789317363900625200,3.767625244140625,-0.06847147867977618,-1.4419301616609095,-0.6720270085297525
1789317363910580500,3.77758056640625,-1.2563900543928146,1.9133418049961328,-0.4112423482503742
1789317363920535300,3.787535400390625,-2.7337784829258918,-0.3747919285356998,-0.26112678824793545
1789317363930490400,3.797490478515625,-3.178936325585842,0.38149288747906684,0.7754482200376689
1789317363940445400,3.807445556640625,-0.946589361205697,-0.700449531546235,1.3331551680348812
1789317363950400300,3.817400146484375,0.4103039714217186,-1.7021388486832378,-0.5060295869257301
1789317363960355300,3.827355224609375,2.2365333101540803,0.7966267632752656,-0.8650076410621405
1789317363970310100,3.83731005859375,3.596811609044671,1.1161299353092908,-1.1597100607734172
1789317363980265500,3.847265380859375,2.3608786517471074,-0.23419044866859912,-2.099669701641053
1789317363990220300,3.85722021484375,1.1087111834853887,-1.1576619691371917,-1.5153355896115301
1789317364000175400,3.86717529296875,-1.475193548837304,-1.9314549693137406,-0.5661991742715239
1789317364010130400,3.87713037109375,-1.1869529455512762,-0.9311661666244267,1.547287309667468
1789317364020085200,3.887085205078125,0.09091887280941009,2.0258283664911985,2.7256898690164086
1789317364030040300,3.897040283203125,-1.898132545426488,0.9063970515489578,0.7842053808584809
1789317364039995400,3.906995361328125,-1.0927198336273432,0.298887669506669,-1.5510508999846875
1789317364049950500,3.916950439453125,-1.1132920815348624,-2.4920050317823885,-2.7493670972019433
1789317364059905300,3.9269052734375,1.8486732257306575,0.2271013671904802,-1.483571208821237
1789317364069860000,3.936860107421875,2.6424405079215765,0.04646306048929691,-0.8738857248488813
1789317364079815400,3.9468154296875,2.3017355579048395,-2.475902038243413,-0.3641205315914005
1789317364089770200,3.956770263671875,3.1878795104980466,1.3487281463503837,-0.22782471302896737
1789317364099725300,3.966725341796875,-0.4668962117373943,-1.8629869977653026,-1.4436813892424105
1789317364109680400,3.976680419921875,0.20337620820999144,3.9969308710604903,-1.6104641890704632
1789317364119635500,3.986635498046875,-4.3605023174017665,-1.0177437953591346,-2.0452496907979247
1789317364129590300,3.99659033203125,-2.882252303603291,-4.163252483117581,-0.6319290991581976
1789317364139545000,4.006545166015625,0.082474285069108,2.319333173915744,0.7957724845334887
1789317364149500400,4.01650048828125,-2.6765193031340835,-0.06731120272874831,-0.7449170343041419
1789317364159455200,4.026455322265625,2.8416823928058146,4.459244431182742,-0.7673742191754281
1789317364169410300,4.036410400390625,1.5080816729605198,-5.014469499236345,-1.9910905228480695
1789317364179365400,4.046365478515625,1.5896891120672225,-1.1448825670629739,-1.691663778028637
1789317364189320400,4.056320556640625,3.0093875681757924,0.7653063268601894,-0.9437206008363515
1789317364199275300,4.066275146484375,0.20444412970244882,-3.9002982967793938,-0.4050927761120722
1789317364209230300,4.076230224609375,2.4935697968810797,3.5246459520220754,0.947177463291958
1789317364219185400,4.086185302734375,-1.4979466479152441,-1.706372540730238,-0.038071883436664934
1789317364229140200,4.09614013671875,-1.0342793350964783,0.05330664277374744,-0.7695746518291533
1789317364239095300,4.10609521484375,-1.1147533862590788,2.869992541489005,-0.7956167094498873
1789317364249050400,4.11605029296875,-4.4763533868938685,-0.8190437622666359,-1.0524517553206532
1789317364259005200,4.126005126953125,-1.2010627194464205,2.7331004375338552,0.03911313611790537
1789317364268960300,4.135960205078125,-1.9341887781918048,-4.574931250023842,0.29177659539245066
1789317364278915300,4.145915283203125,0.5956161151528359,0.36465164279341694,1.2974224681355058
1789317364288870400,4.155870361328125,2.0415666183710095,2.3967910921275615,0.5057025469284504
1789317364298824200,4.16582421875,1.5904168418198823,-0.8642460090398788,-0.5990240604327991
1789317364308780500,4.175780517578125,3.5630700829625126,2.229755778843164,-0.016420571588166056
1789317364318735400,4.1857353515625,1.144848664793372,-4.827853287169337,-0.08234521532934158
1789317364328689400,4.195689453125,0.48062779996991156,2.1894822206437587,1.3392151987262069
1789317364338644200,4.205644287109375,-1.933727590420842,2.0170985320687294,0.857761030934751
1789317364348599600,4.215599609375,-4.239014118805527,-0.9687205289930104,0.5004710394831374
1789317364358554400,4.225554443359375,-2.1982307597666977,0.8985895926684141,1.9143033435046672
1789317364368509200,4.23550927734375,-1.4722142407655716,-2.432139468884468,0.5367555280463769
1789317364378464300,4.24546435546875,-0.6510416497766971,2.2023861258804796,-1.0763764554612338
1789317364388419300,4.25541943359375,2.441675358992815,2.0317846445471046,-0.4313823787530884
1789317364398374400,4.26537451171875,2.7940000196546313,-0.22519699487388134,-0.5650530729763209
1789317364408329200,4.2753291015625,0.28400398862957954,-3.6826059784471985,-2.342384086896479
1789317364418284500,4.285284423828125,0.33376141448915003,-1.607271530508995,-1.0568396880812942
1789317364428239400,4.2952392578125,0.8120219008058309,2.0749661991477013,0.5611384202832356
1789317364438194200,4.305194091796875,-2.4623235947459934,0.5706219591498375,0.46195765935666855
1789317364448149200,4.315149169921875,-1.8889380161017177,-1.5426777700453995,-0.6881121741510927
1789317364458104300,4.325104248046875,-0.647574850448966,-0.1791045212626457,-0.6512962821248919
1789317364468059400,4.335059326171875,-0.9842956992655992,1.027683590093255,-1.1643473651852458
1789317364478014200,4.34501416015625,-0.5041279180228709,0.8501186994880437,-2.0886187307946384
1789317364487969300,4.35496923828125,1.1771826621651649,2.059942233017087,-1.240904023708403
1789317364497924400,4.36492431640625,1.4453589670658111,-1.7497873195648193,0.014706095820479093
1789317364507879200,4.374879150390625,1.6579501628667115,-2.897095067948103,1.8332186130978165
1789317364517834500,4.38483447265625,2.0147008232772348,-2.5543875459372996,1.5703274089932442
1789317364527789300,4.394789306640625,0.588000963973999,4.760803950247168,1.469686914245039
1789317364537744400,4.404744384765625,-0.3033428953498602,2.585142749685049,0.2723887714965269
1789317364547699200,4.41469921875,-2.7944845883011817,-2.4289438877135514,-0.3003443711210042
1789317364557654300,4.424654296875,-1.8880746772706507,-0.6765536921739578,1.2440718400895594
1789317364567609300,4.434609375,-6.749639095383882,-0.24544658669829367,1.0276925040520728
1789317364577564200,4.444564208984375,-5.9711190666854375,3.891506503036618,1.220086495802924
1789317364587519500,4.45451953125,-1.4657804083257913,-5.42841621107459,1.795285480544716
1789317364597474300,4.464474365234375,4.654576449146867,-4.114958115547895,2.061528625425696
1789317364607429400,4.474429443359375,12.83241704056859,-0.9275859700500965,1.0277278676263988
1789317364617384400,4.484384521484375,17.915666061520575,3.7390976809978484,1.1256898638803512
1789317364627339300,4.49433935546875,4.422082283002138,7.7466288565278045,0.29760321918670085
1789317364637294300,4.50429443359375,-12.273423559892176,-13.66547646870613,-7.849411770132184
1789317364647249200,4.514249267578125,-4.4644291403442615,-9.98884430397153,0.5609892941361293
1789317364657204500,4.52420458984375,4.75662228064835,-2.4250121012225745,6.026549277484417
1789317364667159300,4.5341591796875,1.5662030225396155,8.350649227410555,2.3231378268957137
1789317364677114400,4.5441142578125,-9.075663875892758,13.748966068297623,1.0789230712041258
1789317364687069400,4.5540693359375,-4.417182820522785,-5.062174668741226,-0.7035612338259816
1789317364697024300,4.564024169921875,-10.260091686880587,-5.930278522253036,3.286058145177364
1789317364706979300,4.573979248046875,2.734365342903137,-2.1677777538359164,1.4431683251537382
1789317364716934100,4.58393408203125,3.3226001156330107,-0.3259422651708126,-2.1310813234709203
1789317364726889500,4.593889404296875,7.87107122875452,3.7774680359244344,-0.09567943827472626
1789317364736844300,4.60384423828125,9.975553445243834,-1.2826222277581691,1.5908680927187204
1789317364746799000,4.613799072265625,4.602715913528204,0.06299450857341289,1.3271071200422941
1789317364756755000,4.6237548828125,-5.639048674023151,-0.9416472286283969,-1.4393166181616484
1789317364766709800,4.633709716796875,-4.9138335345327855,1.5329332056224345,-0.5249743066966533
1789317364776664800,4.643664794921875,-7.626239559084176,1.8373402230724691,2.8271333507105707
1789317364786619600,4.65361962890625,-7.272866850674152,-3.0090985221013424,1.4669433146253228
1789317364796574700,4.66357470703125,-2.1271832931190726,5.416842093136906,2.292413018286228
1789317364806529800,4.67352978515625,1.8374650184959171,3.6524569238990545,1.645267499165237
1789317364816484600,4.683484619140625,3.6001211719840764,3.9751884103298183,0.4376466633122414
1789317364826440000,4.69343994140625,4.158932281830906,1.2806500509023666,-0.7488567118406295
1789317364836394800,4.703394775390625,4.8033588973820205,-4.057427133077383,-1.631753353075683
1789317364846349800,4.713349853515625,1.0109884758800267,-3.1604233482956885,-1.9326827575430272
1789317364856305000,4.723304931640625,-2.7642192138969897,-1.9108149168670177,-2.195747710779309
1789317364866259700,4.733259765625,-1.1114473304510115,5.928473518657684,-0.457193148368597
1789317364876214800,4.74321484375,-4.492980112046003,0.5490978173449635,1.3187258067965506
1789317364886169600,4.753169677734375,0.002210077264904976,-6.296438816043734,1.2398229504734277
1789317364896125000,4.763125,0.2416232290178537,-1.8173025204330682,0.2002913939371705
1789317364906079700,4.773079833984375,-0.028525252738595006,6.111966045746207,-0.0012803221341222523
1789317364916034800,4.783034912109375,4.2982483980625865,4.495277867594361,-1.0702880754582584
1789317364925990000,4.792989990234375,1.1179624114334583,-3.960777023139596,-0.5578016405433416
1789317364935944700,4.80294482421875,1.6741723988711832,-5.252162987589836,0.019894348645955323
1789317364945899800,4.812899658203125,5.335854831755161,-0.4336263948202133,0.9059485040638595
1789317364955854800,4.822854736328125,-2.7868682680785652,0.7655284451782703,2.9187650479644534
1789317364965810000,4.832809814453125,0.05933598606586456,3.148712159974873,1.9758483839221297
1789317364975764700,4.8427646484375,-3.2592221606999634,0.38527211375683545,-0.1668907171819359
1789317364985719800,4.8527197265625,-7.936988931298256,-1.239999476084113,-1.314961778087914
1789317364995675000,4.8626748046875,0.08707622590661049,-1.1810755779504776,-0.5601530990403145
1789317365005629700,4.872629638671875,-0.7027858655393123,-1.419357095324993,-1.478904970575869
1789317365015584800,4.882584716796875,4.008874406832456,2.6153192767620084,-1.1784766474984585
1789317365025539800,4.892539794921875,2.232466206845641,0.582885228395462,-0.7754743773922324
1789317365035495000,4.902494873046875,3.1229099024593827,-0.3465384784758091,-0.826772018431127
1789317365045449700,4.91244970703125,1.2131330964684486,0.035980829441547395,-1.1361208031322807
1789317365055404500,4.922404541015625,-4.46215651923716,-1.9084069789424538,-2.2277301182344553
1789317365065360000,4.93235986328125,-3.522762037971616,0.05321633414179086,-0.8929764289617538
1789317365075314700,4.942314697265625,-2.485193013679981,-2.655083716395497,0.3695929716531187
1789317365085269800,4.952269775390625,3.223825268626213,2.4638334147870538,1.2264400295481086
1789317365095224800,4.962224853515625,5.616246475106477,-0.13620470621287822,-0.03383300375789404
1789317365105180000,4.972179931640625,4.073329635608196,-0.7726993597209453,-1.4862683389507234
1789317365115134700,4.982134765625,-0.11418985828161239,3.3571757544517515,-2.337280334016681
1789317365125089800,4.99208984375,-2.7203601984262464,-6.368689228740334,-3.413714803275466
1789317365135044900,5.002044921875,-3.9853082378059623,-3.4484839188396927,0.8307226557530463
1789317365144999700,5.011999755859375,3.803075939911604,-1.4708356458887457,2.6165552482977508
1789317365154954800,5.021954833984375,2.4232863003432747,2.2444664412409066,2.7675115334406493
1789317365164909800,5.031909912109375,-0.07804653175473213,9.603434535309672,0.9232822815068066
1789317365174865000,5.041864990234375,-3.392442298144102,-0.9177443749934434,-3.9717385621368884
1789317365184819700,5.05181982421875,-7.873558369395137,-5.537646985644102,-2.4532559066712856
1789317365194774800,5.06177490234375,1.341763568034768,-2.87216520935297,2.20415722720623
1789317365204729900,5.071729736328125,2.0703817939668894,-3.6203035437911746,1.1712849093634634
1789317365214684700,5.0816845703125,2.01461665212512,5.4015872408598655,1.740923337368667
1789317365224640000,5.091639892578125,4.954591076856851,2.81030291967988,1.2528352845206856
1789317365234593800,5.10159375,-0.4136223021894693,-1.8277911812216043,-0.9980666696604341
1789317365244548900,5.111548828125,0.5136930342257022,-4.859934186562896,-2.958004002419114
1789317365254503700,5.121503662109375,-2.283147177290916,-0.9050783701658248,-0.8436269263159483
1789317365264459000,5.131458984375,-1.2741536746203899,5.2309851750046015,1.6293617817640305
1789317365274413800,5.141413818359375,-5.541271605882049,-0.29259236875474454,1.7557124718300998
1789317365284368600,5.15136865234375,-2.3943314240157605,-1.8824422243416308,2.736759836824238
1789317365294323700,5.16132373046875,1.8993664711356162,-0.42332244294881816,2.6630153861775994
1789317365304278800,5.17127880859375,1.812099106571078,4.971756731191277,2.2269912825658915
1789317365314233900,5.18123388671875,1.4005255536049603,5.229508672711253,0.17056304901912808
1789317365324188700,5.191188720703125,-0.8192050903081893,-0.09655366382598876,-2.2162787498936054
1789317365334144000,5.20114404296875,-2.8326836783140896,-6.241852654853463,-1.6155210340686141
1789317365344098800,5.211098876953125,-2.019139097985625,-3.5206320402055975,0.7171651040256023
1789317365354053600,5.2210537109375,1.2833376825511456,0.8649725697487592,2.7265257353186607
1789317365364008700,5.2310087890625,3.727873107150197,3.418908280265331,3.152925393755734
1789317365373963800,5.2409638671875,1.839862142765522,0.9612795653373002,0.8144214362282306
1789317365383918800,5.2509189453125,-0.14710370136797427,-0.12067395960390567,-1.6770318799555302
1789317365393873700,5.260873779296875,-4.602730526575446,-0.2809218047052622,-4.697622394669056
1789317365403828700,5.270828857421875,-6.439449110618233,-0.7140542785286903,-4.1375063397035
1789317365413783800,5.28078369140625,-1.3547007910192013,-0.44725335363447666,1.4295764376528561
1789317365423738600,5.290738525390625,2.5102275016933677,-0.24305004695057866,2.605012402281165
1789317365433694000,5.30069384765625,2.8909488202780484,-0.5099380656063557,1.412281165589392
1789317365443648800,5.310648681640625,5.874866431632638,1.1440443626731633,0.46350306216776366
1789317365453603800,5.320603759765625,6.7475032523989675,1.1507406454414129,-1.146624807620421
1789317365463558700,5.33055859375,4.020445602160692,-0.2282347551345825,-3.5623844387859105
1789317365473513700,5.340513671875,-0.4088958581894636,-0.4651449841558933,-3.9889503937005992
1789317365483468800,5.35046875,-3.6748388515770434,-4.399299957829713,-0.932823870703578
1789317365493423600,5.360423583984375,-5.701830416628718,-0.17339900309741496,3.620999124839902
1789317365503379000,5.37037890625,-2.073673236727714,1.2028455112099647,5.397042583167552
1789317365513333800,5.380333740234375,-0.11494681412875651,1.5434592758119106,4.870598788440227
1789317365523288800,5.390288818359375,1.897574327021837,3.9117227771133183,2.8703064297437666
1789317365533244000,5.400243896484375,-0.3245125246286392,-2.009036221644282,-1.0447638311665504
1789317365543198700,5.41019873046875,1.5553934592336416,-3.782149471738934,-2.9764404073417183
1789317365553153800,5.42015380859375,3.5311095950782296,-2.677189749741554,-1.623530591392517
1789317365563108600,5.430108642578125,2.9870880580842494,-5.638108178302645,0.5299302486035973
1789317365573064000,5.44006396484375,5.268366518893838,3.049674570378661,3.466495376348495
1789317365583018800,5.450018798828125,2.62913562066853,-0.17265782934129237,3.006823855167627
1789317365592973800,5.459973876953125,-2.536219436562061,0.6293246157482266,1.2920131564378738
1789317365602929000,5.469928955078125,-3.549039219522476,-3.0082281690075994,-0.7337511318411678
1789317365612883700,5.4798837890625,-4.328177087858319,-4.15486050234735,-1.223377865498513
1789317365622838800,5.4898388671875,-1.1218676021784544,5.1088651082456105,0.5255713958069682
1789317365632793600,5.499793701171875,-0.5038496856033802,0.7495213132292032,0.4332607033129781
1789317365642749000,5.5097490234375,0.8483131113708019,2.1496312717705965,1.561671808850765
1789317365652703700,5.519703857421875,-0.2198737540245056,-0.8171773838728665,1.2344602543964982
1789317365662658800,5.529658935546875,-2.515337392053008,-0.28121552695482965,-0.29102058939337727
1789317365672614000,5.53961376953125,-0.04981763161420822,3.8449250768646595,-0.8517281074460595
1789317365682568700,5.549568603515625,-1.3299176474183798,-1.3617346351787447,-0.8781769192367792
1789317365692523800,5.559523681640625,-0.020483400580286977,3.6751316970437764,0.06140884681716561
1789317365702478800,5.569478759765625,-2.3154975412756205,-1.6605325805753468,-1.1462004447285086
1789317365712434000,5.579433837890625,-0.32730770830512046,0.3097913408368826,-0.34243235833123326
1789317365722388700,5.589388671875,2.1184832693129776,2.0428706867069004,0.7314154554352164
1789317365732343600,5.599343505859375,1.3616431575030088,1.3039496779471635,-0.06392345998659729
1789317365742299000,5.609298828125,2.6484716047793624,1.0396119282960892,-1.2059711689498276
1789317365752253400,5.61925341796875,0.510496868532896,-5.005909760683775,-2.1808890182130036
1789317365762208500,5.62920849609375,-0.1053051255583763,2.661891642844677,-1.2693243547677993
1789317365772163600,5.63916357421875,-1.9520523516625166,3.0522137334674593,-2.0120633143804967
1789317365782118700,5.64911865234375,-3.1719150486469267,0.9673024788886309,-1.1156708664301782
1789317365792073500,5.659073486328125,-0.9121487469434738,-0.9713982237696647,2.0082099999532104
1789317365802028500,5.669028564453125,1.014829953739047,-2.6293185760200024,1.4187328259468077
1789317365811983600,5.678983642578125,-1.4330647181600331,1.906338063713908,-0.35312969343438744
1789317365821938400,5.6889384765625,1.3041753033965826,1.8660013771504163,-1.3300219845756887
1789317365831893500,5.6988935546875,0.13819500324726103,1.0611462992340326,-1.5455382740430532
1789317365841848600,5.7088486328125,-0.1907563806116581,-1.3771394173204898,-1.6130588817387819
1789317365851803600,5.7188037109375,0.5779734909564256,-4.973479901722073,-0.13658311107121407
1789317365861758500,5.728758544921875,1.6280314099431037,-0.7318781045109033,2.1435206799358126
1789317365871713500,5.738713623046875,1.5602309623926878,0.6578519143134355,1.8558662059746682
1789317365881668600,5.748668701171875,-0.16257307317852973,-0.4867208561480045,0.5616531648723408
1789317365891623400,5.75862353515625,1.0109019666403531,0.32954292001128194,-0.6127186776557937
1789317365901578500,5.76857861328125,-2.306567215844989,-2.2214070526927707,-0.4637719422370195
1789317365911533600,5.778533447265625,0.7498240955680608,0.06378419764637946,1.2180468797340989
1789317365921488600,5.788488525390625,-0.35944822893142697,-1.8398335011929272,0.8722925373733044
1789317365931443500,5.798443359375,-3.0017408528149128,-1.0298223556876183,0.7123729743782431
1789317365941398500,5.8083984375,-1.75640702996552,4.074743009537459,0.7458185131885111
1789317365951353600,5.818353515625,-7.408700970008969,-1.4238941542327403,-0.5233118899097666
1789317365961308400,5.828308349609375,-0.6637766281872988,-0.9691501525819302,0.9439670498780905
1789317365971263700,5.838263671875,4.35585244576931,-4.27257970379889,0.4345760967604816
1789317365981218600,5.848218505859375,5.90753711361289,-5.505075087863206,-0.3041067923944443
1789317365991172600,5.858172607421875,12.412221789729594,5.673154941764474,1.9322035957239567
1789317366001127400,5.86812744140625,8.037899036768078,4.781213701069355,-0.2232033003060147
1789317366011082500,5.87808251953125,-5.097636442744732,-4.032444667512178,-4.9016596971362825
1789317366021037600,5.88803759765625,-6.028487552070617,-6.655779492947459,-1.5831109027206898
1789317366030992400,5.897992431640625,-3.0696202108204362,-3.0614588239356872,2.863392120310664
1789317366040947500,5.907947509765625,-4.248597939708828,2.382664367097616,1.2075373222880064
1789317366050902500,5.917902587890625,-3.2685639895409344,3.7648102144032713,1.326304717618227
1789317366060857600,5.927857666015625,1.8117028007298708,5.330846063682436,1.1227472345571965
1789317366070812400,5.9378125,-0.5881500170558691,-1.358774324068427,-2.4286615636408326
1789317366080767700,5.947767822265625,-2.3230799592286346,-1.6584522671699522,-4.345876118417084
1789317366090722600,5.95772265625,5.359778728178143,0.16484569428563117,-1.9595314553715288
1789317366100677400,5.967677490234375,4.414374192842841,-6.981003965237736,-0.7461421191196889
1789317366110632400,5.977632568359375,3.194931767097115,1.166799799838662,1.2483186838790774
1789317366120587500,5.98758740234375,0.49643034925758833,3.479820137345791,0.6226251911748201
1789317366130542600,5.99754248046875,-2.4431121137976644,1.53217683429718,-2.2292761786326767
1789317366140497400,6.007497314453125,-4.699554824036359,-1.4201231112614274,-1.684229828635603
1789317366150452700,6.01745263671875,1.2276456059455871,-3.1460651525974273,-0.506205601079762
1789317366160407600,6.027407470703125,-1.2080436643749475,2.7986633352905512,-0.5246474858950824
1789317366170362400,6.0373623046875,-1.1595166570931672,0.8783300639718771,-2.1415704226508736
1789317366180317700,6.047317626953125,0.5143821855336428,2.513703653371334,-0.003708133802935481
1789317366190272500,6.0572724609375,0.8332949904590845,0.7072311545103788,3.0973616197049614
1789317366200227600,6.0672275390625,3.597491992524266,-1.7037544671863316,2.7896336411386726
1789317366210182400,6.077182373046875,5.380681230953336,3.026702860113978,2.1987211736321446
1789317366220137500,6.087137451171875,-8.908421057337522,-0.530866579605639,-0.25751243367567656
1789317366230092500,6.097092529296875,-3.5555566385924813,0.737552058494091,-2.4249732305169105
1789317366240047400,6.10704736328125,-5.2770729724407195,-1.2009236032366752,0.042077392750978465
1789317366250002700,6.117002685546875,-0.9940256506413221,-0.32702830684185025,2.33088025771603
1789317366259957500,6.12695751953125,1.0246382310479878,0.41896366321742534,2.3795607019938525
1789317366269912600,6.13691259765625,-0.24187457343041896,-0.13581541463434696,0.8667655175801366
1789317366279867400,6.146867431640625,5.799353217747807,-2.219350120162964,2.1989589279107746
1789317366289822500,6.156822509765625,7.084124732494354,0.4265764763087034,3.2922976240888238
1789317366299777500,6.166777587890625,4.649840652796626,4.13078287666738,0.08808876395002006
1789317366309732400,6.176732421875,-6.704180828022957,0.947241979895532,-2.8734231004595756
1789317366319687700,6.186687744140625,1.340997259837389,0.018022271163761615,-2.226841352701187
1789317366329642500,6.196642578125,-3.1242016958355903,-3.6863673768073317,1.5237456905603408
1789317366339597600,6.20659765625,-4.187271072086691,-1.0094751487076281,0.31353768775835633
1789317366349552600,6.216552734375,-6.705752607384324,5.092056596785784,-1.3250856972172855
1789317366359507500,6.226507568359375,-1.7329273701786994,2.5088316634207963,-0.13973916394934058
1789317366369462500,6.236462646484375,2.8064953440904614,-2.82016848013401,2.0510615919470787
1789317366379417300,6.246417236328125,7.549270301172137,-1.3013906411141156,1.2716137808792292
1789317366389372700,6.25637255859375,4.998433725714683,0.0920382322281599,-0.28500067151673136
1789317366399327500,6.266327392578125,-4.42675962716341,1.1683435221493244,-1.844958881382644
1789317366409282600,6.276282470703125,3.485945926749706,-2.5386130537003275,-1.295173958556354
1789317366419237600,6.286237548828125,-1.5404215155512093,-1.8723399325221777,3.691371176443994
1789317366429192400,6.2961923828125,2.77712428817749,-2.7240897403433917,2.4481679358825086
1789317366439147500,6.3061474609375,-2.6508009245097637,-0.21540508417785167,1.099737165043503
1789317366449102600,6.3161025390625,-4.235507571989298,2.110501038387418,1.0276950613353402
1789317366459057700,6.3260576171875,3.3183407046228646,-0.008727496334910392,1.2388938529297708
1789317366469012500,6.336012451171875,-2.426568975275755,-2.012420018863678,1.5041691756919024
1789317366478967600,6.345967529296875,1.2478449288874864,-7.504787600845098,-1.2424041991382837
1789317366488922600,6.355922607421875,3.1763392948299645,-0.22495558733344076,-0.05695325564779341
1789317366498877400,6.36587744140625,3.387017350485921,5.186597751745581,1.4084481632977723
1789317366508832500,6.37583251953125,3.458347725728154,-2.85122120552361,0.35102198056541384
1789317366518787600,6.38578759765625,-1.6837153032422065,1.4223229593932627,-0.2860767763156444
1789317366528742700,6.39574267578125,-6.98920246926248,-5.679295344215631,-3.2119924997523426
1789317366538697500,6.405697509765625,-4.706219542622566,2.5082097321301697,1.02049397085011
1789317366548652300,6.41565234375,1.6831167528271673,1.5025199471801518,3.0516485008001326
1789317366558607600,6.425607666015625,-1.2367471962898968,-3.0728584620893,0.7538013286359607
1789317366568562400,6.4355625,2.9911446399986743,1.0144956072181464,0.7561427771955728
1789317366578517500,6.445517578125,5.167641122341156,-1.4160539621263741,0.8866274983264505
1789317366588472600,6.45547265625,6.039771747151017,5.140552624407411,-0.06240954829230904
1789317366598427600,6.465427734375,1.557488970208168,0.150793203535676,-2.284539216171205
1789317366608382500,6.475382568359375,-3.3979543395638463,-5.453733023160695,-2.6615286547511814
1789317366618336500,6.48533642578125,-2.523592010179162,-0.3847480898827314,-0.12148644503057002
1789317366628291600,6.49529150390625,-3.1874107239425182,1.7741531145364045,2.49469704734534
1789317366638246700,6.50524658203125,-0.898625248503685,9.959629899924993,3.2132986139148474
1789317366648201500,6.515201416015625,-5.053770413011312,0.14541530988961457,0.13429792274348437
1789317366658156500,6.525156494140625,-4.918920044016838,-1.6478490400910377,-1.1225464512880892
1789317366668111600,6.535111572265625,-2.1560884850859643,-0.30641163527071474,-0.21127901722379028
1789317366678066400,6.54506640625,1.130788575258851,0.9294622853159904,0.43556773814633487
1789317366688021500,6.555021484375,2.8685809211254116,0.1384931094110012,1.049572765818238
1789317366697976600,6.5649765625,4.169208761173486,-2.0554238788098096,0.624388182259351
1789317366707931400,6.574931396484375,4.653676285436749,-2.921759553605318,-0.02928973430506885
1789317366717886500,6.584886474609375,6.372101083010435,2.137441067761183,0.37611952387765046
1789317366727841500,6.594841552734375,-2.362220129483938,7.540795318293571,-0.9674604459293186
1789317366737796600,6.604796630859375,-9.248020676460861,-2.0902023467242716,-4.575591759759187
1789317366747751400,6.61475146484375,-6.936599006322026,-8.713148660606146,-0.4881130411587655
1789317366757706200,6.624706298828125,-0.1582651468515396,-1.36882108630836,2.216193701958656
1789317366767661300,6.634661376953125,-0.3294792071253061,5.196294385373592,0.9739645671263336
1789317366777616400,6.644616455078125,2.75582547956109,4.7253030132770535,0.6806423497270793
1789317366787571200,6.6545712890625,5.037602537542582,-0.6986930432677269,0.5465802815660834
1789317366797526300,6.6645263671875,3.3523248072892424,-6.116514210569858,-0.8020477654106914
1789317366807481300,6.6744814453125,6.402523109281063,-1.501995631045103,-0.6493681636065244
1789317366817436200,6.684436279296875,3.3535932197898624,2.9887440085977315,-0.33515323417373
1789317366827391500,6.6943916015625,-6.05354892809093,-0.13945757052898405,-2.431573943956196
1789317366837346300,6.70434619140625,-4.289585783657431,-2.0981948067829013,-1.987195853497088
1789317366847301000,6.714301025390625,-5.584214091029763,-3.5999086982771753,1.6252777273207901
1789317366857256200,6.724256103515625,3.5017981603980064,1.278245327848196,2.4173117559783157
1789317366867211300,6.734211181640625,-3.4505741691172123,3.529322711661458,1.1309854860704391
1789317366877166300,6.744166259765625,1.490973301771283,0.1852402475386858,-0.9688433516550808
1789317366887121200,6.75412109375,3.9408910039305685,-2.335382975962758,-0.5688070186823606
1789317366897076500,6.764076416015625,0.6189660110801458,-2.4512790536403655,-2.037048264163732
1789317366907031300,6.77403125,2.603181679722667,1.7630518748074768,-4.623602634212374
1789317366916986000,6.783986083984375,-1.1811463050991295,-2.502107323601842,-3.943208048701286
1789317366926941400,6.79394140625,1.1358148789882658,0.715417968097329,-0.13861096363700925
1789317366936896300,6.803896240234375,1.527018428620696,-2.4840175401598215,2.2850790221363306
1789317366946851300,6.813851318359375,2.208028515681624,0.038951369684934616,3.1221909405350683
1789317366956806100,6.82380615234375,-0.45455110942721366,5.102993585863709,0.920122721497342
1789317366966761500,6.833761474609375,-6.352156027090549,3.59951736087203,-2.4804937499478457
1789317366976716300,6.84371630859375,-3.0926620637118813,0.12839198663532733,-1.159115967337787
1789317366986671000,6.853671142578125,-3.1531688471227883,-11.040991888713837,-1.139387695973739
1789317366996626400,6.86362646484375,-1.5061632721185683,-0.1587356869727373,-1.9063852638565002
1789317367006581200,6.873581298828125,1.8493612079948185,5.840348075959086,1.1906170940820127
1789317367016536300,6.883536376953125,5.42300821455121,1.9356980137109756,2.1586989598453044
1789317367026491100,6.8934912109375,3.7625218112051484,0.36604046680331226,0.8857749731503427
1789317367036446200,6.9034462890625,-0.5334919596731662,-7.172202244397997,-1.1936682252809405
1789317367046401300,6.9134013671875,-4.564561831700802,0.903362213897705,-0.9455923129923641
1789317367056356000,6.923356201171875,-2.244582761096954,-0.9102268389701843,-0.36144371359758076
1789317367066311400,6.9333115234375,-2.8204367756813764,-1.9009674765914677,0.7521127179618925
1789317367076266200,6.943266357421875,3.069844667226076,-1.514097572249174,1.2193324625652282
1789317367086221300,6.95322119140625,6.906928090679645,0.7768675853163004,0.5047893776062876
1789317367096176400,6.96317626953125,3.8826287845760583,6.434280768069624,0.33666853410750625
1789317367106131200,6.973131103515625,-0.06227203951776027,0.20655834537744522,-2.1518096387229857
1789317367116086300,6.983086181640625,0.28884266083240506,-4.639337378960848,-2.5124992460176347
1789317367126041000,6.993041015625,-5.63953674980104,-2.579334940189123,1.8887842868447302
1789317367135996400,7.002996337890625,1.7203087116241453,2.8146625761941073,3.26892639311254
1789317367145951200,7.012951171875,-4.075156266513466,3.3090918147623536,2.2642148055449125
1789317367155906300,7.02290625,-0.07992343154251574,2.022972100277245,0.21679434657916424
1789317367165861400,7.032861328125,-1.2234767958283423,2.7076690591573715,-0.4326583535056561
1789317367175816200,7.042816162109375,-1.3239350658774376,0.8174760745584965,-0.9258580502789467
1789317367185771300,7.052771240234375,-1.7783301079601048,-2.66076643820703,-0.9624017012350261
1789317367195725300,7.062725341796875,-0.8771282869666814,-1.4472995797395705,1.6903423201665282
1789317367205680400,7.072680419921875,1.0270412005364895,-1.891888098078966,3.6465094136714935
1789317367215635200,7.08263525390625,1.1743711118757725,-2.861475473034382,3.8786277322411533
1789317367225590300,7.09259033203125,5.623232680732012,0.742277917972207,2.706034151431918
1789317367235545300,7.10254541015625,7.089665415486693,4.076204314261675,0.3924368177544325
1789317367245500400,7.11250048828125,-2.8277117351204155,3.5404105073869228,-3.159340521495044
1789317367255455200,7.122455322265625,-3.96207524625659,-3.1153128714591265,-6.3075757116079325
1789317367265410300,7.132410400390625,-0.6782260093003512,-5.578093562322855,-0.9015488808654248
1789317367275365400,7.142365478515625,-0.7962164289087057,-1.9498650707513092,3.883319104927778
1789317367285320200,7.1523203125,0.9201824157953262,4.127878971919417,3.069980860826373
1789317367295275300,7.162275146484375,-0.41919688745141026,6.094972240847349,2.3581053876414892
1789317367305230300,7.172230224609375,-0.7894564332544803,-1.4045859349116683,-0.21387312537021932
1789317367315185400,7.182185302734375,-5.094537892207503,-3.364669909599423,-2.0795272234529256
1789317367325140200,7.19214013671875,-0.6629191345751285,-4.618001160943508,-2.056842805697024
1789317367335095000,7.202094970703125,1.3783330110192298,1.5368272904515266,1.1539134302586316
1789317367345050400,7.21205029296875,2.8235937784075738,-0.2504167763262987,2.593288939000666
1789317367355005200,7.222005126953125,1.829731209373474,-0.7425958978801965,2.7987618272289634
1789317367364960300,7.231960205078125,2.4078935009002684,-0.035119828698039056,1.8846644304357467
1789317367374915300,7.241915283203125,1.2621616235315798,0.3953279360860586,0.5129545638833195
1789317367384870400,7.251870361328125,-1.2275520824432373,-2.2950340144395827,-0.3160158413749188
1789317367394825200,7.2618251953125,-1.9252666360676287,-7.731078236174583,-0.7317534552179277
1789317367404780300,7.2717802734375,0.7437795547068119,2.5598072328984736,0.8109495223339647
1789317367414735400,7.2817353515625,1.424446527418494,1.2923901730567215,0.921533976534754
1789317367424690200,7.291690185546875,2.7537773148596285,1.6864263157665729,0.7601008671715855
1789317367434645200,7.301645263671875,1.4071639687061308,1.3665432045042514,-0.5865973807863891
1789317367444600300,7.311600341796875,-1.1832166816323995,-3.942573842450976,-2.0797098865434527
1789317367454555400,7.321555419921875,-1.1213503003060816,1.5498387477159499,-0.3288121215187013
1789317367464510200,7.33151025390625,-2.855861724805832,-5.173627211013436,-0.755132942565903
1789317367474465300,7.34146533203125,-3.1164924366325137,7.838574149775504,0.3494616724461317
1789317367484420400,7.35142041015625,-0.3253361159712076,7.020234736385941,0.4395524969335645
1789317367494375200,7.361375244140625,-1.7113713719308374,-3.7547768961668013,0.7329726217493414
1789317367504330500,7.37133056640625,3.588922317099571,-3.9638586225420234,1.4551725050717592
1789317367514285300,7.381285400390625,4.9253708275914185,-4.56223426553607,0.1865081485826522
1789317367524240100,7.391240234375,1.133257595720887,6.8619625752717255,0.04933372055478394
1789317367534195200,7.4011953125,4.132472729450464,2.1181576906204223,-2.4485671643331646
1789317367544150300,7.411150390625,-5.2876270996809005,0.1887137688681483,-0.4760489477470517
1789317367554105300,7.421105224609375,-2.230090125364065,-4.7770492748662825,1.3707044158369301
1789317367564060200,7.43106005859375,-2.8593256015241146,-2.2457649566188453,1.327503572013974
1789317367574015500,7.441015380859375,-6.772287565043568,6.104525666612386,1.171756034006551
1789317367583970300,7.45097021484375,-0.45817163801193234,3.725957044395804,1.297494948849827
1789317367593925000,7.460925048828125,-1.6483195802122355,0.8080407222151755,1.5727151809126139
1789317367603880200,7.470880126953125,0.44138416934013364,-4.834901452115178,-0.6948167863562703
1789317367613835300,7.480835205078125,3.684638361057639,-1.948955554690957,-1.0856973876446485
1789317367623790300,7.490790283203125,4.023222665658593,1.7336369797527789,-0.8547986739978194
1789317367633745200,7.5007451171875,2.665958746153116,1.177894609826803,-0.0919423706382513
1789317367643700500,7.510700439453125,-0.23072364934086798,-0.7173088964104652,0.547769564415887
1789317367653655300,7.5206552734375,-2.623131996339559,-5.371476764756441,0.0944260041475296
1789317367663610000,7.530610107421875,-0.8924854305744171,-0.04001812213361263,1.505207286567986
1789317367673565400,7.5405654296875,1.391941849654913,3.4531840593546628,2.716183205002546
1789317367683520300,7.550520263671875,0.11028349849283695,2.3039409589946267,0.7924635791812091
1789317367693475300,7.560475341796875,-1.0812649581551552,-1.0471832403331995,-1.9981533008411525
1789317367703430100,7.57043017578125,-0.37643501956760883,-1.4028718244701623,-2.1188418734923005
1789317367713385200,7.58038525390625,-1.7774106550276279,1.6504811421602963,-0.3556896070502698
1789317367723340300,7.59034033203125,1.2411603365570305,0.1804950988382101,1.5659215752497315
1789317367733295000,7.600295166015625,1.5328870283931493,-3.096230569848418,2.2167967824183403
1789317367743250400,7.61025048828125,0.785945210263133,-0.42848669384419913,2.34660638076663
1789317367753205500,7.62020556640625,0.2960387098163366,2.4143331785589455,1.018736898049712
1789317367763160600,7.63016064453125,-0.5230091441035271,2.1504572012007235,-1.904588589698076
1789317367773115400,7.640115478515625,-3.3643425773411986,-0.65204352029562,-2.4151897953882813
1789317367783070500,7.650070556640625,0.37861703978180883,-5.067012171900272,-0.5670606134064495
1789317367793025500,7.660025634765625,2.232706445342302,-2.7036142308086157,-0.15225713860839604
1789317367802980400,7.66998046875,2.2576631919443604,1.3316139299422503,0.8413537937521934
1789317367812934400,7.679934326171875,3.1071254733502864,5.899201831465959,0.6099012456148862
1789317367822889200,7.68988916015625,0.033661446583271026,-0.7399731481611729,-2.130904943990707
1789317367832844500,7.699844482421875,-3.5894290975779293,-5.263686252123117,-2.1586941375397144
1789317367842799400,7.70979931640625,2.0564865396052596,-3.4465281085968016,0.26557956640571356
1789317367852754400,7.71975439453125,-0.3703250122547149,-1.360281221500039,-0.10926051212064922
1789317367862709500,7.72970947265625,-2.156564285904169,4.955929631984233,-0.24003354867361484
1789317367872664600,7.73966455078125,-0.2353893030643463,-0.2979565261363983,-0.5444608051940798
1789317367882619400,7.749619384765625,-2.0670354061484337,-2.5248107383191583,-0.8263001631356776
1789317367892574500,7.759574462890625,2.6659727746784685,-2.1013848349958657,0.9159208858933299
1789317367902529500,7.769529541015625,4.267100980126857,-0.7520534620553254,0.8826175320327282
1789317367912484400,7.779484375,0.5384709171295166,0.4518763372600078,-0.564429607315734
1789317367922439400,7.789439453125,2.8407728767454623,-2.9287931055039165,-1.237637276997417
1789317367932394500,7.79939453125,2.3264257625252007,1.4961638561517,-0.35661139807030556
1789317367942349300,7.809349365234375,1.3773743951201438,2.826563734129071,0.023492300072684883
1789317367952304400,7.819304443359375,-2.608124981343746,1.0449415988862514,0.22504589596539734
1789317367962259500,7.829259521484375,-4.215793402215838,-1.281934245494008,0.4095557103376835
1789317367972214500,7.839214599609375,-5.419046909704804,-3.453297164340317,-0.3201128283649683
1789317367982169300,7.84916943359375,-4.588298096597194,6.290485460597276,1.5409583989068865
1789317367992124700,7.859124755859375,-1.1337386572360992,4.857382163992524,0.869556244277209
1789317368002079500,7.86907958984375,0.2610965757727623,-0.4037836297422647,0.07489077113755047
1789317368012034300,7.879034423828125,5.024109434241056,-3.306967077693343,-0.12491598108783364
1789317368021989400,7.8889892578125,6.606367519524693,-2.2695716564029453,-0.6200638893194497
1789317368031944400,7.8989443359375,2.0034177972406146,3.6074312027364965,0.8643401170641183
1789317368041899500,7.9088994140625,0.00419803621172905,2.693868497341871,-0.42662199595086275
1789317368051854300,7.918854248046875,-11.372160948622225,-1.0887985685303807,1.15774182944037
1789317368061809700,7.9288095703125,-2.5862550948411225,-6.456716471761465,4.0909412801444525
1789317368071764500,7.938764404296875,-0.8965911123275756,-0.6130228847667575,1.2381801517024635
1789317368081719300,7.94871923828125,-3.9341333463639017,4.85145861916244,-0.4422684778939932
1789317368091674400,7.95867431640625,5.186387323865294,4.298050245141983,0.33409992572851477
1789317368101629400,7.96862939453125,3.0848680488348004,-0.25463527080416676,-0.26254363277591763
1789317368111584500,7.97858447265625,1.2174614810615778,-4.005129959607124,-2.339709606990218
1789317368121539300,7.988539306640625,2.9553064338982105,-0.7577776849210262,-1.9994217133417724
1789317368131494400,7.998494384765625,2.2776778059691187,-1.1082459040611983,0.20496764211989937
1789317368141449500,8.008449462890624,0.013560323318839072,-0.5763479355812072,1.6621730412587523
1789317368151404300,8.018404296875,0.17867606671750544,0.9951774510249495,1.4514466164164244
1789317368161359600,8.028359619140625,-1.092130635562539,1.0977283094391226,-0.11045498260222375
1789317368171314400,8.038314453125,-3.5018612887620924,0.8145397288456558,-1.643703464718908
1789317368181269500,8.04826953125,-1.4856570751845837,0.9302823695272207,0.02418817338235676
1789317368191224300,8.058224365234375,0.12547989858090877,0.9660422496944665,0.03813070095181465
1789317368201179400,8.068179443359375,-0.09520224921703338,-2.88052036524415,-1.0490827172789723
1789317368211134500,8.078134521484374,1.79603819860816,-2.1564269232600926,0.9072400051791221
1789317368221089300,8.08808935546875,4.386798788174986,4.464173704278469,2.6400024671196936
1789317368231044600,8.098044677734375,2.5948417214006185,0.5597662186145782,1.258317807585001
1789317368240999400,8.10799951171875,0.8641594998002052,-1.5923650532782077,0.9385136798430234
1789317368250954500,8.11795458984375,-0.17211948468089103,-4.181542173045873,1.0102096004620194
1789317368260909600,8.12790966796875,-3.8694220970004793,-4.317133131274581,0.509068297034502
1789317368270864400,8.137864501953125,-2.7123797210663554,5.165335183486342,-0.06719459061175584
1789317368280819500,8.1478193359375,-3.833689689362049,-3.218248929798603,-0.8225178681179881
1789317368290774300,8.157774169921876,-0.27887422452569005,1.422986391738057,2.193178152552247
1789317368300729600,8.1677294921875,1.9330232415437698,-3.97930753608644,1.6287940648786723
1789317368310684400,8.177684326171875,0.9532979189336299,-0.6387544151335954,1.4451291038326919
1789317368320639500,8.187639404296876,3.113243079447746,3.7302871825546022,1.6618737660512328
1789317368330594600,8.197594482421875,0.286942380169034,-4.398969702962041,-0.2556242087762803
1789317368340549400,8.20754931640625,2.220226318475604,-0.7338169636189937,0.08086721519865095
1789317368350504400,8.21750439453125,2.9937212124884125,-2.617207866987586,0.22847462830506263
1789317368360458500,8.22745849609375,0.9378186102509498,3.2275486730635166,0.8705628640364855
1789317368370413600,8.23741357421875,-4.8676451993316405,-0.31656974893063305,-0.06303652108423412
1789317368380368400,8.247368408203124,-4.321015525665879,-3.28429464263618,-0.3527409133125096
1789317368390323500,8.257323486328126,-2.62624515992403,2.4823382087707517,1.5618854516014455
1789317368400278300,8.2672783203125,2.1823843713372946,-0.7584060459524392,1.5210126123346388
1789317368410233600,8.277233642578125,1.8021137191295622,3.333079424071312,2.3039710618719456
1789317368420188400,8.2871884765625,1.570599796193838,0.39881519367992874,-0.39961050877608356
1789317368430143200,8.297143310546875,-1.2670154933035374,0.9073416389226913,-2.51568810518682
1789317368440098600,8.3070986328125,0.40067923398613925,0.8931108689963817,-1.420660871399939
1789317368450053400,8.317053466796875,-2.1414263380050658,0.2384697334229946,0.3000321633666754
1789317368460008400,8.327008544921876,-0.22461539559364319,-1.1502657214060426,1.2122861242502927
1789317368469963500,8.336963623046875,-0.22130992430746554,-0.9970330157637596,1.5034377926774323
1789317368479918600,8.346918701171875,-0.24358196187019346,3.6311961092054843,2.052291426002979
1789317368489873400,8.356873291015624,0.7982090640306473,3.9601054074883457,1.2607345133379102
1789317368499828200,8.366828125,-2.246896298736334,-2.187712872883677,-1.8114999716341496
1789317368509783600,8.376783447265625,-2.4399340682834385,-4.22172162322104,-1.9566389488004148
1789317368519738400,8.38673828125,0.20368717385530472,-1.1556582280993462,0.46798276486508544
1789317368529693400,8.396693359375,-0.3702320732742548,1.550405441688001,0.46936808174364264
1789317368539648500,8.4066484375,0.2544821260690689,0.31781857994794843,0.1331403502061963
1789317368549603600,8.416603515625,0.6537947478771209,2.2360826437771317,0.5009976571731269
1789317368559558400,8.426558349609374,0.8378565992861986,-0.9366758699566126,-0.2437177901443094
1789317368569513500,8.436513427734376,-0.10323942520022392,-1.989726541018486,-0.16261756990738213
1789317368579468500,8.446468505859375,0.03973579806089401,0.9809411281406879,0.323598186262697
1789317368589423400,8.45642333984375,-2.1879940279126164,0.31896015119850635,0.4762346795774996
1789317368599378400,8.46637841796875,-0.10647183125019073,0.13986673585176468,0.19867979402206837
1789317368609333500,8.47633349609375,1.295798520195484,-2.751438058257103,0.36955534305647014
1789317368619288300,8.486288330078125,3.1618425674438475,0.5760761329025029,0.15896474648825823
1789317368629243400,8.496243408203124,0.15661445703506469,1.2024112114459276,-1.2430008498571812
1789317368639198500,8.506198486328126,0.13027239355444908,-1.8664461983084677,-1.8681454034417866
1789317368649153500,8.516153564453125,0.4323188193529844,-1.8252151932537555,-0.5314674681082368
1789317368659108400,8.5261083984375,0.9869278013348579,-2.4552660774499175,0.05962539746649563
1789317368669063400,8.5360634765625,0.11127426309585571,2.7086890498548746,0.03666559683531523
1789317368679018500,8.5460185546875,-1.950197663706541,0.434414038066566,-1.1079646029017864
1789317368688973300,8.555973388671875,-1.488659179610014,0.40406741511970756,-1.2649844258673488
1789317368698928400,8.565928466796874,-0.38419747026264667,-0.7810510084807872,-0.4669721995830536
1789317368708883500,8.575883544921876,0.6609662469416856,-1.7547545865833758,-0.4344730017121881
1789317368718838500,8.585838623046875,2.190242683622241,2.225687506490946,-0.9373325802996754
1789317368728793300,8.59579345703125,2.533843355080485,-2.380920738300681,-1.2623656216710806
1789317368738748700,8.605748779296874,2.4876573579668997,-0.09246610225141048,-1.339114368700236
1789317368748703500,8.615703369140626,1.449234931716323,-0.9434007942974567,-1.9538632004767655
1789317368758659300,8.625659423828125,-1.1629361101478337,-1.7956816402554512,-1.385068310623616
1789317368768614400,8.635614501953125,-0.8867951099783181,1.250443713209033,0.03142762311659753
1789317368778569200,8.6455693359375,-2.5715029313892126,-4.267814681354165,0.05639503724314272
1789317368788524300,8.655524169921875,0.5953302839487791,2.3150345999389885,1.3208679333917797
1789317368798479400,8.665479248046875,1.963588475677371,0.9266372910231351,0.5742090969216078
1789317368808434200,8.67543408203125,-0.13227788815796374,0.06875906344950199,-1.5040813512779772
1789317368818389200,8.68538916015625,1.8749808024197816,1.7325784106105564,-1.9736156564339995
1789317368828344300,8.69534423828125,-1.359462890854478,-4.4041146646350615,-1.9162106384307145
1789317368838299400,8.70529931640625,0.11613982330560683,-0.854256529945135,0.15749102067388593
1789317368848254200,8.715254150390624,0.6998422133028507,-0.41956864337325095,1.8675166040189564
1789317368858209300,8.725209228515626,-0.9783733234792947,3.668122110542655,1.8612557900585234
1789317368868164400,8.735164306640625,-1.5962620607167481,3.187877172410488,-0.11862082646638154
1789317368878119200,8.745119140625,-3.728670979529619,-0.7049398287028074,-2.271342027076334
1789317368888073200,8.7550732421875,-0.47964755676090715,0.773854374974966,-0.4327308342199772
1789317368898029300,8.765029296875,0.5314192450523376,-2.1477309911072253,0.5599328073531389
1789317368907983400,8.7749833984375,0.5550491269648075,1.2490081274479627,0.8355335631661116
1789317368917938200,8.784938232421876,2.549175948768854,0.422955363202095,0.9219432149227708
1789317368927893200,8.794893310546875,1.0189812281996011,2.6443647539824244,0.16529102690033615
1789317368937848300,8.804848388671875,0.4831096799135208,0.9757035197481513,-1.138408987134695
1789317368947803100,8.81480322265625,-3.0726264068990945,-3.0493273643761873,-1.7948475275188684
1789317368957758200,8.82475830078125,-1.7387439475029707,0.25420301686674357,0.5632195374062284
1789317368967713300,8.83471337890625,-2.4608307258397337,1.251376025623083,1.7975046178989111
1789317368977668400,8.84466845703125,-1.975654761046171,2.9119501072525975,1.467257349010557
1789317368987623200,8.854623046875,1.315703828626871,2.375241523620486,1.382325587786734
1789317368997578500,8.86457861328125,1.9623679939717054,0.14591069219112396,-0.6673524408474564
1789317369007533300,8.874533203125,2.7149107008486983,-1.3419102830290794,-2.0415441142782567
1789317369017488100,8.884488037109374,3.70697878768146,-1.7418682170033455,-2.0526194889135656
1789317369027443200,8.894443115234376,1.787752016299963,0.687075670710206,-1.4484570792116225
1789317369037398300,8.904398193359375,0.09867956993877887,-1.6585691715478896,-1.7676358415968716
1789317369047353300,8.914353271484375,-1.7502677965581417,-1.0441934108674527,-0.5126992008827627
1789317369057308200,8.92430810546875,-1.2029483870625495,-0.7007388698816299,1.889630820671469
1789317369067263500,8.934263427734376,-0.38731706358790396,0.8763716233804821,1.6966447813116012
1789317369077218300,8.94421826171875,-2.978745177152753,0.050879123365879055,-0.8536257577609271
1789317369087173000,8.954173095703124,-0.7805857290565967,0.3813818283200264,-1.6689225155189633
1789317369097128400,8.96412841796875,0.6889806275486946,3.1649066311895844,-0.8062266585305332
1789317369107083300,8.974083251953125,1.132616375207901,-0.5917243684113025,-0.8405643969401717
1789317369117038300,8.984038330078125,0.740310417291522,-1.694814789405465,0.06344700158126652
1789317369126993200,8.9939931640625,1.7406471507757901,-2.1611592124789953,1.7047867328435182
1789317369136948200,9.0039482421875,0.7054547924876212,-3.152106770849228,2.631756616821885
1789317369146903300,9.0139033203125,1.4083096316099166,4.0215000796496865,2.1678259768918156
1789317369156858000,9.023858154296875,-0.7663865233123301,1.3901467829316854,-0.4119210512295365
1789317369166813400,9.0338134765625,-3.960114759838581,-0.9079752606511116,-1.060120609448105
1789317369176768300,9.043768310546875,-2.5015701479852197,-3.917546953222155,0.3673045319223776
1789317369186723300,9.053723388671875,-2.1471634203523395,-3.065165569499135,0.9797617090977728
1789317369196678100,9.06367822265625,-0.12433715828657149,3.7819945734381673,1.7669348537206648
1789317369206633200,9.07363330078125,2.981028904175758,-0.17949498188495636,1.6888249013409018
1789317369216588300,9.08358837890625,4.0391000337481495,-0.7540630483120679,1.5674354869440197
1789317369226543000,9.093543212890625,3.5432419314205643,-2.7816297829031944,0.04495977978687733
1789317369236498400,9.10349853515625,2.250050963374972,-1.7991683133274317,-0.5064632291026413
1789317369246453200,9.113453369140625,-1.2758160548746584,0.8061632379055023,-0.5006009129405021
1789317369256408300,9.123408203125,-0.937909795665741,-1.855447834432125,-0.6330261006146669
1789317369266363400,9.13336328125,-1.8261404914051294,-2.097989347338676,1.113827357455343
1789317369276318200,9.143318115234376,1.8133850547283887,-0.7468669993281364,1.018909478137642
1789317369286273300,9.153273193359375,-1.0104688359200953,3.07507789170444,0.773397571118176
1789317369296228000,9.16322802734375,0.5530903941124677,3.8690187768965956,-0.6388064375817776
1789317369306183400,9.173183349609374,-1.9956874952495096,-2.898351790010929,-2.1368976085342464
1789317369316138200,9.18313818359375,-0.28813714291155335,-0.603700637409091,-1.5061365302421152
1789317369326093300,9.19309326171875,0.5623293471008539,0.5532715958982706,-1.3138066167034208
1789317369336048400,9.20304833984375,0.921732567846775,2.1636071901530025,-0.8263347229924053
1789317369346003200,9.213003173828126,0.6540472613334656,0.4149322157442569,-0.09394717112202197
1789317369355958300,9.222958251953125,-1.7450480160832404,0.2897948469907045,0.4292046693878248
1789317369365913300,9.232913330078125,-2.5850784522771835,0.6659422817885875,-0.40986733357012267
1789317369375868400,9.242868408203124,-4.778619592922926,0.4802715338781476,-0.7255252283528447
1789317369385823200,9.2528232421875,0.661700406435132,0.34241643010973927,1.0772885288048535
1789317369395778300,9.2627783203125,1.3962076904058456,0.031708558949828144,0.5444650795103981
1789317369405732400,9.272732421875,0.8711071269810199,0.4974766434401273,-1.053071348523721
1789317369415688200,9.282688232421876,3.1147955695867537,0.7802285861819982,-1.7144314901538191
1789317369425642200,9.292642333984375,1.3852823917657135,2.9524954681307074,-1.5790215875804423
1789317369435597000,9.30259716796875,-1.748586711603403,-0.8749167483970522,-1.8151722304061053
1789317369445552400,9.312552490234374,-3.3405706566095352,-4.104438475099205,0.2656749165389687
1789317369455507200,9.322507080078125,0.8895347640752792,-1.4369152561083436,2.7161247528135775
1789317369465462300,9.332462158203125,1.0589408981442452,1.7514473617315292,2.543060388498008
1789317369475417300,9.342417236328124,-0.31023557747304437,5.489602208921313,0.40519758819341656
1789317369485372400,9.352372314453126,-0.2738485053181648,1.6366156984150408,-2.648934838376939
1789317369495327200,9.3623271484375,-2.9594132846951484,-1.663743943837285,-2.944347817510366
1789317369505282000,9.372281982421875,-1.276397069633007,-4.459420956793427,-0.5930862678816542
1789317369515237400,9.3822373046875,1.0052730208426712,-1.1807160969883204,1.1886661792099475
1789317369525192200,9.392192138671875,2.0939123071581123,0.6507564030945301,1.9148840660020707
1789317369535147300,9.402147216796875,4.899755324819684,-1.2160434309571981,1.7812293365329503
1789317369545102300,9.412102294921874,5.165801631954312,0.41001755569577214,-0.10942030579224228
1789317369555057400,9.422057373046876,2.8474241513282057,3.0920781263440844,-2.977478225956857
1789317369565012200,9.43201220703125,-2.1936562914580104,-0.8799591264784336,-4.549965735593438
1789317369574967300,9.44196728515625,-3.835159177392721,-3.549690084646642,-3.2869054096564647
1789317369584922400,9.45192236328125,-6.099041682243347,-6.499412288671731,-0.6098349389130249
1789317369594877200,9.461877197265625,-0.8425748599797487,4.473654064807295,2.1735592598468063
1789317369604832300,9.471832275390625,-1.065481698089838,7.178737783646583,1.6855001408323644
1789317369614787300,9.481787353515625,-0.43774552057683463,1.4015437907367945,-1.0075126164630055
1789317369624742100,9.4917421875,0.5909995612680912,-4.968196992883086,-2.4705837658300993
1789317369634697200,9.501697265625,2.6840134582817554,-6.6051534675598145,-2.0056410262480378
1789317369644652300,9.51165234375,5.0503217338621615,2.8787065938204526,-0.6659669778384268
1789317369654607400,9.521607421875,2.1305214976310727,-0.02123275764286518,-1.492206350697577
1789317369664562200,9.531562255859376,1.1968424714028834,-0.21185352917611597,-1.2220686825960874
1789317369674517500,9.541517578125,-1.877908088043332,-3.516755783294141,0.5013023757407441
1789317369684472300,9.551472412109375,-1.78993929721117,-3.7088770225182173,1.3700199407041072
1789317369694427100,9.56142724609375,-0.07746259438693523,3.6436987401649352,1.4590252349771557
1789317369704382200,9.57138232421875,-3.269338481044769,0.02499766313433647,-1.3317927936404943
1789317369714337300,9.581337158203125,-1.287958328089118,0.5675830298453569,-2.41988262937963
1789317369724292400,9.591292236328124,0.004497311419248581,-1.0374813460081815,-2.148016530050337
1789317369734247200,9.6012470703125,0.5744271966516972,0.9425655125170945,-1.4663492942549288
1789317369744202500,9.611202392578125,2.8493741163522004,0.8613497030764817,-0.006299246274679899
1789317369754156500,9.621156494140624,0.9243114784240722,-2.8377497295320033,0.5037716153984889
1789317369764112000,9.63111181640625,0.5489338589549064,-0.6176537594377994,1.167744533342868
1789317369774066700,9.641066650390625,-0.8703390652179718,1.5040128160864115,0.18189824363440274
1789317369784021500,9.651021484375,-3.6020845810115336,5.421392011526227,-1.6132476823091506
1789317369793976600,9.6609765625,-7.0820333131730555,2.0230717612594367,-1.1882412317961453
1789317369803931600,9.670931640625,-2.511765963307023,-1.3842416505411266,0.9806300163649022
1789317369813886700,9.68088671875,1.3445002995222806,-6.243600375303625,-0.037967546279355883
1789317369823841500,9.690841552734375,4.576452175980806,-0.6719418144643307,1.935422265509516
1789317369833796900,9.700796875,7.785592501172423,8.286507302367687,3.1906554049521683
1789317369843751700,9.710751708984375,4.515457316792011,2.9887200432002543,-1.017800420917198
1789317369853706500,9.72070654296875,-7.37977356621027,-3.151296623510122,-2.826189347858727
1789317369863661800,9.730661865234374,-2.7980320516496895,-5.654869928011298,0.36982078905962407
1789317369873615600,9.74061572265625,-2.786152813285589,-2.7387060024559498,1.5245025002770125
1789317369883570700,9.75057080078125,-3.97378672683835,2.7947324255824086,1.695210218463838
1789317369893525500,9.760525390625,2.8528800786465407,3.9590766489624976,2.461328738489747
1789317369903480800,9.770480712890626,1.6122703617095946,3.4386721343994138,1.7099767027020454
1789317369913435600,9.780435546875,-1.0987561911821364,-0.6771522425889969,-2.015534059230983
1789317369923390700,9.790390625,0.7821043169260025,-3.4760078855812546,-3.0050398943603036
1789317369933345500,9.800345458984374,3.8532197347402573,-5.335360326236486,-0.4714125931832939
1789317369943300600,9.810300537109375,5.8464399630934,-1.8113912505626677,1.0691090217415242
1789317369953255700,9.820255615234375,0.5563280608594418,6.392336646309494,2.2449586086720226
1789317369963210500,9.83021044921875,1.9431933379024267,3.8826188477039336,-0.1809689999602735
1789317369973165800,9.840165771484376,-8.064979935917258,-1.1356973900884388,-0.27896197587437926
1789317369983120600,9.85012060546875,-3.7725966304957863,-7.328219904583692,0.9948234499555081
1789317369993075700,9.86007568359375,-3.7523008614420887,1.0004974770039319,0.3593809358488768
1789317370003030500,9.870030517578124,-3.414032783183455,3.4582261451750993,-0.8271038807339965
1789317370012985600,9.879985595703126,3.9037814627200365,-0.24819851575493812,1.2459598457932473
1789317370022940700,9.889940673828125,3.435872859069705,1.5255723214656114,3.931272111713886
1789317370032895500,9.8998955078125,5.08214193649292,-2.159468190652132,1.7686966026961803
1789317370042850800,9.909850830078126,6.241257611569762,0.09110182816088198,1.1067821881841868
1789317370052805600,9.9198056640625,2.9955624564409256,-3.0021096861273047,1.261812663963437
1789317370062760700,9.9297607421875,-3.4037118801772595,-1.5781033036917447,0.4990708538290113
1789317370072715800,9.9397158203125,-0.8591092306733131,0.0853717600762844,-0.6845490748420358
1789317370082670600,9.949670654296876,-6.520370905548334,-2.043479758515954,-0.4469022751744836
1789317370092625700,9.959625732421875,-1.2799457020252942,4.447502555462718,1.4373799510106444
1789317370102580500,9.96958056640625,-3.9216502968877553,-0.2897764345511794,0.20932386456802485
1789317370112535800,9.979535888671874,-2.0735645156562326,-0.7696925791203976,-0.18632731212303041
1789317370122490600,9.98949072265625,1.4107938496410846,-2.5147633915573357,0.5882184061169624
1789317370132445700,9.99944580078125,1.9786445905119179,-0.5335340452492237,0.31431561332829294
1789317370142400800,10.00940087890625,5.2172869045197965,1.7135650825828312,-0.3151362089961767
1789317370152355600,10.01935546875,5.82327594512701,-3.3684102651715278,-0.863009526047483
1789317370162310700,10.029310546875,5.8207478879541155,-0.5961188039779662,-0.3863357974655926
1789317370172265700,10.039265625,-3.981431104111671,-4.325076199233532,-1.5194824801579117
1789317370182220800,10.049220703125,-1.7463497463315725,1.798445552010834,-1.3313881583623588
1789317370192175600,10.059175537109375,-4.035347403216361,5.613175981619953,1.1772342462219296
1789317370202130400,10.06913037109375,-5.24544098585844,-0.7691632945492863,1.7285114534325896
1789317370212085800,10.079085693359374,-1.9795944385826587,2.1300354676797983,0.5788611605111509
1789317370222040600,10.08904052734375,-5.528950468969345,0.2726169176965952,-1.0843085636347531
1789317370231995600,10.09899560546875,0.1031879872739315,6.122407944783568,-0.6429132153134792
1789317370241950700,10.10895068359375,-0.24507132364511489,-0.6171832193166017,-0.2654416192397475
1789317370251905800,10.11890576171875,2.4945710828781125,-1.2236205882132052,0.2696008578110486
1789317370261860600,10.128860595703125,3.744138013252616,-1.7203478745907543,0.9491800352860241
1789317370271815400,10.1388154296875,5.912657525366544,-2.3660762203902004,1.6481144130289553
1789317370281769700,10.148769775390624,4.252928077867627,2.8996517666935917,1.4664663447633384
1789317370291724800,10.158724853515626,-5.1448570436030625,0.7790086889982223,-1.7517337774574755
1789317370301679600,10.1686796875,-4.118052574431896,-1.1553995771631598,-3.0683553054511545
1789317370311634400,10.178634521484375,-4.971017895522714,-4.699735441300272,1.034958476467058
1789317370321589800,10.18858984375,3.5383833854734896,-2.6711393636614083,1.2967603509649634
1789317370331544600,10.198544677734375,-1.4994938773572444,3.2580338276982306,0.4222176235120743
1789317370341499600,10.208499755859375,3.125401719275117,4.396457427880168,0.4327408441573381
1789317370351454700,10.218454833984374,3.470415764662623,4.116803451153635,0.4290641284059733
1789317370361409800,10.228409912109376,-0.968532897466421,0.029370471391081808,0.2817508028753102
1789317370371364600,10.238364501953125,0.5583551827728748,-1.898296503816545,0.7607341235738247
1789317370381319700,10.248319580078125,-5.092272869884967,-3.7055253740027543,-0.405646208743751
1789317370391274800,10.258274658203124,-5.232754522764682,-1.2648095076918602,-1.1124607452772557
1789317370401229600,10.2682294921875,-2.2552111226171254,3.4928105518221852,1.4400190673425792
1789317370411184600,10.2781845703125,1.1376362491965293,-2.053716490370035,1.0739301582876593
1789317370421139700,10.2881396484375,3.0450761366724968,-2.2176193508476016,0.23806071423068642
1789317370431094500,10.298094482421876,5.030407657602429,-3.2305005086064336,0.0827159118052572
1789317370441049600,10.308049560546875,3.0967636538118124,2.322148815858364,0.729799252410233
1789317370451004700,10.318004638671875,0.7963070298016071,-0.7051870814621448,-2.251841646184027
1789317370460959700,10.327959716796874,1.6398066034108398,0.7385469147503375,-2.4607363255545494
1789317370470914600,10.33791455078125,-3.2134213635116815,-2.211566918940842,-1.160806477707997
1789317370480870000,10.347869873046875,-2.1552409283459184,0.05756196213066578,0.1104094629600644
1789317370490824700,10.35782470703125,-3.0925948436945676,4.044419767466187,1.419225724030286
1789317370500779500,10.367779541015626,-4.322040192538499,1.097151094073057,0.4880533468607813
1789317370510734600,10.377734619140625,-3.6000913613677024,-0.4511415932446718,-0.18298443143591284
1789317370520689700,10.387689697265625,1.377010237982869,-4.629313997596502,-0.5746367477491497
1789317370530644700,10.397644775390624,4.863927055591344,-1.2866980988949537,-0.5057558114856481
1789317370540599600,10.407599609375,9.262588130995631,3.377493735337257,-0.9335008201170713
1789317370550555000,10.417554931640625,7.170291442340612,-4.705817976084352,-2.321450166069716
1789317370560509700,10.427509765625,1.4221756598770618,-0.8692109379708767,-1.5688853934913873
1789317370570464500,10.437464599609376,0.5685568433135748,-1.7007348271042106,-2.0458260293811557
1789317370580419600,10.447419677734375,-7.749954786080122,-0.34031799652576444,-0.10867628249190747
1789317370590374700,10.457374755859375,-4.257992960041761,2.012507697147131,2.630629950879514
1789317370600329700,10.467329833984374,-5.441840340793132,-1.0207654812678695,1.2220368261530994
1789317370610284500,10.477284423828126,-4.813340193170308,0.3570984509348869,-0.7987267312292009
1789317370620239600,10.487239501953125,3.9846155793666838,-0.881127585735917,-0.22770700493343174
1789317370630194700,10.497194580078125,5.666612388253212,5.577662185168266,0.8827905505120753
1789317370640149500,10.5071494140625,3.8712966587007043,0.3934188875943422,-2.209974389052391
1789317370650103600,10.517103515625,0.7156143674522638,-5.946441721546649,-3.1990029620587825
1789317370660058600,10.52705859375,2.513011579453945,-3.52256680766046,0.5741754869129508
1789317370670013700,10.537013671875,2.513261754822731,1.0428308903425931,2.5468343540787695
1789317370679968500,10.546968505859375,-5.332009262242913,5.05140660648942,2.4735820708632468
1789317370689923800,10.556923828125,-4.410252144476771,2.4741622088387607,-0.11615977011509239
1789317370699878700,10.566878662109374,-6.7968637878954405,-1.2128303141295909,-0.013040098837018012
1789317370709833700,10.576833740234376,-1.1317594661176205,0.9829097978651523,1.4104630102515219
1789317370719788500,10.58678857421875,-1.2121896781384944,1.2518605942696333,-0.4231793081510812
1789317370729743600,10.59674365234375,1.0423860691845417,2.212305462348461,-0.39781208105199034
1789317370739698700,10.60669873046875,3.8277094459086656,1.109003444430232,1.4060710589028893
1789317370749653500,10.616653564453125,1.787044744813442,-2.004883778139949,1.5707035488292573
1789317370759608800,10.62660888671875,3.675632047781348,1.126387125429511,1.1110399186939
1789317370769563600,10.636563720703125,0.9493862984478473,0.415901937559247,0.7209405309110879
1789317370779518700,10.646518798828126,-3.039350160241127,-2.197977077266574,-0.1849669104900211
1789317370789473800,10.656473876953125,-3.8046892203271385,-1.258866089117527,-0.4149938828036189
1789317370799428600,10.6664287109375,-3.7411359088271854,1.769590336665511,0.2889430524669587
1789317370809383700,10.6763837890625,-0.44612464186549183,-1.497545665898919,0.7132453732986003
1789317370819338500,10.68633837890625,3.359783891123533,-1.3752771305799483,1.3584452382445336
1789317370829293800,10.6962939453125,6.115220663627982,-0.08332067276537418,0.539616799229011
1789317370839248600,10.70624853515625,7.306893623438477,2.8905887547940012,-0.006431275156512856
1789317370849203700,10.71620361328125,5.275729741138219,1.7309125232249498,-1.7308001488916576
1789317370859158800,10.72615869140625,-1.408333012485504,-0.34280104551315305,-3.4018308887362476
1789317370869113600,10.736113525390625,-6.7150283852517605,-1.8071636959955095,-1.232033465640992
1789317370879068700,10.746068603515624,-3.557673776876926,-3.103590577222407,2.605512460757792
1789317370889023500,10.7560234375,-2.8357155933558937,0.7402239080518483,2.2201628978505727
1789317370898978800,10.765978759765625,-2.616182031071186,2.1629320673704147,0.5889795266825706
1789317370908933600,10.77593359375,2.0009733266979457,2.683085822042823,0.8179414270479232
1789317370918888400,10.785888427734376,4.237102147704363,0.06761983028650283,0.07353599552772938
1789317370928843800,10.79584375,1.900077249753475,-2.076320536366105,-1.0896572311863302
1789317370938798600,10.805798583984375,1.1094564488947392,-1.076011859932542,-0.16718268586583435
1789317370948753700,10.815753662109374,-0.026330373042821882,-3.7960786283701657,0.882262215789035
1789317370958708700,10.825708740234376,-2.4345307479351757,-2.311854216337204,2.771294559110701
1789317370968663800,10.835663818359375,-0.45321313882172104,0.048695934107899665,2.966400659364462
1789317370978618600,10.84561865234375,-0.8183937739253043,2.6800974538818,1.3974667505562304
1789317370988572700,10.85557275390625,-2.585291802766919,3.2304511165067553,0.17135938702858983
1789317370998528800,10.86552880859375,-3.505701597577333,-3.063562810477614,-0.4295676940139383
1789317371008482800,10.87548291015625,0.5615314747214317,-2.1114538090676067,0.3909130422532558
1789317371018437600,10.885437744140624,2.962951980215311,-4.627617130550742,1.4655929229296742
1789317371028392400,10.895392333984375,5.851156470221281,4.781010871973633,2.8917455236136913
1789317371038347800,10.90534765625,5.801239469885826,3.8854350741684436,0.7765355038177222
1789317371048302600,10.915302490234374,-3.4170296269118783,-2.6198586737573146,-1.2692594728380442
1789317371058257700,10.925257568359376,-4.836201428797841,-2.1583295420110225,-1.5517328908994792
1789317371068212700,10.935212646484375,-4.821285599216819,-4.452625305303931,0.5119297508802264
1789317371078167600,10.94516748046875,-2.581733233502507,2.8914634918019173,1.5441580717310308
1789317371088122600,10.95512255859375,0.161817286375165,1.5338041432380676,0.6558636631056666
1789317371098077400,10.965077392578126,3.589916588833928,0.8258739005476236,1.5688351246088743
1789317371108032800,10.97503271484375,6.47923576208353,4.074157903125882,1.042458257637918
1789317371117987600,10.984987548828125,0.6356114409327507,0.6962818904727697,-1.5319728361576794
1789317371127942700,10.994942626953126,-1.3214502633243799,-3.5305168898820876,-3.239715203936398
1789317371137897700,11.004897705078125,1.2042489482671022,-5.042345348155498,-0.6045176528804004
1789317371147852500,11.0148525390625,-0.9501058448940515,1.660356931747496,2.7660230484485626
1789317371157807600,11.0248076171875,0.43278702138662334,7.560847926241159,2.1434636890515684
1789317371167762700,11.0347626953125,-4.315882838952541,4.611012617230415,0.4909447574533522
1789317371177717800,11.0447177734375,-7.208642508044838,-3.4431618470340966,-0.7992531662560999
1789317371187672600,11.054672607421875,-4.4359529874444,-3.710266723310947,1.6762017127417026
1789317371197627600,11.064627685546874,0.37704350685477256,0.8680044847905636,1.3470038067758083
1789317371207582700,11.074582763671875,0.41805590072274207,0.9811024561822413,-1.1235203378215433
1789317371217537500,11.08453759765625,3.0996833406507966,-0.16856676063537596,-0.3048896864004433
1789317371227492600,11.09449267578125,3.3206308613866566,-1.2686872259080408,0.11708236485272645
1789317371237447700,11.10444775390625,3.3383576567351816,-1.5023159490406512,-0.6690381289120764
1789317371247402800,11.11440283203125,4.444573516273498,-2.5001965215444564,-1.0821914984155445
1789317371257357600,11.124357666015625,6.211165255644917,-0.045727731952071186,-0.0920828020222485
1789317371267312600,11.134312744140624,1.3412760767787695,0.8481108667969703,0.3631579701695591
1789317371277267700,11.144267822265626,-4.4191982519984245,0.17306524109840393,-1.956643186584115
1789317371287222500,11.154222412109375,-6.386392643213272,1.999547385548055,-1.0848265961594878
1789317371297177600,11.164177490234374,-6.4629603345870965,-0.7548547832116485,2.5326170281559226
1789317371307132700,11.174132568359376,-0.7064759522289037,0.6116358143225312,1.1747725322835147
1789317371317087700,11.184087646484375,-2.71367735966146,-0.5816600705146789,0.06981887470073997
1789317371327042600,11.19404248046875,4.284252021414042,0.10967793381512164,1.0128606264274567
1789317371336997600,11.20399755859375,4.317040192294121,4.944927176454663,0.3780808870784938
1789317371346951700,11.21395166015625,0.29933833588361736,-0.9688765963375567,-3.26850699865669
1789317371356906800,11.22390673828125,2.95672448400259,-3.811007317432761,-2.579772454823553
1789317371366861600,11.233861572265624,1.6312316672891378,-6.826876648843288,-0.3232224117528647
1789317371376816600,11.243816650390626,1.9293109430223703,-4.313722738309204,1.0028501045446843
1789317371386771700,11.253771728515625,-1.108589018410444,8.158204163059592,1.9921125593721865
1789317371396726500,11.2637265625,-0.9229594792932272,4.02710739813745,-1.7669132264107466
1789317371406681600,11.273681640625,-6.730827427408099,1.1070298062697053,-3.3344594802528618
1789317371416636700,11.28363671875,-1.6128578062087295,-5.479493487361073,-1.3111214692726731
1789317371426591700,11.293591796875,3.022096827623248,-2.5757547436147927,-0.5345400804866105
1789317371436546600,11.303546630859374,-0.24607787033915518,4.300930769014358,-1.9164944238081574
1789317371446501600,11.313501708984376,1.5188111567676066,1.8028461250573395,-2.608981305912137
1789317371456456700,11.323456787109375,2.0462205816566943,1.2885229762345551,-0.5222275652717798
1789317371466411500,11.33341162109375,0.6224608674585819,-6.283562383335829,-0.3587531593393534
1789317371476366800,11.343366943359374,4.371894064509869,-3.491679209704697,-0.4864068948280066
1789317371486321700,11.35332177734375,1.204249532788992,2.466014850479364,0.36822869756259025
1789317371496276700,11.36327685546875,-8.585806475284695,1.2772002027094362,-1.9856340110078452
1789317371506231600,11.3732314453125,-0.05990998656153679,-0.7551227864980697,-2.177071944142878
1789317371516186600,11.3831865234375,-5.3334220516502855,-3.004360679924488,1.8924563994862138
1789317371526141700,11.3931416015625,5.177949750387668,-1.0327315211325883,2.3461469465613365
1789317371536096500,11.403096435546875,6.251680805906653,1.8816899446696043,1.0246630001630634
1789317371546051800,11.4130517578125,-5.690949541652202,1.1596668792188167,-0.6711258949715644
1789317371556006700,11.423006591796875,4.779866962635517,2.7400679384589193,-1.5722105923913419
1789317371565961500,11.43296142578125,-1.1742922014206647,0.7875947310358286,0.6874719765514135
1789317371575916800,11.442916748046875,-2.228355848917365,-1.7938824818789958,0.8188471437159925
1789317371585871600,11.45287158203125,-1.629468749269843,-0.37936376649588344,0.9450158282786607
1789317371595826700,11.46282666015625,-7.2622180308878415,0.5484183106482029,0.7551350614577531
1789317371605781500,11.472781494140625,-0.6684948888808488,2.2091630726695057,0.8367158317532389
1789317371615736800,11.48273681640625,-0.5575982269257307,0.3815542622774839,1.0996118581634013
1789317371625691600,11.492691650390626,3.6215684491604563,-0.4499515066772699,-0.13316416947320103
1789317371635646500,11.502646484375,3.436320602837205,1.73581724640131,-0.6933087198808788
1789317371645601800,11.512601806640625,1.2482231145501137,-0.7631652231782674,-0.6206318254005163
1789317371655555800,11.522555908203126,1.1169324838638306,-2.0401403849601745,0.19151297113262117
1789317371665510700,11.5325107421875,-1.2221312264382838,1.9277321493983268,1.4902641305886208
1789317371675465500,11.542465576171875,-2.621366740232706,-0.8881757506817579,0.9729556092794984
1789317371685420800,11.5524208984375,-2.5948931593269107,2.656604057830572,1.3948890090227126
1789317371695375600,11.562375732421875,-1.5476631572425366,-1.080811953690648,-0.6114840578269213
1789317371705330700,11.57233056640625,-1.1835603805035353,-4.094122832790017,-2.2697695170626044
1789317371715285500,11.582285400390624,4.522908217319846,1.4212217201530932,-0.48782969417273997
1789317371725240800,11.59224072265625,4.259225132185221,3.9382892969995735,-0.6724645962294191
1789317371735195600,11.602195556640625,2.2718705809950825,3.709263683748245,-2.5142209552437067
1789317371745150500,11.612150390625,-2.7348697852939368,-5.32864007807076,-2.5940754132032393
1789317371755106000,11.62210595703125,-3.374538392663002,-5.83049362142086,-0.0755619849300012
1789317371765061000,11.63206103515625,0.00931143370270729,-1.38575526997447,1.4780546373568475
1789317371775016200,11.64201611328125,0.3014472908616066,3.2035873672395945,1.9695811402209102
1789317371784971000,11.651970947265625,1.8288894978523254,10.340101043140887,1.131780801166594
1789317371794925800,11.66192578125,-3.5647564286142583,-0.04558277052342891,-2.8813433720648285
1789317371804881200,11.671881103515625,-4.781308978137374,-4.995728558409214,-1.6190820875510572
1789317371814836000,11.6818359375,0.9474334108144045,-4.1296570875078435,1.671061865635216
1789317371824791000,11.691791015625,0.37571781120896336,-0.5858300496757031,2.444396308389306
1789317371834746000,11.70174609375,2.4776468360841273,3.360557798105478,2.3533082164928314
1789317371844701000,11.711700927734375,3.3653964703083035,-1.729727697354555,2.1760119136959313
1789317371854656000,11.721656005859375,2.90483998298645,-0.9654232410132885,1.3880109399467706
1789317371864610800,11.73161083984375,2.3610884951055047,-4.159595129653812,-1.2523799419686197
1789317371874566100,11.741566162109375,-1.1033552094101906,0.5341998156815767,-1.0574399920620023
1789317371884521000,11.75152099609375,-3.2907629618674514,1.331940677678585,-1.4195786291211843
1789317371894476000,11.76147607421875,-4.0387791312307115,-1.886300653335452,-0.5374914776381104
1789317371904431000,11.77143115234375,-3.0245483124285935,0.40161680709719655,1.254854515388608
1789317371914386000,11.781385986328125,-0.15267244141101835,-0.0938029038131237,0.6660542177304625
1789317371924341000,11.791341064453125,2.211087318730354,1.958319595363736,0.7327619016081094
1789317371934296000,11.801296142578124,4.969079620936513,-2.5834037970632315,-0.2608318969545886
1789317371944251100,11.811251220703125,3.7331454945951696,-0.42405484887659545,-0.8212076623022556
1789317371954205000,11.821204833984375,1.8094968151181936,2.7140584679335356,-2.77699393979609
1789317371964160000,11.831159912109374,0.0863128403186798,-1.6864122872412204,-2.669735049821436
1789317371974115000,11.841114990234376,-3.5978380294829604,-0.9882000132277607,0.7227442193321884
1789317371984070100,11.851070068359375,-2.5345512110888957,-4.174232726815343,1.3868043406359851
1789317371994025000,11.86102490234375,-3.784630182638764,4.729300850741565,0.9381631128396838
1789317372003980000,11.87097998046875,-1.96756264000535,5.005864752498269,-0.30171902047507465
1789317372013935000,11.88093505859375,-1.431048702162504,0.4366770145624876,-0.9540510023232549
1789317372023890000,11.890889892578125,-0.6033037470459938,-0.32992169019579887,-1.5477452825680373
1789317372033845000,11.900844970703124,0.18616086951494215,-1.8488667024761438,-2.2022800351575014
1789317372043800000,11.910800048828126,2.295067332187295,-0.5019558346807956,-0.9469091677445918
1789317372053755100,11.920755126953125,3.2693712142705915,0.9293518106788397,0.4215124343847856
1789317372063710000,11.9307099609375,1.1376105302333832,0.20173720883131027,0.42349085831828415
1789317372073665000,11.9406650390625,0.049130818393826485,-1.489145501822233,-1.1920936694405972
1789317372083620000,11.9506201171875,-1.9793296501666306,0.25132395429909227,-1.6134600098855794
1789317372093575000,11.960574951171875,-2.1786288181960582,-0.25288521226644517,-0.5349555294197053
1789317372103530000,11.970530029296874,-2.3852859477728603,-0.34481472342312336,0.21660295219291
1789317372113485000,11.980485107421876,-2.7128087601333855,-1.0148246930420397,0.07244363371375948
1789317372123440000,11.990440185546875,-0.17603870395123958,1.95915137001276,-0.039646585407480596
1789317372133395000,12.00039501953125,1.9663678772628306,1.0894126087754965,0.02688360474510118
1789317372143350000,12.01035009765625,2.525444944569468,-0.4240145168662071,0.10218290188461542
1789317372153305000,12.02030517578125,1.980920134228468,0.5955816283613443,-0.6619340690605342
1789317372163260000,12.030260009765625,-3.2300217851787805,-2.259490407371521,-0.836934516005218
1789317372173215000,12.040215087890624,-1.0497112975060938,0.0554085834890604,0.39723534060996024
1789317372183170000,12.050170166015626,-1.6384546042799948,0.012648469170928,1.929612410186976
1789317372193125000,12.060125,1.8583616760522126,0.8278554297536611,2.0994600044131277
1789317372203080000,12.070079833984375,2.405918985956907,-1.336739602392912,1.5180910257995128
1789317372213035000,12.080034912109374,2.39134860881269,-0.28578385778367515,0.5674488090064376
1789317372222990000,12.089989990234375,0.8128197731852531,2.6589567584365605,-0.7871022713437676
1789317372232945000,12.09994482421875,0.07887655283808707,1.237858372402191,-2.143908217948675
1789317372242899000,12.10989892578125,-2.728417832675576,-5.244320457395911,-0.985144717310369
1789317372252854000,12.11985400390625,0.22237141605913638,-1.6939859373658894,2.014466429999471
1789317372262809000,12.12980908203125,-0.011268997511267661,0.9050976593881845,2.8521523488938807
1789317372272764000,12.139763916015625,-1.500009425663948,2.71283798622787,1.7481391139663756
1789317372282719200,12.14971923828125,-1.849268853536248,2.080156753528118,-0.03891081847883761
1789317372292674000,12.159674072265625,-2.870680523753166,-2.2764760289639234,-0.6172308578506112
1789317372302629000,12.169629150390625,-0.6646884823352098,-1.4861311224371194,-0.23153207964692263
1789317372312584000,12.179583984375,3.0125375566393133,-2.8761873044759034,0.41193135342784226
1789317372322539000,12.1895390625,4.764709725514054,0.09175707719922065,1.282812489633262
1789317372332494000,12.199494140625,2.5979665754228827,-0.4573626597166061,0.10794497254267334
1789317372342449000,12.209448974609375,1.5325713865727186,-0.7394120071470737,-1.9345223940603433
1789317372352404200,12.219404296875,1.380889709764719,2.7947195661008357,-1.7472167384244501
1789317372362359000,12.229359130859375,-2.260306399929523,-3.7131963470220564,-0.9359081004545092
1789317372372313900,12.23931396484375,-2.4012983404189345,-3.4708559096455573,1.0623608626555652
1789317372382269200,12.249269287109374,-5.165611077818274,-0.657306555390358,0.9642319854021072
1789317372392224000,12.25922412109375,-3.3949200864344835,4.048375811615586,0.9747178697116673
1789317372402179000,12.269178955078125,0.3383598481953144,5.144984469375014,1.6820073302805423
1789317372412134000,12.2791337890625,-0.16344810244739055,-0.5848761099517346,0.21673224112838504
1789317372422089200,12.289089111328124,1.153273378789425,-1.4794015219211578,-0.7556981752332299
1789317372432044000,12.2990439453125,0.39794133345484733,-3.0038053841292855,-1.7566050367556512
1789317372441998800,12.308998779296875,1.5677625269412994,-0.051745384806394575,0.052973903688043354
1789317372451954200,12.3189541015625,4.713772734481096,2.9831822828173635,2.1569383799135684
1789317372461909000,12.328908935546876,2.762386737772822,0.913466843804717,1.5182888864591717
1789317372471864000,12.338864013671875,-0.18490297840833664,-0.3914940570116043,0.29756241225227714
1789317372481819000,12.34881884765625,-2.332281502816081,-2.2885107501506803,-0.6284279591694474
1789317372491774200,12.358774169921874,-2.706800459629297,1.7913415652245281,1.2777724496394396
1789317372501729000,12.36872900390625,-1.315017599928379,3.1229122405469414,1.4034127994790673
1789317372511683800,12.378683837890625,-4.453814807349443,1.0701584577292202,-0.8117064781811087
1789317372521638000,12.388637939453124,-1.2254419584214686,2.9340765988647934,-0.07515307533554733
1789317372531593000,12.398593017578126,1.0003139371305703,-1.0382944159567356,1.0253777243036777
1789317372541548000,12.408548095703125,2.0762357806921004,-0.6267348915159702,1.5577236557468772
1789317372551502800,12.4185029296875,1.2537410011887549,-1.1485568716615437,-0.1392243462949991
1789317372561458200,12.428458251953124,0.6493973897010088,-0.4421598298877477,-0.5472751319624484
1789317372571413000,12.4384130859375,2.286165648329258,0.358265741148591,0.001937470868602395
1789317372581368000,12.4483681640625,-0.006003039807081222,-1.2913719359248876,-1.7875747600369154
1789317372591323100,12.4583232421875,-0.643113779386878,0.8105021438926457,-1.3092587441407144
1789317372601278000,12.46827783203125,-1.852875938117504,0.7516580329969524,-0.3454273023635149
1789317372611233000,12.47823291015625,-2.4379086999356745,0.10799743338227272,0.39730573896504934
1789317372621187800,12.488187744140625,0.7253647770941257,0.19370763163268565,0.08466236969791352
1789317372631143200,12.49814306640625,0.7579144630432129,2.3865192889600992,-0.0782623664624989
1789317372641098000,12.508097900390625,1.173398467451334,-0.5965759000957012,-1.5747976862750948
1789317372651053000,12.518052978515625,-0.452536262473464,-1.4822995814502238,-2.1989345241218805
1789317372661008100,12.528008056640624,0.27685294783115383,-1.3370762870013713,-0.7421550222449004
1789317372670963000,12.537962890625,0.9374334103256463,0.9577993220061063,1.4750345588833094
1789317372680918000,12.54791796875,0.1978366942614317,1.8765163414239883,1.6533195804566143
1789317372690873000,12.557873046875,-3.5254368101388214,0.8015051829665899,0.6554996520988643
1789317372700828200,12.567828125,-4.703300440305471,1.1877595857590437,-0.10850889003574847
1789317372710783000,12.577782958984375,-2.4573744479060173,-0.8321797226935624,1.415556533998251
1789317372720738000,12.587738037109375,3.5623189723342654,-1.2055308047711848,2.4262621012836694
1789317372730693000,12.597693115234375,4.720388353228569,-3.803205703771114,1.4871106349937617
