time,seconds_elapsed,z,y,x
1789317360172479500,0.0394794921875,-0.14673671126365662,-0.4025370478630066,0.7308347821235657
1789317360182434300,0.049434326171875,0.13769102096557617,0.2511131763458252,0.5441778302192688
1789317360192389400,0.059389404296875,0.06937588006258011,0.7652148604393005,0.3228182792663574
1789317360202344200,0.06934423828125,-0.10159134119749069,0.6753265261650085,-0.26903945207595825
1789317360212299300,0.07929931640625,-0.15279966592788696,0.3395077586174011,-1.10678231716156
1789317360222254300,0.08925439453125,-0.16352102160453796,0.049674347043037415,-1.3031080961227417
1789317360232209200,0.099209228515625,-0.1932341754436493,-0.027719246223568916,-0.545891284942627
1789317360242164500,0.10916455078125,-0.1503618061542511,-0.2610209584236145,0.4623415470123291
1789317360252119300,0.119119384765625,-0.16042669117450714,-0.193573996424675,1.3403236865997314
1789317360262074000,0.12907421875,-0.030730748549103737,0.26043131947517395,1.1569544076919556
1789317360272029200,0.139029296875,0.10783032327890396,0.7134382128715515,0.10954726487398148
1789317360281984300,0.148984375,-0.10170132666826248,0.13030287623405457,-0.6503024101257324
1789317360291939300,0.158939208984375,-0.5505763292312622,-0.7598416805267334,-0.566660463809967
1789317360301894100,0.16889404296875,-0.6758988499641418,-0.49492743611335754,-0.14478515088558197
1789317360311849500,0.178849365234375,-0.17701898515224457,0.8928050398826599,-0.3326743543148041
1789317360321804300,0.18880419921875,0.17627276480197906,1.0624513626098633,-0.3078952431678772
1789317360331759000,0.198759033203125,-0.02081686444580555,0.7087321281433105,-0.26529479026794434
1789317360341714400,0.20871435546875,-0.45559707283973694,-0.6068310737609863,-0.12239435315132141
1789317360351669200,0.218669189453125,-0.7663123607635498,-0.7196990251541138,0.3931198716163635
1789317360361624300,0.228624267578125,-0.5293357372283936,-0.38508111238479614,0.49516552686691284
1789317360371579100,0.2385791015625,-0.23619815707206726,0.34055572748184204,0.6420530080795288
1789317360381534500,0.248534423828125,-0.17723043262958527,0.39263781905174255,0.42984697222709656
1789317360391489300,0.2584892578125,-0.3898194134235382,-0.08244986832141876,0.060754694044589996
1789317360401444000,0.268444091796875,-0.5519995093345642,-0.4056609570980072,-0.20115014910697937
1789317360411399400,0.2783994140625,-0.4343586266040802,0.07574483007192612,-0.5849132537841797
1789317360421354200,0.288354248046875,-0.33147966861724854,0.7232344150543213,-0.42358827590942383
1789317360431309300,0.298309326171875,-0.2591077387332916,1.4945553541183472,-0.5627184510231018
1789317360441264400,0.308264404296875,-0.3492487967014313,0.33406558632850647,-0.6951540112495422
1789317360451219200,0.31821923828125,-0.6794615983963013,-0.6718055605888367,-0.4987461566925049
1789317360461174300,0.32817431640625,-0.7617682218551636,-0.6962062120437622,0.23849833011627197
1789317360471129000,0.338129150390625,-0.4369019567966461,-0.4928712248802185,1.1423461437225342
1789317360481084400,0.34808447265625,-0.20889036357402802,-0.10807374119758606,1.495460867881775
1789317360491039200,0.358039306640625,-0.236949160695076,0.30577749013900757,1.0959986448287964
1789317360500994300,0.367994384765625,-0.26318690180778503,0.6865032911300659,-0.024699220433831215
1789317360510949400,0.377949462890625,-0.36171427369117737,0.34285640716552734,-1.2957426309585571
1789317360520904200,0.387904296875,-0.5987529158592224,-0.03051077201962471,-1.8742696046829224
1789317360530859300,0.397859375,-0.6748271584510803,-0.20319226384162903,-1.3486883640289307
1789317360540814000,0.40781396484375,-0.5085511207580566,-0.20327721536159515,-0.20165428519248962
1789317360550769400,0.417769287109375,-0.2791147232055664,0.7122169137001038,0.727813184261322
1789317360560724200,0.42772412109375,-0.08813172578811646,0.019518041983246803,1.0049291849136353
1789317360570679300,0.43767919921875,-0.3173081874847412,-0.7752786874771118,0.9217836856842041
1789317360580634400,0.44763427734375,-0.6120279431343079,-1.3162695169448853,0.8514456152915955
1789317360590589200,0.457589111328125,-0.4809306561946869,-1.1350818872451782,0.5682461261749268
1789317360600544300,0.467544189453125,-0.15564605593681335,-0.2789245843887329,0.26854756474494934
1789317360610499300,0.477499267578125,0.042155709117650986,1.1070725917816162,-0.3144783079624176
1789317360620454400,0.487454345703125,-0.01537442859262228,1.7741888761520386,-1.1814922094345093
1789317360630409200,0.4974091796875,-0.3757472634315491,0.21735282242298126,-1.6331819295883179
1789317360640364300,0.5073642578125,-0.732599139213562,-1.2193493843078613,-1.1773885488510132
1789317360650319400,0.5173193359375,-0.5300921201705933,-1.0013624429702759,0.3018946051597595
1789317360660274200,0.527274169921875,0.2041643261909485,-0.19163814187049866,1.5329415798187256
1789317360670229200,0.537229248046875,0.6120253205299377,0.08677776902914047,1.926730990409851
1789317360680184300,0.547184326171875,0.42976149916648865,0.5410802960395813,1.0229235887527466
1789317360690139400,0.557139404296875,-0.0496639609336853,-0.2819206416606903,-0.3274606764316559
1789317360700094200,0.56709423828125,-0.6546750068664551,-0.4934888184070587,-1.1526075601577759
1789317360710049300,0.57704931640625,-0.7709441184997559,-0.6588977575302124,-1.1356205940246582
1789317360720004400,0.58700439453125,-0.2806686758995056,-0.15424416959285736,-0.26859790086746216
1789317360729959200,0.596959228515625,0.4258551597595215,1.213790774345398,-0.051289550960063934
1789317360739914200,0.606914306640625,0.6072590351104736,0.6306029558181763,0.039387088268995285
1789317360749868300,0.616868408203125,0.0874084085226059,-0.7663059830665588,0.2586534023284912
1789317360759823400,0.6268232421875,-0.45496058464050293,-1.2910549640655518,0.3836965262889862
1789317360769778400,0.6367783203125,-0.44897088408470154,-0.1809506118297577,0.42173126339912415
1789317360779733500,0.6467333984375,-0.023612651973962784,0.43724605441093445,0.19914212822914124
1789317360789688300,0.656688232421875,0.08521928638219833,0.3262649178504944,0.18703699111938477
1789317360799643400,0.666643310546875,-0.040461670607328415,-0.4916802644729614,0.08653782308101654
1789317360809598500,0.676598388671875,-0.1320592314004898,-0.8205220699310303,-0.1310000866651535
1789317360819553300,0.68655322265625,0.09073735773563385,-0.14152410626411438,-0.4003934860229492
1789317360829508400,0.69650830078125,0.32947084307670593,0.5965344905853271,-0.5777701139450073
1789317360839463400,0.70646337890625,0.08013159036636353,0.4545312821865082,-0.03880172595381737
1789317360849418500,0.71641845703125,-0.22975996136665344,-0.07305290549993515,0.25849974155426025
1789317360859373300,0.726373291015625,-0.11914823204278946,-0.7843206524848938,0.10338790714740753
1789317360869328400,0.736328369140625,0.20786717534065247,-0.5224850177764893,-0.06952182203531265
1789317360879283500,0.746283447265625,0.38594478368759155,0.07433335483074188,-0.037521809339523315
1789317360889238300,0.75623828125,0.2578645646572113,0.36127856373786926,0.2988058626651764
1789317360899193300,0.766193359375,0.025845445692539215,-0.18451684713363647,0.38787075877189636
1789317360909148400,0.7761484375,-0.05059153959155083,-0.658407986164093,0.19598469138145447
1789317360919103500,0.786103515625,0.20363381505012512,-0.5388331413269043,-0.10144460201263428
1789317360929059600,0.7960595703125,0.4531821310520172,-0.2054349184036255,-0.10018465667963028
1789317360939013400,0.806013427734375,0.44068869948387146,-0.1253099888563156,0.15540184080600739
1789317360948969500,0.815969482421875,0.3395639657974243,-0.15557387471199036,0.18924342095851898
1789317360958923300,0.82592333984375,0.3326357305049896,-0.43593868613243103,-0.005388640332967043
1789317360968878600,0.835878662109375,0.40609636902809143,-0.14977803826332092,-0.29622554779052734
1789317360978834400,0.84583447265625,0.43436288833618164,0.18013088405132294,-0.2671440839767456
1789317360988788500,0.85578857421875,0.3660546839237213,0.2026444524526596,0.08201577514410019
1789317360998744600,0.86574462890625,0.3296671211719513,0.22154784202575684,0.07219137251377106
1789317361008699400,0.875699462890625,0.38698580861091614,-0.04912067577242851,-0.13287203013896942
1789317361018654500,0.885654541015625,0.45691800117492676,-0.14968669414520264,-0.4068247377872467
1789317361028609500,0.895609619140625,0.3783648908138275,-0.271413654088974,-0.1628355234861374
1789317361038564400,0.905564453125,0.2820069193840027,-0.15424922108650208,0.2753463387489319
1789317361048519400,0.91551953125,0.30757540464401245,0.08035023510456085,0.2702954113483429
1789317361058474200,0.92547412109375,0.3450402021408081,0.08361899852752686,0.10094791650772095
1789317361068429600,0.9354296875,0.31162258982658386,0.35304754972457886,-0.32985007762908936
1789317361078384400,0.94538427734375,0.11101014167070389,0.006954045966267586,-0.25092464685440063
1789317361088339500,0.95533935546875,-0.07342495024204254,-0.6196675300598145,0.11475800722837448
1789317361098294500,0.96529443359375,-0.11002956330776215,-1.0360013246536255,0.6675703525543213
1789317361108249300,0.975249267578125,0.21903221309185028,-0.21440470218658447,0.721924364566803
1789317361118204400,0.985204345703125,0.6143462657928467,1.0808231830596924,0.04575284197926521
1789317361128159500,0.995159423828125,0.48244333267211914,0.926727831363678,-0.45811429619789124
1789317361138114600,1.005114501953125,-0.1630922555923462,0.11450527608394623,-0.6325822472572327
1789317361148069400,1.0150693359375,-0.5702240467071533,-1.1811119318008423,-0.5684812664985657
1789317361158024200,1.025024169921875,-0.3244345486164093,-0.8856310248374939,-0.36990854144096375
1789317361167979500,1.0349794921875,0.26668068766593933,0.13976535201072693,0.19103600084781647
1789317361177934300,1.044934326171875,0.5965662002563477,1.5301405191421509,0.36313265562057495
1789317361187889400,1.054889404296875,0.17017759382724762,0.9826483726501465,0.2890576422214508
1789317361197844500,1.064844482421875,-0.6113011837005615,-1.2664806842803955,-0.10445477068424225
1789317361207799600,1.074799560546875,-0.9327122569084167,-1.8818343877792358,0.25076884031295776
1789317361217754400,1.08475439453125,-0.3526192903518677,-0.8841716051101685,0.7359083890914917
1789317361227709200,1.094709228515625,0.398467481136322,0.5626385807991028,0.792756199836731
1789317361237664500,1.10466455078125,0.4313061237335205,1.526788353919983,0.5382956862449646
1789317361247619300,1.114619384765625,0.04496188089251518,0.7591654658317566,-0.3571527898311615
1789317361257574400,1.124574462890625,-0.4950302541255951,-0.7279449701309204,-0.9235589504241943
1789317361267529500,1.134529541015625,-0.7131447196006775,-0.40658318996429443,-1.0197938680648804
1789317361277484500,1.144484619140625,-0.2086309790611267,0.03545253351330757,-0.846019983291626
1789317361287439400,1.154439453125,0.2077915519475937,1.0745519399642944,-0.23671294748783112
1789317361297394400,1.16439453125,0.16933177411556244,0.5290878415107727,0.33384373784065247
1789317361307349500,1.174349609375,-0.30631545186042786,-0.418495774269104,0.9263813495635986
1789317361317304300,1.18430419921875,-0.5964122414588928,-0.8535186052322388,0.9615380167961121
1789317361327259400,1.19425927734375,-0.2819240987300873,-0.6650730967521667,0.330212265253067
1789317361337214500,1.20421435546875,0.06825681775808334,-0.4658491909503937,0.16028687357902527
1789317361347169300,1.214169189453125,0.116392120718956,-0.007625695317983627,0.20280317962169647
1789317361357124400,1.224124267578125,0.03437022492289543,0.5322210192680359,-0.0006689860601909459
1789317361367079400,1.234079345703125,0.11825553327798843,1.1591038703918457,-0.8546110391616821
1789317361377034500,1.244034423828125,0.05973470211029053,0.5725013613700867,-1.3771368265151978
1789317361386989300,1.2539892578125,-0.32246166467666626,-0.18372562527656555,-0.9392606616020203
1789317361396944600,1.263944580078125,-0.4222433865070343,-0.5595107078552246,-0.031001325696706772
1789317361406899500,1.2738994140625,-0.048039164394140244,-0.5629104971885681,0.8992461562156677
1789317361416854300,1.283854248046875,0.5480402112007141,-0.5286198854446411,1.046874761581421
1789317361426809300,1.293809326171875,0.4890671670436859,-0.0245538130402565,1.0940390825271606
1789317361436764400,1.303764404296875,-0.0711069330573082,0.6259410977363586,0.3233274519443512
1789317361446719500,1.313719482421875,-0.5439916849136353,0.5931360125541687,-0.5757418870925903
1789317361456674300,1.32367431640625,-0.622998058795929,0.16256201267242432,-1.1570212841033936
1789317361466629600,1.333629638671875,-0.3494322896003723,0.11322056502103806,-1.5574008226394653
1789317361476584400,1.34358447265625,0.04200417548418045,0.2234509289264679,-1.322037935256958
1789317361486539300,1.353539306640625,0.23003213107585907,-0.7336295247077942,-0.18971426784992218
1789317361496494300,1.363494384765625,0.06905363500118256,-0.4486877918243408,1.071071743965149
1789317361506449400,1.373449462890625,-0.155636727809906,-0.4807929992675781,1.843796968460083
1789317361516404500,1.383404541015625,-0.3560984432697296,-0.1494949460029602,1.8614004850387573
1789317361526359300,1.393359375,-0.2965719997882843,-0.025852102786302567,0.88636314868927
1789317361536314400,1.403314453125,0.05336388945579529,-0.394131600856781,-0.19775408506393433
1789317361546269400,1.41326953125,0.3467704653739929,-0.3125579059123993,-0.8789457082748413
1789317361556224300,1.423224365234375,0.44305944442749023,0.18251600861549377,-1.1050227880477905
1789317361566179600,1.4331796875,0.5849718451499939,1.0254062414169312,-1.3278793096542358
1789317361576134400,1.443134521484375,0.5026460886001587,0.601556658744812,-1.1944003105163574
1789317361586089500,1.45308935546875,0.0011590076610445976,-0.27188557386398315,-0.09103403240442276
1789317361596044300,1.463044189453125,-0.2329922318458557,-0.43301987648010254,0.9016030430793762
1789317361605999400,1.472999267578125,0.17564772069454193,0.29075565934181213,1.1562433242797852
1789317361615954400,1.482954345703125,0.7266794443130493,0.18917657434940338,0.8029486536979675
1789317361625909200,1.4929091796875,0.7252975106239319,-0.5562219619750977,0.3493369519710541
1789317361635864600,1.502864501953125,0.38887476921081543,-1.2331207990646362,0.25444960594177246
1789317361645819400,1.5128193359375,0.24777305126190186,-0.8675353527069092,0.027533357962965965
1789317361655774500,1.5227744140625,0.3194429874420166,0.08412712812423706,-0.09785332530736923
1789317361665729500,1.5327294921875,0.4209384322166443,1.2803341150283813,-0.22314439713954926
1789317361675684400,1.542684326171875,0.3013761043548584,1.9170719385147095,-0.4801122844219208
1789317361685639400,1.552639404296875,-0.07334345579147339,0.6482911705970764,-0.46859011054039
1789317361695594200,1.56259423828125,-0.2415550947189331,-0.7250897884368896,-0.5388336777687073
1789317361705549600,1.572549560546875,0.12608842551708221,-0.3125395178794861,-0.4259827435016632
1789317361715504400,1.58250439453125,0.6391615867614746,0.28236350417137146,0.058156780898571014
1789317361725459500,1.59245947265625,0.5579202771186829,0.4119763672351837,0.5071529746055603
1789317361735414500,1.60241455078125,-0.0282907597720623,-0.36526745557785034,1.1991013288497925
1789317361745369600,1.61236962890625,-0.40201348066329956,-1.070693850517273,1.2008075714111328
1789317361755324700,1.62232470703125,-0.2700751721858978,-0.7427239418029785,0.7419518828392029
1789317361765279700,1.63227978515625,0.27953416109085083,0.7200111746788025,-0.11304586380720139
1789317361775234800,1.64223486328125,0.6559991836547852,1.2870945930480957,-1.0877755880355835
1789317361785189600,1.652189697265625,0.23843787610530853,1.4474815130233765,-1.3330777883529663
1789317361795144400,1.66214453125,-0.37838485836982727,-0.28220880031585693,-1.4711812734603882
1789317361805099800,1.672099853515625,-0.7977637648582458,-1.4407362937927246,-0.3067106604576111
1789317361815054600,1.6820546875,-0.518239438533783,-1.1972261667251587,0.8465251326560974
1789317361825009700,1.692009765625,0.12776222825050354,0.47397369146347046,1.3932851552963257
1789317361834964700,1.70196484375,0.41957488656044006,2.2694458961486816,1.4154003858566284
1789317361844919800,1.711919921875,0.18348939716815948,1.1338602304458618,0.08202029764652252
1789317361854874600,1.72187451171875,-0.6410551071166992,-1.201462984085083,-0.6742066740989685
1789317361864829400,1.731829345703125,-1.0723580121994019,-1.663948893547058,-0.9632435441017151
1789317361874784800,1.74178466796875,-0.5613732933998108,-0.6101107597351074,-0.8401394486427307
1789317361884739600,1.751739501953125,0.1170794814825058,1.18619966506958,-0.043964263051748276
1789317361894694700,1.761694580078125,0.3937041461467743,1.9904236793518066,-0.06807652115821838
1789317361904649700,1.771649658203125,-0.12033839523792267,0.39245885610580444,0.11618492752313614
1789317361914604500,1.7816044921875,-0.8557359576225281,-1.2844138145446777,0.01110351737588644
1789317361924559600,1.7915595703125,-0.9920892715454102,-1.2290458679199219,0.22689120471477509
1789317361934514700,1.8015146484375,-0.32744577527046204,-0.19933627545833588,0.6556505560874939
1789317361944469800,1.8114697265625,0.28409484028816223,0.8193108439445496,0.3872624933719635
1789317361954424600,1.821424560546875,0.09803255647420883,0.9312930703163147,0.00401498144492507
1789317361964379600,1.831379638671875,-0.3185548186302185,0.26382285356521606,-0.8363041877746582
1789317361974334700,1.841334716796875,-0.64384925365448,-0.5673278570175171,-1.0528959035873413
1789317361984289500,1.85128955078125,-0.7056180834770203,-0.2741266191005707,-0.49728673696517944
1789317361994244600,1.86124462890625,-0.33280885219573975,0.17525650560855865,0.050638411194086075
1789317362004199700,1.87119970703125,-0.01290647778660059,0.41692879796028137,0.7571864724159241
1789317362014154800,1.88115478515625,0.04571981728076935,-0.10097721219062805,0.6781135201454163
1789317362024109600,1.891109619140625,-0.13134044408798218,-0.291513592004776,0.21588408946990967
1789317362034065000,1.90106494140625,-0.26534271240234375,-0.7078871130943298,-0.39885470271110535
1789317362044019700,1.911019775390625,-0.5425298810005188,-0.8116998076438904,-0.2061486393213272
1789317362053974500,1.920974609375,-0.6102353930473328,-0.2824641764163971,0.4672843813896179
1789317362063929600,1.9309296875,-0.18465134501457214,0.5639368891716003,0.44526827335357666
1789317362073884700,1.940884765625,0.06716598570346832,0.8016812801361084,0.1516457200050354
1789317362083839700,1.95083984375,-0.09684079140424728,0.1100655198097229,-0.38341236114501953
1789317362093794600,1.960794677734375,-0.40192800760269165,-0.8573522567749023,-0.5147477388381958
1789317362103749600,1.97074951171875,-0.477107971906662,-0.3180251121520996,-0.40252402424812317
1789317362113704700,1.98070458984375,-0.12833133339881897,0.5501656532287598,-0.3558875322341919
1789317362123659500,1.990659423828125,0.10658769309520721,0.6227719783782959,-0.14895565807819366
1789317362133613600,2.000613525390625,-0.13114337623119354,-0.3624250590801239,0.0008556736283935606
1789317362143569700,2.010569580078125,-0.49889689683914185,-1.2439441680908203,0.4665144383907318
1789317362153524700,2.020524658203125,-0.36426156759262085,-0.6868329644203186,0.7634843587875366
1789317362163478500,2.030478515625,0.15303614735603333,-0.16355563700199127,0.833168089389801
1789317362173434600,2.0404345703125,0.3904833197593689,0.20321837067604065,0.38414180278778076
1789317362183388700,2.050388671875,0.17228734493255615,-0.0010953581659123302,-0.10752645879983902
1789317362193343700,2.06034375,-0.09329399466514587,-0.3922026753425598,-0.672088086605072
1789317362203299800,2.0702998046875,-0.23384897410869598,-0.1735084056854248,-0.8121967315673828
1789317362213253600,2.080253662109375,-0.0969124287366867,0.14884354174137115,-0.5373750329017639
1789317362223208700,2.090208740234375,0.07865753024816513,0.42003270983695984,-0.1920115202665329
1789317362233163500,2.10016357421875,0.01810736395418644,-0.07840932160615921,0.554848849773407
1789317362243118800,2.110118896484375,0.13508938252925873,-0.4339751601219177,0.4073323607444763
1789317362253074700,2.12007470703125,0.19173774123191833,-0.7494657039642334,0.631210207939148
1789317362263028700,2.13002880859375,0.2353328913450241,-0.4121990203857422,0.30881455540657043
1789317362272983600,2.139983642578125,0.16340038180351257,0.15774622559547424,-0.12026914954185486
1789317362282938600,2.149938720703125,0.06247642636299133,0.9403504729270935,-0.3818192780017853
1789317362292893700,2.159893798828125,0.05500359833240509,-0.10035163909196854,-0.7477482557296753
1789317362302848500,2.1698486328125,-0.20490680634975433,-1.2353743314743042,0.10744789987802505
1789317362312803800,2.179803955078125,-0.04328222572803497,-1.2518625259399414,0.6031162142753601
1789317362322758700,2.189758544921875,0.634049117565155,-0.2333887815475464,0.1515093594789505
1789317362332713700,2.199713623046875,0.9732673764228821,2.8986568450927734,-0.31040847301483154
1789317362342668800,2.209668701171875,0.6555024981498718,-0.08744516223669052,-0.9306269884109497
1789317362352623600,2.21962353515625,-0.5778063535690308,-0.844088077545166,-0.5299229621887207
1789317362362578700,2.22957861328125,-0.8681348562240601,-1.5984820127487183,0.08280247449874878
1789317362372533500,2.239533447265625,0.10344969481229782,-0.7038130164146423,0.15166409313678741
1789317362382488800,2.24948876953125,0.9335324764251709,0.37741759419441223,0.6587709784507751
1789317362392443600,2.259443603515625,0.8896231055259705,1.3479334115982056,0.7379797697067261
1789317362402398500,2.2693984375,0.24861887097358704,1.090871810913086,0.37475335597991943
1789317362412353800,2.279353759765625,-0.37955665588378906,-0.3547232151031494,-0.625012218952179
1789317362422308600,2.28930859375,-0.6066102981567383,-0.812472939491272,-1.233444333076477
1789317362432263700,2.299263671875,-0.20719845592975616,-0.6396079063415527,-0.5880855917930603
1789317362442218500,2.309218505859375,0.4793652594089508,0.2148028463125229,0.055095743387937546
1789317362452173800,2.319173828125,0.8178445100784302,0.7511664032936096,0.47874608635902405
1789317362462128600,2.329128662109375,0.7111950516700745,0.5606574416160583,0.5161019563674927
1789317362472083500,2.33908349609375,0.1874402016401291,-0.7005064487457275,0.32357513904571533
1789317362482038800,2.349038818359375,-0.46873340010643005,-0.8718619346618652,0.40892040729522705
1789317362491993600,2.35899365234375,-0.35489577054977417,-0.44990670680999756,0.10570406168699265
1789317362501948700,2.36894873046875,0.14428287744522095,0.3123595118522644,0.18430139124393463
1789317362511903700,2.37890380859375,0.4895164370536804,0.5794851779937744,0.09085506945848465
1789317362521858800,2.38885888671875,0.5391910672187805,0.077537402510643,-0.3357098400592804
1789317362531813600,2.398813720703125,0.36671915650367737,-0.4634275734424591,-0.721855640411377
1789317362541768400,2.4087685546875,0.18321269750595093,0.036387037485837936,-0.7955112457275391
1789317362551723800,2.418723876953125,0.05586140230298042,0.8655574321746826,-0.08958660811185837
1789317362561678600,2.4286787109375,0.0836741253733635,0.48495951294898987,0.22993811964988708
1789317362571633700,2.438633544921875,0.0087807085365057,-0.513087809085846,0.357599675655365
1789317362581588700,2.448588623046875,0.08536789566278458,-1.0801514387130737,0.7380040287971497
1789317362591543600,2.45854345703125,0.5116313099861145,-1.2644044160842896,0.8801497220993042
1789317362601498600,2.46849853515625,0.7230498194694519,-0.25259336829185486,0.7850255966186523
1789317362611453700,2.47845361328125,0.611111044883728,0.9807764291763306,0.2403247207403183
1789317362621408800,2.48840869140625,0.3140314221382141,1.248993992805481,-0.5929581522941589
1789317362631363600,2.498363525390625,-0.12215040624141693,0.8908207416534424,-1.0656678676605225
1789317362641318700,2.508318603515625,-0.23453180491924286,0.11475401371717453,-1.3334450721740723
1789317362651273700,2.518273681640625,-0.05950354039669037,-0.43856722116470337,-0.4776344895362854
1789317362661228500,2.528228515625,0.4038718342781067,-0.6197567582130432,0.3255482614040375
1789317362671183600,2.53818359375,0.6613473296165466,0.009436378255486488,0.9977972507476807
1789317362681138700,2.548138671875,0.6056113243103027,0.32410189509391785,1.2717938423156738
1789317362691093800,2.55809375,0.2765519618988037,0.33754900097846985,0.5602383017539978
1789317362701048600,2.568048583984375,-0.32962504029273987,-0.21432481706142426,0.06753376871347427
1789317362711003600,2.578003662109375,-0.4920818507671356,-0.6669828295707703,-0.5266464948654175
1789317362720958700,2.587958740234375,-0.18362948298454285,-0.40118417143821716,-0.4612909257411957
1789317362730913500,2.59791357421875,0.3040648102760315,0.9357392191886902,-0.4281851649284363
1789317362740868600,2.60786865234375,0.6188211441040039,0.9518438577651978,-0.7235920429229736
1789317362750824000,2.617823974609375,0.3220352828502655,0.5729761719703674,-0.7052854895591736
1789317362760779000,2.627779052734375,-0.2248014211654663,-0.8485124111175537,-0.33802303671836853
1789317362770733800,2.63773388671875,-0.5952215790748596,-0.7882831692695618,0.758084774017334
1789317362780689000,2.64768896484375,-0.29421404004096985,-0.40380364656448364,1.2893662452697754
1789317362790644000,2.65764404296875,0.1900666058063507,0.37657976150512695,0.9672079086303711
1789317362800598800,2.667598876953125,0.4195250868797302,0.39137282967567444,0.1818731278181076
1789317362810554000,2.67755419921875,0.30932191014289856,-0.10065656900405884,-0.7235954999923706
1789317362820509000,2.687509033203125,0.010647051967680454,-0.7156398296356201,-0.9453310966491699
1789317362830464000,2.697464111328125,-0.10201291739940643,0.5416755080223083,-0.869925320148468
1789317362840419000,2.707419189453125,0.024866200983524323,0.6903296709060669,-0.6458791494369507
1789317362850374000,2.717373779296875,-0.019476495683193207,0.8771994709968567,-0.2713302969932556
1789317362860329000,2.727328857421875,-0.12195573002099991,-0.5686666369438171,0.15492379665374756
1789317362870283800,2.73728369140625,-0.1144847646355629,-1.0203022956848145,0.5788926482200623
1789317362880239000,2.747239013671875,0.2578757405281067,0.24768222868442535,0.527656614780426
1789317362890194000,2.75719384765625,0.5609387159347534,0.39337125420570374,0.1701195389032364
1789317362900149000,2.76714892578125,0.1761063188314438,-0.07963331043720245,0.2994426488876343
1789317362910104000,2.77710400390625,-0.2702732980251312,-0.9005476236343384,0.1257760375738144
1789317362920059000,2.787058837890625,-0.27881112694740295,-0.6823316812515259,-0.008519452065229416
1789317362930014000,2.797013916015625,0.19763904809951782,0.33435508608818054,-0.2321150004863739
1789317362939969000,2.806968994140625,0.5291405320167542,1.0187586545944214,-0.4513631761074066
1789317362949924000,2.816924072265625,0.3285121023654938,1.0405422449111938,-0.3563530445098877
1789317362959879000,2.82687890625,-0.091182641685009,-0.2892341911792755,-0.435642808675766
1789317362969833700,2.836833740234375,-0.41498786211013794,-0.7587833404541016,-0.022847792133688927
1789317362979789000,2.8467890625,-0.0054301852360367775,-0.2769666314125061,-0.20864935219287872
1789317362989743900,2.856743896484375,0.35172316431999207,-0.19343285262584686,0.41888752579689026
1789317362999699000,2.866698974609375,0.29128777980804443,0.1425188034772873,0.9114722013473511
1789317363009654000,2.876654052734375,0.07715976238250732,-0.04916594922542572,0.8397788405418396
1789317363019609000,2.886609130859375,-0.026510968804359436,-0.2695702314376831,0.4528425633907318
1789317363029564000,2.89656396484375,0.043602339923381805,-0.10820449888706207,-0.4088146686553955
1789317363039518700,2.906518798828125,0.08365548402070999,0.4259084165096283,-0.8122838139533997
1789317363049474000,2.91647412109375,0.19777220487594604,0.8743903636932373,-0.9682129621505737
1789317363059428900,2.926428955078125,0.06076667830348015,0.4441998302936554,-0.40929484367370605
1789317363069384000,2.936384033203125,-0.07263771444559097,-0.21220360696315765,0.00941880140453577
1789317363079339000,2.946339111328125,0.0022029669489711523,-0.3137669861316681,0.3584817051887512
1789317363089294000,2.956294189453125,0.3030237853527069,0.273318886756897,0.10052820295095444
1789317363099249000,2.966248779296875,0.3328924775123596,0.40391844511032104,0.19199873507022858
1789317363109204000,2.976203857421875,-0.04490728676319122,-0.16743773221969604,0.5740656852722168
1789317363119159000,2.986158935546875,-0.37992390990257263,-1.1329782009124756,0.6116796135902405
1789317363129113900,2.99611376953125,-0.3762034475803375,-0.800003170967102,0.7417764067649841
1789317363139069000,3.00606884765625,0.27587074041366577,0.07119561731815338,0.09621148556470871
1789317363149024000,3.01602392578125,0.685160756111145,1.9376147985458374,-0.8149096965789795
1789317363158978800,3.025978759765625,0.18554376065731049,1.8610448837280273,-1.106877326965332
1789317363168934000,3.035933837890625,-0.6090548038482666,-0.8081149458885193,-1.481338381767273
1789317363178889000,3.045888916015625,-1.0751266479492188,-1.4024256467819214,-0.23623117804527283
1789317363188844000,3.055843994140625,-0.31553852558135986,-0.9293593168258667,0.72535640001297
1789317363198798800,3.065798828125,0.5736497044563293,0.45632386207580566,1.4527679681777954
1789317363208754200,3.075754150390625,0.5518953800201416,1.0667773485183716,1.5732264518737793
1789317363218709000,3.085708984375,-0.03917669877409935,0.6741648316383362,0.45022282004356384
1789317363228663800,3.095663818359375,-0.6674922704696655,-0.6647931933403015,-0.3860774040222168
1789317363238619000,3.105618896484375,-0.7228162884712219,-0.9469771981239319,-1.444515347480774
1789317363248574000,3.115573974609375,-0.37536269426345825,-0.5720618963241577,-0.9956914782524109
1789317363258529000,3.125529052734375,0.2114264965057373,0.7903119325637817,-0.26447558403015137
1789317363268483800,3.13548388671875,0.4773623049259186,0.9239981174468994,0.14089347422122955
1789317363278439200,3.145439208984375,0.08739722520112991,0.6468901038169861,0.683361828327179
1789317363288394000,3.15539404296875,-0.18210962414741516,-0.2987488806247711,-0.0034413367975503206
1789317363298348800,3.165348876953125,-0.3604724407196045,-0.3061564564704895,-0.2368415743112564
1789317363308304000,3.175303955078125,-0.14033500850200653,-0.146745502948761,-0.34542691707611084
1789317363318259000,3.185259033203125,0.12282419204711914,-0.5138441324234009,0.07737495005130768
1789317363328214000,3.195214111328125,0.17530657351016998,-0.24004028737545013,0.7437124848365784
1789317363338168800,3.2051689453125,0.2883215546607971,0.35461294651031494,0.2626872956752777
1789317363348124000,3.2151240234375,0.1790405958890915,0.8251293301582336,-0.2807192802429199
1789317363358079000,3.225078857421875,-0.014407435432076454,0.8535242080688477,-0.9320328831672668
1789317363368033800,3.23503369140625,-0.3196408450603485,0.15734009444713593,-0.7019125819206238
1789317363377989000,3.244989013671875,-0.3728313744068146,-0.45984721183776855,0.16026370227336884
1789317363387944000,3.25494384765625,0.09186521172523499,-0.25037682056427,0.3765123784542084
1789317363397899000,3.26489892578125,0.6679407954216003,0.513463020324707,0.1932288408279419
1789317363407853800,3.274853759765625,0.7146621942520142,0.3870371878147125,-0.05164268612861633
1789317363417809000,3.284808837890625,0.13867293298244476,-0.24765454232692719,0.11637534201145172
1789317363427764000,3.294763916015625,-0.2980026602745056,-1.0092754364013672,0.6100766658782959
1789317363437718800,3.30471875,-0.20199251174926758,-0.7881278991699219,0.5997403860092163
1789317363447674000,3.314674072265625,-0.006709834095090628,0.2387923300266266,0.5774731636047363
1789317363457629000,3.32462890625,0.2698218822479248,1.1568148136138916,0.1996912807226181
1789317363467584000,3.334583984375,0.5022127628326416,0.9194345474243164,-0.47184741497039795
1789317363477539000,3.3445390625,0.3183952867984772,0.4570429027080536,-1.01921808719635
1789317363487494000,3.354493896484375,0.004699147772043943,-0.3682169020175934,-1.2377650737762451
1789317363497449000,3.364448974609375,-0.27893495559692383,-0.42577049136161804,-0.41542676091194153
1789317363507403800,3.37440380859375,-0.11917299777269363,-0.33718255162239075,0.3356488347053528
1789317363517359000,3.384359130859375,0.16068582236766815,0.5290252566337585,1.0688953399658203
1789317363527314000,3.39431396484375,0.36621952056884766,0.6262229084968567,1.0756409168243408
1789317363537269000,3.40426904296875,0.1907598376274109,0.08417559415102005,0.4679269790649414
1789317363547224000,3.41422412109375,-0.2263748198747635,-0.5474039912223816,0.0062800003215670586
1789317363557179000,3.424178955078125,-0.3029012680053711,-0.8016511797904968,-0.30803531408309937
1789317363567134000,3.434134033203125,-0.07435199618339539,0.3669534921646118,-0.32260680198669434
1789317363577088800,3.4440888671875,0.19133080542087555,1.100212574005127,-0.21181665360927582
1789317363587044000,3.454044189453125,0.27003708481788635,1.014683485031128,-0.4248511493206024
1789317363596999000,3.4639990234375,0.0001512675517005846,0.21114446222782135,-0.4016598165035248
1789317363606954000,3.4739541015625,-0.24489204585552216,-0.4824361503124237,-0.45188942551612854
1789317363616909000,3.483908935546875,-0.3963114023208618,-0.2638060748577118,0.25096645951271057
1789317363626863900,3.49386376953125,-0.2452491670846939,0.10313277691602707,0.8146774768829346
1789317363636819000,3.50381884765625,-0.03105725161731243,0.43888095021247864,0.8436745405197144
1789317363646774000,3.51377392578125,0.03635960444808006,-0.14815537631511688,0.5857731699943542
1789317363656729000,3.52372900390625,0.004139084834605455,-0.4508795738220215,-0.10150717943906784
1789317363666684000,3.533683837890625,-0.11805021017789841,-0.5469006299972534,-0.10794537514448166
1789317363676638700,3.543638671875,-0.08394496887922287,0.8428060412406921,-0.35561081767082214
1789317363686594000,3.553593994140625,-0.011292335577309132,1.3071279525756836,-0.7240085601806641
1789317363696548900,3.563548828125,-0.3194371163845062,0.6768916249275208,-0.7366340756416321
1789317363706504000,3.57350390625,-0.5864318013191223,-0.38573864102363586,-0.640326201915741
1789317363716459000,3.583458984375,-0.4526345729827881,-1.0276774168014526,0.07798135280609131
1789317363726414000,3.5934140625,0.02377776801586151,0.11129509657621384,0.4385509788990021
1789317363736369000,3.603368896484375,0.24572961032390594,-0.0521865040063858,0.9790624380111694
1789317363746324000,3.613323974609375,-0.04009655490517616,0.43641433119773865,1.0185099840164185
1789317363756277200,3.62327734375,-0.3465483486652374,-0.46751099824905396,0.42301836609840393
1789317363766233000,3.633233154296875,-0.5023614168167114,-0.888985276222229,-0.10793578624725342
1789317363776187400,3.6431875,-0.29100626707077026,-0.07297327369451523,-0.9141724109649658
1789317363786142500,3.653142578125,-0.024775387719273567,0.4200425446033478,-0.9310810565948486
1789317363796097300,3.66309716796875,0.08058006316423416,1.1164090633392334,-0.7119604349136353
1789317363806052000,3.673052001953125,-0.008873386308550835,0.7304267883300781,-0.6666451692581177
1789317363816007400,3.68300732421875,-0.3580707907676697,-0.4417896568775177,-0.35046905279159546
1789317363825962200,3.692962158203125,-0.6040616631507874,-0.4678201973438263,0.14014779031276703
1789317363835917300,3.702917236328125,-0.40604472160339355,-0.421259343624115,0.988666296005249
1789317363845872400,3.712872314453125,0.0582268200814724,0.02793229930102825,1.3318668603897095
1789317363855827500,3.722827392578125,0.3711296021938324,0.3074723184108734,0.6182986497879028
1789317363865782300,3.7327822265625,0.2586509883403778,-0.38496899604797363,-0.05967824533581734
1789317363875737300,3.7427373046875,-0.04770520329475403,-0.8523449897766113,-0.7827208638191223
1789317363885692400,3.7526923828125,-0.3007260262966156,-0.5753259062767029,-0.7137801647186279
1789317363895647200,3.762647216796875,-0.15847405791282654,0.5412272810935974,-0.3091490566730499
1789317363905602300,3.772602294921875,0.15652835369110107,0.9708420634269714,0.013919544406235218
1789317363915557400,3.782557373046875,0.16202911734580994,0.677010715007782,0.19243043661117554
1789317363925512200,3.79251220703125,-0.012251606211066246,-0.8208906650543213,0.09015998989343643
1789317363935467300,3.80246728515625,-0.11670424789190292,-1.2253576517105103,0.3615776300430298
1789317363945422300,3.81242236328125,0.12069153040647507,-1.0462992191314697,0.5919733047485352
1789317363955377400,3.82237744140625,0.30098408460617065,0.016889501363039017,0.6003806591033936
1789317363965332200,3.832332275390625,0.28909358382225037,0.8942042589187622,0.19223442673683167
1789317363975287600,3.84228759765625,-0.023750070482492447,0.896151065826416,-0.3452053368091583
1789317363985242400,3.852242431640625,-0.35195085406303406,0.3170035183429718,-0.8680855631828308
1789317363995197200,3.862197265625,-0.4133865237236023,-0.3779856562614441,-0.8170442581176758
1789317364005152300,3.87215234375,-0.1728159785270691,-0.6367178559303284,-0.4274730384349823
1789317364015107300,3.882107421875,0.1877901405096054,-0.16746942698955536,0.2242102026939392
1789317364025062400,3.8920625,0.4233992099761963,0.3645593225955963,0.6636059284210205
1789317364035017200,3.902017333984375,0.2819129228591919,0.10432667285203934,0.7291902899742126
1789317364044972500,3.91197265625,-0.18207792937755585,-0.25131213665008545,0.45316189527511597
1789317364054927400,3.92192724609375,-0.4114280343055725,-0.8442792892456055,-0.15546388924121857
1789317364064882200,3.931882080078125,-0.36417636275291443,-0.6345345973968506,-0.25098881125450134
1789317364074837200,3.941837158203125,-0.0412592887878418,-0.16189488768577576,-0.1416010707616806
1789317364084792300,3.951792236328125,0.2229803502559662,0.8132393956184387,-0.08905664086341858
1789317364094747400,3.961747314453125,0.18465906381607056,1.16649329662323,-0.22122132778167725
1789317364104702200,3.9717021484375,-0.01104759145528078,0.6558481454849243,-0.9646624326705933
1789317364114657300,3.9816572265625,-0.47202587127685547,-0.7555782198905945,-0.5457096695899963
1789317364124612400,3.9916123046875,-0.5415918827056885,-1.2339223623275757,0.05402062460780144
1789317364134567200,4.001567138671875,-0.1395440399646759,-0.3167169690132141,0.7849994897842407
1789317364144522500,4.0115224609375,0.38885027170181274,0.716986894607544,0.8327145576477051
1789317364154477300,4.021477294921875,0.3542962968349457,0.3576636016368866,0.44156089425086975
1789317364164432400,4.031432373046875,-0.190061554312706,-0.22060507535934448,0.27805373072624207
1789317364174387200,4.04138720703125,-0.44593673944473267,-0.5310689210891724,-0.4905548095703125
1789317364184342300,4.05134228515625,-0.44411221146583557,-0.35844123363494873,-0.5005709528923035
1789317364194297300,4.06129736328125,-0.1156482994556427,0.2699134945869446,-0.35507073998451233
1789317364204252200,4.071252197265625,0.23606978356838226,0.6887072920799255,-0.34496936202049255
1789317364214207500,4.08120751953125,0.16399292647838593,0.8833478689193726,-0.020112458616495132
1789317364224162300,4.091162353515625,-0.00037763622822239995,-0.02172340452671051,-0.2962963879108429
1789317364234117400,4.101117431640625,-0.2605258524417877,-0.15984052419662476,-0.27433034777641296
1789317364244072400,4.111072509765625,-0.23141245543956757,-0.23583942651748657,-0.16579961776733398
1789317364254027300,4.12102734375,-0.11185196787118912,-0.44445016980171204,0.28831514716148376
1789317364263982300,4.130982421875,-0.09313127398490906,-0.27602946758270264,1.0303360223770142
1789317364273937200,4.140937255859375,0.15839283168315887,0.09560482203960419,0.6702758073806763
1789317364283892500,4.150892578125,0.24967481195926666,0.09966880083084106,0.16272632777690887
1789317364293847300,4.160847412109375,0.08791973441839218,0.11233479529619217,-0.5446550250053406
1789317364303802400,4.17080224609375,-0.15986263751983643,-0.467398077249527,-0.6580908298492432
1789317364313757400,4.18075732421875,-0.2966971695423126,-0.2062639594078064,-0.11660118401050568
1789317364323712300,4.190712158203125,0.004563326481729746,0.814650297164917,-0.15170830488204956
1789317364333667300,4.200667236328125,0.28818970918655396,1.1565577983856201,-0.051831770688295364
1789317364343622100,4.2106220703125,0.25564509630203247,-0.268459677696228,-0.26458504796028137
1789317364353577500,4.220577392578125,-0.10083500295877457,-0.8534440398216248,-0.032828785479068756
1789317364363532300,4.2305322265625,-0.0647188052535057,-0.8965598344802856,0.36727574467658997
1789317364373487400,4.2404873046875,0.22350312769412994,-0.37498506903648376,0.4815216362476349
1789317364383442400,4.2504423828125,0.1939082145690918,0.27926093339920044,0.5346775054931641
1789317364393397200,4.260397216796875,0.05439692735671997,0.40181267261505127,0.4383981227874756
1789317364403352300,4.270352294921875,-0.10825483500957489,0.42881500720977783,0.15074823796749115
1789317364413307400,4.280307373046875,-0.1590663492679596,0.21734750270843506,-0.5067918300628662
1789317364423262500,4.290262451171875,0.04260791465640068,0.19390395283699036,-1.0995371341705322
1789317364433217300,4.30021728515625,0.2537153661251068,-0.02984870970249176,-0.888323187828064
1789317364443172000,4.310172119140625,0.24435913562774658,-0.6449006795883179,-0.0021608888637274504
1789317364453127400,4.32012744140625,0.09065347164869308,-0.2130584716796875,0.8019227981567383
1789317364463082200,4.330082275390625,0.057371415197849274,0.2692759335041046,1.1261637210845947
1789317364473037300,4.340037353515625,0.03363492712378502,0.6259927749633789,0.6333023905754089
1789317364482992400,4.349992431640625,-0.09267667680978775,0.1985889971256256,-0.16181419789791107
1789317364492947500,4.359947509765625,-0.25047534704208374,-0.4599588215351105,-0.5128877758979797
1789317364502902300,4.36990234375,-0.22583286464214325,-0.7735098004341125,-0.2515624463558197
1789317364512857300,4.379857421875,0.1127004474401474,-0.036263465881347656,0.02045760490000248
1789317364522812400,4.3898125,0.4636227786540985,1.377879023551941,-0.3182658553123474
1789317364532767200,4.399767333984375,0.28018876910209656,1.045873999595642,-0.34011390805244446
1789317364542722300,4.409722412109375,-0.31788262724876404,-0.5327084064483643,-0.23165346682071686
1789317364552677400,4.419677490234375,-0.6399285793304443,-0.555001437664032,0.1455574631690979
1789317364562632400,4.429632568359375,-0.1305801123380661,0.6384047269821167,0.10041848570108414
1789317364572587300,4.439587158203125,0.31946852803230286,-0.22223439812660217,0.13533519208431244
1789317364582542300,4.449542236328125,0.0070832096971571445,-1.1300148963928223,0.9928916692733765
1789317364592497400,4.459497314453125,-0.23257438838481903,-1.814508318901062,1.7581642866134644
1789317364602452200,4.4694521484375,-0.19569812715053558,-1.9474003314971924,2.441202402114868
1789317364612407300,4.4794072265625,0.08756047487258911,0.833842396736145,1.1522678136825562
1789317364622362400,4.4893623046875,0.5787177085876465,5.683406352996826,-1.8202354907989502
1789317364632317200,4.499317138671875,-0.0022061625495553017,-2.33532977104187,-3.668257474899292
1789317364642272300,4.509272216796875,-1.427682876586914,-1.7621252536773682,-2.9296059608459473
1789317364652227300,4.519227294921875,-1.1972472667694092,-1.7793577909469604,-0.823982834815979
1789317364662182400,4.529182373046875,0.5550206303596497,1.8175970315933228,0.07440712302923203
1789317364672137200,4.53913720703125,1.4520339965820312,3.2548882961273193,0.9082284569740295
1789317364682092500,4.549092529296875,0.633228063583374,-1.3579719066619873,1.8303778171539307
1789317364692047400,4.55904736328125,-0.7441452741622925,-1.7348699569702148,1.8032846450805664
1789317364702002200,4.569002197265625,-0.7356380820274353,-2.4235057830810547,1.463341236114502
1789317364711957200,4.578957275390625,0.19282405078411102,-0.25366929173469543,0.19264668226242065
1789317364721912300,4.588912353515625,0.6557523012161255,0.9917289614677429,-0.4283606708049774
1789317364731867400,4.598867431640625,0.4694859981536865,1.287306308746338,-0.8703117370605469
1789317364741822200,4.608822265625,0.039383623749017715,1.1997196674346924,-1.6917458772659302
1789317364751777800,4.61877783203125,-0.20301249623298645,-0.4478534162044525,-2.047391653060913
1789317364761732900,4.62873291015625,-0.20354779064655304,-0.6428937315940857,-1.5583481788635254
1789317364771687700,4.638687744140625,0.05492769554257393,0.35929372906684875,0.037144437432289124
1789317364781642800,4.648642822265625,0.47688427567481995,-0.4332936406135559,1.3750617504119873
1789317364791596800,4.6585966796875,0.5105101466178894,-0.07092264294624329,1.52268385887146
1789317364801552000,4.6685517578125,0.4130735993385315,-1.0587934255599976,1.052535891532898
1789317364811507700,4.6785078125,0.3012501299381256,-0.9772877097129822,0.08556976169347763
1789317364821461800,4.688461669921875,0.06776946038007736,-0.7731164693832397,-0.07015032321214676
1789317364831416800,4.698416748046875,0.041495244950056076,-0.22671250998973846,0.12840111553668976
1789317364841371600,4.70837158203125,0.3160325288772583,1.452824354171753,-0.006176935974508524
1789317364851326700,4.71832666015625,0.5616731643676758,1.7649093866348267,-0.839604914188385
1789317364861281800,4.72828173828125,0.34869086742401123,-0.17633216083049774,-1.9148575067520142
1789317364871236900,4.73823681640625,-0.23402661085128784,-1.425843358039856,-1.0591567754745483
1789317364881191700,4.748191650390625,-0.22993919253349304,-2.2040483951568604,0.9571584463119507
1789317364891147000,4.75814697265625,0.3364808261394501,-0.18558983504772186,2.13285756111145
1789317364901101800,4.768101806640625,0.8732792735099792,2.1578736305236816,1.6133382320404053
1789317364911056600,4.778056640625,0.6237895488739014,1.8304641246795654,0.33139124512672424
1789317364921011700,4.78801171875,-0.24512852728366852,-0.2527790069580078,-0.7910288572311401
1789317364930966800,4.797966796875,-0.7420962452888489,-2.0929489135742188,-1.170661449432373
1789317364940921900,4.807921875,-0.4834260642528534,-1.897064447402954,-0.9136251211166382
1789317364950876700,4.817876708984375,0.288408100605011,1.7905443906784058,-0.42814815044403076
1789317364960832000,4.82783203125,0.9433606266975403,1.4720090627670288,-0.028363464400172234
1789317364970786800,4.837786865234375,0.5483187437057495,0.7553374767303467,0.010757306590676308
1789317364980741600,4.84774169921875,-0.22693701088428497,-1.9226504564285278,0.06968613713979721
1789317364990696700,4.85769677734375,-0.5970844626426697,-1.3782652616500854,0.6091578602790833
1789317365000651800,4.86765185546875,-0.17012512683868408,-0.8259389400482178,0.9665615558624268
1789317365010606800,4.87760693359375,0.33021438121795654,0.9301230907440186,0.7092338800430298
1789317365020561700,4.887561767578125,0.42268121242523193,1.6044807434082031,0.14883528649806976
1789317365030516700,4.897516845703125,0.15233920514583588,0.5715194344520569,-0.8079828023910522
1789317365040471800,4.907471923828125,-0.26670944690704346,-0.2986612617969513,-1.2750160694122314
1789317365050426600,4.917426513671875,-0.2966045141220093,-0.3223000168800354,-1.0999544858932495
1789317365060382000,4.9273818359375,-0.0671827644109726,-0.5674373507499695,-0.10049784183502197
1789317365070336800,4.937336669921875,0.06064976379275322,-0.38678979873657227,1.0801030397415161
1789317365080291800,4.947291748046875,0.13793469965457916,-0.5503907203674316,1.5154284238815308
1789317365090246700,4.95724658203125,0.12372753024101257,-0.4873028099536896,1.6719110012054443
1789317365100201700,4.96720166015625,0.20455020666122437,1.7303845882415771,0.30607762932777405
1789317365110156800,4.97715673828125,0.14394225180149078,1.7112016677856445,-1.2505996227264404
1789317365120111600,4.987111572265625,-0.3151092231273651,-0.4470674991607666,-2.009577751159668
1789317365130067000,4.99706689453125,-0.660280168056488,-1.4926786422729492,-1.5836617946624756
1789317365140021800,5.007021728515625,-0.3782956302165985,-1.9824345111846924,0.04030214995145798
1789317365149976800,5.016976806640625,0.3973146080970764,0.4560586214065552,1.0616973638534546
1789317365159932000,5.026931884765625,0.9821825623512268,2.726945161819458,1.1089285612106323
1789317365169886700,5.03688671875,0.5629081130027771,1.7049099206924438,0.8172418475151062
1789317365179841800,5.046841796875,-0.5445975065231323,-1.5121783018112183,-0.06677157431840897
1789317365189796600,5.056796630859375,-1.0541484355926514,-1.9055460691452026,-0.0255141481757164
1789317365199752000,5.066751953125,-0.15627242624759674,-0.7854666113853455,-0.07375863939523697
1789317365209706800,5.076706787109375,0.9478797316551208,0.7829831838607788,-0.28783339262008667
1789317365219661800,5.086661865234375,1.0358892679214478,1.9788613319396973,-0.2018473744392395
1789317365229617000,5.096616943359375,0.4412735402584076,1.0171767473220825,-0.1665937751531601
1789317365239571700,5.10657177734375,-0.3233831226825714,-0.8322242498397827,0.06981822848320007
1789317365249526800,5.11652685546875,-0.6281315684318542,-0.09465646743774414,-0.30300673842430115
1789317365259481600,5.126481689453125,-0.08613382279872894,0.40102705359458923,-0.5087090134620667
1789317365269437000,5.13643701171875,0.47162187099456787,1.0006496906280518,-0.29035353660583496
1789317365279391700,5.146391845703125,0.46901756525039673,-0.3219839036464691,0.19756686687469482
1789317365289346800,5.156346923828125,0.2337733507156372,-1.0952342748641968,0.3840928077697754
1789317365299302000,5.166302001953125,0.24891075491905212,-0.5550954341888428,0.19788804650306702
1789317365309256700,5.176256591796875,0.31641310453414917,0.5197478532791138,0.06693881750106812
1789317365319211800,5.186211669921875,0.14148442447185516,1.0338817834854126,0.36122211813926697
1789317365329166800,5.196166748046875,-0.11670344322919846,0.5902755260467529,0.5856112837791443
1789317365339122000,5.206121826171875,-0.12219541519880295,-0.19722571969032288,0.17356060445308685
1789317365349076700,5.21607666015625,0.062245797365903854,-0.7397294640541077,-0.4313359558582306
1789317365359031600,5.226031494140625,0.416620135307312,-0.8063167333602905,-0.6091344356536865
1789317365368987000,5.23598681640625,0.6041993498802185,0.02407151460647583,-0.136957049369812
1789317365378941700,5.245941650390625,0.4751385748386383,1.2793549299240112,0.3417152464389801
1789317365388896800,5.255896728515625,0.19180512428283691,1.819605827331543,0.26214373111724854
1789317365398851800,5.265851806640625,-0.2892179489135742,-0.5245300531387329,-0.14282293617725372
1789317365408807000,5.275806884765625,-0.6673138737678528,-1.0707361698150635,-0.0846933126449585
1789317365418761700,5.28576171875,-0.19949953258037567,-1.4308637380599976,0.4515371024608612
1789317365428716800,5.295716796875,0.499224454164505,-0.5141799449920654,1.0236037969589233
1789317365438672000,5.305671875,0.7470534443855286,0.8021259903907776,1.05276358127594
1789317365448626700,5.315626708984375,0.4672185778617859,1.4648206233978271,0.4859376847743988
1789317365458581800,5.325581787109375,-0.12499120086431503,1.530948281288147,-0.7555651664733887
1789317365468536800,5.335536865234375,-0.8079002499580383,0.7009801864624023,-1.6545332670211792
1789317365478492000,5.345491943359375,-1.0418972969055176,-0.22095848619937897,-1.6407785415649414
1789317365488446700,5.35544677734375,-0.5752180218696594,-0.08076222240924835,-0.9401693344116211
1789317365498401800,5.36540185546875,0.11067405343055725,-0.2191653698682785,0.3668312728404999
1789317365508356900,5.37535693359375,0.5247402191162109,-0.28584161400794983,1.2994178533554077
1789317365518311700,5.385311767578125,0.4786398112773895,0.007162305526435375,1.4759840965270996
1789317365528266800,5.395266845703125,0.02893737517297268,-0.03129959851503372,1.3335275650024414
1789317365538221800,5.405221923828125,-0.41562703251838684,-0.275932252407074,0.4432400166988373
1789317365548176600,5.4151767578125,-0.6835951209068298,-0.2721364498138428,-0.2170388400554657
1789317365558131700,5.425131591796875,-0.5250243544578552,0.16611947119235992,-0.8620740175247192
1789317365568086800,5.435086669921875,-0.05666540935635567,0.5693694353103638,-1.4451065063476562
1789317365578041900,5.445041748046875,0.33105915784835815,0.7160779237747192,-1.2357118129730225
1789317365587996700,5.45499658203125,0.4450051486492157,0.7440727949142456,-0.8717141151428223
1789317365597952000,5.464951904296875,0.055743422359228134,-0.4284070134162903,0.3199566900730133
1789317365607906800,5.47490673828125,-0.3159662187099457,-0.2675850987434387,0.750459611415863
1789317365617860900,5.48486083984375,-0.26844850182533264,-0.24268294870853424,0.5215010046958923
1789317365627815700,5.494815673828125,-0.055624645203351974,-0.013321397826075554,0.17177948355674744
1789317365637771000,5.50477099609375,0.09085427224636078,0.11046233028173447,-0.31126120686531067
1789317365647725800,5.514725830078125,0.07979229837656021,0.37597203254699707,-0.38738101720809937
1789317365657680600,5.5246806640625,0.14598117768764496,0.11739027500152588,-0.7173735499382019
1789317365667635700,5.5346357421875,-0.0421740859746933,-0.4512329697608948,-0.5089841485023499
1789317365677590800,5.5445908203125,-0.31246069073677063,-0.447856605052948,0.11825713515281677
1789317365687545900,5.5545458984375,-0.2815278172492981,0.014094247482717037,0.5393643975257874
1789317365697500700,5.564500732421875,-0.1622283160686493,0.3823191523551941,0.9980416893959045
1789317365707456000,5.5744560546875,0.0002364887041039765,0.333047479391098,0.47847631573677063
1789317365717410800,5.584410888671875,-0.001044758129864931,-0.27400386333465576,-0.1775987595319748
1789317365727365600,5.59436572265625,-0.0748920813202858,-0.5018607378005981,-0.8399197459220886
1789317365737320700,5.60432080078125,-0.25817403197288513,-0.9533720016479492,-0.42092886567115784
1789317365747275800,5.61427587890625,-0.37427106499671936,0.03939986974000931,0.3460114598274231
1789317365757230600,5.624230712890625,-0.16751202940940857,1.3300518989562988,0.23114614188671112
1789317365767185400,5.634185302734375,-0.15465030074119568,1.4632234573364258,-0.211937814950943
1789317365777140700,5.644140625,-0.49915680289268494,-0.7183259129524231,-0.7179400324821472
1789317365787095600,5.654095458984375,-0.8597168922424316,-1.584006905555725,-0.14421284198760986
1789317365797050400,5.66405029296875,-0.46210744976997375,-1.1284372806549072,0.5873167514801025
1789317365807005700,5.674005615234375,0.19234947860240936,0.5405077338218689,0.8785573840141296
1789317365816960500,5.68396044921875,0.30814477801322937,1.433608055114746,0.5646463632583618
1789317365826915600,5.69391552734375,-0.13394927978515625,0.9674292206764221,-0.31207266449928284
1789317365836870400,5.703870361328125,-0.7462901473045349,-1.3369468450546265,-0.6611419916152954
1789317365846825500,5.713825439453125,-0.999725341796875,-1.6114031076431274,-0.19424404203891754
1789317365856780500,5.723780517578125,-0.3677047789096832,-0.8043902516365051,0.3556329309940338
1789317365866735400,5.7337353515625,0.40928444266319275,0.9660289287567139,0.7755767107009888
1789317365876690700,5.743690673828125,0.589156985282898,1.8781352043151855,0.4176822006702423
1789317365886645500,5.7536455078125,0.13381265103816986,0.26906609535217285,-0.47174781560897827
1789317365896600600,5.7636005859375,-0.5284454822540283,-1.3997797966003418,-1.0506303310394287
1789317365906555400,5.773555419921875,-0.6248921155929565,-1.4869074821472168,-0.7366684079170227
1789317365916510500,5.783510498046875,-0.05211513116955757,-0.3566263020038605,0.35949718952178955
1789317365926465500,5.793465576171875,0.6337934732437134,1.3930872678756714,0.8253452777862549
1789317365936420400,5.80342041015625,0.7478159070014954,1.9379825592041016,0.32081156969070435
1789317365946375700,5.813375732421875,0.13004028797149658,-1.4980264902114868,-0.36797696352005005
1789317365956330500,5.82333056640625,-0.5468457937240601,-2.170318841934204,-0.23703065514564514
1789317365966285600,5.83328564453125,-0.4261989891529083,-2.431241750717163,1.0558096170425415
1789317365976240600,5.84324072265625,0.20694465935230255,-0.8572161793708801,2.0191855430603027
1789317365986195500,5.853195556640625,0.7839046716690063,1.952955961227417,1.4614205360412598
1789317365996150500,5.863150634765625,1.003696084022522,4.324579238891602,-0.5663118958473206
1789317366006105300,5.873105224609375,0.29750093817710876,-0.8100550174713135,-2.9553210735321045
1789317366016060700,5.883060791015625,-0.9918815493583679,-1.9099069833755493,-2.973844289779663
1789317366026015500,5.893015380859375,-0.856039822101593,-0.6870894432067871,-1.5301448106765747
1789317366035970600,5.902970458984375,0.5372922420501709,-0.1320914626121521,0.4437023401260376
1789317366045925600,5.912925537109375,1.2157567739486694,1.149234652519226,1.8259292840957642
1789317366055880400,5.92288037109375,0.8412795066833496,0.8624972105026245,2.1057820320129395
1789317366065835500,5.93283544921875,0.1222207173705101,-0.23677977919578552,1.4727057218551636
1789317366075790600,5.94279052734375,-0.4454818665981293,-1.324800968170166,0.05823827162384987
1789317366085745700,5.95274560546875,-0.7456382513046265,-1.3668307065963745,-0.41892802715301514
1789317366095700500,5.962700439453125,-0.2478470802307129,-0.9397650957107544,-0.2118358165025711
1789317366105655600,5.972655517578125,0.6261819005012512,1.9972800016403198,-0.7216317057609558
1789317366115610600,5.982610595703125,0.9814454317092896,2.39538836479187,-1.1357226371765137
1789317366125565400,5.9925654296875,0.5552730560302734,-0.048473525792360306,-1.5543060302734375
1789317366135520500,6.0025205078125,-0.388904333114624,-2.046199321746826,-0.4730450510978699
1789317366145475600,6.0124755859375,-0.6911656856536865,-1.5518825054168701,0.9420450329780579
1789317366155430700,6.0224306640625,-0.09346949309110641,0.7225579619407654,1.729330062866211
1789317366165385500,6.032385498046875,0.5895264148712158,2.19590163230896,1.4184101819992065
1789317366175340300,6.04234033203125,0.5105343461036682,2.0066657066345215,-0.18859121203422546
1789317366185295600,6.052295654296875,-0.14737187325954437,-0.8951289057731628,-1.3596789836883545
1789317366195250400,6.06225048828125,-0.46917253732681274,-2.231677770614624,-1.3623690605163574
1789317366205205500,6.07220556640625,-0.03395503759384155,-1.054929256439209,-0.6753677725791931
1789317366215160600,6.08216064453125,0.7839033007621765,2.3154571056365967,0.25992026925086975
1789317366225115600,6.09211572265625,0.9397948980331421,1.710565447807312,0.7087859511375427
1789317366235070500,6.102070556640625,-0.020352676510810852,-0.4386870861053467,0.5881215929985046
1789317366245025500,6.112025634765625,-0.7054673433303833,-1.6196736097335815,0.43389952182769775
1789317366254980600,6.121980712890625,-0.34889593720436096,-0.5872414112091064,0.23107503354549408
1789317366264935400,6.131935302734375,0.39041808247566223,-0.4698154330253601,0.370409220457077
1789317366274890500,6.141890380859375,0.4932781457901001,0.6097847819328308,0.7630299925804138
1789317366284845600,6.151845458984375,0.5022386312484741,0.7444251775741577,0.3037276566028595
1789317366294800600,6.161800537109375,0.45041483640670776,1.6618084907531738,-1.0897690057754517
1789317366304754400,6.17175439453125,0.1748168170452118,-0.25169748067855835,-2.0527050495147705
1789317366314709500,6.18170947265625,-0.352626770734787,-1.674272060394287,-1.3717730045318604
1789317366324665600,6.19166552734375,-0.48578134179115295,-0.4197794198989868,0.39784830808639526
1789317366334619600,6.20161962890625,0.2689550220966339,1.1178333759307861,1.4799692630767822
1789317366344574500,6.211574462890625,0.8054517507553101,2.2925713062286377,1.0040104389190674
1789317366354529500,6.221529541015625,0.3514576256275177,-0.9668113589286804,0.3293054699897766
1789317366364484600,6.231484619140625,-0.47067269682884216,-1.8572957515716553,0.32604601979255676
1789317366374439400,6.241439453125,-0.48493847250938416,-2.1312754154205322,0.6982230544090271
1789317366384394800,6.251394775390625,0.18118096888065338,2.2892704010009766,0.13712909817695618
1789317366394349600,6.261349609375,0.8190999031066895,2.667015552520752,-0.5805898904800415
1789317366404304400,6.271304443359375,0.30542781949043274,0.4528351128101349,-1.2474696636199951
1789317366414259500,6.281259521484375,-0.7312020063400269,-0.9546545743942261,-1.0961238145828247
1789317366424214500,6.291214599609375,-0.7045741677284241,-2.409723997116089,-0.02984657883644104
1789317366434169600,6.301169677734375,0.1084686890244484,0.9487114548683167,0.7102599740028381
1789317366444124400,6.31112451171875,0.8875700831413269,1.046186089515686,1.0422712564468384
1789317366454079700,6.321079833984375,0.5788202285766602,1.502038598060608,0.6592783331871033
1789317366464034600,6.33103466796875,-0.1012033149600029,-0.4045746326446533,0.011394867673516273
1789317366473989400,6.3409892578125,-0.5177803039550781,-2.236128091812134,-0.02575116977095604
1789317366483944400,6.3509443359375,-0.329619437456131,-0.8917568325996399,-0.6955130100250244
1789317366493899500,6.3608994140625,0.18377089500427246,0.09177945554256439,-0.4739878177642822
1789317366503854600,6.3708544921875,0.3711674213409424,1.632219672203064,-0.05259263888001442
1789317366513809400,6.380809326171875,0.21324969828128815,2.1692824363708496,-0.053880274295806885
1789317366523764700,6.3907646484375,-0.1658736616373062,-0.8862690925598145,-0.3032834529876709
1789317366533719600,6.400719482421875,-0.5526607632637024,-1.026172161102295,-0.637124240398407
1789317366543674400,6.41067431640625,-0.4142046272754669,-0.9286181926727295,0.20650577545166016
1789317366553629700,6.420629638671875,0.21239295601844788,-0.2784803509712219,0.9415696263313293
1789317366563584500,6.43058447265625,0.4136160910129547,0.1395597606897354,1.3592031002044678
1789317366573539600,6.44053955078125,0.2654908001422882,0.7074024081230164,0.8592327237129211
1789317366583494400,6.450494384765625,0.1383136659860611,0.4110240340232849,-0.5786588191986084
1789317366593449500,6.460449462890625,-0.2728872001171112,0.5745348930358887,-1.325994849205017
1789317366603404500,6.470404541015625,-0.44711756706237793,0.1172531247138977,-1.4683400392532349
1789317366613359400,6.480359375,-0.28058159351348877,-0.10985219478607178,-0.9533743858337402
1789317366623314700,6.490314697265625,0.0821681097149849,0.12064944952726364,-0.4979836940765381
1789317366633269500,6.50026953125,0.31625595688819885,0.4542170464992523,-0.04662848636507988
1789317366643224600,6.510224609375,0.1991937905550003,-0.40224677324295044,0.9275081753730774
1789317366653179600,6.5201796875,-0.12894226610660553,-0.2957339286804199,1.352171778678894
1789317366663134500,6.530134521484375,-0.27671682834625244,-0.4191780984401703,1.118311882019043
1789317366673089500,6.540089599609375,-0.16625182330608368,-0.46552640199661255,0.3377460837364197
1789317366683044400,6.55004443359375,-0.04436320438981056,-0.5107695460319519,-0.22616495192050934
1789317366692999700,6.559999755859375,0.0692318007349968,-0.517119288444519,-0.3096816837787628
1789317366702954500,6.56995458984375,0.1139497384428978,-0.2602691352367401,-0.051295679062604904
1789317366712909600,6.57990966796875,0.18462683260440826,0.8794586062431335,-0.48751506209373474
1789317366722864600,6.58986474609375,0.2983664572238922,2.705059766769409,-1.4060840606689453
1789317366732819500,6.5998193359375,-0.07792329043149948,-1.410901665687561,-0.9990952610969543
1789317366742774500,6.6097744140625,-0.8939635157585144,-0.9579299688339233,0.4560183882713318
1789317366752729000,6.61972900390625,-0.5101399421691895,-0.9673913717269897,1.3173831701278687
1789317366762684400,6.629684326171875,0.4040718376636505,0.5903626084327698,1.0805253982543945
1789317366772639200,6.63963916015625,0.5662527680397034,0.7574645280838013,0.5108944177627563
1789317366782594300,6.64959423828125,0.06966190040111542,0.12092722207307816,0.16903509199619293
1789317366792549400,6.65954931640625,-0.365739643573761,-1.2853450775146484,0.13565556704998016
1789317366802504200,6.669504150390625,-0.45669350028038025,-1.16184663772583,-0.2072780877351761
1789317366812459300,6.679459228515625,-0.04367291182279587,1.8701162338256836,-0.9001364707946777
1789317366822414300,6.689414306640625,0.45548364520072937,1.7824143171310425,-1.2813996076583862
1789317366832369400,6.699369384765625,0.013891314156353474,-0.29707401990890503,-1.0880568027496338
1789317366842324200,6.70932421875,-0.7564120292663574,-1.1608167886734009,-0.023378027603030205
1789317366852279300,6.719279296875,-0.5396110415458679,-1.4569469690322876,0.832950234413147
1789317366862234400,6.729234375,0.2366626113653183,0.3120415210723877,1.3060171604156494
1789317366872189200,6.739189208984375,0.6426702737808228,0.07540128380060196,1.426343560218811
1789317366882144300,6.749144287109375,0.34053146839141846,0.5580469965934753,0.9458379149436951
1789317366892099300,6.759099365234375,0.06733882427215576,0.186439648270607,-0.4333530366420746
1789317366902053400,6.769053466796875,-0.2653872072696686,-0.3094326853752136,-1.5880266427993774
1789317366912008200,6.77900830078125,-0.6130802035331726,0.015783490613102913,-1.6441900730133057
1789317366921963300,6.78896337890625,-0.5138039588928223,-0.5285895466804504,-0.7985669374465942
1789317366931918300,6.79891845703125,-0.28666025400161743,-0.3652637302875519,0.8080565929412842
1789317366941873400,6.808873291015625,0.16054919362068176,0.5021326541900635,1.3724377155303955
1789317366951828200,6.818828125,0.6489516496658325,2.1693532466888428,0.6096377968788147
1789317366961783300,6.828783203125,0.5439351797103882,-0.3822341859340668,-0.9759899377822876
1789317366971738400,6.83873828125,-0.5397143363952637,-1.1465193033218384,-0.9497825503349304
1789317366981693200,6.848693115234375,-0.8713700771331787,-1.414174199104309,0.2572552263736725
1789317366991648300,6.858648193359375,-0.06036027893424034,-0.333650678396225,0.5057252049446106
1789317367001603300,6.868603271484375,0.35772112011909485,0.9895569086074829,0.6734849214553833
1789317367011558400,6.878558349609375,0.2863588035106659,1.1009938716888428,0.3823036849498749
1789317367021513200,6.88851318359375,0.02082352340221405,-0.14800012111663818,0.21495464444160461
1789317367031468300,6.89846826171875,-0.1864444464445114,-0.03714950010180473,-0.09927359223365784
1789317367041423400,6.90842333984375,0.009936519898474216,0.6051902770996094,-0.8748564124107361
1789317367051378200,6.918378173828125,0.19451995193958282,-0.12002521008253098,-0.8742942214012146
1789317367061333200,6.928333251953125,0.09214217960834503,-0.7813727855682373,-0.34108516573905945
1789317367071288300,6.938288330078125,-0.07861331850290298,-1.5736075639724731,0.8342112302780151
1789317367081243400,6.948243408203125,0.14253397285938263,-1.2928733825683594,1.3705332279205322
1789317367091198200,6.9581982421875,0.39126256108283997,2.4389021396636963,0.7308262586593628
1789317367101153300,6.9681533203125,0.44682756066322327,1.8875958919525146,-0.011433483101427555
1789317367111108400,6.9781083984375,-0.0212983638048172,0.3500022292137146,-1.0957586765289307
1789317367121063200,6.988063232421875,-0.45274031162261963,-1.1264526844024658,-1.6864997148513794
1789317367131018200,6.998018310546875,-0.08436361700296402,-0.9250417947769165,-1.4249740839004517
1789317367140973300,7.007973388671875,0.6776402592658997,0.1360451877117157,-0.280449241399765
1789317367150928400,7.017928466796875,1.0148388147354126,0.12096450477838516,1.03298819065094
1789317367160883200,7.02788330078125,0.5638260841369629,1.3676648139953613,1.5641674995422363
1789317367170838300,7.03783837890625,-0.04391046613454819,0.41565605998039246,1.2857275009155273
1789317367180793300,7.04779345703125,-0.47617292404174805,-0.2631741166114807,0.41697725653648376
1789317367190748200,7.057748046875,-0.3365710973739624,-0.626126229763031,-0.4900472164154053
1789317367200703500,7.067703369140625,0.2707574665546417,-0.5569609999656677,-0.735805332660675
1789317367210658300,7.077658203125,0.758005678653717,-0.5405852198600769,-0.38874533772468567
1789317367220613000,7.087613037109375,0.8140093088150024,-0.08357745409011841,0.0724283903837204
1789317367230568200,7.097568115234375,0.649286687374115,0.3987548351287842,0.0898452028632164
1789317367240523300,7.107523193359375,0.33958232402801514,2.354504108428955,-0.36723020672798157
1789317367250478300,7.117478271484375,-0.1939966380596161,-0.4770837426185608,-0.23882029950618744
1789317367260433200,7.12743310546875,-0.8765072822570801,-0.5167549848556519,0.09840193390846252
1789317367270388500,7.137388427734375,-0.4967506527900696,-0.8089050650596619,0.2891734838485718
1789317367280343300,7.14734326171875,0.5640100836753845,0.6629148721694946,-0.27504995465278625
1789317367290298000,7.157298095703125,0.9811093211174011,1.0185009241104126,-0.5320394039154053
1789317367300253400,7.16725341796875,0.5133197903633118,0.6047503352165222,-0.36068227887153625
1789317367310208300,7.177208251953125,-0.2829582095146179,-0.9706452488899231,0.20296350121498108
1789317367320163300,7.187163330078125,-0.7967711687088013,-1.1286777257919312,0.8252198696136475
1789317367330118100,7.1971181640625,-0.542523205280304,-0.19597962498664856,0.9219014048576355
1789317367340073500,7.207073486328125,0.13575942814350128,0.6135379672050476,0.7857358455657959
1789317367350028300,7.2170283203125,0.5354381203651428,1.3058834075927734,-0.003602457931265235
1789317367359983000,7.226983154296875,0.38685503602027893,0.5655496716499329,-0.9318310022354126
1789317367369938400,7.2369384765625,-0.015313975512981415,-0.518160343170166,-1.519016981124878
1789317367379893200,7.246893310546875,-0.46652668714523315,-1.1583362817764282,-0.5992410778999329
1789317367389848300,7.256848388671875,-0.4560120105743408,-0.8806173801422119,0.7514702677726746
1789317367399803100,7.26680322265625,0.039747145026922226,0.42061567306518555,1.133179783821106
1789317367409758200,7.27675830078125,0.3121320605278015,1.0110714435577393,1.012255311012268
1789317367419713300,7.28671337890625,0.24417191743850708,1.079071044921875,-0.2277495414018631
1789317367429668000,7.296668212890625,-0.09488603472709656,-0.4512827694416046,-0.9966363906860352
1789317367439623400,7.30662353515625,-0.33568239212036133,-0.9058694243431091,-1.2732322216033936
1789317367449578200,7.316578125,-0.364920973777771,-0.6507857441902161,-0.5089455246925354
1789317367459533300,7.326533203125,-0.07372455298900604,0.4785766899585724,0.564942479133606
1789317367469488400,7.33648828125,0.379111111164093,1.7064214944839478,0.08042985945940018
1789317367479443200,7.346443115234375,0.13227175176143646,-0.1976904422044754,0.04362284392118454
1789317367489398300,7.356398193359375,-0.5020319819450378,-1.6796437501907349,0.5351912379264832
1789317367499352300,7.366352294921875,-0.6755930781364441,-2.2005374431610107,1.5798134803771973
1789317367509307400,7.376307373046875,-0.0604122094810009,-0.32336899638175964,1.556723952293396
1789317367519262200,7.38626220703125,0.8132561445236206,3.06559681892395,-0.18736083805561066
1789317367529217300,7.39621728515625,0.6446653008460999,1.812568187713623,-1.818911075592041
1789317367539172000,7.406172119140625,-0.49334871768951416,-1.064278483390808,-2.7822659015655518
1789317367549127400,7.41612744140625,-1.250775933265686,-1.9749879837036133,-1.267068862915039
1789317367559082200,7.426082275390625,-0.530566394329071,-0.15412165224552155,0.3329686224460602
1789317367569037300,7.436037353515625,0.7098346948623657,1.1473456621170044,1.3546490669250488
1789317367578992400,7.445992431640625,0.888393759727478,1.4529136419296265,1.549790620803833
1789317367588947200,7.455947265625,0.18494722247123718,-0.7862381339073181,0.9751318693161011
1789317367598902300,7.46590234375,-0.5723902583122253,-2.172621965408325,0.5570507645606995
1789317367608857300,7.475857421875,-0.6267416477203369,-1.4388500452041626,-0.12110618501901627
1789317367618812400,7.4858125,-0.03332040458917618,0.29876619577407837,-0.5663300156593323
1789317367628767200,7.495767333984375,0.42490440607070923,2.0663511753082275,-0.9009122252464294
1789317367638722300,7.505722412109375,0.18028321862220764,1.8569777011871338,-0.8196139335632324
1789317367648677400,7.515677490234375,-0.28318244218826294,-1.3464878797531128,-0.5824503898620605
1789317367658632200,7.525632080078125,-0.4557773768901825,-1.7387940883636475,-0.1478288769721985
1789317367668587300,7.535587158203125,0.014418620616197586,-0.779231607913971,0.4254453182220459
1789317367678542300,7.545542236328125,0.5552411079406738,0.7207187414169312,0.9300735592842102
1789317367688497400,7.555497314453125,0.526233971118927,1.4717344045639038,0.8547759056091309
1789317367698452200,7.5654521484375,0.019228555262088776,0.7637717127799988,-0.0746273621916771
1789317367708407000,7.575406982421875,-0.47594016790390015,-1.0231537818908691,-1.1992944478988647
1789317367718362400,7.5853623046875,-0.6186988949775696,-1.6111063957214355,-0.9516238570213318
1789317367728317200,7.595317138671875,-0.11147832125425339,-1.1568635702133179,0.20080474019050598
1789317367738272300,7.605272216796875,0.647956132888794,0.6476341485977173,1.0541696548461914
1789317367748227300,7.615227294921875,0.9590405225753784,2.0202338695526123,0.8917376399040222
1789317367758182400,7.625182373046875,0.5740941762924194,0.9351048469543457,-0.22661903500556946
1789317367768137500,7.635137451171875,-0.3485340178012848,-1.6107192039489746,-0.863959550857544
1789317367778092300,7.64509228515625,-0.8094251751899719,-2.110389232635498,-0.3047886788845062
1789317367788047600,7.655047607421875,-0.25093767046928406,-1.2027593851089478,0.5816210508346558
1789317367798002400,7.66500244140625,0.5970942974090576,1.3543609380722046,0.8463461995124817
1789317367807957500,7.67495751953125,0.9762461185455322,2.6448426246643066,0.15546070039272308
1789317367817912300,7.684912353515625,0.44768989086151123,0.6668139696121216,-0.569649875164032
1789317367827867400,7.694867431640625,-0.556349515914917,-1.824524998664856,-0.8463494181632996
1789317367837822500,7.704822509765625,-0.8795981407165527,-2.120134115219116,-0.14346981048583984
1789317367847777300,7.71477734375,0.013549364171922207,0.2887851893901825,0.32071810960769653
1789317367857732600,7.724732666015625,0.8894625306129456,2.132289171218872,0.34377866983413696
1789317367867687400,7.7346875,0.712363600730896,1.9404507875442505,0.12941046059131622
1789317367877642500,7.744642578125,-0.06800328195095062,-1.408109188079834,-0.2797307074069977
1789317367887597600,7.75459765625,-0.6966797113418579,-2.194761037826538,0.025610022246837616
1789317367897552400,7.764552490234375,-0.2832415699958801,-1.3270618915557861,0.38113856315612793
1789317367907507500,7.774507568359375,0.5395202040672302,1.0205278396606445,0.7274240851402283
1789317367917462300,7.784462158203125,0.8494900465011597,1.9619605541229248,0.5318995714187622
1789317367927417600,7.79441748046875,0.4737081825733185,2.062164545059204,-0.7815639972686768
1789317367937372400,7.804372314453125,-0.12517735362052917,-1.1420918703079224,-1.9397107362747192
1789317367947327500,7.814327392578125,-0.5092528462409973,-0.8958548903465271,-1.7433757781982422
1789317367957282600,7.824282470703125,-0.12993936240673065,-0.6634030342102051,-0.12273657321929932
1789317367967237400,7.8342373046875,0.541619598865509,1.0197148323059082,1.3049308061599731
1789317367977192400,7.8441923828125,0.8720877766609192,1.8959629535675049,1.1043626070022583
1789317367987147300,7.854147216796875,0.49935922026634216,-0.9306586980819702,0.38132765889167786
1789317367997102600,7.8641025390625,-0.24097347259521484,-1.9547364711761475,0.16175933182239532
1789317368007057400,7.874057373046875,-0.41971391439437866,-1.9607280492782593,0.7648177742958069
1789317368017012500,7.884012451171875,0.04421406611800194,0.06637689471244812,0.8856179714202881
1789317368026967600,7.893967529296875,0.6504757404327393,3.8521640300750732,-0.1617066115140915
1789317368036922400,7.90392236328125,0.7263966202735901,2.0973682403564453,-1.9047911167144775
1789317368046877400,7.91387744140625,-0.2536919116973877,-1.8006601333618164,-2.338369131088257
1789317368056832500,7.92383251953125,-0.8382310271263123,-1.8131858110427856,-0.6065304279327393
1789317368066787600,7.93378759765625,0.08679401874542236,-0.5362181663513184,1.0333796739578247
1789317368076742400,7.943742431640625,0.9922469258308411,0.9407520890235901,1.8944867849349976
1789317368086697200,7.953697265625,0.7530386447906494,1.4900919198989868,1.8368325233459473
1789317368096651500,7.963651611328125,0.07115114480257034,0.8400560617446899,0.925756573677063
1789317368106606600,7.973606689453125,-0.3515966534614563,-0.9318664073944092,-0.33458542823791504
1789317368116561400,7.9835615234375,-0.48081669211387634,-1.1265759468078613,-1.293144702911377
1789317368126516200,7.99351611328125,-0.180198535323143,-0.040823064744472504,-1.226691722869873
1789317368136471600,8.003471435546874,0.41463473439216614,1.0286797285079956,-0.6554691791534424
1789317368146426400,8.01342626953125,0.5447077751159668,1.3601058721542358,0.021228855475783348
1789317368156381400,8.02338134765625,0.2593498229980469,0.772425651550293,0.24853044748306274
1789317368166336500,8.03333642578125,-0.10512401908636093,-0.9126583933830261,0.2615565061569214
1789317368176291600,8.04329150390625,-0.4277377426624298,-0.6976674795150757,0.31606343388557434
1789317368186246400,8.053246337890625,-0.3208160996437073,-0.30258864164352417,0.5180343389511108
1789317368196201500,8.063201416015625,-0.10287125408649445,0.23729483783245087,0.8192192316055298
1789317368206156500,8.073156494140624,0.02365792542695999,0.719527006149292,0.3720100522041321
1789317368216111400,8.083111328125,-0.00065460498444736,0.7549605965614319,-0.6519623398780823
1789317368226066400,8.09306640625,-0.18285024166107178,-0.13472479581832886,-0.9788160920143127
1789317368236021500,8.103021484375,-0.28983262181282043,-0.6816381812095642,-0.7355733513832092
1789317368245976600,8.1129765625,-0.2974551320075989,-0.519731342792511,0.5066370964050293
1789317368255931400,8.122931396484375,0.0882640853524208,1.2845845222473145,0.6587270498275757
1789317368265886500,8.132886474609375,0.339291512966156,1.229911208152771,0.09295257925987244
1789317368275841500,8.142841552734374,-0.09365032613277435,-0.5670828819274902,-0.4619532525539398
1789317368285796400,8.15279638671875,-0.5471197962760925,-1.2807083129882812,-0.615821361541748
1789317368295751400,8.16275146484375,-0.49364912509918213,-1.4523136615753174,0.3490096628665924
1789317368305706500,8.17270654296875,0.08444084972143173,0.2115761637687683,0.6062076091766357
1789317368315661300,8.182661376953124,0.4561097323894501,1.2787290811538696,0.7514292597770691
1789317368325616400,8.192616455078126,0.3563341498374939,1.2535773515701294,0.2852996587753296
1789317368335571500,8.202571533203125,-0.10438339412212372,-0.26905757188796997,-0.4864293038845062
1789317368345526500,8.212526611328125,-0.4365405738353729,-1.375097632408142,-0.8360973000526428
1789317368355481300,8.2224814453125,-0.16153642535209656,0.22555989027023315,-1.224160075187683
1789317368365436700,8.232436767578125,0.26951801776885986,0.634432852268219,-0.34044361114501953
1789317368375391500,8.2423916015625,0.39024817943573,1.229607343673706,0.159617617726326
1789317368385346300,8.25234619140625,0.17572015523910522,-0.7856418490409851,0.46918001770973206
1789317368395301400,8.26230126953125,-0.08458572626113892,-1.5540276765823364,0.6619505286216736
1789317368405256400,8.27225634765625,0.03464958816766739,-0.5897839069366455,0.5586363673210144
1789317368415211500,8.28221142578125,0.46017637848854065,0.5620582699775696,0.4029754102230072
1789317368425166300,8.292166259765626,0.600646436214447,1.5459527969360352,-0.3026224374771118
1789317368435121700,8.30212158203125,0.16086424887180328,0.7385299801826477,-0.9236287474632263
1789317368445076500,8.312076416015625,-0.37400367856025696,-0.7526383399963379,-1.070176362991333
1789317368455031300,8.32203125,-0.46745455265045166,-1.5589468479156494,-0.1557094305753708
1789317368464986600,8.331986572265626,0.06606476753950119,-0.5400382280349731,0.8486985564231873
1789317368474941400,8.34194140625,0.679478645324707,1.1528358459472656,1.112009048461914
1789317368484896500,8.351896484375,0.6971303224563599,1.7807562351226807,0.6332131624221802
1789317368494851300,8.361851318359374,0.1331591159105301,-0.35195618867874146,-0.15668201446533203
1789317368504806400,8.371806396484375,-0.5414084196090698,-1.4507341384887695,-0.5504549145698547
1789317368514761500,8.381761474609375,-0.4637591540813446,-0.755923330783844,-0.569431483745575
1789317368524716300,8.39171630859375,0.19524246454238892,0.13627314567565918,-0.1856609433889389
1789317368534671600,8.401671630859376,0.5141738653182983,1.1054296493530273,0.2763413190841675
1789317368544626400,8.41162646484375,0.3164237439632416,0.9567648768424988,0.2834985554218292
1789317368554581500,8.42158154296875,-0.18373042345046997,-0.27977439761161804,0.32693177461624146
1789317368564536300,8.431536376953124,-0.4580378830432892,-0.8524363040924072,0.15256956219673157
1789317368574491400,8.441491455078125,-0.20932233333587646,-0.17564000189304352,-0.04797231778502464
1789317368584446500,8.451446533203125,0.2776595652103424,0.5105718970298767,-0.18460233509540558
1789317368594401300,8.4614013671875,0.308584988117218,0.21207444369792938,-0.05360250920057297
1789317368604356600,8.471356689453126,-0.08229966461658478,-0.48282256722450256,0.2636992931365967
1789317368614311400,8.4813115234375,-0.17572841048240662,-0.6783034205436707,0.20924270153045654
1789317368624265500,8.491265380859375,-0.03748026490211487,0.1680838167667389,0.1886460781097412
1789317368634220300,8.50122021484375,0.03531138598918915,0.6451616883277893,0.18024353682994843
1789317368644175600,8.511175537109375,-0.01786022260785103,0.45750123262405396,0.07822743058204651
1789317368654130400,8.52113037109375,-0.015086807310581207,-0.1254332810640335,-0.3085687458515167
1789317368664085500,8.53108544921875,0.06998840719461441,0.14835672080516815,-0.79238361120224
1789317368674040600,8.54104052734375,0.10836109519004822,0.05910592898726463,-0.6141049861907959
1789317368683995400,8.550995361328125,0.030733678489923477,-0.21833845973014832,-0.08767179399728775
1789317368693950500,8.560950439453125,-0.19879645109176636,-0.36351457238197327,0.7862136363983154
1789317368703905300,8.5709052734375,-0.13274899125099182,-0.3281043767929077,1.0901998281478882
1789317368713860600,8.580860595703125,0.06879451125860214,0.02203286439180374,0.7842311859130859
1789317368723815400,8.5908154296875,0.06909225136041641,0.40915846824645996,0.3568183183670044
1789317368733770500,8.6007705078125,0.10130531340837479,0.6605925559997559,-0.6295092105865479
1789317368743725600,8.6107255859375,-0.06070569157600403,0.3544395864009857,-1.0396355390548706
1789317368753681200,8.62068115234375,-0.1867387294769287,0.36277341842651367,-1.2156347036361694
1789317368763636200,8.63063623046875,-0.20520055294036865,-0.08172629028558731,-0.5227433443069458
1789317368773591300,8.64059130859375,-0.08409330248832703,-0.3155534267425537,0.5349590182304382
1789317368783546000,8.650546142578126,0.12486177682876587,-0.24964872002601624,0.8916249871253967
1789317368793501400,8.66050146484375,0.18195755779743195,0.1797998547554016,1.0378820896148682
1789317368803456300,8.670456298828125,0.17647384107112885,0.7854405045509338,0.21197296679019928
1789317368813411300,8.680411376953124,-0.14102742075920105,0.4811658263206482,-0.5113178491592407
1789317368823366100,8.6903662109375,-0.4388023912906647,0.1718500554561615,-0.8731948733329773
1789317368833321200,8.7003212890625,-0.392304390668869,-0.6685215830802917,-0.7721031308174133
1789317368843276300,8.7102763671875,-0.08033132553100586,-0.14643390476703644,-0.25430843234062195
1789317368853231000,8.720231201171876,0.3814623951911926,0.851029098033905,-0.01691746525466442
1789317368863186400,8.7301865234375,0.4321247935295105,1.0306984186172485,0.2577953338623047
1789317368873141200,8.740141357421875,-0.02468004636466503,0.13725239038467407,0.22081945836544037
1789317368883096300,8.750096435546874,-0.5913828611373901,-0.8694882392883301,0.27727288007736206
1789317368893051400,8.760051513671876,-0.5249980092048645,-0.9698659777641296,0.42322370409965515
1789317368903006200,8.770006103515625,0.04905356094241142,-0.1527368128299713,0.3320844769477844
1789317368912961300,8.779961181640624,0.4172302484512329,0.9761092662811279,0.15597175061702728
1789317368922916000,8.789916015625,0.39620140194892883,1.4780197143554688,-0.6112045049667358
1789317368932871400,8.799871337890625,-0.12989754974842072,0.242665633559227,-0.8934902548789978
1789317368942826200,8.809826171875,-0.6461779475212097,-0.621133029460907,-0.6806922554969788
1789317368952781300,8.81978125,-0.6150320172309875,-0.5292665362358093,-0.04162227734923363
1789317368962736400,8.829736328125,-0.027055053040385246,0.32365450263023376,0.5253969430923462
1789317368972691200,8.839691162109375,0.3848581910133362,0.7320576906204224,0.6271510124206543
1789317368982646300,8.849646240234375,0.2635357677936554,0.007715710438787937,0.4228875935077667
1789317368992601300,8.859601318359376,-0.07246514409780502,-1.0730637311935425,0.1789923906326294
1789317369002556400,8.869556396484375,-0.41379958391189575,-1.2516367435455322,0.31219545006752014
1789317369012511200,8.87951123046875,-0.403178870677948,-0.01158368494361639,0.38602012395858765
1789317369022466300,8.88946630859375,-0.08823531866073608,1.6977465152740479,0.1053386703133583
1789317369032421400,8.89942138671875,0.04108059033751488,1.8229254484176636,-0.4297332763671875
1789317369042376200,8.909376220703125,-0.20887145400047302,0.048887647688388824,-1.1471627950668335
1789317369052331300,8.919331298828125,-0.47535133361816406,-1.3834123611450195,-1.0243505239486694
1789317369062286300,8.929286376953126,-0.21080917119979858,-0.8350594639778137,-0.286802738904953
1789317369072241400,8.939241455078125,0.19198541343212128,0.10713204741477966,0.864785373210907
1789317369082196200,8.9491962890625,0.21932090818881989,1.2208423614501953,1.2056162357330322
1789317369092151000,8.959151123046874,-0.11890827864408493,1.0462886095046997,0.6659228801727295
1789317369102106400,8.9691064453125,-0.5404675006866455,-0.2958718538284302,-0.10831129550933838
1789317369112061200,8.979061279296875,-0.6793910264968872,-1.1035945415496826,-0.6341513991355896
1789317369122016300,8.989016357421875,-0.42881128191947937,-0.9331415295600891,-0.3196280598640442
1789317369131971300,8.998971435546874,0.11453749984502792,0.38437536358833313,0.055637430399656296
1789317369141926400,9.008926513671875,0.5224003195762634,1.5413188934326172,-0.1911795437335968
1789317369151881200,9.018881103515625,0.24912060797214508,1.0800071954727173,-0.4009857773780823
1789317369161835300,9.028835205078124,-0.4132000803947449,-0.9645684361457825,-0.5235159397125244
1789317369171790300,9.038790283203125,-0.8758665323257446,-1.1739776134490967,0.3350925147533417
1789317369181745400,9.048745361328125,-0.3790951073169708,-0.21316979825496674,0.6917771100997925
1789317369191700200,9.0587001953125,0.34352701902389526,0.4009127914905548,0.5843989849090576
1789317369201655300,9.0686552734375,0.43414586782455444,0.27182379364967346,0.35166776180267334
1789317369211610400,9.0786103515625,0.04385427385568619,-0.17413078248500824,0.010506702587008476
1789317369221565200,9.088565185546875,-0.3088340163230896,-0.7392058968544006,-0.06632522493600845
1789317369231520300,9.098520263671874,-0.33109617233276367,0.25893303751945496,-0.41891390085220337
1789317369241475300,9.108475341796876,0.034447189420461655,0.5536096692085266,-0.6762993931770325
1789317369251430400,9.118430419921875,0.09539362788200378,0.49356764554977417,-0.5008212924003601
1789317369261385200,9.12838525390625,-0.1259659230709076,-0.33120590448379517,-0.14843633770942688
1789317369271340300,9.13834033203125,-0.18032902479171753,-0.974162220954895,0.19656658172607422
1789317369281295400,9.14829541015625,0.0911533460021019,-0.06992795318365097,0.0788721814751625
1789317369291250200,9.158250244140625,0.2823251783847809,0.0361526794731617,0.18410485982894897
1789317369301205500,9.16820556640625,0.0893743559718132,0.5391002297401428,0.3311811089515686
1789317369311160300,9.178160400390626,-0.12104759365320206,-0.25750717520713806,0.08184666186571121
1789317369321115100,9.188115234375,-0.20948052406311035,-0.36054086685180664,-0.33262374997138977
1789317369331070200,9.1980703125,-0.13999678194522858,-0.5311541557312012,-0.4633335769176483
1789317369341025300,9.208025390625,-0.05503608658909798,0.38467657566070557,-0.1710902601480484
1789317369350980400,9.21798046875,0.07811450958251953,0.8299120664596558,0.043542150408029556
1789317369360935200,9.22793505859375,0.1317465752363205,0.5168500542640686,-0.05173536762595177
1789317369370890500,9.237890380859374,-0.06854178011417389,-0.750241219997406,-0.1966608613729477
1789317369380845300,9.24784521484375,-0.2771280109882355,-1.3408206701278687,0.11953119188547134
1789317369390800100,9.257800048828125,-0.1044321358203888,-0.7607460618019104,0.5372431874275208
1789317369400755200,9.267755126953125,0.18455547094345093,0.13406433165073395,0.7624052166938782
1789317369410710300,9.277710205078124,0.21440550684928894,0.9820558428764343,0.3196917176246643
1789317369420665300,9.287665283203125,-0.04926634952425957,1.3135267496109009,-0.6139230728149414
1789317369430620200,9.2976201171875,-0.49450239539146423,-0.08509838581085205,-1.071982741355896
1789317369440575500,9.307575439453124,-0.7342396378517151,-1.16783607006073,-0.7066758871078491
1789317369450530300,9.3175302734375,-0.3466929793357849,-1.472360610961914,0.17704854905605316
1789317369460485000,9.327485107421875,0.403066486120224,0.001044491771608591,0.683445930480957
1789317369470440400,9.3374404296875,0.7266560196876526,1.5245606899261475,0.5562432408332825
1789317369480395300,9.347395263671874,0.2588323652744293,1.1728241443634033,0.021641911938786507
1789317369490350300,9.357350341796876,-0.6262492537498474,-0.9964480996131897,-0.37731027603149414
1789317369500305200,9.36730517578125,-1.0938044786453247,-1.5984429121017456,-0.11166954040527344
1789317369510260200,9.37726025390625,-0.5235723853111267,-1.001903772354126,0.27627527713775635
1789317369520215300,9.38721533203125,0.3455568552017212,-0.057980213314294815,0.7019911408424377
1789317369530170000,9.397170166015625,0.6717224717140198,0.7501842379570007,0.8612854480743408
1789317369540125400,9.40712548828125,0.5894374251365662,0.757262110710144,0.04718215763568878
1789317369550080300,9.417080322265624,0.14068947732448578,0.7744578719139099,-1.1651619672775269
1789317369560035300,9.427035400390626,-0.4137937128543854,-0.1130080446600914,-1.6094774007797241
1789317369569990400,9.436990478515625,-0.6801652312278748,-0.4713054597377777,-0.8192192316055298
1789317369579945200,9.4469453125,-0.3880041837692261,-0.5790258049964905,0.434106707572937
1789317369589900300,9.456900390625,0.30674102902412415,0.22695565223693848,0.5802702903747559
1789317369599855000,9.466855224609375,0.6484200358390808,0.6217623353004456,0.48952868580818176
1789317369609810400,9.476810546875,0.37675660848617554,-0.36622539162635803,0.3993700444698334
1789317369619765200,9.48676513671875,-0.33550024032592773,-1.5610549449920654,0.9795972108840942
1789317369629720300,9.49672021484375,-0.6043604612350464,-1.3655509948730469,1.0529345273971558
1789317369639675400,9.50667529296875,-0.18911319971084595,0.5766912698745728,0.30622756481170654
1789317369649630200,9.516630126953125,0.2999664843082428,1.812933325767517,-0.5599448084831238
1789317369659584300,9.526584228515626,0.24088186025619507,1.572430968284607,-1.4944491386413574
1789317369669539300,9.536539306640625,-0.28478753566741943,-0.7576754689216614,-1.468058466911316
1789317369679494400,9.546494384765625,-0.49077290296554565,-1.6890760660171509,-0.7458875179290771
1789317369689449200,9.55644921875,-0.08200059086084366,-0.7127010226249695,0.2831456959247589
1789317369699404300,9.566404296875,0.4395744502544403,0.45034345984458923,1.3761948347091675
1789317369709359000,9.576359130859375,0.40712887048721313,1.2629042863845825,1.4407498836517334
1789317369719314400,9.586314453125,-0.11981081962585449,0.769733726978302,0.6933425068855286
1789317369729269200,9.596269287109376,-0.5018351674079895,-0.6456610560417175,-0.7733777165412903
1789317369739224300,9.606224365234375,-0.5671805739402771,-1.6400233507156372,-1.1992446184158325
1789317369749179400,9.616179443359375,-0.19659428298473358,-0.8548880219459534,-0.6076100468635559
1789317369759133700,9.6261337890625,0.35201555490493774,0.5569080114364624,0.30117955803871155
1789317369769088800,9.6360888671875,0.6466677188873291,2.2912940979003906,0.42198771238327026
1789317369779043600,9.646043701171875,0.4164925515651703,0.5497973561286926,-0.43600553274154663
1789317369788998700,9.65599853515625,-0.4894200265407562,-1.2718333005905151,-0.7254006266593933
1789317369798953700,9.66595361328125,-0.916414737701416,-1.497874140739441,0.24448777735233307
1789317369808908800,9.67590869140625,-0.41162458062171936,-1.9198272228240967,1.7242119312286377
1789317369818863600,9.685863525390625,0.3517255485057831,0.17863872647285461,1.8740326166152954
1789317369828818400,9.695818359375,0.9403781294822693,2.3360559940338135,0.600351095199585
1789317369838773800,9.705773681640625,0.800294816493988,2.5271217823028564,-1.1796271800994873
1789317369848728600,9.715728515625,-0.27210450172424316,-1.0074304342269897,-2.5043387413024902
1789317369858683600,9.72568359375,-1.166770577430725,-1.823388934135437,-1.670749306678772
1789317369868638700,9.735638671875,-0.5168119668960571,-0.7296144962310791,-0.19181737303733826
1789317369878593800,9.74559375,0.7269747853279114,0.002463423879817128,1.1970282793045044
1789317369888548600,9.755548583984375,1.0720293521881104,1.123600721359253,1.7924046516418457
1789317369898503400,9.76550341796875,0.733274519443512,1.469325304031372,1.220816731452942
1789317369908458800,9.775458740234376,0.19432154297828674,-0.8233937621116638,0.07756403088569641
1789317369918413600,9.78541357421875,-0.4650278687477112,-1.7128000259399414,-0.4417742192745209
1789317369928368600,9.79536865234375,-0.5650402307510376,-1.4224318265914917,-0.035115376114845276
1789317369938323700,9.80532373046875,0.22128817439079285,0.3669244647026062,-0.10227923095226288
1789317369948278800,9.81527880859375,1.0042357444763184,2.9714057445526123,-0.8688275218009949
1789317369958233600,9.825233642578125,0.9578362107276917,1.2797160148620605,-1.4844419956207275
1789317369968188700,9.835188720703124,-0.04713022708892822,-1.1867879629135132,-1.021666407585144
1789317369978143700,9.845143798828126,-0.6650664210319519,-1.6686592102050781,0.5899460911750793
1789317369988098600,9.8550986328125,-0.08047886192798615,0.6909957528114319,1.1077826023101807
1789317369998053600,9.8650537109375,0.6110961437225342,0.34377333521842957,1.3048956394195557
1789317370008008700,9.8750087890625,0.43367260694503784,0.6097552180290222,0.7052849531173706
1789317370017963500,9.884963623046875,-0.0001691107318038121,0.13814961910247803,-0.04404069483280182
1789317370027918600,9.894918701171875,-0.14283224940299988,-1.1541154384613037,-0.4052838385105133
1789317370037873700,9.904873779296874,-0.11049988120794296,-1.084538221359253,-0.48527321219444275
1789317370047828700,9.914828857421876,0.13959890604019165,0.4997245967388153,-0.18433761596679688
1789317370057783600,9.924783447265625,0.5769935250282288,1.8264739513397217,-0.46359536051750183
1789317370067739000,9.93473876953125,0.348330557346344,0.7701241374015808,-0.6973891854286194
1789317370077692700,9.944692626953126,-0.28271692991256714,-0.879279375076294,-0.9636027812957764
1789317370087647700,9.954647705078125,-0.3973439037799835,-1.0289580821990967,-0.5762587785720825
1789317370097602600,9.9646025390625,-0.026378611102700233,-0.34499865770339966,0.5660942792892456
1789317370107558000,9.974557861328124,0.2253793329000473,-0.05231194198131561,1.4912465810775757
1789317370117512700,9.9845126953125,0.11868936568498611,0.27202990651130676,1.7997655868530273
1789317370127467500,9.994467529296875,0.11809201538562775,0.006764695513993502,0.7270326018333435
1789317370137422600,10.004422607421875,-0.03560592979192734,-0.5009528398513794,-0.2830663323402405
1789317370147377700,10.014377685546876,-0.23150698840618134,-0.732153058052063,-0.679552435874939
1789317370157332700,10.024332763671875,-0.1515951156616211,-0.10993821918964386,-0.9389743804931641
1789317370167287600,10.03428759765625,0.07022249698638916,1.8072642087936401,-0.8643651604652405
1789317370177243000,10.044242919921874,0.24061687290668488,0.9889947175979614,-1.3757232427597046
1789317370187197700,10.05419775390625,-0.1530635803937912,-0.48886847496032715,-1.1557978391647339
1789317370197152500,10.064152587890625,-0.39338403940200806,-1.296061396598816,-0.05477296561002731
1789317370207107600,10.074107666015625,-0.12847115099430084,-0.5238190293312073,1.219680666923523
1789317370217062700,10.084062744140626,0.3087756931781769,0.5390584468841553,1.619369387626648
1789317370227017700,10.094017822265625,0.34677818417549133,0.8543841242790222,0.9387490749359131
1789317370236972500,10.10397265625,-0.1399563103914261,-0.07425718754529953,0.19096249341964722
1789317370246927600,10.113927734375,-0.4911835789680481,-1.3936500549316406,-0.5044639706611633
1789317370256882700,10.123882568359376,-0.4849179685115814,-1.6172757148742676,-0.14938895404338837
1789317370266837500,10.13383740234375,0.07143530249595642,-0.9865818619728088,0.41964787244796753
1789317370276792800,10.143792724609375,0.6858611702919006,2.61620831489563,0.17242103815078735
1789317370286747600,10.15374755859375,0.8352823853492737,2.536048173904419,-0.5742542147636414
1789317370296702700,10.16370263671875,0.006140716839581728,-1.504199743270874,-1.3242741823196411
1789317370306657500,10.173657470703125,-0.9406612515449524,-1.8043123483657837,-0.4687773287296295
1789317370316612600,10.183612548828124,-0.4709017276763916,-1.7892866134643555,0.6009878516197205
1789317370326567700,10.193567626953126,0.5174516439437866,1.062862515449524,1.0535976886749268
1789317370336522500,10.2035224609375,0.8628833889961243,1.9407272338867188,0.7372490167617798
1789317370346477800,10.213477783203125,0.38898104429244995,1.5732519626617432,-0.38788461685180664
1789317370356432600,10.2234326171875,-0.40991881489753723,-1.407958984375,-1.0823787450790405
1789317370366387700,10.2333876953125,-0.8319185376167297,-1.4925880432128906,-0.7424054145812988
1789317370376342800,10.2433427734375,-0.21246592700481415,-0.20001831650733948,0.28381121158599854
1789317370386297600,10.253297607421874,0.7060191631317139,1.1157156229019165,0.6605965495109558
1789317370396252700,10.263252685546876,0.6155553460121155,1.4165295362472534,0.540585458278656
1789317370406207500,10.27320751953125,-0.054428886622190475,-0.8979353308677673,0.31875428557395935
1789317370416162800,10.283162841796875,-0.4510990083217621,-2.40010404586792,0.4390029311180115
1789317370426117600,10.29311767578125,-0.2538168132305145,-1.8519235849380493,0.6447254419326782
1789317370436072700,10.30307275390625,0.45787063241004944,1.6487398147583008,0.10871396213769913
1789317370446027800,10.31302783203125,0.8884691596031189,1.9172205924987793,-0.45565086603164673
1789317370455982600,10.322982666015625,0.33470582962036133,1.4701722860336304,-1.4006680250167847
1789317370465936600,10.3329365234375,-0.5214397311210632,-1.3495092391967773,-1.4620064496994019
1789317370475891700,10.3428916015625,-0.692554235458374,-1.2385965585708618,-0.8732483983039856
1789317370485846800,10.3528466796875,-0.11613938957452774,-0.03640913963317871,0.35858824849128723
1789317370495801600,10.362801513671876,0.5632420778274536,1.0969616174697876,1.4278229475021362
1789317370505756700,10.372756591796875,0.6323316693305969,0.503973126411438,1.7592191696166992
1789317370515711500,10.38271142578125,0.0840941071510315,-1.1012605428695679,1.5368857383728027
1789317370525666800,10.392666748046874,-0.25877323746681213,-1.5989147424697876,0.4604474902153015
1789317370535621600,10.40262158203125,-0.15393178164958954,-1.3389228582382202,-0.19865263998508453
1789317370545576400,10.412576416015625,0.11081626266241074,0.34927651286125183,-0.398876816034317
1789317370555531800,10.42253173828125,0.37535762786865234,2.7601327896118164,-1.1363266706466675
1789317370565486600,10.432486572265624,0.19837380945682526,2.0399208068847656,-1.5785807371139526
1789317370575441700,10.442441650390625,-0.3120313882827759,-0.9450029730796814,-2.0310850143432617
1789317370585396700,10.452396728515625,-0.5775477290153503,-1.3812000751495361,-0.7939959168434143
1789317370595351800,10.462351806640624,0.04901814088225365,-0.12542343139648438,0.8466386198997498
1789317370605306600,10.472306640625,0.652127206325531,-0.47239550948143005,2.2885825634002686
1789317370615261400,10.482261474609375,0.4450991749763489,-0.04039269685745239,2.4458401203155518
1789317370625216800,10.492216796875,0.1387845128774643,0.7243406772613525,1.007920742034912
1789317370635171600,10.502171630859374,-0.0381322056055069,0.38381078839302063,-0.4260847270488739
1789317370645126700,10.512126708984376,-0.3206957280635834,0.10797999799251556,-1.360317349433899
1789317370655081700,10.522081787109375,-0.3145832419395447,-0.43672940135002136,-1.5678449869155884
1789317370665036800,10.532036865234375,0.16835997998714447,0.37872812151908875,-1.4793190956115723
1789317370674991600,10.54199169921875,0.6578620076179504,1.7622416019439697,-1.062709093093872
1789317370684946400,10.551946533203125,0.6075493097305298,-0.310714453458786,-0.12605087459087372
1789317370694901800,10.56190185546875,-0.039575640112161636,-0.5350854992866516,1.0308609008789062
1789317370704856600,10.571856689453124,-0.20246522128582,-0.8507742285728455,1.594244122505188
1789317370714811600,10.581811767578126,0.08387013524770737,-0.0626378133893013,1.3607150316238403
1789317370724766700,10.5917666015625,0.3236430585384369,0.38931819796562195,0.4429590404033661
1789317370734721500,10.601721435546875,0.24878504872322083,0.6257496476173401,-0.439190149307251
1789317370744676600,10.611676513671876,0.13309547305107117,-0.08245120197534561,-1.0279948711395264
1789317370754631700,10.621631591796875,0.06614599376916885,-0.6527024507522583,-1.0740773677825928
1789317370764586800,10.631586669921875,0.11253826320171356,0.13890275359153748,-0.38986361026763916
1789317370774541600,10.64154150390625,0.3246558606624603,0.7124320864677429,0.5676690340042114
1789317370784496600,10.65149658203125,0.34260210394859314,1.4674742221832275,0.7316161394119263
1789317370794451700,10.66145166015625,0.12794038653373718,-0.2459312081336975,0.22076140344142914
1789317370804406500,10.671406494140625,-0.13374128937721252,-1.6210341453552246,0.03554387763142586
1789317370814361600,10.681361572265626,-0.03388739377260208,-1.8458294868469238,0.2504551112651825
1789317370824315600,10.691315673828125,0.3029603958129883,-0.6601430177688599,0.6050872206687927
1789317370834270700,10.701270751953125,0.5241633653640747,1.417380452156067,0.46516716480255127
1789317370844225500,10.7112255859375,0.43040305376052856,2.6109259128570557,-0.14257259666919708
1789317370854180600,10.7211806640625,-0.0036770266015082598,1.9768418073654175,-1.3478723764419556
1789317370864135700,10.7311357421875,-0.6856532096862793,-1.5049434900283813,-1.761695384979248
1789317370874090800,10.7410908203125,-0.8377324938774109,-1.0202596187591553,-0.8123906254768372
1789317370884045600,10.751045654296876,0.09430067241191864,-0.30357825756073,0.4526212811470032
1789317370894001000,10.7610009765625,0.7483432292938232,0.7143577933311462,1.3751903772354126
1789317370903955700,10.770955810546875,0.419617235660553,0.956451952457428,1.4417344331741333
1789317370913910500,10.78091064453125,-0.26474615931510925,-0.06492440402507782,0.9120277166366577
1789317370923865600,10.790865478515625,-0.6688569188117981,-0.3240553140640259,-0.16139954328536987
1789317370933820700,10.800820556640625,-0.6160067319869995,-0.18487530946731567,-0.899522066116333
1789317370943775700,10.810775634765625,-0.18012715876102448,0.44510209560394287,-1.0345176458358765
1789317370953730600,10.82073046875,0.20715850591659546,0.838931143283844,-0.8632540702819824
1789317370963685600,10.830685546875,0.24943698942661285,0.2645038366317749,-0.5435003042221069
1789317370973640700,10.840640625,0.0869751125574112,-0.1750282645225525,-0.3877032399177551
1789317370983595500,10.850595458984374,-0.17846561968326569,-0.3663625419139862,0.2314782291650772
1789317370993550600,10.860550537109376,-0.37782958149909973,-0.6154378652572632,1.0256280899047852
1789317371003505700,10.870505615234375,-0.37051627039909363,-0.9196022748947144,1.5457215309143066
1789317371013460700,10.880460693359375,-0.16568084061145782,-0.35333144664764404,1.369482398033142
1789317371023415600,10.89041552734375,0.3464711308479309,0.7864261269569397,-0.22041893005371094
1789317371033370600,10.90037060546875,0.47598332166671753,1.0357664823532104,-1.4034507274627686
1789317371043325700,10.91032568359375,0.15111441910266876,1.1287012100219727,-2.1317920684814453
1789317371053280500,10.920280517578124,-0.3209359347820282,-1.2624690532684326,-1.4548020362854004
1789317371063235800,10.93023583984375,-0.5366682410240173,-0.5436598062515259,0.0582268200814724
1789317371073190700,10.940190673828125,0.05721215531229973,-0.5530416369438171,1.193464994430542
1789317371083145700,10.950145751953125,0.46782630681991577,-0.22467732429504395,1.9917078018188477
1789317371093100500,10.9601005859375,0.421852707862854,0.24514050781726837,1.657517910003662
1789317371103055600,10.9700556640625,0.2761032283306122,0.4489615559577942,0.3973119258880615
1789317371113010700,10.9800107421875,0.11293187737464905,1.208313226699829,-1.1704270839691162
1789317371122965500,10.989965576171874,-0.1781921088695526,-0.6573672294616699,-1.6675564050674438
1789317371132920800,10.9999208984375,-0.46545904874801636,-0.9713160991668701,-1.1745741367340088
1789317371142875600,11.009875732421875,-0.08429810404777527,-0.20973512530326843,-0.5509970784187317
1789317371152830700,11.019830810546875,0.48249155282974243,1.1050670146942139,0.003826696192845702
1789317371162784500,11.029784423828126,0.46829503774642944,1.6007031202316284,0.5745945572853088
1789317371172739800,11.03973974609375,-0.03597051650285721,-1.1015335321426392,1.0707167387008667
1789317371182694700,11.049694580078125,-0.521225094795227,-0.9954720139503479,1.0976053476333618
1789317371192649700,11.059649658203124,-0.1345072090625763,-0.6997013688087463,0.5381993055343628
1789317371202604800,11.069604736328126,0.39931970834732056,-0.11635750532150269,-0.04073091968894005
1789317371212559600,11.0795595703125,0.35924017429351807,0.27746862173080444,-0.31669938564300537
1789317371222514700,11.0895146484375,0.007573763839900494,0.27868807315826416,-0.35300785303115845
1789317371232469500,11.099469482421876,-0.28476303815841675,-0.5633507370948792,-0.05008154362440109
1789317371242424800,11.1094248046875,-0.3356403112411499,-0.861936628818512,0.47090068459510803
1789317371252379600,11.119379638671875,-0.09320424497127533,-0.2998245358467102,0.598944902420044
1789317371262334500,11.12933447265625,0.2474777102470398,2.703261375427246,-0.12065477669239044
1789317371272289800,11.139289794921876,0.4212723970413208,1.3145134449005127,-1.3831480741500854
1789317371282244600,11.14924462890625,-0.20078477263450623,-1.044024109840393,-2.176224946975708
1789317371292199700,11.15919970703125,-0.679099440574646,-0.8121312260627747,-1.1471654176712036
1789317371302154500,11.169154541015626,-0.142205610871315,-1.2129652500152588,0.5281271934509277
1789317371312109800,11.17910986328125,0.2875590920448303,-0.5236189961433411,2.245209217071533
1789317371322064600,11.189064697265625,0.34874227643013,0.31825679540634155,2.6063578128814697
1789317371332019500,11.19901953125,0.3989625573158264,1.8204900026321411,1.1046587228775024
1789317371341974800,11.208974853515626,0.11732369661331177,0.6610847115516663,-0.5746986865997314
1789317371351929600,11.2189296875,-0.5127213597297668,-0.8014839291572571,-1.6740026473999023
1789317371361884700,11.228884765625,-0.7392282485961914,-1.8793491125106812,-1.2373629808425903
1789317371371839700,11.23883984375,-0.09759606420993805,-0.5803187489509583,-0.7781295776367188
1789317371381794800,11.248794921875,0.7664388418197632,1.8161664009094238,-0.5271162986755371
1789317371391749600,11.25874951171875,0.9140626788139343,2.1234488487243652,-0.16664038598537445
1789317371401704400,11.268704345703124,0.14548422396183014,-0.6983242630958557,0.16465125977993011
1789317371411659800,11.27865966796875,-0.8626367449760437,-2.2720906734466553,1.2729382514953613
1789317371421614600,11.288614501953125,-0.7843645811080933,-1.270403504371643,1.3718328475952148
1789317371431569700,11.298569580078125,0.16290609538555145,1.1606918573379517,0.7349309921264648
1789317371441524700,11.308524658203124,0.6936954259872437,2.357853651046753,-0.5011104941368103
1789317371451479600,11.3184794921875,0.21705348789691925,1.1348637342453003,-1.363456130027771
1789317371461434600,11.3284345703125,-0.5099080204963684,-1.5606850385665894,-0.8895019292831421
1789317371471389700,11.3383896484375,-0.6937430500984192,-2.717224597930908,0.06799209862947464
1789317371481344800,11.3483447265625,-0.1350848525762558,1.5276243686676025,0.5958282351493835
1789317371491299600,11.358299560546875,0.7937735319137573,2.357818126678467,0.6229344010353088
1789317371501253600,11.368253662109375,0.48904213309288025,1.103729009628296,0.05169115588068962
1789317371511208700,11.378208740234374,-0.5242411494255066,-0.897792637348175,-0.2795613408088684
1789317371521163800,11.388163818359375,-0.6476600170135498,-2.6255178451538086,0.034209102392196655
1789317371531118600,11.39811865234375,-0.012663064524531364,-0.7989895939826965,0.22234785556793213
1789317371541073700,11.40807373046875,0.6871485710144043,2.336374044418335,0.21803778409957886
1789317371551028700,11.41802880859375,0.7378556728363037,1.6561825275421143,-0.22051213681697845
1789317371560983600,11.427983642578125,-0.12863413989543915,0.6353394389152527,-0.7248607873916626
1789317371570938600,11.437938720703125,-0.6922772526741028,-1.726337194442749,-0.6351625919342041
1789317371580893700,11.447893798828124,-0.43148696422576904,-0.23242712020874023,-0.07207925617694855
1789317371590848800,11.457848876953125,0.5041806101799011,0.425624281167984,0.45154163241386414
1789317371600803600,11.467803466796875,0.8031864762306213,0.8929073214530945,0.6879749298095703
1789317371610758700,11.477758544921874,0.3309297263622284,0.054785750806331635,0.6263829469680786
1789317371620713700,11.487713623046876,-0.14854872226715088,-1.2704907655715942,0.34874653816223145
1789317371630668500,11.49766845703125,-0.3557077646255493,-0.6811521649360657,-0.010996724478900433
1789317371640623600,11.50762353515625,-0.22637322545051575,0.3239644765853882,0.11188392341136932
1789317371650578700,11.51757861328125,0.14560353755950928,1.7567394971847534,-0.15131708979606628
1789317371660533800,11.52753369140625,0.3434921205043793,1.3631129264831543,-0.6933587789535522
1789317371670488600,11.537488525390625,0.1368529200553894,-0.7546256184577942,-1.046870231628418
1789317371680443600,11.547443603515624,-0.05223684012889862,-1.09945809841156,-0.7090227007865906
1789317371690398700,11.557398681640626,-0.010822287760674953,-0.9605313539505005,0.7344132661819458
1789317371700353500,11.567353515625,0.09439201653003693,-0.32718852162361145,1.8263537883758545
1789317371710308600,11.57730859375,0.09942831844091415,0.8164801597595215,1.7408716678619385
1789317371720263700,11.587263671875,0.24292609095573425,1.8498742580413818,0.19275987148284912
1789317371730218800,11.59721875,0.09626501798629761,1.012938141822815,-1.38608980178833
1789317371740173600,11.607173583984375,-0.4442586898803711,-0.34021908044815063,-1.7435404062271118
1789317371750128600,11.617128662109375,-0.6099373698234558,-1.1203566789627075,-1.0349693298339844
1789317371760084000,11.627083984375,-0.18297381699085236,-0.9121267795562744,0.24116547405719757
1789317371770039000,11.6370390625,0.40378713607788086,0.8668450713157654,0.7805850505828857
1789317371779994000,11.646994140625,0.6337044835090637,2.034101724624634,0.46299028396606445
1789317371789949000,11.656948974609374,0.055300273001194,0.6292314529418945,0.29020068049430847
1789317371799904000,11.666904052734376,-0.9170179963111877,-1.1426351070404053,0.17561151087284088
1789317371809858000,11.676858154296875,-1.1662302017211914,-1.318692684173584,0.4499583840370178
1789317371819813000,11.686813232421875,-0.25673404335975647,0.0025798040442168713,0.14861370623111725
1789317371829768000,11.696767822265626,0.5087835788726807,0.7038540244102478,0.014711301773786545
1789317371839723000,11.706722900390625,0.3740665316581726,1.137804388999939,-0.09824294596910477
1789317371849678000,11.716677978515625,-0.1036989614367485,0.03984754905104637,-0.2077001929283142
1789317371859633000,11.7266328125,-0.5187842845916748,-1.1404398679733276,-0.10336367040872574
1789317371869588200,11.736588134765626,-0.4781833589076996,0.5571348667144775,-0.5100366473197937
1789317371879543000,11.74654296875,-0.07862130552530289,0.5584030747413635,-0.4128727912902832
1789317371889498000,11.756498046875,-0.08015422523021698,1.022729754447937,-0.27814534306526184
1789317371899453000,11.766452880859376,-0.2807837426662445,-0.7243273258209229,-0.07984316349029541
1789317371909408000,11.776407958984375,-0.3636554479598999,-1.3920212984085083,0.2930406630039215
1789317371919363000,11.786363037109375,-0.27142032980918884,-1.5562798976898193,0.8798985481262207
1789317371929318000,11.79631787109375,-0.23441649973392487,-0.4654289484024048,1.5816622972488403
1789317371939273200,11.806273193359376,0.0011435613268986344,2.0037424564361572,0.8433070182800293
1789317371949228000,11.81622802734375,0.04882266744971275,1.9541312456130981,-0.587282121181488
1789317371959183000,11.82618310546875,-0.47049853205680847,-0.21422573924064636,-2.0297911167144775
1789317371969138200,11.83613818359375,-0.9773401618003845,-1.3796907663345337,-1.99800705909729
1789317371979093000,11.846093017578125,-0.6741736531257629,-0.9585526585578918,-0.6843340992927551
1789317371989048000,11.856048095703125,0.19664381444454193,0.49147599935531616,0.3118513822555542
1789317371999003000,11.8660029296875,0.43629688024520874,0.8636934757232666,1.3067837953567505
1789317372008958200,11.875958251953126,-0.03867389261722565,0.4878394305706024,1.4599188566207886
1789317372018913000,11.8859130859375,-0.5983766317367554,-0.9885435700416565,0.9529344439506531
1789317372028867800,11.895867919921875,-0.8144870400428772,-1.2856801748275757,0.16638977825641632
1789317372038823200,11.9058232421875,-0.4922032952308655,-0.8954538106918335,-0.41167330741882324
1789317372048778000,11.915778076171875,0.005952164996415377,0.43782368302345276,-0.7111343145370483
1789317372058733000,11.925733154296875,0.17412438988685608,1.2006968259811401,-0.6144573092460632
1789317372068688000,11.93568798828125,-0.00304638990201056,0.7313508987426758,-0.4879496991634369
1789317372078643200,11.945643310546876,-0.31270331144332886,-0.28239041566848755,-0.3946850001811981
1789317372088598000,11.955597900390625,-0.5162782669067383,-0.8875349164009094,-0.007643538527190685
1789317372098552800,11.965552734375,-0.35922765731811523,-0.5091668367385864,0.5086869597434998
1789317372108507000,11.9755068359375,0.03608636558055878,0.06720513850450516,0.7158470153808594
1789317372118462200,11.985462158203125,0.2544698417186737,0.14203783869743347,0.30317479372024536
1789317372128417000,11.9954169921875,-0.00133903743699193,-0.18267659842967987,-0.08056514710187912
1789317372138371800,12.005371826171874,-0.26237648725509644,-0.7765844464302063,-0.36823156476020813
1789317372148327200,12.0153271484375,-0.3110944926738739,-0.1322038471698761,-0.27336710691452026
1789317372158282000,12.025281982421875,-0.11598705500364304,0.6954168677330017,-0.05708858743309975
1789317372168237000,12.035237060546875,0.06367751210927963,0.5695047378540039,-0.04698455333709717
1789317372178192100,12.045192138671876,0.018979283049702644,-0.26969167590141296,-0.1298767775297165
1789317372188147000,12.05514697265625,-0.061115287244319916,-1.4968794584274292,0.030612770467996597
1789317372198102000,12.06510205078125,-0.03513268753886223,-1.4794493913650513,0.5667369365692139
1789317372208056800,12.075056884765624,0.20825733244419098,-0.03044978529214859,0.760538637638092
1789317372218012200,12.08501220703125,0.46588248014450073,1.6797866821289062,0.1377464085817337
1789317372227967000,12.094967041015625,0.23308837413787842,1.1156498193740845,-0.5211896896362305
1789317372237922000,12.104922119140625,-0.3662123382091522,-0.9299441576004028,-0.8128114342689514
1789317372247877000,12.114877197265624,-0.515329122543335,-1.6045206785202026,-0.6417967677116394
1789317372257832000,12.12483203125,0.055084291845560074,-0.5540224313735962,-0.04716937616467476
1789317372267787000,12.134787109375,0.8157355785369873,0.7197568416595459,0.32337966561317444
1789317372277742000,12.1447421875,0.8211103677749634,1.3508812189102173,0.5294675827026367
1789317372287697200,12.154697265625,0.23162125051021576,-0.470267117023468,0.3134519159793854
1789317372297652000,12.16465185546875,-0.36753061413764954,-1.8734872341156006,0.19887341558933258
1789317372307607000,12.17460693359375,-0.32066428661346436,-2.020778179168701,0.47012996673583984
1789317372317562000,12.18456201171875,0.35712990164756775,-0.36239948868751526,0.572476327419281
1789317372327517000,12.194516845703125,0.9395824074745178,1.6752427816390991,0.4444275200366974
1789317372337472000,12.204471923828125,0.9331088066101074,2.266172409057617,-0.6171354055404663
1789317372347427000,12.214427001953124,0.24935735762119293,-0.23708392679691315,-1.6676901578903198
1789317372357382100,12.224382080078126,-0.5652809739112854,-1.6595333814620972,-1.2603974342346191
1789317372367337000,12.2343369140625,-0.4619862735271454,-0.8349736928939819,-0.08732931315898895
1789317372377292000,12.2442919921875,0.5405511260032654,0.7016004920005798,0.9234145879745483
1789317372387246000,12.25424609375,1.203789234161377,1.5456677675247192,0.7636318802833557
1789317372397201200,12.264201171875,0.8596372604370117,-0.06860861927270889,0.17923499643802643
1789317372407156000,12.274156005859375,0.060266803950071335,-1.6547125577926636,-0.10279615223407745
1789317372417111000,12.284111083984374,-0.3280303478240967,-1.5347081422805786,0.1705208718776703
1789317372427066000,12.294066162109376,-0.005378520116209984,-0.3018069863319397,0.6968619227409363
1789317372437021000,12.30402099609375,0.5443035364151001,1.2191064357757568,0.5642293095588684
1789317372446976000,12.31397607421875,0.7160696983337402,1.4166022539138794,-0.08173880726099014
1789317372456931000,12.32393115234375,0.4702359437942505,0.6923488974571228,-0.9296858310699463
1789317372466886100,12.33388623046875,0.14574867486953735,-0.8033912777900696,-1.1939430236816406
1789317372476841000,12.343841064453125,0.03533269092440605,-0.8329912424087524,-0.6647279262542725
1789317372486796000,12.353796142578124,0.2512439489364624,0.07414453476667404,-0.00045353634050115943
1789317372496751000,12.363751220703126,0.5498239994049072,0.6736425757408142,0.6653497815132141
1789317372506706000,12.373705810546875,0.5789312720298767,1.0427066087722778,0.6011044979095459
1789317372516661000,12.383660888671875,0.21872861683368683,-0.6317145824432373,0.2654449939727783
1789317372526616000,12.393615966796874,-0.21424224972724915,-1.2526921033859253,0.20284739136695862
