seconds_elapsed,z,y,x
0.0,-0.0260361451655626,0.0260750744491815,0.8337914347648621
0.01,-0.652774432073858,-1.566144991485208,0.5648003503239739
0.02,-0.5599154293461028,-2.0482443838551787,0.6579624663674863
0.03,0.2600782907769017,0.01753803337472136,0.306035099771398
0.04,0.9692367338140214,0.4688303134471894,0.39273108719906985
0.05,0.9276006638699037,0.7313235016314569,-0.28338154438182
0.06,0.15220617533532352,1.0332143824627211,-1.0004213243229585
0.07,-0.46770150967823665,0.09070992919059187,-1.0705110207068513
0.08,-0.6222965327786338,-0.42673063413702983,-0.5858702157346403
0.09,-0.43815952043207385,-0.34265969973181604,0.6778839665423543
0.1,0.23833753873841756,0.2577376838124959,1.01113081834149
0.11,0.7422861271169239,0.37387209217383066,0.8122925588446979
0.12,0.5452672836197874,-0.2449306883670483,0.5429674797089219
0.13,-0.009873842586998527,-0.46951286788544616,0.2735711130554312
0.14,-0.26510207628633736,-0.5122389834311721,0.021521220167382983
0.15,-0.18914843208038332,1.1294404308171944,-0.38296227383355297
0.16,0.0780125350691174,1.0505407090938492,-0.867084479520215
0.17,0.06362219163040576,1.1259165248022294,-1.1644376212289569
0.18,-0.07532101800240933,-0.36187232656369506,-0.5895345409857176
0.19,-0.03483829698518366,-1.5484262138729576,0.4039122651914331
0.2,0.20483147647850863,-0.6417981318497554,1.1987963552480538
0.21,0.5506183452258309,-0.009691152079542941,1.6415074885249619
0.22,0.6112161850294018,0.4815658259400821,1.3562696393325733
0.23,0.298550217127592,0.589429003175362,0.4747996881387632
0.24,0.004489634561453123,-0.2235004633997231,-0.676223603727406
0.25,-0.17069299863744483,-0.6035395431908986,-1.495209286744776
0.26,-0.10502508306418329,-0.03368078604358696,-1.6762800287572397
0.27,0.2035004388742852,0.846247414266004,-0.9748221676184919
0.28,0.45522378399759805,0.7950312133100887,-0.10287756471766023
0.29,0.3666026660555527,0.8824138967535462,0.1938724296541165
0.3,0.05893293750535472,-0.6258495163186474,0.3993749321208666
0.31,-0.2981341411272758,-1.2821191587422738,0.6165270205336756
0.32,-0.3003604562022799,-0.9281685015602632,0.81901618239343
0.33,0.1089496868700002,0.3809590552383004,0.5026389425428562
0.34,0.25820220143330125,0.9257954836084896,0.0012051692268952958
0.35,-0.1090466977072418,0.5132478499879529,-0.37041628466145304
0.36,-0.4528307928415932,-0.32215108722007846,-0.571827829410341
0.37,-0.4311850974319894,-0.49946151941880407,-0.6580870277114188
0.38,-0.24364522172736536,-0.3356846986148753,-0.2392735163415672
0.39,-0.07171811126058553,0.28527171884920655,0.16617775004197044
0.4,-0.0908343391336766,0.4550883161137585,0.38690428646733954
0.41,-0.31129913339825627,0.4370976223894302,0.2043492303498737
0.42,-0.5091854977949651,-0.2768070961912032,-0.08113514910773181
0.43,-0.6514423996959373,-0.7408474833214982,0.02562249189480922
0.44,-0.5256550767584589,-0.8875106449498696,0.1896858743552888
0.45,-0.20620633495929025,-0.47676967559552763,0.2423953916471875
0.46,-0.10073226742842487,-0.057953479182646865,0.2329888156565136
0.47,-0.39416678137278593,0.1921248044105893,0.36480699591549887
0.48,-0.7297228321142124,0.3945203754416097,0.4080796286523783
0.49,-0.770445848437469,0.21962696335058682,0.10487808444504754
0.5,-0.6532641525680996,-0.14273324855517297,-0.18583983038058496
0.51,-0.36913299544616557,-0.05391887820801454,-0.5183078258884586
0.52,-0.11324331474847373,0.1477454250398173,-0.5391334747241319
0.53,-0.06270277802433928,0.06070934456850708,-0.2932624164146751
0.54,-0.1795511005671827,-0.1462182962024757,-0.02479646212039986
0.55,-0.34569274135078665,-0.13973313691496483,0.2945166767639017
0.56,-0.3179859150956189,0.335841986668325,0.18682049569973722
0.57,-0.19313525028953357,-0.19316378593372685,0.22032514372754464
0.58,0.015034130813165748,-0.880267210660706,0.1550413564678827
0.59,0.21194738357875786,-0.9231935776252049,0.001108722937498843
0.6,0.2657663176202424,-0.7574201482620937,0.3499233214584781
0.61,0.3081770135624055,-0.27647494236236986,0.40491474649497855
0.62,0.2174224345622719,0.3643081991418866,0.28516303405232063
0.63,0.09108501339128783,0.9218553840491729,-0.43547867213327224
0.64,-0.04778490739056548,0.643573167287402,-1.2752136737148472
0.65,-0.3273818105601834,0.34790385607337454,-1.2002116024998246
0.66,-0.45488123851563833,-0.34546329066044645,-0.5139995844573867
0.67,-0.18423997405141132,-0.8366410734140469,0.1454382784034433
0.68,0.24659640640273034,-0.7967322502687618,0.6158230496843894
0.69,0.31858399375824253,-0.7603584911702542,1.160395482353893
0.7,0.023474117253661737,0.021619147488556485,1.0644357200636685
0.71,-0.30643909660761914,0.1840973325678512,0.811339619082966
0.72,-0.37785181548752006,0.017694146012767996,-0.010625073209919591
0.73,-0.273046437760575,-0.11444216457105783,-0.9483038793641599
0.74,-0.056446188300900764,-0.3408021671880857,-1.2779913142851602
0.75,0.168731490012095,0.2551591660519678,-1.4125761968004438
0.76,0.22809050478502763,0.3304901957195019,-0.8433213949788649
0.77,0.06522536902251205,-0.18793869980670752,-0.17042873703581884
0.78,-0.3102262464452431,-0.7726017985601878,0.6610127545822122
0.79,-0.44036963013794067,-0.7001782433241581,1.1153968506254328
0.8,-0.16819556978640118,0.2427461572281049,0.7299379009092567
0.81,0.17460699119060885,0.537858859719375,0.05058343918325527
0.82,0.2183985735209021,0.42221966582668785,-0.7197402685761433
0.83,0.010036780971236314,-0.9560175013074712,-0.7694265131143397
0.84,-0.038337630902679214,-1.62757878232662,-0.44303129506583444
0.85,0.1422914466568691,-0.9569836962966032,0.20576972807419328
0.86,0.38276627558935583,0.7568724139338863,0.8417614524840855
0.87,0.5570603328544461,1.61075793518636,0.6421161611134386
0.88,0.4504379125966815,0.5475438389579401,-0.12452685816528154
0.89,0.1933356315990233,-1.0715320197736276,-0.771323966240312
0.9,0.20953073411593662,-2.0350121306202458,-0.7198846563623793
0.91,0.5181334872498117,-1.194378378331347,-0.08830706069307644
0.92,0.8553831058071689,0.9343906717750023,0.4993862019514769
0.93,1.0003843939017532,1.68654001813026,0.5167480093800639
0.94,0.6442638406850211,1.1191593564616795,-0.12252274794636998
0.95,0.14125043982580576,-0.26663749548222154,-0.8593737577220161
0.96,0.06757318980482313,-0.9499137195585562,-0.7929342491886139
0.97,0.5701680824734938,-0.5274293104261712,-0.04832591886622935
0.98,1.1474063601295372,-0.40057374773820575,0.7115164111225263
0.99,1.1645217599157025,-0.38975830671859385,1.3293739934341042
1.0,0.7734162711863595,-0.7101396916907982,1.775394601304399
1.01,0.34998912473439375,-0.6726885515964945,1.9949039468022447
1.02,0.15897183683319888,-0.11796599539932835,1.661759523371173
1.03,0.25434911014988665,0.8183204261398682,0.6889744877615007
1.04,0.5999588115135536,2.558493334361667,-1.31505925690715
1.05,0.7917864137818496,1.5560691039156525,-3.9919481661040925
1.06,0.3767480218667025,-0.5214767461076065,-4.891710442656585
1.07,0.09466242078491922,-0.40524975150252757,-2.9321534123541886
1.08,0.4516301314671228,-1.804244820367245,0.8127657201610159
1.09,0.7549873548223504,-2.299778481769417,4.220013389996632
1.1,0.7824425883730033,-0.46336356626642117,5.443991298965086
1.11,1.196267507233557,4.235535849747067,2.777769717808618
1.12,1.110218666573345,2.1300803327352122,-1.6991592623836422
1.13,-0.44632133621358755,-2.212885733472513,-3.011140393011073
1.14,-1.5736481457628346,-1.514489437936498,-1.0706380331563663
1.15,-0.8729446845973265,-2.232107987597184,1.7359368494510712
1.16,0.6234454531321062,-0.059729413986430856,2.48605315153184
1.17,1.704709521128666,4.918413311041149,0.8195789274610031
1.18,1.6133627511474968,2.1975232135447964,-2.5595959317617476
1.19,-0.024696761315070932,-1.80915545114845,-4.520129672471296
1.2,-1.5151699466400492,-0.6288844792775822,-3.2680661195398204
1.21,-0.8965232122938752,0.3400867066848439,-0.9360056460754519
1.22,0.594850192423723,1.2603043473130946,0.8085979202925164
1.23,0.8639913969344079,2.1200103429107755,1.3207529761555883
1.24,0.20134556781790075,-0.4619496611839161,1.5084940893511496
1.25,-0.5127825523631716,-3.2489497277722372,2.5124490152903536
1.26,-0.7486074214098375,-2.7959496712478953,3.437427961624878
1.27,-0.17646406996296837,0.21254633681781834,2.8682269974905195
1.28,0.5385033933766449,2.9988753205600265,0.6575072400836843
1.29,0.3398018027427306,3.5275508507603166,-2.5672172139783855
1.3,-0.8185322308778943,1.409609881725797,-4.5125810133105295
1.31,-1.6614801089212412,-2.218791335702261,-3.3379995660648176
1.32,-1.3061512034557643,-3.691221271096234,-0.4229568658395262
1.33,0.17899163819207672,1.6333503009236399,1.0557093516123228
1.34,1.6651525952345878,4.982225472890564,0.3114168641540534
1.35,0.8612159618678551,1.002313435843992,-0.6373875339533248
1.36,-1.5611086551032949,-1.3621015578175109,0.45440488575729726
1.37,-2.4594230338891707,-3.635051454883999,2.9312841481563594
1.38,-1.4363673308991003,-3.9022873063149417,4.328518423931774
1.39,0.1391438112810895,2.2253869612153063,3.581328032483203
1.4,1.2494472827742955,5.177894018550968,1.12218596732173
1.41,0.642514833339825,1.387143880205682,-3.3705611408983995
1.42,-1.3365567251117667,-1.2597688920641903,-5.202716395179977
1.43,-2.105072715549953,-2.8696911827527014,-3.928008098731053
1.44,-1.0223435371985063,-2.097331045953281,-1.4013962948403058
1.45,0.4726834739416301,2.2732132369589055,0.6976183013598364
1.46,1.1307955091405693,4.403481063665935,1.2084081174668053
1.47,0.29742048728815496,-0.05092666238575532,0.9633051761991572
1.48,-1.455124445823504,-2.857877014658362,1.584377026082509
1.49,-2.1044143163024955,-2.9806915179357465,2.534750175651406
1.5,-0.9081571878400757,-0.18462377962027762,2.244144898923122
1.51,0.4380138244020552,1.9220862083922399,1.244925820807861
1.52,0.6344397053829738,2.223017488622289,-0.2269487217113835
1.53,-0.056324343763654555,0.6173324103004882,-1.474180679964922
1.54,-0.6954474529584871,-0.8284091610853265,-2.6585483014837656
1.55,-0.7862738642468855,-0.5094331844794,-2.792849308016012
1.56,-0.31574573004675777,-0.4778702371490069,-1.8490355833428411
1.57,0.15556310263449818,0.9634351016332482,-0.6201922571961545
1.58,0.28927103399133797,0.22652902090081348,0.7644539617671895
1.59,-0.0169491333956003,-1.3525546719531356,1.6870165486600106
1.6,-0.40754312615683536,-2.144265551973449,2.4244830655729945
1.61,-0.33335723777496745,-0.889547522889779,2.2800357462800247
1.62,0.17565190655843876,1.4427252554449816,1.0178990822336869
1.63,0.43490473300966404,1.7665597011968905,-0.5382286880074689
1.64,0.08540840387534629,0.8207472167690687,-1.9252980739516352
1.65,-0.27357468216860875,-1.117960418628574,-2.2040266654916842
1.66,-0.13884287973177328,-2.3083985534444014,-1.5720955704910262
1.67,0.30889380744100925,-0.3502208210722947,-0.38008930793988854
1.68,0.7622561746305273,1.647536885169915,0.8880781945268003
1.69,0.6278522141735764,2.653631847850473,1.3032040831123104
1.7,-0.08272356753058785,0.24561373121959734,0.8486447187620865
1.71,-0.6375938822767939,-1.7573852931493803,0.31738801169847164
1.72,-0.2412960789570645,-2.299603216479992,-0.11164524777508021
1.73,0.6470271822273335,-0.21717482645490646,-0.054334362936921926
1.74,1.2555466267596718,0.9893795378409099,0.30436579088183136
1.75,1.0689193370697352,0.9805265589349843,0.2400504691745165
1.76,0.2812971046357247,0.34392175729284863,-0.1266166613078526
1.77,-0.3784274416391578,-0.4171238801041109,-0.6839535858424216
1.78,-0.5069525619257738,-0.6167398158294993,-0.9700362828024768
1.79,-0.07869985790158274,0.1105009829860586,-0.7753324367344422
1.8,0.49449838818096753,0.21957281499535308,-0.011749364104833921
1.81,0.6940227829419268,0.4214486083464456,0.6599539601455334
1.82,0.4857047347701718,0.11572391654056514,0.9457190974420377
1.83,0.11102683370977097,-0.183636068775079,0.7288478954521332
1.84,-0.1397866992113659,-0.180156033521666,-0.052125444322802125
1.85,-0.1827470471860967,-0.4823697806099115,-0.4222756383842788
1.86,-0.10636525585434266,-0.2242465637385085,-0.2123818386269946
1.87,0.12879694814152057,0.12718841843778428,0.005179525258117277
1.88,0.35789923610924973,1.107136861542042,-0.2393982017552328
1.89,0.30436010531748164,1.1709023843434365,-0.5277530716066201
1.9,-0.08707077592925354,0.5676431957064674,-0.53685359866427
1.91,-0.3701443287138526,-0.5671549267469158,-0.24930772297003573
1.92,-0.35335821242365606,-1.1667393502276084,0.4190726884341366
1.93,-0.058366456781018414,-0.813204854899277,0.9688516198355072
1.94,0.30356100004575276,0.01859003887101386,1.1036738215071669
1.95,0.33548181847046454,1.1154774812254729,0.7145198666405447
1.96,0.04227255796166207,0.9694666111027445,-0.15450898859602022
1.97,-0.36492372045231686,-0.23175171316720122,-0.7374024319299578
1.98,-0.5678854919277283,-0.9595908762082058,-0.9428167720905487
1.99,-0.3737696204862114,-0.16684474238429065,-0.659037768054387
2.0,0.20251909537082607,0.5730627579640577,-0.49259436388823086
2.01,0.4030249390604201,0.690912452086949,-0.07331231125620462
2.02,0.06603114630088762,-0.34994702420317575,0.7036221863685409
2.03,-0.38057799773218687,-1.0179183565715115,1.179901423372423
2.04,-0.38277584476763815,-0.12594204893026462,0.6946067100261988
2.05,-0.07067424910724432,0.10758584737920183,-0.06697497881415922
2.06,-0.016155646071708347,0.23675725979254386,-0.5477705916979304
2.07,-0.14573687365797747,-0.19680959120071434,-0.4128934092378471
2.08,-0.12144971786299552,-0.8871474071295147,0.02523370154882451
2.09,0.13755985282173683,1.2194028473718554,-0.48395303467722617
2.1,0.4025795559999419,1.7107498468387707,-0.8556898129349593
2.11,0.038833989940149055,-0.03648778413621142,-0.9579614157913571
2.12,-0.644714503244228,-1.302575047313362,-0.13679936443813234
2.13,-0.5343811514990009,-2.504846233537627,0.8511353265245634
2.14,0.0708834247102631,0.042600330551164446,1.2039010376205674
2.15,0.6008447411129003,0.9768211582342209,1.4089302603753722
2.16,0.5862160650738046,0.9073277424333496,0.8473546635366768
2.17,0.03454011194690237,0.31869860571832503,-0.28629280698785303
2.18,-0.4854838784712529,-0.6513452014552119,-1.3121359994921968
2.19,-0.5589555281358504,-1.2185835148338207,-1.440739383498931
2.2,-0.11962510583741898,0.47979342378631684,-0.8188320276537293
2.21,0.5732703251315339,1.346484757434509,-0.1933641977777246
2.22,0.7026639603840511,1.4187453072612548,-0.06518629412208031
2.23,0.20343651533786064,-1.1523092575098617,0.051033336723116364
2.24,-0.4501006037525939,-2.6013312474089445,1.0554733673409178
2.25,-0.5032761226702434,-2.0944619605646144,1.8738776054914206
2.26,0.16245051473424918,0.17810583536436872,1.6556782995625499
2.27,0.9151596507943149,2.2073597092408157,0.31149452116827864
2.28,0.7465301760379089,1.8852101331924032,-1.1614401428893741
2.29,-0.18593389940835722,0.48024537446672544,-1.7282549134623635
2.3,-0.7428370020174181,-2.1434952558279723,-1.136873559354253
2.31,-0.4641211317794364,-2.1675270112007405,-0.4596828656746447
2.32,0.4887243728560983,0.4485008463326393,0.11427033028373602
2.33,1.2226591791901982,1.599535979491547,0.5460270364895783
2.34,0.8065055491449988,1.3791224967894506,0.7721712845670776
2.35,-0.15113372667669975,-0.4606943399815479,0.8330591821721282
2.36,-0.6354068245798167,-1.7542373120188695,0.42264848164904323
2.37,-0.4150837439938485,-1.3557098220654247,0.03948266862326269
2.38,0.20254282430011597,0.47839908629423883,-0.2856727442462286
2.39,0.7356887483465242,1.8584235915517702,-0.6086809883448072
2.4,0.6877527868112041,1.1186383898917027,-0.6429996788184971
2.41,0.10935999522871523,-0.9422870962941972,0.009284414674319333
2.42,-0.2784114890213632,-2.1446010679545946,0.6783596926745148
2.43,-0.13495118831661204,-0.5842364098326918,0.5920446180595705
2.44,0.3695099095541398,1.870095251324309,-0.035559251002731475
2.45,0.49567282458645345,1.908575397082016,-0.7070326579565496
2.46,-0.018143290501880502,0.494211107481746,-0.8590113294117804
2.47,-0.4247986438052118,-1.5706971462992225,-0.39123732233789726
2.48,-0.2377698953193415,-1.7594009725521444,0.25036479420706675
2.49,0.4986684059263412,0.024378678400385764,0.7029597403688668
2.5,1.0128562436185373,1.5567825630547643,0.5524177383422281
2.51,0.576173333162454,1.5478389772535532,0.15703739944976217
2.52,-0.21502741587435628,-0.051611646260048355,-0.41952464446669724
2.53,-0.6014743912932544,-1.8223848861819312,-0.36313669247734104
2.54,-0.3183488250151317,-1.5602392787526307,-0.06397809309106452
2.55,0.4265534757138069,0.9061207671404439,0.17283956902472658
2.56,1.0333505146160071,2.2480642201153542,0.022370138541593417
2.57,0.7547843009183351,1.9361751765787771,-0.5962646403654264
2.58,-0.1616955016614205,-1.2404300825534385,-0.7933114137013222
2.59,-0.800189065658691,-2.238596369486551,0.179895687339465
2.6,-0.3674798569791411,-0.9863899409104665,1.047646720318296
2.61,0.6230145682475821,1.1231654712161288,1.0546016415315926
2.62,0.8854602062642674,1.6770264246647988,0.8283356944373066
2.63,0.30060472832736657,0.8829918987456465,0.5489010544703506
2.64,-0.3365383596704583,-0.9065051109829542,0.19971110989252164
2.65,-0.5068118959510023,-1.0051099653016178,-0.5910044288488747
2.66,-0.0843815353317422,1.0565978212562424,-1.2444969309184997
2.67,0.437001640436455,0.7669893449337919,-1.1526819510096342
2.68,0.3517556113263998,0.6437954607680128,-0.6397536518948589
2.69,0.09799996440930742,-0.12206348397163566,0.012704471583167308
2.7,0.06849623505140523,-0.21359186965836546,0.18843116232551282
2.71,-0.031934328285145724,-0.22616071233402002,0.6492548870155951
2.72,-0.14891201789253028,-0.4183217048042691,1.0256519860284763
2.73,-0.10577705752466261,-0.17817943091293043,0.9820079154797036
2.74,0.038241687438387996,0.13349020275850243,0.597426714734593
2.75,0.15535108775137388,0.7255842550588918,-0.23246152911917156
2.76,0.0914286364493984,0.8987453328202528,-0.9817103345632688
2.77,-0.13494890275463509,0.6729275184031881,-1.3186674174935507
2.78,-0.3492018523413473,-0.09063563269075743,-0.8687055352677535
2.79,-0.3255278740347894,-0.3445238641194439,-0.05994042977675859
2.8,-0.027432494321563073,-0.33045468218909746,0.5582492335262508
2.81,0.17821654348154492,-0.21941780469891056,1.0415689025873711
2.82,0.1842087649257726,0.01799314701079588,0.9208539302720606
2.83,0.07764727932747907,0.2568984848741512,0.28924084884970025
2.84,-0.16822568652719236,0.2540921200420349,-0.2959255540057133
2.85,-0.3927710508920127,-0.2040125075919897,-0.5658396118656444
2.86,-0.3395845248008649,-0.16115527099919252,-0.4967691519348638
2.87,0.0458424176379957,0.4309976581130695,-0.45770161051055674
2.88,0.3293326513844722,0.5076735925418657,-0.2164946076348878
2.89,0.19112433258232697,-0.006094774410018452,0.21711069061527882
2.9,-0.11386536669562095,-0.6735652879520672,0.5444052921999382
2.91,-0.2601709405155338,-0.7141297162032718,0.7289064861801342
2.92,-0.10402601033467368,-0.04977833461278805,0.366813129591591
2.93,0.04050219814910985,0.7230266798781496,-0.18252912231443352
2.94,-0.0664641477982688,0.937867452851502,-0.6143250885283033
2.95,-0.2947732698960218,0.12873847409278869,-0.6093551383761417
2.96,-0.32571757152796615,-0.644429236984477,-0.1934359390329505
2.97,-0.052925238037527585,-0.3544320134419925,0.13548243703305798
2.98,0.25946575695709906,0.6649951236619785,0.09817420595874563
2.99,0.23668259615679477,1.0030787221790598,-0.15808823459229132
3.0,-0.23667230459257071,0.1074923994845877,-0.10408678011304867
3.01,-0.705054453994277,-1.279084351171943,0.3131569847191404
3.02,-0.647844759180603,-1.3128086033290132,0.5836561622340413
3.03,-0.0505685033248325,0.41676119901162667,0.3332324878026187
3.04,0.44989092372635603,1.8846069371317407,-0.11705089233636418
3.05,0.2985913551478449,0.9764642972247095,-0.5135752335585325
3.06,-0.3092864409353184,-0.6461607783291017,-0.6053083600183696
3.07,-0.5996275036017766,-1.6099393086371998,-0.4238216459290632
3.08,-0.28418288605680664,-0.7235902855508655,-0.12727252045261372
3.09,0.2717432840285774,0.8726689835166829,0.19575604484396192
3.1,0.4157775225967073,1.3642186651925794,0.3635798042424203
3.11,-0.05434330695343491,0.5324129397964681,0.2899323847573878
3.12,-0.5169148305904222,-1.128080823965758,0.12845670595879893
3.13,-0.45108225740491015,-1.5798043901427874,0.07210764749755165
3.14,0.08135558170592586,-0.4086429233410176,0.006995116420284247
3.15,0.5234064428095062,0.9126933694253369,-0.09148020781681898
3.16,0.40393707995121036,1.1984940339227026,-0.21464645424709727
3.17,-0.14876856251755355,0.08231459383145312,-0.11124682936874852
3.18,-0.5408615609402283,-1.166932227905342,0.04573761556098699
3.19,-0.4058657819213539,-0.9322854107012976,0.13790566902639873
3.2,0.1383776407380445,0.7802219934052322,0.03263692949749426
3.21,0.5479384776860304,1.834818668929736,-0.3799724698563468
3.22,0.24258113530997233,0.7496132302546674,-0.5097118536262945
3.23,-0.47297729511003,-1.3617653684659263,-0.033762098459479827
3.24,-0.7627126299223564,-2.3961611921959842,0.7626620831004859
3.25,-0.2796493399297774,-0.7709408671344251,1.1008357838134464
3.26,0.5031828199673097,1.7022185216781467,0.7352152377989524
3.27,0.6665764833586146,2.026257605280868,0.02263424436577486
3.28,-0.08724858741602157,0.8030048376878635,-0.6031355756648822
3.29,-0.8557934533071383,-1.11641907615221,-0.7276492977647588
3.3,-0.8328123506608125,-1.890530139622319,-0.6090067053032454
3.31,-0.1121061663025155,0.03919371121657323,-0.4277215819575112
3.32,0.6597557292373193,1.3744335672681607,-0.16444145247277148
3.33,0.6320096211840864,1.3193123856081015,-0.024701763160069355
3.34,-0.03364243601751398,0.19294700782551297,0.007637820300315227
3.35,-0.5141990355462895,-1.2948714414891094,0.07497678717126313
3.36,-0.42919919525641714,-1.182884314199086,0.1217640159219265
3.37,0.057067363395239656,-0.4627019815736545,0.2527567761964325
3.38,0.42764751196099693,0.42243489007702095,0.4226836518040778
3.39,0.4075940635071502,0.46304971082937335,0.47931949099026555
3.4,0.11396118625952956,-0.11447447705452751,0.31946154938272414
3.41,-0.11642105026136257,-0.303377059880883,-0.06137226626998856
3.42,-0.06331245250779957,0.18377285955004175,-0.5754009115610048
3.43,0.12268031211480276,0.8471668502116642,-0.9589825750903
3.44,0.17227614103605793,0.5924234044327034,-0.7979988716411751
3.45,0.056548982743079595,-0.44461767497349997,-0.15462070999261474
3.46,-0.0038660701507907923,-1.0932689956386497,0.5459195235931964
3.47,0.12596784740884445,-0.5476893413001446,1.0301410251683971
3.48,0.3422130882898308,0.45617094681557296,0.9885776179744657
3.49,0.2970924577245558,0.7179760825658651,0.6022877133133102
3.5,-0.04243162615895963,0.09556562219314912,0.23654336659999967
3.51,-0.24986556513707722,-0.6276369370220415,-0.17656261159323497
3.52,-0.08746929865701819,-0.26758684566777463,-0.7757598025841661
3.53,0.25781238919716387,0.5342210732978812,-0.8932092882954656
3.54,0.372404909316636,0.4234853466429869,-0.24900199993724242
3.55,0.10995998603464038,0.1022365688495634,0.4999422693745784
3.56,-0.09921739968290022,-0.19600224445305275,0.7117293638031167
3.57,-0.04778622555518889,-0.21557324254702842,0.41592664935963297
3.58,0.06981950957277727,0.023237564087177108,0.06416513129917008
3.59,0.10793110616055669,0.27002154674330836,-0.0661015084170642
3.6,0.030659914728994347,0.1487625474882905,-0.0028512688989815248
3.61,-0.06579975202952752,-0.2983720511905052,0.04757215038874683
3.62,-0.013612905185179961,-0.38340176052657254,0.05406155638995114
3.63,0.16283811047275212,0.39552409937703076,-0.023619840657216448
3.64,0.20204480318491846,0.8596488578830915,-0.13854387141185062
3.65,0.05947921649122138,0.5409438278308921,-0.36717370243466074
3.66,-0.12348794410937869,-0.7317711175034098,-0.1963657594787821
3.67,-0.1862702492598207,-1.638511890800893,0.4178738765384589
3.68,0.01971257187924147,-1.1213788107521718,0.92959179793451
3.69,0.4584751644399545,0.4814492413896998,0.7066424096213344
3.7,0.6939262290707802,1.7161509054034112,-0.1429482699448141
3.71,0.33063819038275294,1.0772237762419408,-0.9418042611878463
3.72,-0.3892405592174557,-0.2320728220170605,-1.1452788568259311
3.73,-0.6355526417681652,-1.3161028243416162,-0.7970561691780218
3.74,-0.16380703754305184,-0.5076250504334078,-0.44727424091534657
3.75,0.526132130788126,0.3234642163475533,0.20091176930239799
3.76,0.7693932332991559,0.18076910872009153,0.9663642502886156
3.77,0.42374792522632226,-0.45103056215477727,1.2706404278513577
3.78,-0.03834973689042139,-0.6673110086680596,0.8253832421196249
3.79,-0.215699460312745,-0.09361421199944148,-0.07224163878035526
3.8,-0.13165527950861158,0.6316624490217877,-0.8471642654685775
3.81,0.017444250936357007,1.0697370089717742,-1.2868606727603202
3.82,0.0761033191491967,0.47702318832231916,-1.1428244063813373
3.83,0.03249285214055864,-0.34395112762415714,-0.5009923345833635
3.84,0.07973892620110376,-0.6660102876296736,0.2696384163382046
3.85,0.19177434387747566,-0.5663441183112249,0.9821916520830092
3.86,0.18056385763090307,-0.11294776092890083,1.1780875712159524
3.87,-0.011104475247833133,0.4436619063546366,0.7116705946140184
3.88,-0.26978117618876635,0.4301087321963207,-0.009351025412306167
3.89,-0.4159407408355012,0.5534802528954268,-0.7388049425234723
3.9,-0.33108953896153515,0.1331767360927193,-1.0260337474505699
3.91,-0.11238294138763834,-0.463782317243388,-0.5471027407542666
3.92,0.15950523880725376,-0.4734693804341453,0.20889886009471365
3.93,0.4162377453485147,0.1343247018226253,0.6083141971676775
3.94,0.4009122322886313,0.23735137501061965,0.6122714322012466
3.95,-0.040330923340758176,-0.014442113561120504,0.37900384655063324
3.96,-0.4741202873024398,-0.317314052722298,0.052181934637212234
3.97,-0.43906215951824634,-0.21692601217330945,-0.1907811799292709
3.98,-0.09241399633589323,0.03230652074194099,-0.06777665351304954
3.99,0.23239713130783773,-0.10099252750178624,0.2588537879649212
4.0,0.37791576300297947,-0.0382153706548961,0.3065053047848966
4.01,0.38320635705912415,0.8473521664412181,-0.16447617681527066
4.02,0.20182822166289635,0.3057479478621407,-0.47523063676757543
4.03,-0.2526494619448861,-0.6151390097938295,-0.3294510120661678
4.04,-0.5217373076163447,-1.0955738886512598,0.2083011449044102
4.05,-0.1915320216499196,-0.3212923981379523,0.41296064412070105
4.06,0.4228563078467324,1.0579904733602015,0.12241227155655353
4.07,0.6200398228930641,1.45295229445855,-0.352974987166132
4.08,0.10263175788483496,0.3959849119369147,-0.4871944162905544
4.09,-0.6027260170265965,-1.2619577320066337,0.11962527384124359
4.1,-0.7012433140825979,-1.6148540319417062,0.5053854137823268
4.11,0.03394620613722374,1.2973127920346408,0.03394238982325619
4.12,0.7453964175609747,1.718482558082616,-0.52614566556755
4.13,0.3900028151636962,1.0115010944125726,-0.7289464698595535
4.14,-0.4067370435184253,-1.2258568755078707,0.05057253465996021
4.15,-0.6692958049313812,-2.580105825802538,0.7082028014375704
4.16,-0.24370971179401973,0.07552662179577882,0.551218189087203
4.17,0.5510615160872205,2.0551933638628075,0.2070726386792897
4.18,0.7010343197293861,2.0173930979626533,-0.6342312179063765
4.19,-0.12816520427588207,0.32163043659107715,-0.9613182342425561
4.2,-0.7489166478263024,-2.163354511606336,-0.34673079989290545
4.21,-0.5593335157856109,-2.6784000975481552,0.2726406636520888
4.22,0.21367359992843157,1.1070083053296584,0.6816730753575755
4.23,1.1218949310914224,2.1286854556700714,0.30208261067269965
4.24,0.7684717107846142,2.138725476971612,-0.5247316558317222
4.25,-0.40064141118097246,-0.4990326065023127,-0.6845929293293269
4.26,-0.9975035638471794,-2.795112717233609,-0.08927058043376263
4.27,-0.5035527058645708,-0.9930619047175451,0.343373745669714
4.28,0.6661349780394019,0.9918743185204166,0.4287052582649257
4.29,1.0507636524010406,1.9563858151049993,0.3324183788788601
4.3,0.40488119946758405,1.0463125844747014,0.17751016425854954
4.31,-0.44403016402335505,-1.337932501925721,0.22852956833401677
4.32,-0.8418016244231195,-1.7594909335557172,0.09601581786431611
4.33,-0.3057850711916595,-0.35595861646277416,-0.09750327082382437
4.34,0.5213821846388755,0.7644292548838163,-0.1488108811477934
4.35,0.680724740741698,1.6810644203808347,-0.10791580584313845
4.36,0.2950577448161192,0.660577668765023,-0.1585748660206307
4.37,-0.24056765995512389,-0.6377360793755684,-0.26847869013953046
4.38,-0.4202055408600394,-1.1298019214075563,-0.13917580332293028
4.39,-0.0596235997687565,-0.14997814131410175,0.0019846674966012717
4.4,0.3312481875121699,0.27497507283578476,0.4074871333797672
4.41,0.28377447606740824,0.4644237288092708,0.6749083515970747
4.42,0.027750901106697274,0.012186154917340685,0.695283925604931
4.43,-0.1634333150431062,-0.22267782809028921,0.36120653026504224
4.44,-0.24392836636426585,-0.28704125448191475,-0.034118838833845554
4.45,-0.19072801982210327,0.1940276605341063,-0.4179065000526904
4.46,-0.07612315353497079,0.709710357412904,-0.6474637447947137
4.47,-0.06423870318966446,1.5215749556152738,-0.6206294463749559
4.48,-0.12260340234237889,0.6230767907244006,-0.49751656064350785
4.49,-0.289394425264603,0.005429324702294081,-0.24997090776699016
4.5,-0.2221780141097167,-0.886716180100625,-0.10341156266859892
4.51,-0.0986971510975391,-1.353208480262892,0.6980533395493477
4.52,0.0705889668918975,-0.919223886111645,1.3503292995772893
4.53,0.18698358110311633,-0.09951182705582634,1.4619083040978689
4.54,0.1430151554587538,0.9617939982837351,0.6168921770335669
4.55,-0.17144746289066728,0.9163344473418905,-0.3835306705718717
4.56,-0.5035555622842234,0.45866692677367676,-1.4071107328690649
4.57,-0.5311156481640127,0.5717932832474056,-1.9181954133344707
4.58,-0.3474318715453061,-0.6951736569989313,-1.2425148956911578
4.59,-0.02692804226439129,-0.5573977028424232,-0.4439390451812975
4.6,0.3443305136293469,-0.5036018413199354,0.7084352289190334
4.61,0.546740845741861,-0.26307185503170566,1.3440925366730339
4.62,0.2847723110536925,-0.05707250637333847,1.5340302577258411
4.63,-0.12342819823834898,0.37848122673194246,0.8212398072237208
4.64,-0.38911819385358015,0.07966614392691829,-0.38958041827280815
4.65,-0.5293231491908126,-0.1759116569879469,-1.210072033666957
4.66,-0.3713161992073888,-0.29974436421402895,-1.234684718269663
4.67,-0.05774301970251407,-0.5203264312355091,-0.16936396569686157
4.68,0.3432801699110383,-0.23095752293367958,0.6972096121563254
4.69,0.7321412001998558,0.6479608369673527,0.575097748916342
4.7,0.671327217685388,1.2327838856913111,-0.19173308759117455
4.71,-0.0485132567368608,0.24019048569887372,-0.8192682680965236
4.72,-0.8460509033151097,-0.3546759042283175,-0.7983175435937098
4.73,-0.8853795538921964,-1.5131670156656334,-0.07129648319125864
4.74,-0.3728138121737525,-0.753655045784493,0.7585617144754833
4.75,0.37491551037578824,0.36684509170696433,1.0372817317610818
4.76,0.8092414184863168,1.3398691712538173,0.7483042284949356
4.77,0.5512052915860102,0.8645035034511533,0.06317761880492131
4.78,-0.1632267601493391,-0.8112109728636552,-0.6400222206422336
4.79,-0.6838448311788908,-1.4811263839805322,-0.9571108909788496
4.8,-0.6198371880256792,-1.1991085138247783,-0.4094901254450626
4.81,-0.08077917526607933,0.06787562759458708,0.3284500492282013
4.82,0.4827982554415069,1.4002596834989849,0.6830329805733497
4.83,0.5228159226216292,1.8379723324258053,0.3048309654286956
4.84,-0.01768483162200182,0.3757087464832576,-0.41467758516019754
4.85,-0.581193294558118,-1.608073191889374,-0.6837087991971609
4.86,-0.5574329605439832,-1.7005152947482634,-0.11569780146172969
4.87,0.13379121851653078,-0.5838270270189623,0.46467956596836507
4.88,0.8197851436437013,0.8685010304591776,0.3847868127205396
4.89,0.764558075158311,0.6126912261081645,0.49162818111682866
4.9,0.11633171831972453,-0.4246491576869128,0.7429241085955247
4.91,-0.442493133628073,-0.6799702839122045,0.45479709562547327
4.92,-0.44013965112936937,0.6420480922588317,-0.44538380300855096
4.93,-0.017146877752265866,0.9934096394370303,-0.9669591950190041
4.94,0.30414421488625043,0.5317716670911418,-1.092187884127194
4.95,0.26800227900140167,-0.62070066714338,-0.4404245945444731
4.96,0.15317063034530862,-1.1801648759651444,0.4885692322589731
4.97,0.23641877754905724,-0.1938471801818036,0.8707195670026509
4.98,0.36267578074713025,0.5686027280470142,0.8381702293931287
4.99,0.1443080911470678,0.48303818906781476,0.533229890926839
5.0,-0.28941208001080393,0.0826664464553766,0.17353609387889699
5.01,-0.38238756073874175,-0.3107615728833747,-0.20142359738959925
5.02,0.0010924491711421223,-0.34063987731945067,-0.4011756988934042
5.03,0.4948886204766443,0.3786222749354565,-0.44765868594361946
5.04,0.7000717270747202,0.27694503699615924,-0.3806906982845396
5.05,0.4193386021475919,0.10544070503448533,-0.1250887693472696
5.06,0.05247533905722022,-0.2565915438027983,0.07824257882160289
5.07,-0.06724326109170037,-0.4926209219298471,0.2130296043736434
5.08,0.006378682660970276,0.22260637262903665,0.17194193497567986
5.09,0.17431691262777604,0.7166875131634437,-0.08641669532821725
5.1,0.25925792719601126,0.7603199402164312,-0.353214298441283
5.11,0.18157014010444317,-0.3015812065132467,-0.20709542002615852
5.12,0.05317433020116151,-0.7013375465486814,0.101274290580882
5.13,0.17647488752784818,-0.3388377963730184,0.1806805403498794
5.14,0.41488545261488796,0.5827056050700598,-0.0020618319248509546
5.15,0.34137630271663433,0.6900603995127367,-0.09120386687818356
5.16,-0.05835230309302938,-0.09016490021990613,0.000905645493514071
5.17,-0.3225331017855141,-0.6881713173161657,0.12359272925242762
5.18,-0.093245828618425,-0.42612279224807004,0.10440253853885441
5.19,0.3891648998075886,0.38382022710462665,-0.12256776521826997
5.2,0.555535227955664,0.4610098635470637,-0.2145726241212472
5.21,0.2518581863733452,0.16810627542759415,-0.16165083740743902
5.22,-0.10123003718025846,-0.3284008456142595,-0.09572869391199422
5.23,-0.22519332675889286,0.18369364076123462,-0.14876541749340172
5.24,-0.1390323187467544,0.7224018864497067,-0.17542918928630102
5.25,0.012735767322656496,0.6479685712542405,-0.25139968803916046
5.26,0.14121345484241826,-0.09579955352580967,-0.3511142110583491
5.27,0.11262874263223471,-0.8657879562263608,0.06069977946026106
5.28,0.02944722548543669,-0.7053142996176477,0.7102133364536878
5.29,0.08603930847372522,0.37222017507935456,0.8260620431083753
5.3,0.10315235617663843,1.3234903075781266,0.33214432138651556
5.31,-0.11489131126390655,1.0675060229327764,-0.4488348963049057
5.32,-0.40127520780536236,-0.11718526546835159,-0.8903911080470158
5.33,-0.45286918182741925,-1.3156064309202469,-0.5031304002256107
5.34,-0.14891486173744922,-0.9897914226009982,0.23397790529255472
5.35,0.3652213265802183,0.7257810599159982,0.5815677484002204
5.36,0.6120506686933255,1.7263765931874584,0.3785548137331785
5.37,0.20458672260432262,0.8829163034827701,-0.08538382107633284
5.38,-0.5268345075074378,-0.6685730313910804,-0.33033723426464084
5.39,-0.8452315198070138,-1.8859286230990622,0.06287757101618588
5.4,-0.4879117080246305,-1.3478952825531043,0.5856285169473741
5.41,0.2800031815027505,0.6679592766757328,0.5374371961409372
5.42,0.7834860141623695,2.0128967818184673,0.018906044148044372
5.43,0.44435098651765137,1.3468711898260082,-0.4981457088677121
5.44,-0.3923062604950282,-0.5058126376467023,-0.7534624892111396
5.45,-0.8726272543320144,-1.789982600428461,-0.5579251583100291
5.46,-0.5465326113631361,-1.2319724800556457,-0.08017848383383443
5.47,0.25257951415279906,0.5713320912781186,0.41784534243068994
5.48,0.7679722980616799,1.836181989119581,0.5442533371683863
5.49,0.4557668089874749,1.0458755023187107,0.40316998981098867
5.5,-0.37559960637040146,-0.7891021298419841,0.05137743254915877
5.51,-0.8723861927798933,-1.5946308932225572,-0.30677458628562976
5.52,-0.5217394440010525,-0.39957550483381676,-0.42979772292019025
5.53,0.3016240208845633,1.2906787991215933,-0.38824392669744573
5.54,0.6720477403882522,1.6096971767520074,-0.22861007439645417
5.55,0.24104293839107394,0.31145012976579073,0.025458828120178342
5.56,-0.41149153346686645,-1.223797715736892,0.25007715912332795
5.57,-0.559688700528759,-1.3884918281730847,0.33345855701627386
5.58,-0.19689572415786707,-0.4258198319728221,0.44746074422582593
5.59,0.15251003926211737,0.7798124938742563,0.43542199305710705
5.6,0.15015272685581782,1.2292098452559874,0.0971491096571774
5.61,-0.1413917853790728,0.4246371450754771,-0.28782280768887364
5.62,-0.4195749439248631,-0.46730231473331907,-0.42816956472133644
5.63,-0.36527689691102644,-0.27827938013554593,-0.5164361369827021
5.64,-0.06133285355957874,0.1431267291294111,-0.3562917645975567
5.65,0.06746191953857122,-0.14503198544631804,0.29728977858054045
5.66,-0.09536464575796634,-0.7270745623395712,1.0120649324318822
5.67,-0.22542341038137215,-0.6817416367617439,1.1490813346734396
5.68,-0.1295705745404531,0.6962911276089088,0.4901193678891515
5.69,-0.009005782165136663,1.4249808305142055,-0.529989714135186
5.7,-0.18720507335869666,0.6209503894119937,-1.2261873856619854
5.71,-0.5213615796686638,-0.9841246265711991,-0.8912629643176064
5.72,-0.5517015136823198,-1.9115799260387856,0.08015958571707174
5.73,-0.09229231111621726,-0.8752232877954499,0.7987086783384908
5.74,0.529471462808433,0.9969722114134275,0.9971596907787007
5.75,0.6412695859707824,1.3862652393004022,0.6837806579600145
5.76,-0.05467770874228725,0.5902396040575141,0.06689871867916637
5.77,-0.8587987227534586,-0.5805411498823398,-0.4901663651267295
5.78,-0.9574487946923138,-0.5264645075523724,-1.0353100460628644
5.79,-0.3750668572518045,0.33735293261070415,-1.0946435888058024
5.8,0.2509818804096073,0.6207732521590507,-0.5198330557111088
5.81,0.3452879056069775,0.1634278702415281,0.43657733643610097
5.82,0.0649028350574633,-0.5193682682687479,0.9497462357577926
5.83,-0.16652613100172256,-0.5784788606639454,0.7732829487710793
5.84,-0.2222509255824396,-0.5665087759151093,0.39565718508955156
5.85,-0.1847502829166069,-0.11965099182616458,-0.1499251810322199
5.86,-0.1090851250634309,0.2918691802066262,-0.46658757666539524
5.87,-0.009283081834771773,0.3840599913769109,-0.47377857564710874
5.88,0.05246541158099922,-0.1807081120017713,-0.20557069595904584
5.89,0.06372292960153607,-0.5799760515385951,0.139052184015973
5.9,0.12532012072828783,-0.30226925387511755,0.17943085901690253
5.91,0.22178803690425358,0.6530628109754192,-0.18089761444142732
5.92,0.11481711508058419,1.1327998536646129,-0.5733785280137659
5.93,-0.24622524647189115,0.44168757695222455,-0.48165939094248994
5.94,-0.5012786260072712,-0.9761148191342236,0.11160422879814604
5.95,-0.30829630875390746,-1.8033775988793381,0.7202398268262301
5.96,0.25137214676493486,-1.137516139054841,0.9601681216780841
5.97,0.7420319065303103,1.6002324365264402,0.48528884236328695
5.98,0.6703141557289898,2.5066948896018597,-0.23809011291598425
5.99,-0.13242857014152487,0.2129770067528635,-0.9267561275661719
6.0,-0.9575961418369273,-1.7090344253297787,-0.9224053152140956
6.01,-0.7872598706981226,-2.2747363668508584,-0.3860603588844656
6.02,0.13582578194364198,0.007933954073991414,0.3429075864013861
6.03,0.9602929424493691,1.6199152521060427,1.0316576887243851
6.04,1.000876916345102,1.4399135345041634,0.8917890750667592
6.05,0.2412531466284346,0.2090842090553754,0.09749633305806446
6.06,-0.511851417807907,-1.5657522632758876,-0.4764718163918925
6.07,-0.6250637819077342,-1.4782560967729539,-0.7022566137557905
6.08,-0.01233371565896688,0.7965729338751141,-0.5060998756135829
6.09,0.7164998369208914,1.4907529530320667,-0.2505228177762345
6.1,0.6901983287961576,0.5621007690431266,-0.006617051822819213
6.11,0.12406003217452319,-1.3412751438475852,0.7082311676341505
6.12,-0.23109524880344184,-2.3097722409886234,1.251553782751367
6.13,-0.04729864310219843,0.23251527183409246,0.9237382297790716
6.14,0.5527246236976485,2.6407920330769614,-0.1711187062543277
6.15,0.5939163523240684,1.7284327142551312,-1.7448323826599583
6.16,-0.2568084591388172,-0.6708960424617328,-2.0933063919459567
6.17,-0.7489111022639153,-2.3540371291524176,-0.8508162718328663
6.18,-0.2813056207921423,-2.376496033274896,1.1346694216152604
6.19,0.6067711437427341,0.39400631230390504,2.4012849125899116
6.2,1.2751021173565291,2.6463859409923747,1.8010317496893262
6.21,0.9433331594329993,2.105174873943834,0.30552808137804827
6.22,-0.23373739126230123,-0.395078922577322,-1.1143421250833248
6.23,-1.034473337025532,-2.4742643236003996,-1.3792404538279597
6.24,-0.8169627884164298,-1.858131364024993,-0.9008572595680151
6.25,0.28597947869885304,1.3318490120025839,-0.24947151867101883
6.26,1.1687831737016874,1.503466577969193,0.3338535090632615
6.27,0.8692380161815679,1.5342124152386896,0.4127380754020277
6.28,0.1123526977034216,-0.45300148731886847,0.06439204112112387
6.29,-0.5353869642874043,-1.3520997023395271,-0.13427189564582726
6.3,-0.5845014968976734,-1.0727164036448489,-0.2186885271658567
6.31,-0.08323705453607091,-0.09939736669955408,0.09518401662149556
6.32,0.40400039426218765,0.4114972289526245,0.5861510811393554
6.33,0.45068669119477034,0.37810305873917255,0.8507765581940949
6.34,0.2773018750635179,-0.01343530739348244,0.5362830689655842
6.35,0.03452766994274441,-0.1200189168666253,-0.15029664542685756
6.36,-0.28958650114824414,0.4251533539747718,-0.7346342820406189
6.37,-0.4065987581654088,1.0380215083887099,-1.1848491349035697
6.38,-0.2653815044914909,0.9644874184304448,-1.1597310228661553
6.39,-0.002992039399983381,-0.0909037895102358,-0.7818598386336825
6.4,0.056666450040357835,-0.9791392270130352,0.289218593835421
6.41,0.09752235470615155,-1.4932476045666143,1.4521017873231974
6.42,0.23775133722106484,-0.5903313493163882,1.8120886667911233
6.43,0.2451088839173689,0.5775436438298153,1.381805986405057
6.44,-0.010970426303618086,0.8778153535970522,0.4299457282605607
6.45,-0.38636953672886704,0.6293257582628154,-0.7625162195470564
6.46,-0.570079590181813,-0.23240099855231136,-1.3662320806215933
6.47,-0.34059406437224116,-0.9260766701716725,-1.1275547246330981
6.48,0.1069426631156968,-0.2942412151966381,-0.3877345527635393
6.49,0.5977261497539175,1.1317507070276362,0.1383775772447869
6.5,0.7265879295326737,1.222431634657957,0.24072508467404674
6.51,0.0713200361445328,0.2951213189738159,0.30133422968876494
6.52,-0.6933018614811021,-1.039081886264381,0.38604726796292343
6.53,-0.7427418765915079,-1.2485602933658393,0.4273805395748092
6.54,-0.028821968286319586,-0.23057665453289564,0.22031772629456375
6.55,0.6629301602000349,0.7747252224694988,0.029090738995302776
6.56,0.65284954910364,0.8621955671298521,0.01732079910703278
6.57,0.15138982538937668,-0.020883394827519323,-0.0029176155933326145
6.58,-0.24033281555936206,-0.8859382493190779,-0.17752946253399296
6.59,-0.23249907588941615,-0.3079105174003498,-0.38869882907741826
6.6,-0.076651546880506,0.023376104331395264,-0.09703657639741882
6.61,0.04417768240358518,0.8676005144935188,0.055486149922202986
6.62,0.10390270985865833,0.46201369645684104,0.16895907616030229
6.63,-0.06352065814433228,0.1453319549396607,0.10665429746771765
6.64,-0.24955058409486047,-0.40998288624067,-0.08233405281262372
6.65,-0.2876783347627433,-0.06255486395268466,-0.11453499147376398
6.66,-0.07314656741900545,0.4520439971610616,-0.200884051265944
6.67,0.04797016543290127,0.5698067522126061,-0.21272887661715958
6.68,-0.09069331500980055,0.17245543923841697,-0.11251395166413553
6.69,-0.25675586304502124,-0.6166203476493027,0.2095931255252979
6.7,-0.2716023944565708,-0.6483270789049149,0.49939333014987486
6.71,-0.07462314691595151,-0.4041434226031912,0.4531039641884893
6.72,0.037919570264120996,0.638411407700068,0.09314396609319321
6.73,-0.011334648829728351,1.0028315570124728,-0.38679763005766016
6.74,-0.2718701096249276,1.459910022009296,-0.8389268273798745
6.75,-0.4617742192481503,0.5475657073133462,-1.0280579851342597
6.76,-0.42550251097453123,-0.5420766431769946,-0.6959404025708817
6.77,-0.09202608089637956,-0.9391988392452273,-0.2544930277399033
6.78,0.22687269813074773,-0.8733522577960761,0.710800191831358
6.79,0.2770457256312286,-0.01755363390824289,1.42899351061996
6.8,0.09479216114680097,0.6140737070156269,1.207871041569346
6.81,-0.36849004129552987,0.10926024531311886,0.7149107594628598
6.82,-0.765848159604413,-0.20566969237377453,0.19823309219984223
6.83,-0.6374492999177794,-0.24837320825735612,-0.506240703245133
6.84,-0.23249683121970968,0.5468433193659715,-0.9162699208365042
6.85,0.17417706633986896,1.2036937078050536,-1.0203838673988654
6.86,0.28275899163270884,0.19853200786337102,-0.9346765826959079
6.87,-0.0611685992869209,-0.5310769715458025,-0.2694441415510256
6.88,-0.3216391186185495,-1.4948977047009477,0.6777887864803743
6.89,-0.2821144606473958,-0.7681478797653264,1.1783965306805435
6.9,-0.00927863266643819,0.7698788673800008,1.0354977462784407
6.91,0.18374658165364396,1.2721793091141989,0.26337585574247807
6.92,-0.0506755292485433,0.4341970734431363,-0.6152500701170323
6.93,-0.4045608441999636,-0.7618069537355702,-0.9415998647020282
6.94,-0.42584063928250193,-1.3909649290677815,-0.4271685341298075
6.95,-0.09040179456186621,0.014046328178513937,0.2920718090965109
6.96,0.44692080141105744,1.1364710129976074,0.4129634227064717
6.97,0.5797426657385714,1.1009313654901765,-0.04148252497219209
6.98,0.0476064532928961,-0.42268672424992504,-0.2713439659834271
6.99,-0.6278307228573106,-1.1740570399125552,-0.0853327698526682
7.0,-0.6406569281821164,-0.46259402899258295,0.07742608107657599
7.01,-0.05374989175744654,1.051545083356157,-0.03614424962317178
7.02,0.32494695998264483,0.8483655604083351,-0.11825837273270412
7.03,0.16417010158426773,-0.2895634772849737,0.03903481841601371
7.04,-0.12490517697601161,-1.4014464150299546,0.4999448346616912
7.05,-0.04357312872942385,-1.075724528669947,0.38728725096730626
7.06,0.2997591323301562,1.4048549016955607,-0.27495805419044456
7.07,0.38713561513173933,1.5104010569691144,-0.8623091034550087
7.08,-0.18685434804451295,0.5273921791464137,-1.1002308543605084
7.09,-0.7962755002366481,-1.4227163432503314,-0.46568866910131557
7.1,-0.7165837201569066,-2.3163306866473827,0.6053195561103274
7.11,-0.0005704865282229137,-0.7514395413614428,1.282961701025331
7.12,0.8028379998529794,2.095242331396114,1.1961754950788859
7.13,0.9622793809420844,1.73549105172898,0.24781714065502122
7.14,0.023528726100153902,0.0017892755955623773,-0.7591139216937791
7.15,-0.9140893477667442,-1.8489262896977188,-1.1855008148321662
7.16,-0.902427780360713,-1.946881151657077,-0.7034074545243633
7.17,-0.11008519321905381,-0.05469595335240068,0.3603327496217627
7.18,0.7092866163118701,1.255746206354171,1.0535673173726587
7.19,0.8120172046261928,1.5089970500144998,0.9383967144547265
7.2,0.2127439714625962,0.2284636383331993,0.26067324081573817
7.21,-0.48772304773855873,-0.8004555252207552,-0.586941348693226
7.22,-0.6791373128155687,-0.9684394288084904,-0.8421181719146695
7.23,-0.33492679852003365,-0.10225803137550624,-0.45772215531312993
7.24,0.15198294559504383,0.567692204178463,0.16843226160415867
7.25,0.38417301217300703,0.3132900354249548,0.7762764846905921
7.26,0.26477620029436216,-0.7283672079740788,1.211842358419336
7.27,-0.005078997370496689,-0.9423909774540059,1.0886398364917504
7.28,-0.11324985593825294,-0.009113712479723387,0.3030149982437112
7.29,-0.0982208530070351,0.497111099584928,-0.5304361351365002
7.3,-0.22219639549572978,0.4619176091685658,-0.9598344703827655
7.31,-0.37014955459527404,-0.12039878785419394,-0.6429059448630589
7.32,-0.2108144407489122,-0.816559835803199,0.07909243405900244
7.33,0.19587253452733697,-0.3859839270179376,0.4600860429337521
7.34,0.5952525623366358,0.552960668868798,0.32555138627350483
7.35,0.5574135732872588,0.2827999340654002,-0.04018134175292513
7.36,-0.058296745353825105,-0.12016711217336122,-0.18336218535017834
7.37,-0.4788817499145021,-0.83036114518401,-0.08961568792603969
7.38,-0.2746421544888529,-0.7465317800855262,-0.0564316606524336
7.39,0.26314829986438587,0.28799117600869345,-0.10895807267241081
7.4,0.588624806545909,0.5528744843604237,-0.10834403733016319
7.41,0.4308603234229645,0.33834626259408085,-0.16310950072387342
7.42,0.03653862554849646,0.10737869906956918,-0.33035935917197096
7.43,-0.17181981461681217,0.051462421896444656,-0.5537809183508239
7.44,-0.1262626385186419,0.1480410110419985,-0.5338234584329654
7.45,-0.003128413446899628,0.05223374957432303,-0.18454802899692202
7.46,0.1318689450127431,-0.4403465836877938,0.18557696355298947
7.47,0.185670513398146,-0.8479371496477717,0.5187981775170968
7.48,0.18002842783943288,-0.3937113973417248,0.4605240146142331
7.49,0.09112249974730298,0.7769196937831311,0.1041730318304747
7.5,-0.11237832314100196,1.3912289108111506,-0.46508839431603793
7.51,-0.399061891089053,0.8495414806465099,-0.9711540626111957
7.52,-0.51938687680354,-0.2067479123686424,-1.1079358190374358
7.53,-0.2441899358608467,-1.0829210004222392,-0.650233564910543
7.54,0.22275594852994934,-1.00653019087366,0.38246064093814613
7.55,0.5005762622764933,-0.615190041044168,1.3696691674546677
7.56,0.37793771457221975,-0.18135560536770995,1.6911373085242853
7.57,0.05492798882042983,0.7749266453291821,0.8835547110852111
7.58,-0.2395778124902978,1.1946047922484968,-0.5478125880627233
7.59,-0.5486921229016939,0.7164019899192411,-1.5678053800069571
7.6,-0.706905084548007,-0.40882270256038256,-1.5339039072707152
7.61,-0.44434390444289174,-1.4791220737563409,-0.5563465904608158
7.62,0.18030769113054443,-0.9795866791781905,0.45916410256740203
7.63,0.7733040023941942,0.5660389134509592,1.1172171951564915
7.64,0.8385388098246822,1.4713583133243682,1.099537790404952
7.65,0.1779789080763373,0.8521658142786425,0.45608273970191443
7.66,-0.7143774465687324,-0.38995138021956344,-0.2699268215159006
7.67,-0.9700764476936191,-1.286572359503145,-0.7304521999547734
7.68,-0.4283458126936096,-0.8943306821151596,-0.6607773925460465
7.69,0.3387105316577675,0.22536177018541814,-0.036487946522666286
7.7,0.7461185339553966,0.6358428474767964,0.7022711609714306
7.71,0.6286236392582026,0.6581809888684186,0.6656336792753723
7.72,0.2792800771245143,1.2295773544463953,-0.5026217850998433
7.73,-0.1848347403731393,0.2966712562295961,-1.4918436806571862
7.74,-0.6898375123876153,-1.0120544685068238,-1.1521281764485531
7.75,-0.5962807844418138,-1.001333980431631,-0.03487197715045117
7.76,0.14104594312315136,-0.7782560868653785,1.1079067150771116
7.77,0.7260951009854668,0.1255138169621706,1.7407821611127043
7.78,0.8240676629969241,0.5833129018890842,1.6180850107907128
7.79,0.5287265795406983,0.7148986118209771,0.6206215295237018
7.8,-0.00468087188527717,0.39189823507511495,-0.8538100354149195
7.81,-0.5258774172366726,-0.44935787702969104,-1.8428652180202831
7.82,-0.6683103987148887,-0.5256527738912039,-1.7857457569667583
7.83,-0.24185504966478275,-0.1398082502480062,-0.6634632741276747
7.84,0.45402792069639103,0.5005841616747375,0.47535362804190906
7.85,0.8630664026138316,1.1984313234280022,0.8449518804880393
7.86,0.676535972589106,0.779292041660019,0.4441153047538309
7.87,-0.054411208783742095,-0.6303497636090708,-0.023862244054833528
7.88,-0.7051427247069414,-1.7100969271568867,0.14192381281231797
7.89,-0.6022107099264545,-1.5497915926566797,0.5830851021889689
7.9,0.13014904742560418,0.21616378932607025,0.5425865128175986
7.91,0.8113756393319498,1.835522599585784,-0.0646519177819997
7.92,0.7735117786660073,1.3997499895711056,-0.36399152193491424
7.93,0.05990370220170141,-0.45855636820313755,-0.03575861943204336
7.94,-0.48530138708898474,-1.548704551275198,-0.07440248952671678
7.95,-0.35272501382159915,-0.5217952202799859,-0.3949496369748103
7.96,0.09380801935155508,0.4590191431705312,-0.22289802166199704
7.97,0.2640516101276148,0.7778315657241585,0.16484163056101608
7.98,0.12314475308556563,0.035387442064263794,0.5469556722284442
7.99,-0.031113090387436766,-1.0491969332548277,0.6958636886639209
8.0,0.019439970440673745,-0.5619409866504391,0.2865487902777209
8.01,0.2675964604189862,0.6747440115559646,-0.4094629321670979
8.02,0.21596034751648813,0.9139274846286874,-0.7958836329487629
8.03,-0.2974726296974175,0.17457441765666995,-0.5293235092793819
8.04,-0.59375441852045,-0.9761017636415746,0.05927326671331475
8.05,-0.2825112857188919,-0.5693933178001277,0.4619759053042072
8.06,0.37284285806793954,0.6435574924473056,0.43957836250378074
8.07,0.6410474484000189,1.2582949865126307,0.06042287228846128
8.08,0.22103678015764333,0.47457241953478185,-0.30047829990868974
8.09,-0.38127304649745547,-1.0416586617972077,-0.38180973561549303
8.1,-0.5713676090027173,-1.7332885112655525,-0.056129244890083335
8.11,-0.20325788579991155,-1.0936172912225568,0.5109440546916678
8.12,0.32076763923767354,0.6346503377940038,0.8366251812305785
8.13,0.5169332821986106,1.6887390072254356,0.5847390500435895
8.14,0.20628072448700835,1.316626685045018,-0.130846683690656
8.15,-0.3320227159186208,0.12189024468023198,-0.9263497608901424
8.16,-0.6092766460299202,-0.8169107375561944,-1.2268443784415408
8.17,-0.419676317940572,-1.1875546210737653,-0.5958829457155345
8.18,0.10934015452934948,-0.4505540728409239,0.3443364999447396
8.19,0.5336220575555318,0.7535389729558137,1.0498330713779527
8.2,0.5230237251253527,0.8400419755321488,1.0349290452144064
8.21,-0.017347103227708428,-0.15883251564728357,0.7674965857801511
8.22,-0.5966974366559794,-1.0194030683659943,0.5223405204215094
8.23,-0.6036525510978146,-1.1134995966828243,0.09201567566944016
8.24,-0.06661833045747621,0.40549849768266644,-0.6066422334029952
8.25,0.4742911157631215,1.8709075205648655,-1.1082492946049207
8.26,0.4857924710235139,1.1508290328692876,-1.2597923162011269
8.27,-0.09798575827389522,-0.1579084889457883,-0.8212304910213676
8.28,-0.4488668954279035,-1.4839114688476207,-0.10503888727475902
8.29,-0.24534671988932455,-0.9290443027048328,0.4860943853326151
8.3,0.1720139671446203,-0.16456582397897238,1.109220132909586
8.31,0.3111490179241054,0.465609639456901,1.3569538379343944
8.32,0.12691404284672325,0.5474578245056717,0.9803560230170218
8.33,-0.09450073950279092,0.036770489389845125,0.004777927245264359
8.34,-0.22735139344199332,-0.6272447425856047,-0.6782881273713012
8.35,-0.2005673042146318,-0.5223980800350271,-0.9464398075363077
8.36,-0.034552282589221564,0.321290693271537,-0.7644600783884474
8.37,0.20193727825208188,0.5089200843864293,-0.46305210633344845
8.38,0.24622291321297002,1.0579249759749307,-0.5088751863001993
8.39,0.07807411506481149,1.01056427365631,-0.5085565378695368
8.4,-0.17675507919212313,0.1364870888175006,-0.3285539598833582
8.41,-0.3507351093015931,-1.0411842388218209,0.15488873705427045
8.42,-0.2148002789036685,-1.2035455956918075,0.6458372168713287
8.43,0.15664062791596298,-0.6286123091877877,0.9375066008887659
8.44,0.3790600123959552,0.27142994347417826,1.0097269218337834
8.45,0.28689972894283633,1.165260410220071,0.3757808127986454
8.46,-0.07974400220401696,0.6723570627642773,-0.354566107513284
8.47,-0.4853614147920622,0.01977901074513356,-0.9174761140545493
8.48,-0.49010112521620136,-1.1145681494734723,-0.9039908587910578
8.49,-0.08585526968481827,-0.8325144031367848,-0.44086298200776364
8.5,0.3949776480173397,0.25209206344870394,0.21292810437158058
8.51,0.5290140862219243,1.256992815183214,0.5410136231726768
8.52,0.18712888613648668,1.1174412744055306,0.40712890058336276
8.53,-0.4931286200321825,-0.285604526226302,0.28693886325546286
8.54,-0.8434276359324223,-1.1861961154180736,0.08821540352928034
8.55,-0.44261784669008014,-1.1125660493664706,-0.0170444004240419
8.56,0.33833599170613127,0.14665691413569584,-0.0002826971398985276
8.57,0.7962399935898924,1.1202256678984772,-0.036847717404642294
8.58,0.5026945305517547,0.41465830394421493,0.0527559132257751
8.59,-0.14445686459462645,-0.9657033290239133,0.34574637871989033
8.6,-0.5169150247827569,-1.2223689052341449,0.42200004645765943
8.61,-0.25281210370365126,0.44847902508538146,0.01151913214767665
8.62,0.19152341193607578,1.0417914038274911,-0.4312009076485201
8.63,0.14928458667215408,0.735799535745972,-0.48508892190010927
8.64,-0.14218947690214637,-0.6086688207055583,-0.13242742188358483
8.65,-0.2941294049909801,-1.183582410280322,0.26457148992455487
8.66,-0.02067556442594103,0.6204505336153532,0.16888870889118815
8.67,0.4141270579882272,1.0717441059804778,-0.21745049925971804
8.68,0.3188737502290833,1.026935320882396,-0.7306395227854801
8.69,-0.1839610537567699,-0.6538280777901182,-0.4901966565502181
8.7,-0.4807841273526613,-1.8893679067652003,0.20293506466527064
8.71,-0.21523575111969628,-1.2649197563109902,0.8992590731153596
8.72,0.4206496858545882,0.3668213739313904,1.1794633820640268
8.73,0.7702762837483224,1.6653568891620705,0.5510931556553615
8.74,0.3523564269394635,1.0945747735527502,-0.3559966192430517
8.75,-0.41974775698041833,-0.515656075119248,-0.7447007844682966
8.76,-0.6904861740044106,-1.8970490134483533,-0.612711464081759
8.77,-0.293104373925792,-1.1067627349367388,-0.2855680960755031
8.78,0.5303824837999713,1.5748042112848117,-0.014707363535326609
8.79,1.0528530689953721,0.9059956240027555,0.12619891835915129
8.8,0.4794228577478624,0.17815931441053554,0.2781429119150946
8.81,-0.16858461723180576,-1.5652955801156043,0.5117378510394514
8.82,-0.29458435446795606,-1.4344256154334818,0.2499682716338284
8.83,0.06837104943275354,0.9154049740636359,-0.34946089206374364
8.84,0.4035211300815276,0.8324675635105051,-0.4305537478386247
8.85,0.2930642228327585,0.48636274540097135,-0.24115012798483712
8.86,0.041221095636055485,-1.1781377730613767,0.2525547169951465
8.87,-0.021517796861785697,-1.2659188787510252,0.40934176998837235
8.88,0.3589421894729273,-0.04322235363422328,0.19378375240534562
8.89,0.548341984289344,0.526264585684865,0.14898765003177344
8.9,0.21423540083130416,0.9875839146507522,-0.08814890863491218
8.91,-0.15984639713914348,0.2104971792380195,-0.34281183572552243
8.92,-0.30899569516195996,-0.5712492900188397,-0.4497898354795854
8.93,-0.12011779344142189,-0.7722681215548148,-0.28716676825823345
8.94,0.333124202916359,0.2293579953821913,-0.010564278209213103
8.95,0.7134073037586305,1.3996165230949331,-0.14015283144618473
8.96,0.48055670836953385,1.0433726288215501,-0.40576669350198563
8.97,-0.21813141859903143,-0.7870696727757555,-0.12673343146028943
8.98,-0.5921672483244281,-2.0295467235662303,0.46395528730585883
8.99,-0.26097835237276334,-1.2486811064012895,0.8167824079098961
9.0,0.4518394929894515,0.4147882071897165,0.686522782601018
9.01,0.7680589880634027,1.4434532214191347,0.24295906684439747
9.02,0.40967076362616833,1.0919464565575605,-0.3760888336480306
9.03,-0.22027307765676812,-0.0895056642351769,-0.7563633080166129
9.04,-0.43243008215129386,-0.2834730071658477,-1.049799283563844
9.05,-0.08801061785693329,-0.07342142701643962,-1.0134558540151835
9.06,0.27008702414325464,0.17689860719307313,-0.26926634209420475
9.07,0.34631776774534545,-0.6883688374314081,0.9434668277689089
9.08,0.15788715946608475,-1.2872940041228007,1.8458659463393623
9.09,0.1167260423876162,-0.7211349563405554,1.7068417960313271
9.1,0.2768152698374355,0.7528680125304322,0.5895721171056942
9.11,0.3197915531718712,1.9542981734534126,-0.807722923610263
9.12,0.0750898747812914,1.0585981061645624,-2.0500330146123593
9.13,-0.36362789529295575,-0.2977331475244852,-2.103286874433081
9.14,-0.33733471592617575,-1.5513791364736065,-0.9874922760912358
9.15,0.19161173204425655,-0.9677631758332633,0.4256131188956052
9.16,0.7140384364249616,0.41872368665854137,1.7018256064343351
9.17,0.7224194321546296,0.9177394925122873,2.0139156941326877
9.18,0.1079576838061754,0.3896240934722363,1.4646828767642965
9.19,-0.4914647568874376,-0.48777208605741684,0.42186782257822714
9.2,-0.5913706822381369,-0.7614803753658117,-0.597174504866417
9.21,-0.1986424191939083,0.31704364648459993,-1.309044077138782
9.22,0.33678027129483934,0.8267131618243921,-1.274421541829636
9.23,0.5614805734256862,0.31942682928987576,-0.6640645390221156
9.24,0.34226259005942394,0.00013568978195976016,0.20441861812643883
9.25,0.1166024311195057,0.13352578112658253,0.5268596980542045
9.26,-0.054752325990550126,0.2609057281113935,0.4592868566279227
9.27,-0.15637859433737933,-0.3501652048971407,0.24363502423712707
9.28,-0.12173963549316114,-0.6368393257057874,0.12077073222319493
9.29,0.10175130782186777,-0.32160585514258966,0.21680241275022605
9.3,0.3821179100475803,0.557641203522183,0.25802245941711877
9.31,0.470535114507304,0.9177975522821213,0.07802929181616045
9.32,0.3015091385022665,0.4055131420978774,-0.31848038635793247
9.33,-0.0025568071773151295,-0.06232327139725062,-0.5809977808545401
9.34,-0.11247414542082243,-0.4117741229270981,-0.4774760273708226
9.35,0.05668052348972932,-0.1856162493674007,-0.07995433319278088
9.36,0.3306772577334179,0.34751861484130225,0.37852175820566597
9.37,0.4610206081339838,0.5744038988739623,0.4127255946233684
9.38,0.25057578590593216,0.0640742317382652,0.24860709078237114
9.39,-0.11084688565453597,-0.3536193234941221,0.07112887976246905
9.4,-0.21711949032174763,-0.23047351864576965,-0.02395426700240068
9.41,-0.019200157097806685,0.4662849019137034,-0.03997651145120546
9.42,0.22315353724722825,0.9305708981729837,-0.16940363326806956
9.43,0.30647367425811023,0.640138925078937,-0.43796380045327843
9.44,0.2038900987670017,-0.1685350919840363,-0.5417487210064256
9.45,0.040389584044265646,-0.870477479013803,-0.1154626089874738
9.46,-0.03127764099018134,-0.7849111905118707,0.649659294897888
9.47,0.06511892329489771,-0.014861107203593588,0.9342712557766584
9.48,0.11720500693579035,0.8154460098393745,0.7378971637170558
9.49,0.03530030013921104,1.0161156810404335,0.18261481311185906
9.5,-0.08322385487038901,0.680680278857572,-0.5718542849792243
9.51,-0.18414683993866163,0.06046507204345976,-0.943732609362957
9.52,-0.1615321036684165,-0.5086729124034344,-0.6762665185340333
9.53,0.03390869489880721,-0.35833499253548035,-0.1654708037927791
9.54,0.24706713149893136,0.43733454516261705,0.29597795891414214
9.55,0.2662924337496579,1.0051680010830961,0.502369819306515
9.56,-0.02311623776830625,0.3656576908852164,0.5496067666175961
9.57,-0.3882052287209248,-0.5755242981668937,0.4504266330276105
9.58,-0.4213395249503966,-0.835612011741155,0.2615198489970555
9.59,-0.1431974260396743,-0.08376100300300898,0.05486504738572523
9.6,0.16290547481640588,0.6700534281593078,-0.17688012249406435
9.61,0.22139623145484064,0.7641541270478036,-0.2607388613807357
9.62,0.030962924542900117,0.6722875063030668,-0.40238795470619204
9.63,-0.19587767696306949,0.5885621374372971,-0.6244853196809145
9.64,-0.35837732148493956,-0.11152947019654709,-0.5789728908754647
9.65,-0.42047967820166554,-0.8413004003268004,-0.006910889043304722
9.66,-0.2577541790061037,-0.9932292569450613,0.7077645839700767
9.67,0.06794971516233375,0.22770407388294528,0.9459447299782757
9.68,0.31675504983661407,1.1662277716690592,0.563852040648213
9.69,0.07837106788130278,0.5392573251066578,0.03187021463253535
9.7,-0.5139294451254481,-0.6530132577767246,-0.12180132688135345
9.71,-0.7775843628917184,-1.21680002827172,-0.1432568617875363
9.72,-0.39659549286076357,0.3624390630988665,-0.5906044423191397
9.73,0.16994126000292462,2.0206172365240627,-0.9917705596159943
9.74,0.209930520050791,0.8379972697250379,-0.9637513681675929
9.75,-0.35684392174317126,-0.8461717720853507,-0.32154584202861586
9.76,-0.7256963757900129,-2.25220113424809,0.7109573389491854
9.77,-0.4561693059171026,-1.1770923826319828,1.158214837778271
9.78,0.05834316566231499,0.996314641943501,1.0472288087173784
9.79,0.1501389901089497,1.943056930036819,0.3806039274801729
9.8,-0.35908806351762435,1.2376415181764306,-0.5452581211641179
9.81,-0.9232699437787203,-0.6391405024167457,-1.0782083115381527
9.82,-0.9287093149807695,-1.7074986760326683,-0.9888316249704833
9.83,-0.3917903697074621,-1.4166321284780519,-0.04751339808619673
9.84,0.23960898881207254,0.194393855061088,0.9689972236334273
9.85,0.5252677924321735,1.6162707668457754,1.0508304359225136
9.86,0.14875538966615623,1.3806803858609482,0.2600164385239865
9.87,-0.6724693697471876,-0.2620481831775431,-0.5096049353607884
9.88,-1.222230942084121,-1.7387814502786523,-0.5444516226311129
9.89,-0.9185687166256473,-1.3628174641364375,-0.3173305169245015
9.9,0.0012982725994950877,0.5923765139957274,-0.11212791916793284
9.91,0.7053520695728394,1.9465251619195048,-0.06199372893178329
9.92,0.5285345826885761,0.7967369342525645,-0.13865288411015
9.93,-0.32049825617046857,-1.7077220649660156,0.35810766806768884
9.94,-0.875703524735738,-2.889791502907997,1.1445122005121375
9.95,-0.539578008428896,-1.5851145941091451,1.2665166416028308
9.96,0.3704758991253254,2.0239748407902756,0.32747380260181
9.97,0.826166389403642,3.316439649750248,-1.2699695275328962
9.98,0.049565257670886376,0.357556500427626,-2.378474022184204
9.99,-1.101218796902045,-2.307868619026685,-1.6090555499037895
10.0,-1.0811623654717202,-2.6855035105101424,0.2701178206072965
10.01,0.05152262423996986,0.08391204284686064,1.6199491910587338
10.02,1.0660139747476354,2.39644637743069,1.8291422436290155
10.03,0.9453252442466754,1.9011606338306986,0.8937829743683693
10.04,-0.11498318071797149,-0.20213254184771373,-0.13832752032327003
10.05,-0.9234575183774658,-2.5783023288422227,-0.5408305882089167
10.06,-0.8042342123176348,-2.6150220815016514,-0.3160602999278833
10.07,0.13516771062536953,0.6991472523388883,-0.03864774830283385
10.08,1.0815052391809237,2.375851212015589,-0.2274194686252955
10.09,0.9848782682083916,1.5323630613666988,-0.8350734314749857
10.1,0.11141005732919132,-0.7738797059397923,-1.067730600104473
10.11,-0.4890919065203586,-2.2298564578777085,-0.3485836855746194
10.12,-0.28554435527393573,-1.6790079397605768,1.0015226303771803
10.13,0.47329183389551527,-0.13869075018610258,1.801249633071895
10.14,1.1107069581063078,1.9258922565073406,1.117332315970266
10.15,1.0139606099681084,1.9023255206177048,-0.16531175007641033
10.16,0.14301152430731137,0.09559017407966885,-0.7921806529366501
10.17,-0.5390450382444442,-1.7663542986435452,-0.5512483009696312
10.18,-0.2536702088298848,-1.7957597747224412,-0.17343981381595716
10.19,0.7334396013579118,0.5578720416122174,-0.07475312759819966
10.2,1.4989702742437654,1.7743642782192608,-0.2484128494876412
10.21,1.2314756363245867,1.3748875683234816,-0.3689327145039439
10.22,0.30128331262253366,-0.41140072018806173,-0.10462872040894625
10.23,-0.32615651490524405,-1.7413123856110693,0.19494174717788812
10.24,-0.07451259872291428,-0.49499642073652705,0.2602549126146781
10.25,0.6919061189412703,0.6560151513521149,0.4357824124039039
10.26,1.0618964050353643,1.0980235014272457,0.42995990017502717
10.27,0.8100391692560276,0.46733127701328775,0.06774283254725454
10.28,0.3584873550271915,-0.755349273660512,-0.21988873110964674
10.29,0.1514360796925616,-0.8463847856002469,-0.34861861377929604
10.3,0.27092586686283265,-0.1500435846611874,-0.16835356268281296
10.31,0.45394037130592507,0.8906187217612679,0.0707996155309789
10.32,0.4665090842600661,0.7670573949227872,0.07422166136802812
10.33,0.2487912879225385,0.07873073875133557,-0.06908408534045216
10.34,0.011484515658614164,-0.29996772968145935,-0.03541919531953139
10.35,-0.044080009728411015,-0.28998343945264954,0.23616903765579203
10.36,0.056242511349523905,0.654627917300252,0.09891674488654494
10.37,0.11968013030410875,0.8106784814651357,-0.18458398474780865
10.38,0.007214049051977595,0.23829592156296944,-0.13250975948039073
10.39,-0.10419696775830864,-0.4765942272875585,-0.0002654597848273629
10.4,-0.12593194031209065,-0.029231290113225852,0.05735272110715677
10.41,-0.059426171409074836,0.44719282599914084,0.016126960605836186
10.42,-0.07086393876105318,0.5322947130639539,-0.026420859351837595
10.43,-0.2248579431554067,0.33369073056919923,0.05345013937461301
10.44,-0.40622395915520115,-0.2693026065724462,0.23574661200950098
10.45,-0.5124713776303006,-0.2836054057778488,0.4054326946094937
10.46,-0.3482600946873525,0.012279989168107368,0.24182692266625433
10.47,-0.11750316990804717,0.39929628259266065,0.005688181410345387
10.48,-0.07526638216872705,0.7597183419135974,-0.33527322657835723
10.49,-0.2432922117298342,0.12876780205751892,-0.45917520696987135
10.5,-0.46378323834413077,-0.7408453201698878,-0.23792416039456638
10.51,-0.45234252062726676,-0.8078953614444538,0.0804459435115025
10.52,-0.1730796674930529,0.29410317889149357,0.2134796739866976
10.53,-0.02242640601333516,0.9533111439417287,0.1333880699818878
10.54,-0.2897270103235763,0.6533769161434684,-0.058430041155476536
10.55,-0.670337139137142,-0.38284662031321115,-0.09577235601252532
10.56,-0.6869277216103741,-1.0950445772366648,0.022965432178057004
10.57,-0.26000853420771775,-0.27243069337093195,0.09527973954476712
10.58,0.3075092173607649,1.2052825349758125,-0.23610136445115018
10.59,0.37092430297032086,1.5229294635268678,-0.6850267140102075
10.6,-0.2613665419262637,0.20204853909068138,-0.6536033972880435
10.61,-0.896594816650244,-1.7412495859308736,0.09119768987619922
10.62,-0.873820357488083,-2.2332919559771773,0.98719075187212
10.63,-0.19351487866770986,-0.7822113273854131,1.390343700139382
10.64,0.621339130788287,2.1036417183757434,0.858003604271248
10.65,0.8534591953637835,3.07191351962968,-0.467560224423461
10.66,0.06158796157960412,-0.5526892768700501,-1.9496445525079804
10.67,-1.06913508344828,-2.078048226551043,-1.388780949439115
10.68,-0.9971475083254161,-2.155126697416342,-0.06682614687752501
10.69,0.10715267590206638,0.15194558574764366,0.9790396035691137
10.7,1.0032527374840818,2.016604972837233,1.3543411491751773
10.71,0.9720149438828638,1.8110445643583633,0.7692139845925591
10.72,0.12610010175090208,-0.039743123331468545,0.05649308248670727
10.73,-0.6798262442351397,-1.6879030688534942,-0.6075242372914272
10.74,-0.6974451773653403,-1.075507906766672,-0.9089976667261577
10.75,-0.08497365782821922,0.25647546662313486,-0.5333436429500475
10.76,0.4027234157691929,0.9513024447980536,0.17469939955528302
10.77,0.4372118094974653,0.6245662056808424,0.6348764063535124
10.78,0.2094511746330677,-0.2728628263762035,0.5351908695653581
10.79,-0.14557873144338307,-0.8548000896564935,0.24832176920106622
10.8,-0.38548933600729945,-0.2594989448587607,-0.049554826776102893
10.81,-0.21968966227124634,0.22953077533137767,-0.3478769012951022
10.82,0.0448654455596403,0.8037309729458227,-0.4958197814966822
10.83,0.15379024581310125,0.47326873813236725,-0.52938797199623
10.84,0.01942492044847461,-0.7409578052125533,-0.07988415025462561
10.85,-0.17560460753258036,-1.7735970844878042,0.8364304036772315
10.86,-0.1514308507589721,-1.0227451717242786,1.2572699799968379
10.87,0.21117402888991882,1.6139833077986612,0.5769495371863845
10.88,0.273379613729246,2.1087359301197983,-0.49648268739812246
10.89,-0.28768366162641495,0.9242577334872952,-1.2393706671010973
10.9,-0.7806029220507194,-1.426070988126997,-1.075275901192768
10.91,-0.675619821264375,-2.4659315884239588,-0.2119770115622535
10.92,0.020708443509857573,-1.3230263279026457,0.7642665696305065
10.93,0.7382324695333893,1.2255031133964638,1.2680275238844514
10.94,0.8762321827462954,2.6176743402665923,0.811561893555503
10.95,0.11686144012602144,1.8333638651876059,-0.43172795259338653
10.96,-0.9619864509381922,-1.3192989982850278,-1.4271607632684424
10.97,-1.271956774921614,-1.7558610184896488,-1.501443700996108
10.98,-0.3702324129192623,-0.9518547776675459,-0.48822671192092976
10.99,0.7983658992483752,0.40498657914237635,0.8760984761356324
11.0,1.115087133722731,0.875960256211345,1.5955679659898416
11.01,0.49525432452160445,0.529939630183474,1.3673234675866646
11.02,-0.39296570597350317,-0.01370682229904204,0.3265800735025907
11.03,-0.8240416143221277,-0.7602542712491079,-0.6872865937379121
11.04,-0.6320052734140534,-0.027344440091765676,-1.2873393902758572
11.05,-0.04114790576367498,0.2388196613274768,-0.9557306487634483
11.06,0.5375461807140087,0.535419736808996,-0.45872998989516633
11.07,0.7375011172644481,0.751455116651083,-0.1158788053946048
11.08,0.49303982091085585,0.2826876583402634,0.20611584751912868
11.09,-0.07396851951176481,-0.5384794152198945,0.4910504001769701
11.1,-0.5390664097787718,-1.4260428746774934,0.9635669742176455
11.11,-0.40767788638813424,-0.786237290589766,0.9880770593968943
11.12,0.2111250624259867,1.0362242583750605,0.3941292138994494
11.13,0.5970584945968207,1.6368843952327685,-0.48029247222100513
11.14,0.3281568532207363,0.6773146358111415,-0.9107819022440331
11.15,-0.14083606977000573,-1.39681337549556,-0.23894929937473966
11.16,-0.23996183463916418,-1.7142146933087845,0.18780916467696235
11.17,0.12485267359766676,0.44222298879694094,0.2949499676718476
11.18,0.5491017186266995,0.7337729176230438,0.42594698276126436
11.19,0.36665511195699146,0.7547355099444045,0.3298813303433587
11.2,-0.060655872577579865,-0.18181339672013078,0.12039713732948108
11.21,-0.27737380091137764,-0.8759814910350665,-0.08340508376744259
11.22,-0.18654192438573358,-0.35271524084950207,-0.06987732022631434
11.23,0.1451400247641555,0.1757704956709244,0.04091165102076097
11.24,0.35951694965728015,0.5713950145266798,0.06599464011035239
11.25,0.3424224074376874,0.845267592259951,-0.29594470366605113
11.26,0.1239911187268703,1.1684470197896832,-0.8879760735063029
11.27,-0.2709774170651734,-0.014211691414914691,-0.6622173612002633
11.28,-0.4640916216849209,-0.6354627869831704,-0.10509029789346791
11.29,-0.24982072949386397,-0.7865889576510949,0.4776564585624187
11.3,0.1499668225928798,-0.7477615680673657,0.8294391742004267
11.31,0.36511379865389,-0.14997650646775093,0.8962976390067233
11.32,0.29789513717520244,0.050350858619722536,1.0273514286598968
11.33,0.004489244540970208,0.4109499637607285,0.5925848349058572
11.34,-0.17192332718644418,1.4183359487729825,-0.7790893222982053
11.35,-0.17938116352745614,0.7549512727351286,-2.0996622190391276
11.36,-0.36770539030678323,0.16443286137280103,-2.397284937791892
11.37,-0.3513190352668104,-0.6301734321970475,-1.198629887451661
11.38,0.06968923428342716,-1.137275373704502,0.5207279601838973
11.39,0.5283154114048442,-0.026614578157608437,1.5290634538935854
11.4,0.695894898790798,0.15088261634238984,1.814838744248236
11.41,0.3258276062591221,-0.03757642629205173,1.3691719374791373
11.42,-0.19218099320456858,-0.6226584898979206,0.4167131368055557
11.43,-0.45671788456468776,-0.8544004641538903,-0.29413520218653794
11.44,-0.31518584469414773,-0.31011856492917184,-0.6439080634157008
11.45,0.13714023410220028,0.570000917377202,-0.8537078662721539
11.46,0.452781900612942,1.6030826158598386,-0.9061745929069444
11.47,0.4114208584646079,1.1668946921055716,-0.7885810264892398
11.48,-0.025314077003336512,-0.08208800588743628,-0.4075183848296249
11.49,-0.42511815398680103,-0.8202540944996477,0.14094004323493806
11.5,-0.351541916337953,-0.7838507056946507,0.6408698020854052
11.51,0.02466589762053746,0.2233538939000627,0.6465588196621167
11.52,0.271208430710025,0.34345693345981043,0.47359393534850885
11.53,0.07421259625677314,-0.2459209213533356,0.6522011889039824
11.54,-0.2025649456766622,-0.8285935175952411,0.7421576852655151
11.55,-0.19406468505495256,-0.47603094479954305,0.29743691133519645
11.56,-0.00902116877842582,0.6622649157002877,-0.373329969080242
11.57,0.037615887222288105,0.4725753797628216,-0.7228147256308562
11.58,-0.25100158600070765,0.305529466236862,-0.5914788764347825
11.59,-0.40725606432295475,-0.4550654152361945,-0.17519143728371017
11.6,-0.3177818285237008,-0.5810226848401226,0.2770030204953838
11.61,-0.1007771849248595,-0.08924778091039337,0.5042314050023664
11.62,0.06711764303801276,0.5556739802161799,0.33542258207193937
11.63,0.041902113899012196,0.949654452455204,-0.18341988262280054
11.64,-0.15788240479234172,0.6369891270627345,-0.7676771402785701
11.65,-0.4078126343278943,-0.33276272700801746,-0.7633530414118966
11.66,-0.40277521487066636,-1.410394176995681,-0.06666468014876871
11.67,-0.10549629909139432,-1.4530545209975765,0.7934628054044734
11.68,0.2676882067692999,-0.6156755316327952,1.2393082869340206
11.69,0.42216018730964117,0.6842672696199963,0.928526660461206
11.7,0.16593007152465897,1.652785309710295,0.014131671294801373
11.71,-0.361096449025315,0.964079751838662,-0.9419634904999692
11.72,-0.8471577673270473,-0.41455423911251454,-1.2748155152904082
11.73,-0.8127510918237038,-1.0209624204672643,-1.051550083243861
11.74,-0.17045947920619114,-0.44377791863009003,-0.5176593666869239
11.75,0.5774735349385568,0.5954539651874922,0.1878372860727534
11.76,0.7245701286670833,0.5944959972597555,0.7740028731235769
11.77,0.09707775109264037,-0.22521075642864702,0.9433711000563201
11.78,-0.6442414446961136,-0.9606549664116302,0.6711941469892961
11.79,-0.8213609673941786,-0.9780857828592552,0.2943880438596505
11.8,-0.3450531292921802,-0.07176651646376184,-0.16348076024725747
11.81,0.26618997961918417,1.1053323593408095,-0.6406168347366847
11.82,0.4029607873874087,1.1045438887020829,-0.6965017161757943
11.83,0.14479254125970972,0.22964690206450186,-0.6836971624624748
11.84,-0.12860718853799924,-0.39537005153373717,-0.4326993074142046
11.85,-0.13389350553823334,-0.5116257309401748,-0.01071104311383381
11.86,-0.05285665322683892,-0.6909150161851756,0.618597378102475
11.87,0.008940018210433685,-0.0554583051401945,0.9429622987160888
11.88,0.1974377131271082,0.7704443158411248,0.466393497937125
11.89,0.24937904888644885,0.6515789650299686,-0.22401604007441117
11.9,-0.036863818001681564,-0.13914955072790855,-0.5255447806319232
11.91,-0.2633811530585956,-0.7058422234986165,-0.2302234323443852
11.92,0.008728292407248043,-0.10041865059179302,-0.07162383850663712
11.93,0.5436810854531555,0.8769340556008907,-0.2567127699880163
11.94,0.7077024579136089,0.5167195382624302,-0.32794871699809247
11.95,0.2442239027673431,-0.3757714134694215,0.025014225380977556
11.96,-0.3233793803528107,-1.2835550543956222,0.6648170988899371
11.97,-0.39946475182803165,-0.5961262624272654,0.9606497437511133
11.98,0.07397030231491902,0.8722782214500815,0.623257308426531
11.99,0.47429300350595954,1.4338734011241216,-0.14595097032535295
12.0,0.3565470176160432,0.7917883231829326,-0.8528439513866641
12.01,0.05898981179392933,-0.5919606227441042,-1.0418966316653016
12.02,0.020400808188939905,-1.0184230892851134,-0.7678837569550434
12.03,0.19889656482116624,-0.5723794408870743,0.0784779667810208
12.04,0.35886095911965227,-0.11265166027764552,1.0460463676506717
12.05,0.33156163927753046,0.4811945163876869,1.2990384451958896
12.06,0.1486513677638854,0.6921248201938224,0.6536272377529996
12.07,-0.09440430915151769,0.3976242767178225,-0.32167200742875013
12.08,-0.28905342874930096,-0.4073665576553079,-0.6346365620873644
12.09,-0.23993603094728994,-0.6274324226536244,-0.3280498268247724
12.1,0.07227613201639199,0.19195851519289683,-0.04558871379706139
12.11,0.42393267851015576,1.18173452365909,-0.18061001065433016
12.12,0.445113947286027,1.0516738950919167,-0.4214931206111749
12.13,0.0020371219812947896,-0.06308111426158473,-0.2600683551390415
12.14,-0.5076395432530781,-1.122203944914851,0.30158811955365633
12.15,-0.5774347994474719,-0.9599518000046712,0.7765053876407196
12.16,-0.1185340663418042,0.1571371553971284,0.780925272107528
12.17,0.3823249161148048,0.8055060902275991,0.41736536037262256
12.18,0.39590995716073935,0.6829693017848673,-0.11974601597662542
12.19,-0.0032163884074408087,-0.14040769344269077,-0.47477468269955647
12.2,-0.3731358687551992,-0.9250232099387229,-0.4703392616955791
12.21,-0.40169527992086285,-0.005756881488966831,-0.336844377232815
12.22,-0.07093932878368724,0.9243581510145362,-0.2187123474871332
12.23,0.14574844289940525,0.8078289621420954,-0.1702539426932734
12.24,-0.015069546045323514,-0.0286100669958324,-0.09407020580207964
12.25,-0.2615259505497018,-1.0821079435534164,0.14084291121286316
12.26,-0.27891949714803027,-0.6187302367430723,0.3676303838923226
12.27,0.008898856913071606,0.33866685704498084,0.30910017555819846
12.28,0.14412005655929297,0.7817988697280261,-0.017071767952915817
12.29,-0.16944269764600672,0.49353458532000843,-0.31992499525567136
12.3,-0.5238589731253952,-0.3950075335322742,-0.39809070032089594
12.31,-0.514644027408302,-0.85550388617716,-0.20568307558378113
12.32,-0.18593933089270873,-0.4992203481980895,0.11061084298066964
12.33,0.18874612066113072,0.4873245726879969,0.2275786062499469
12.34,0.26932959269922485,0.7947816999374732,0.12250587582766541
12.35,-0.08415772053135935,0.4375710410910075,-0.14009619317386524
12.36,-0.5453447158569849,-0.10597584466729823,-0.35518910536381404
12.37,-0.6951029165883132,-0.4565746105294302,-0.3336364792308663
12.38,-0.446331573890279,-0.25791236640920007,-0.12777796683820936
12.39,-0.03145494091169071,0.22019687626714654,0.15259328881846015
12.4,0.2364445727928485,0.6380313981518462,0.15763092263809594
12.41,0.07719697075561566,0.00986241201627217,0.1399318035360746
12.42,-0.36615962707073496,-1.0116702998128349,0.3074183006267901
12.43,-0.5822112868615353,-1.1537733314896002,0.3841150034498968
12.44,-0.3679839030667341,-0.3929876835431014,0.31175770459478774
12.45,-0.020185087768156203,0.5448117675398122,0.1335404295674226
12.46,0.06408388245332308,0.752944245896845,-0.027843185575150236
12.47,-0.11852068401478519,0.2468763234971606,-0.2512684945471874
12.48,-0.3461316106422917,0.04340076046318004,-0.5209754603821922
12.49,-0.29636198188835133,0.6868835910306456,-0.9277047813399806
12.5,-0.12332365001967842,0.6165814237130721,-1.0567300032341387
12.51,-0.19249569148407106,-0.07255745398701983,-0.45785525913707925
12.52,-0.28725746348689235,-1.302902084484615,0.5155553522669076
12.53,-0.22368809095026365,-1.7201898682841499,1.4163566427806265
12.54,0.027091486643667572,-0.7062221730065532,1.610337544103259
12.55,0.22860781605226346,0.5633094263326613,1.1820976503197307
12.56,0.1486003830006455,0.9304809849506437,0.18909221296183779
12.57,-0.2460202362558716,0.1924117056741,-0.7579432139732922
12.58,-0.6231902384052473,-0.7498147129252859,-1.149959539160277
12.59,-0.5678326205122667,-0.7974060615858867,-1.077907915010111
12.6,-0.01632593247274123,0.2522702492095424,-0.6667686341281277
12.61,0.5052165625670746,0.7019442272405577,-0.19998542484513368
12.62,0.3721458968460223,0.4949616406192251,0.2200680487057576
12.63,-0.1923489136007998,-0.45602774076286184,0.4744459596923615
12.64,-0.5740772974797747,-0.7812894050382386,0.4557595323278868
12.65,-0.43585516653057527,-0.20763952600542712,0.19876311642420214
12.66,-0.048393588157213285,0.4391790825622596,-0.14525720996038977
12.67,0.11356997191563774,0.36943817587276706,-0.1285146080864047
12.68,0.06795987103529551,-0.5077539173084684,0.11841578248342308
12.69,0.044809744058570335,-0.765770260045077,0.30730522765669327
12.7,0.16214858412583194,-0.23590562439743332,0.12234897871794516
12.71,0.19828019733483035,0.27528209437646295,-0.14547190377128913
12.72,-0.0050961646791076644,0.2473681720332826,-0.24383588231462908
12.73,-0.24696293114020076,-0.17437509556179193,-0.1554873455529515
12.74,-0.1978857689671244,-0.20167632244470407,-0.04625721500751464
12.75,0.1077528127971076,0.14461325815999304,0.004103594648002888
12.76,0.3752831023859376,0.3442442670364997,-0.08655967425399685
12.77,0.34913495596751626,-0.14339468164725638,-0.09255392281483564
12.78,0.18104266839820515,-0.38350674760248815,-0.12255443533644046
12.79,0.1441218497433736,0.020798186306308846,-0.23220831164727782
12.8,0.16405865516639875,0.10528364466795445,0.019528676443071588
12.81,0.16675199243567362,-0.0010117326800456194,0.20990419283873102
12.82,0.1432694987715618,-0.6476112804325967,0.44899199437858045
12.83,0.2278958523693325,-0.8775502290511911,0.4579732834598648
12.84,0.3244036000323406,-0.3324035171326238,0.5352014155131136
12.85,0.42673798102343147,0.4475699075096403,0.31299147755348267
12.86,0.4037796403315064,1.798415040531358,-0.3793684598348788
12.87,0.24385128834186345,0.8872054950011068,-1.0628410977709581
12.88,-0.05056368813092364,-0.2522149585259651,-1.5239452020877875
12.89,-0.18384925913980732,-1.4449812149810122,-0.6979240655250148
12.9,0.11101473781383395,-1.0316012252204614,0.49730464016684495
12.91,0.5936107084751818,0.24218348112666008,1.3066119279640576
12.92,0.7050516426307417,0.6359046909941969,1.4522116342839222
12.93,0.28963779621635677,0.4826604114494898,0.8383616938956944
12.94,-0.1850594328068528,-0.38192931103889394,0.04207618671010975
12.95,-0.39303359491700735,-0.6396701499565364,-0.7852538136634634
12.96,-0.26015584882983744,0.3425685316720903,-1.024385070190377
12.97,0.10829779697242989,0.4325245716806544,-0.6881929835877699
12.98,0.33246896538832277,0.6746158777242396,-0.4314066824263827
12.99,0.2955318100974369,0.565895734068682,-0.08028851154029082
13.0,0.12240316166253169,-0.16996156363550616,0.1748044454022154
13.01,-0.19508271183008632,-0.8811318900122477,0.507139713556578
13.02,-0.37603098870035867,-0.820129210501774,0.7960387951653476
13.03,-0.07553696695470856,0.18155886543690755,0.4455123801315891
13.04,0.25365713674025636,0.47592121741566684,-0.012116891282478833
13.05,0.13337137147210024,0.4844949544755183,-0.3298881845577046
13.06,-0.1026158734829252,-0.577218554739266,-0.10047122053631066
13.07,-0.17037090157904705,-1.127084060614661,0.21375885825148827
13.08,-0.026025694230618665,0.30837762163733645,-0.06677196047797554
13.09,0.2630761933512151,1.1074378426437084,-0.5041854820226146
13.1,0.16906981131111876,0.703673528136867,-0.584712050076568
13.11,-0.2947187185883138,-0.6918463671302036,-0.1058363400695167
13.12,-0.4301525640151415,-1.25799465786963,0.4533201426139505
13.13,0.06910736626142108,-0.04731255318316157,0.37022111122690765
13.14,0.5147032172018031,0.6078700831087671,0.22469592688566403
13.15,0.37833223307200425,0.4293681299420129,-0.004597199066680033
13.16,-0.09786307806351721,-0.5055433245980877,-0.07972078780399379
13.17,-0.41082828568844765,-0.15672187653994538,-0.2234771835000002
13.18,-0.24822872051377334,-0.15234534277319034,-0.19425667813152594
13.19,0.050121931908372296,0.48507403387234876,0.016631176448670557
13.2,0.23903650947444904,0.30102800217410375,0.039461270329366666
13.21,0.1724545366164073,-0.30336957795054026,0.0037077108013310474
13.22,0.020797865657313015,-0.4386966127024136,-0.14085800092441148
13.23,-0.08877394765998858,-0.3224060720713315,-0.03575009623237813
13.24,-0.11902825019512536,0.4277540838336007,0.126536317840613
13.25,-0.06035998464361462,0.9383777605884172,-0.10862541513957491
13.26,-0.054673414100250034,0.9341485069878601,-0.6633289764279888
13.27,-0.11529009960197863,-0.014588135377574451,-0.9202660007985575
13.28,-0.1909647501334014,-1.0438169340028491,-0.2906238528688969
13.29,-0.041192604615633455,-1.6625387859847323,0.7536465646782838
13.3,0.2341811341898058,-0.7108945784597778,1.3351364792924505
13.31,0.4390419841957557,1.0467217661671322,0.9710060006481446
13.32,0.34152757268665107,1.368785260756108,-0.028426795291702996
13.33,-0.1806442823488978,0.09011385347417572,-0.8117160814602195
13.34,-0.6317897375504384,-1.3522082886462434,-0.7473208178197716
13.35,-0.5303680665385951,-1.4950495965551858,-0.21549249308299306
13.36,0.13279369113486936,-0.15497029838362975,0.29993265359711124
13.37,0.8387179094894508,1.8447188110630357,0.2698179687894411
13.38,0.8738403642445188,1.1832899205310816,-0.017923869592939283
13.39,0.06985961228339725,-0.5415797000991943,-0.11656144509681052
13.4,-0.7153059437049534,-1.7330758753584883,0.18281422637011668
13.41,-0.6048679371267519,-1.1658929834479275,0.24152240145355403
13.42,0.21628920497490753,1.2717785471229952,-0.004479267914060141
13.43,0.7100445943467226,1.4413697632569982,-0.08362020323357482
13.44,0.34828468038139165,0.9710283013780493,-0.2062064896482731
13.45,-0.23697726699923422,-1.1669459035978407,-0.009877342904107729
13.46,-0.456870947997624,-1.9537715348271587,0.23434614435532547
13.47,-0.19981599888980855,-0.8447727140357898,0.5719651103031221
13.48,0.3290774002899381,1.363250172627782,0.4143343548342977
13.49,0.458642384777467,2.1988601274430386,-0.06000619266244623
13.5,-0.0684906073110221,1.1505846976328316,-0.5885017039098962
13.51,-0.704938067227374,-1.1023205665011107,-0.6109670040097184
13.52,-0.8306122543855702,-2.1606678295488404,0.02288687534873818
13.53,-0.24140209336590013,-1.1202027513121644,0.5625320572665843
13.54,0.6075629855969039,1.7204368528412275,0.5156107033904399
13.55,1.0120473648516812,2.8244182359843517,-0.3867564460086873
13.56,0.2249688946095468,-0.09812951165604576,-1.0209634538385866
13.57,-0.9497272277098164,-2.3858639748385957,-0.20500753353717502
13.58,-1.0300001305391737,-2.6331241894257578,0.8058932019688514
13.59,0.016567849115907377,0.12374791895502311,0.9306607132832269
13.6,1.0345215616400285,2.350071813514303,0.6623920880364467
13.61,0.9962937780715516,1.6489930320267971,0.016362191553033912
13.62,-0.018004227312527845,0.20357814064425897,-0.6541581025777344
13.63,-0.8111143484954603,-1.1802574666711196,-0.9876603980652384
13.64,-0.5961252873474994,-0.7197948635189855,-1.242857429499275
13.65,0.22022024915219526,0.37130724754826233,-0.7292399557308092
13.66,0.781897416990415,1.004644150312879,0.12120259182271857
13.67,0.6076556285816713,0.09176951426541084,0.8744324240001087
13.68,0.009520911401201619,-1.4023802843917779,1.3819836256768556
13.69,-0.33276449375429407,-1.3892209158908593,1.315703837072747
13.7,-0.13264432012001184,0.2879844442686309,0.6346172564446915
13.71,0.2533160385680403,1.5195401534198787,-0.39614962416601823
13.72,0.26250371685933704,1.2939197129037607,-1.3463869171592437
13.73,-0.014561135059335617,0.14363628129088737,-1.6222949565474272
13.74,-0.109254191842154,-0.9719187362561192,-1.156939695150857
13.75,0.08957510545978133,-0.4317946585309249,-0.140915681446047
13.76,0.44679134866054127,0.4388639773571099,0.8031906848306916
13.77,0.5327636469879705,0.774122128796543,1.0147961484545394
13.78,0.11010934820303948,0.18078304758186922,0.8665328052219337
13.79,-0.3467600335378472,-0.9745557808158836,0.5524511128665307
13.8,-0.4059731764143398,-0.9371215333398245,0.12035490557762957
13.81,-0.06142483856763017,0.1072430912510127,-0.24375999787115848
13.82,0.30947607966003854,0.8310058104853595,-0.31214137209484255
13.83,0.31913717154123705,0.6488780979793033,-0.17908834523470615
13.84,0.08434614837971452,0.2226453328968211,-0.2679136445806999
13.85,-0.08237604475879909,0.25354043989073755,-0.6470328782623813
13.86,-0.18825205820542504,0.15424401887675626,-0.6175049887249643
13.87,-0.2894402300288181,-0.28625712090489314,-0.12507093184207058
13.88,-0.29118561331593773,-0.06830437166322442,0.5339701988018353
13.89,0.0004017354460810215,-0.05309316707123242,0.7612581945223638
13.9,0.2009613409428316,-0.04023342712166755,0.5621063662554802
13.91,0.04850769027183701,-0.5459528091731202,0.38524470799738186
13.92,-0.19309138209520307,-0.7343651217014334,0.22084024145077338
13.93,-0.22383191702948976,-0.43090784700620294,0.10325106138624703
13.94,-0.10033243197668602,0.404379832475087,-0.09747476402011278
13.95,-0.029249828018491332,1.1642798308794824,-0.3503824777752649
13.96,-0.08150981660932809,0.6473188451781368,-0.742080426175232
13.97,-0.27384590388074515,-0.25758342052177224,-0.8478855897613171
13.98,-0.32986933646721056,-1.2779613500691336,-0.38227749438193703
13.99,-0.19546735818207162,-0.8837622846133679,0.4294787211636588
14.0,0.046340055088403255,0.3823188402874389,0.9994901775354973
14.01,0.15875317809371361,1.0290154367235778,0.8713839211162852
14.02,-0.04785452361714576,0.867293742709761,-0.03826992183010042
14.03,-0.38687450649759086,-0.3918280225338561,-0.9453373831804968
14.04,-0.5749460031585882,-1.2084720610727717,-0.8512020741686019
14.05,-0.3133528988597294,-1.5200204563695556,0.05228640886001844
14.06,0.2073038204478046,-0.599245031844475,0.9561921733224505
14.07,0.6114647772549678,0.8742641920502157,1.0103675091772146
14.08,0.4757339896249715,0.9924656075807896,0.5122210810650867
14.09,-0.16001794239373365,0.017508873458567914,-0.08659141031348662
14.1,-0.667313354208502,-1.0252644177178585,-0.5646340738875891
14.11,-0.5694400913106259,-0.33852894952427787,-0.9702507479005029
14.12,0.06434665418012582,1.2271944038045213,-1.2149103200620506
14.13,0.5912756825896743,0.8686265239972777,-0.881664580787194
14.14,0.5120041899875832,-0.43512470232042355,-0.04012509000156858
14.15,0.11540083584284228,-2.006799834751607,1.034972604161761
14.16,-0.08448478971830313,-1.5505815015422313,1.6178937079934252
14.17,0.2084699866503122,0.6159956547519866,1.154591941318315
14.18,0.5596639728464812,1.7234869196125373,0.04659584939393788
14.19,0.2771486089918444,1.08971564542124,-0.8126499863495261
14.2,-0.28022033745048214,-0.7317432816283852,-0.7141851016600672
14.21,-0.2789921886867962,-2.243161561335623,-0.10094458612811452
14.22,0.3773187618981823,-1.0956395436698902,0.1525289285357925
14.23,1.1773625937157486,1.2196703504303148,0.156011158470944
14.24,1.3960690053510152,1.350641764652249,-0.027872965849240854
14.25,0.6129177389210195,0.548837443538173,-0.33388346598240154
14.26,-0.3350663089398582,-0.9277080050319992,-0.33604969069605184
14.27,-0.57216080343485,-1.734473535460754,-0.004514830407834382
14.28,-0.07972834936075998,-0.3805517681326454,0.4415930359838914
14.29,0.7895587758736885,1.2945635672107427,0.46132484668242985
14.3,1.2211328809671782,1.793656123749352,-0.006948670867110213
14.31,0.8223912328844717,0.1746894920512019,-0.335189995046467
14.32,0.03357245413081101,-1.8984934306088106,0.05183504147084509
14.33,-0.4029888475884775,-2.3862005466045666,0.7950609712133755
14.34,-0.06795476792195729,0.06847884578111872,0.6803755959413381
14.35,0.6749587609104635,2.7777545932322254,-0.15602438385879464
14.36,0.8596945374485695,2.449913454659616,-1.1208170358398337
14.37,0.11153846031944478,-0.01427817360976482,-1.4488047476678145
14.38,-0.682988367642687,-2.1726142843187484,-0.5195950985804524
14.39,-0.49260052564293366,-1.4853265127664408,0.3924480344608056
14.4,0.591406562504191,1.5165537454689693,0.3508425706482078
14.41,1.2782761932050668,2.5967294338033318,-0.10805725433876096
14.42,0.6128677957646738,0.513958223505192,-0.09101601265248216
14.43,-0.554332625995096,-1.9393075403859261,0.8100218780061001
14.44,-0.818648910486519,-2.9371016801210406,1.6189729563273383
14.45,-0.05566494167002834,-0.3665490541152848,1.338218656743355
14.46,0.9074399586004922,3.057561601782734,0.25379542672796523
14.47,1.080244325073559,2.524663494361262,-1.6548170184586664
14.48,0.0885291222216995,-0.37536927309877466,-2.756466327191625
14.49,-0.8392422887403448,-2.548986286684344,-1.6316243530474168
14.5,-0.5542412944089667,-1.893381272357097,0.2251261500371973
14.51,0.4756750537766722,1.0838034327117825,1.4775172691257705
14.52,1.122917445551665,2.8657696674754733,1.4907903839072123
14.53,0.7712836648699888,1.5292660683959103,0.6594007313507015
14.54,-0.15363296720513486,-1.3327090056445996,0.2759804542181668
14.55,-0.6342344113996696,-2.8604002342706885,0.24566156966386954
14.56,-0.20461271332136785,-0.5703055179419426,0.12438066831387588
14.57,0.6087893079981499,1.6959588554692453,-0.09049907968149251
14.58,0.7823624457145781,2.70735672649695,-0.6143954210869161
14.59,0.3044315767584481,1.1070490425405999,-1.0361787031850738
14.6,-0.22677942410941435,-1.0434031768381946,-0.9128931939356343
14.61,-0.3488992062863496,-1.6286679001632074,0.03654909839939019
14.62,0.09585880873311547,-1.0046576017855575,1.065216910898883
14.63,0.5539170992197058,0.8808145320024104,1.3385823306800653
14.64,0.5022153251569961,1.838327901046173,1.0274965664654487
14.65,0.035167326669338125,1.2190678893132596,0.3005933885808326
14.66,-0.420912671747963,0.24076621913153484,-0.6226326900992201
14.67,-0.5873778063924819,-0.799389175566538,-1.0019762261738496
14.68,-0.4550218580340815,-0.709382099048447,-0.6295208611699161
14.69,0.003648157492986056,0.3729131978472298,-0.17104664880545267
14.7,0.4125785177297035,1.3083860874804847,0.2017556522054478
14.71,0.3612037994075695,0.8017354755365791,0.5504849055445401
14.72,-0.04895434885174321,-0.347185193710251,0.5402056389539147
14.73,-0.45131979371249165,-0.6894974780534077,0.13878522211951258
14.74,-0.6561128746733595,-0.3026823548795991,-0.0816141217508528
14.75,-0.5556918137647224,0.45886635049639096,-0.009428998283716832
14.76,-0.19558717898422215,1.1395542654121846,-0.08175824407914363
14.77,0.006306997014690272,0.8348909118917188,-0.27770163835173645
14.78,-0.14972408312635258,-0.2934220897168202,-0.3557334021640127
14.79,-0.35305225045523697,-1.4761462933584542,0.15957211039287558
14.8,-0.32649095104824005,-1.9778603622059192,1.141428387511238
14.81,-0.10882282904702337,-0.5793990873664044,1.416574045600599
14.82,0.2367057927093052,3.2717443556731545,0.008561138486729
14.83,0.0258365149440952,2.2485770327088526,-2.063148178647577
14.84,-1.061111036209175,-0.607384712246173,-2.8259131536545175
14.85,-1.5997895974375451,-1.9307644397153911,-1.4663543237387533
14.86,-0.694665919844543,-0.8112542974288861,0.35929285493482016
14.87,0.4245066076080886,0.39886713967931786,1.9845700014424799
14.88,0.6129320283026285,1.109492426522153,2.42899670518097
14.89,0.22376292292891753,0.9246337433712013,1.2517060153180435
14.9,-0.32526183621071164,0.2124879158243826,-0.6495612177652413
14.91,-0.9455656549439099,-1.2632720987208907,-1.507753092039523
14.92,-1.3273976015441804,-1.837742358826221,-0.577620103335572
14.93,-0.964126500114897,-1.18017828919996,0.7916764069657862
14.94,0.014830115807675555,1.5154719778629506,0.5812776253137371
14.95,0.8153614774273409,3.5936911538790346,-0.4782813860197644
14.96,0.6417987062483633,-1.02993336125184,-1.6004758290222343
14.97,-0.44577522303263506,-2.1892006760240066,-0.9919393172431065
14.98,-0.7833845779834754,-1.1840376401206962,-0.006714797648350876
14.99,-0.2868834382092073,0.5827839574215319,0.5116469499756127
15.0,-0.08395567618247629,1.580615546534718,0.9040935018340033
15.01,-0.08633727340446588,0.8599531526452516,1.1032715498048797
15.02,0.08585332771908676,-1.501723219421531,1.3369088250443952
15.03,0.2704782674652793,-2.0229324083691225,1.029084344889166
15.04,0.6409846470446717,0.32711980030966875,-0.19649402666093985
15.05,0.5819117709495111,1.1826284252070558,-1.113624858450732
15.06,-0.3025763702934443,1.4906245851157314,-1.550753746219096
15.07,-0.9370778161652862,-0.27523008088581213,-1.3479490366756235
15.08,-0.6796739185782252,-1.5192208808791134,-0.9729888233947339
15.09,0.09887894325492318,-0.3756871008078096,0.10195424948771557
15.1,0.9398541911994687,-0.7165143319112532,1.6569655987028016
15.11,1.2058699478267036,0.4493946405774766,1.9088916560090103
15.12,0.7479702272084763,0.4550376069370315,0.9459484252719123
15.13,-0.3721412934313685,-0.01529992036977873,0.01314482436341073
15.14,-1.1369623076771296,-0.5654426562226297,-0.4402919510414009
15.15,-0.8156321170296641,-1.19686820403495,-0.4249218424465365
15.16,0.14138763931035409,1.2241653877121828,-0.7045658642093979
15.17,0.8436580126930672,1.3940439959039461,-0.9096768811734097
15.18,0.6645043649778348,0.5629449901902761,-0.938397290265124
15.19,0.061386923050311064,-0.8653611688394864,-0.4329208118329888
15.2,-0.3046818000297014,-1.837500261693136,0.28373418978052944
15.21,-0.3378462355897448,-0.5451948232354933,0.7106219819095604
15.22,-0.10477974328154038,0.29338626840124477,1.1478725764736637
15.23,0.23976124749813366,0.9163858424310446,0.8852996572373207
15.24,0.34443488866178873,0.2777600374342091,0.19303454356752198
15.25,0.04126190949007248,-0.47515454454207545,-0.3051146512965871
15.26,-0.19100951805036331,-0.72016747938155,-0.774640461776805
15.27,-0.048999491920525155,-0.385779468831993,-0.9545482939185557
15.28,0.2908015613686257,1.0900792999321933,-0.8473048243808462
15.29,0.5211065944751069,0.696166536566339,-0.4871510719072757
15.3,0.26257381351717085,0.4620754973260696,0.07803386895830319
15.31,0.011416607599740536,-0.654982458343461,0.4388938493110065
15.32,-0.023332438405915465,-0.7951102313608014,0.5602210124661073
15.33,0.1240636760937886,-0.6944199041312724,0.6312447326754437
15.34,0.26376036393870206,-0.12371241941540402,0.890515104477448
15.35,0.5335067420157971,0.3442334894198407,0.7907572410707178
15.36,0.8539520480382672,0.9960847416310581,-0.24774672469872275
15.37,0.6227185749320482,0.6255659162136515,-1.2315590151379028
15.38,0.044477750751794866,0.2517569620384734,-1.716660971988849
15.39,-0.22548886243024133,-0.8310047641763973,-0.9134659156660171
15.4,0.03584265660372963,-1.3378542876603456,0.4301073467323375
15.41,0.45781036796185665,-0.029821169278578707,1.6442480343708648
15.42,0.8766405204189136,0.8513246317009311,1.8016120723681202
15.43,0.8834926389890114,1.3333583857608102,0.7408616196904619
15.44,0.28762765026162,0.371849241585767,-0.3719670357878506
15.45,-0.28403158504893566,-1.0005007385618254,-1.1701326266239285
15.46,-0.338189882633342,-0.10149395310939428,-1.4661481842477844
15.47,0.141644282610803,0.3142547470097376,-0.9035425529868034
15.48,0.5455875891794199,0.5480542783565893,0.08984802838391545
15.49,0.5167265616712635,0.3830898312075027,0.9685966296800045
15.5,0.3370683273475671,-0.513704445506169,1.0549892233427085
15.51,0.016195166637883687,-0.2684091892848436,0.8440901334902732
15.52,-0.2032149423897325,0.3717378890112566,0.2511139161143645
15.53,-0.28309539968536385,1.0090971784519642,-0.43180124461031383
15.54,-0.3266475730788939,0.5815199858619783,-0.5720210256285436
15.55,-0.19824809261680146,-0.019101497213795476,-0.7651463429003892
15.56,0.06672691233528574,-0.5411553781204359,-0.33100451804600345
15.57,0.31777364355656734,-0.11354266341199803,0.3522357706675234
15.58,0.3621521428324779,-0.25909876070622634,0.8404196460521401
15.59,0.02077943422692068,0.33396070707216285,0.7725831716043241
15.6,-0.4114312803365336,0.5300357996773785,0.3334792512844059
15.61,-0.5701877964127466,0.18835727926084658,-0.2345283427995566
15.62,-0.40622049516368053,0.3485851742266903,-0.8505241263286004
15.63,-0.18487820682497372,-0.23574305086068106,-0.6839294258510801
15.64,-0.0474819541607672,-0.43152317239735755,-0.017832169364195734
15.65,0.11559569111194451,0.07003069768898697,0.4643683564816218
15.66,0.28164424873248606,0.346416414949733,0.5374636896576029
15.67,0.11976016813834192,0.46419246009398074,0.17133858162680496
15.68,-0.3582955313138084,0.0389951685851465,-0.14609100040959536
15.69,-0.6401134759823025,-0.6081503214381947,-0.17820436172134457
15.7,-0.5460796346612455,-0.13283815873475957,-0.07216229957390964
15.71,-0.1251178106502097,0.6126625964121561,-0.12843747121699348
15.72,0.18583846395107842,0.9679861497935909,-0.11864724274355422
15.73,0.1635617245341319,-0.12086209446461342,0.1044707404687736
15.74,-0.0520628849910258,-0.7014311525751863,0.028184667226626593
15.75,-0.23906240748284352,-0.3563498558996854,-0.14496690924657024
15.76,-0.36458407480829425,0.24584025451257946,-0.08849687059348627
15.77,-0.31529385119692466,0.7457873306135709,-0.10565748422527349
15.78,-0.1616787922142201,0.4534637203608519,-0.04366799656007398
15.79,-0.1051470511347012,0.03395328098179137,-0.0858411837704891
15.8,-0.177396234827565,-0.409572466926149,0.01825721309310713
15.81,-0.1583452253442389,-0.3228172535511464,0.0483113526956073
15.82,-0.08449159228319969,-0.2108786090679191,0.14837504094854284
15.83,-0.10154929937503142,0.0442919642031753,0.16093698982357
15.84,-0.124916901781261,0.6893546995501317,-0.14242214991602398
15.85,-0.127769075978718,0.4886862238655474,-0.28768181581172253
15.86,-0.2021107782582317,-0.2864831497312972,-0.09113188705039049
15.87,-0.1406946712866747,-0.7558698532290259,0.08622556332868973
15.88,0.026926238738435873,-0.5634637385787636,0.2962445431312924
15.89,0.14293067308706883,-0.17637805010673127,0.45115372932656783
15.9,0.1393817785717231,0.27838526184664025,0.4130665967048847
15.91,0.02733256473546672,0.4557566046276693,0.14951850722609383
15.92,-0.17521780445456334,0.2675063471403463,-0.21935776808954646
15.93,-0.24262015826048855,0.47204777094658784,-0.8293800436607318
15.94,-0.0735280991578423,0.37625676884796494,-1.1379425692031158
15.95,0.017598778030793256,-0.20704833278036036,-0.48971647841334254
15.96,0.05409780079734593,-0.6406591970247686,0.403239637904917
15.97,0.10138425010327716,-0.7040660363015939,1.1001538929283092
15.98,0.13924829552211654,-0.615315305466747,1.3291544132916797
15.99,0.09803537754811283,-0.07815616297092584,1.063999023246267
16.0,0.040988376557200695,0.4005869704364333,0.33598123912643624
16.01,-0.1335668296331938,0.42336579675535424,-0.4954634792213457
16.02,-0.4022826453766237,0.46345497992519075,-1.0447143615651568
16.03,-0.34938610032050915,0.24072150011571794,-1.2766852187954973
16.04,-0.04069703768405343,0.21129101666288963,-0.9542607151316177
16.05,0.217801070739569,0.23907126203533788,-0.24887109290665746
16.06,0.29500208351719814,-0.2778024208173115,0.5715500727699017
16.07,0.1718966182865133,-0.7126407772010286,1.1207113752288969
16.08,-0.015032612668812432,-0.33809397592003226,1.0532469093620582
16.09,-0.09395276016906895,0.7229878091387832,0.3204753355130195
16.1,-0.1242006989936759,0.8158801160709177,-0.4560372569295108
16.11,-0.17162983588724054,0.19566840620809067,-0.7433898664997233
16.12,-0.01379247817176916,-0.5562857265766362,-0.6331981070800539
16.13,0.31301371668826045,-0.2801100666683824,-0.3677709552892636
16.14,0.6092309123131923,0.8742645804880363,-0.27191756867314676
16.15,0.6460792622086096,0.46427617152756523,-0.10651367417995818
16.16,0.1308755359651144,-0.14918635934627628,0.2911227679621714
16.17,-0.4064698410648242,-0.4581754779245382,0.5997229521717559
16.18,-0.36824417085070005,0.08715394327561243,0.5545720514162334
16.19,0.13235211204400082,0.7541205176734089,0.14090165382943748
16.2,0.41446720754054683,0.6511679899377961,-0.22120245671105096
16.21,0.2996035281418147,-0.061345791107612915,-0.3665779971312332
16.22,0.11090935540474962,-0.6937644791054894,-0.3326035839086976
16.23,0.00488279708995894,-0.4423825525497084,0.046755139685843404
16.24,0.012810048966991408,0.20238504523788728,0.49706416647535967
16.25,-0.029971206648689443,0.881709217656837,0.6030693104893214
16.26,-0.11394094918138857,0.7184746928873907,0.2233087828790744
16.27,-0.11681511400960623,0.11464074263752845,-0.39479968617331024
16.28,-0.08686047821749107,-0.383203645695144,-0.5340394485678015
16.29,-0.029457446834261436,-0.45444664102960813,-0.15385534693189387
16.3,0.06681088415910252,-0.3070079806205996,0.4664974355927642
16.31,0.22226054054981834,0.6408237651809083,0.3897994868050593
16.32,0.1972216942372002,1.606288616784189,-0.327035805593863
16.33,-0.22758410747240782,1.0717020200982008,-0.6886051940553635
16.34,-0.7281257854033153,-0.24759173864937933,-0.42824113634906497
16.35,-0.7468823072122839,-1.254921952869785,0.17789512673922211
16.36,-0.2600447383068125,-0.5634698423715845,0.630866348240592
16.37,0.31147224766265663,0.6244373197870323,0.7749061794790096
16.38,0.4373630795525419,0.9617513570235823,0.5763686019516348
16.39,-0.05539695131052031,0.3343184118575273,0.24497802817406658
16.4,-0.6843873691898477,-0.34633898898793175,-0.1953190055319081
16.41,-0.8971750654232064,-0.029408132662279356,-0.623003584661443
16.42,-0.6207914197013884,0.6143662280681276,-0.793372565140252
16.43,-0.2630977534112747,0.4535066242941847,-0.5574791765387398
16.44,-0.1371965671502907,0.17040971825050438,-0.12658291211308906
16.45,-0.2111895559781209,-0.35905131860052253,0.3355230887365083
16.46,-0.3689230606308893,-0.24343307310054174,0.5669893753974442
16.47,-0.4920086982868543,0.20089842972902058,0.4253745071885125
16.48,-0.6552921267392102,0.23901212103048305,0.2079210460386885
16.49,-0.8016730717187543,-0.04608416733915201,0.04022382889562482
16.5,-0.7155179030166168,-0.38205204061553755,-0.12018302439325904
16.51,-0.4292925249435012,-0.11453196214068842,-0.2873638029907754
16.52,-0.209464572007181,0.2391476981021561,-0.29653964996156024
16.53,-0.2688919053401008,0.20060672026753157,-0.10931755436610516
16.54,-0.4669402227235415,-0.2536564908055496,0.0447059170443634
16.55,-0.6179628720245306,-0.5364957702737556,0.21715397376501372
16.56,-0.5531545732685214,-0.268860867945695,0.19581955258714367
16.57,-0.3688216952858063,0.340980793474308,-0.017029591113839417
16.58,-0.31495935088922417,0.7998844409250729,-0.3134473664439869
16.59,-0.42017337762528306,0.3885279709575377,-0.6342722495591941
16.6,-0.5900908477214524,-0.2667631960734466,-0.6088171788397375
16.61,-0.5848673876160873,-0.3003299521537992,-0.23192320525693272
16.62,-0.34360510174253533,0.2921101466124528,0.15488226115709813
16.63,-0.17330342072504779,-0.025571859780929802,0.4629742258643127
16.64,-0.35978361181654583,-1.3433001998185727,0.9519538288785984
16.65,-0.5749536096846347,-1.973687219060111,1.4976798363486028
16.66,-0.4440153004317967,-1.5546203096596332,1.8632284900529374
16.67,-0.15531215672725288,-0.3060972454139153,1.8192984258063716
16.68,0.02648496275761557,1.0102313503562281,0.9858724340173876
16.69,0.007031874195351518,1.7443741354576292,-0.9088747384126877
16.7,-0.2598763282974209,1.668037730736817,-3.436353349071591
16.71,-0.6737546307189691,0.1103066488268412,-5.043317315904656
16.72,-0.8600287275242297,-0.7126984132466366,-4.059692938140583
16.73,-0.48154648243616655,-0.6312891660023099,-0.8370343153059047
16.74,0.09695118977083361,-1.0444407119980474,2.6347872161102877
16.75,0.26591470798270084,-1.1300406043864957,4.341888584218635
16.76,0.07731856564744341,-0.3194447016807737,3.8768100831957595
16.77,-0.17073815804812237,0.027296593979712062,2.3908654549720336
16.78,-0.46059542223213884,-0.39156042373909866,0.7114697741061935
16.79,-0.6213307921116011,-0.7605656111744404,-0.6979593113976877
16.8,-0.3090107490150617,-0.5540345069404116,-1.8311393908223528
16.81,0.27435147161221707,0.2577533883579317,-2.6297301298874354
16.82,0.5695924739176925,0.2422070972536298,-2.3924402012406865
16.83,0.3798688115647575,-0.24675097006865437,-1.1983332174765498
16.84,0.04974676541653267,0.4536585012247057,-0.15785072716965984
16.85,-0.06802342463990252,0.9730154550142464,0.13781262277383036
16.86,-0.25999488814408767,-0.21293103556599557,0.19149063474958167
16.87,-0.6151574019007484,-1.2597318295128934,0.8024739493112862
16.88,-0.45418404195672213,-1.9470371484959303,1.5719523732928018
16.89,0.18970444366095132,-1.5147525859176265,1.8739042489259794
16.9,0.7169290918370477,0.12662970866073114,1.5937218972118734
16.91,0.800452128216799,0.9227650345168444,1.1767765483645756
16.92,0.40382929678555085,0.43689768181221134,0.6262890727721055
16.93,0.002424756650010165,-0.20649211650436922,-0.8134828921224642
16.94,-0.09424946471765495,-0.607676088254494,-2.4674559266490173
16.95,5.0816029418999825e-05,0.06937351329115467,-3.0446641193438855
16.96,0.17446642245827496,0.165556683107328,-2.0281671744521934
16.97,0.22462642334378904,0.03725047445832667,-0.06552673123079057
16.98,0.25086507382307227,0.5667061571388124,1.4803787449342647
16.99,0.3939021164402901,0.35630431398253976,1.959956305165432
17.0,0.3618944584914237,-0.4778002455452005,1.6518434175258603
17.01,0.1614243469643964,-1.1326666229609106,0.9759904321629769
17.02,0.28770523609643195,-1.4347159460651497,0.19668063503060945
17.03,0.6635661826227444,-0.990318066344261,-0.44521186395109147
17.04,0.7745624436665587,0.11624171575673957,-0.5089989406268954
17.05,0.5987764943930957,1.0607591884440684,-0.5149351069504597
17.06,0.223558923165312,1.469009109420412,-0.5960840899384228
17.07,-0.05575552218749793,0.8993061166598478,-1.032302486935007
17.08,-0.06131869752274993,-0.07835430017182235,-1.3196567973060949
17.09,0.1996274985614852,-0.7217023395455631,-0.6186687458775806
17.1,0.6182278218625934,-0.9011733167000436,0.738679264283896
17.11,0.9184082354369434,-1.2377891469838291,1.8772267698437286
17.12,0.8289476755730959,-0.910568128716774,2.1198434210379085
17.13,0.5687505479464741,-0.0019315651599510798,1.4588853025498787
17.14,0.3361194361617334,0.523738817795491,0.19648741307682208
17.15,0.06411660307820068,0.46652838044851713,-1.0199689893346209
17.16,-0.16709322676914376,0.23311537556968204,-1.6843202325241011
17.17,-0.14825979560537642,-0.09783402978707419,-1.5748770360463884
17.18,0.19207770710867336,0.04397498819376478,-1.1320541235497348
17.19,0.6832891556837949,1.8322591584010528,-0.8659115150645823
17.2,0.892427118123426,0.45571763570712953,-0.4337441812305022
17.21,0.21868281267957523,-0.7783359012966184,0.5648058649625955
17.22,-0.37969694747512744,-1.7038126533475677,1.6003037107712261
17.23,-0.2022106939324593,-1.0489031299707487,1.7511505964590348
17.24,0.2895487282987429,0.47922703240436937,1.2227129502809415
17.25,0.5053066677288105,1.3290570811567464,0.38874331367857906
17.26,0.28452184753864834,1.1652064998364366,-0.6073100507260505
17.27,-0.09404514647744452,0.24853198710574934,-1.5586595465399375
17.28,-0.23748691279091397,-1.0432495125187498,-1.7726738761517855
17.29,-0.08611992819117942,-1.3125668139125,-0.9241821367982423
17.3,0.307469908438756,0.1393260211552469,0.26264366112039444
17.31,0.5976322532804814,0.990188785844441,1.2974454581279895
17.32,0.46513441287466856,1.0847291197874083,1.2900911951932665
17.33,-0.02703757753050468,0.11628819439971452,0.5094149473902714
17.34,-0.4388927988084393,-0.929812315367726,-0.2750191177869008
17.35,-0.3939770971062025,-1.1472791428218256,-0.7083206699934675
17.36,0.04966731075786326,-0.48786534977358226,-0.5791002828866059
17.37,0.5806384246596048,1.1099022590286225,-0.4688860865845686
17.38,0.6095156667964947,1.100175036878296,0.008255740334971734
17.39,0.09536309578062978,-0.0004447629809537762,0.2667648863898599
17.4,-0.4646941008824408,-1.4489098538893426,0.5484160845529034
17.41,-0.520652935070762,-1.9346262555645093,0.7828202549333497
17.42,-0.14261512199542997,-0.7929431263536554,1.108285208348837
17.43,0.44888026359630073,1.1986273253692077,0.8004573452498244
17.44,0.7401543512870398,3.1580856740826704,-0.5112032740212753
17.45,0.14383312894278044,1.1269655085984462,-1.9251853025955916
17.46,-0.925363102173066,-1.4719734443840657,-2.043273782949952
17.47,-1.1017542267771634,-2.3566697012775077,-0.46331625226446976
17.48,-0.067782735459812,-0.817653674231184,1.0601889466434915
17.49,1.021267637727223,1.4471594126590042,1.755888446352487
17.5,1.1097833356949918,2.2001502976144947,1.382534950683648
17.51,0.22832533206500386,0.5723145660562929,0.5765865021339702
17.52,-0.7671795705079166,-1.6117404254990444,-0.14995111878919418
17.53,-0.9869573952486829,-2.216480325557461,-0.704852389454661
17.54,-0.36059859412146084,-0.40931570179040855,-0.559129003383971
17.55,0.5359935365020818,1.3722784173810607,0.02154308540547843
17.56,0.8757983825266149,1.4564805744499754,0.3010835350085571
17.57,0.5650783959254927,0.5975372769948302,-0.08930008690926308
17.58,-0.014853414741132599,-0.3836358956390708,-0.6178291546440057
17.59,-0.4705679697772417,-1.0231259774641777,-0.5573236955374449
17.6,-0.44289862822791565,-0.3151873789679203,-0.21401224281196987
17.61,0.03803920929130012,1.1067819708723796,-0.053808842002172334
17.62,0.34359469615989024,1.0432910595816758,0.03544461108265578
17.63,0.09689580908010624,-0.31937455613537774,0.36903102582752345
17.64,-0.24286654110930925,-1.7479375358439297,1.1259335722420492
17.65,-0.10727254822847193,-0.8806776351017497,0.8708836802050162
17.66,0.3008698881584597,1.014725680208161,-0.06547312390260969
17.67,0.30185725216729375,1.3280182559864178,-0.9653227697617074
17.68,-0.18332215561820867,0.48898361963909787,-1.2985431164159629
17.69,-0.598487375120186,-1.3303060722940514,-0.458289250393033
17.7,-0.5726883979303777,-1.38813490629546,0.2706556185359475
17.71,-0.013848211275272956,0.8248144435646853,0.6336800697427282
17.72,0.5830611673443586,1.771497819583774,0.4391338977242632
17.73,0.3036888332435722,1.1617064660053196,-0.13928236187527324
17.74,-0.4753886687757123,-0.5712436175235216,-0.44922929866048394
17.75,-0.7569351751171897,-1.4627630686862654,-0.6131015102256171
17.76,-0.3718487173320575,-1.258921047479288,-0.022948876285105415
17.77,0.20338359700244607,0.02716651089426547,0.6130081100138047
17.78,0.4439940893383085,0.8211754741962762,0.9364890813102094
17.79,0.17304133539414326,0.992254272815267,0.6192091577808457
17.8,-0.2718506505225306,0.2762820975871435,-0.0830987593564843
17.81,-0.5307471299920897,-0.24794272288261832,-0.7119001332909016
17.82,-0.4334815638201865,0.2050671660174488,-0.9017874049115958
17.83,-0.06068409590966246,0.2159315966906333,-0.8171136577236752
17.84,0.22626225779026674,0.7167429612562474,-0.6153429808820474
17.85,0.26243799923551575,0.12085754822330759,0.10041315924331026
17.86,0.0806613434948619,-0.24044411921931821,0.5806438811568958
17.87,-0.19478084911678753,-0.9157717758932389,0.9788911332388416
17.88,-0.2696204530202895,-0.789434137603576,1.0249109146091644
17.89,0.004957935647293771,0.260027347957328,0.5381765011621598
17.9,0.30530511664748183,0.9595501054811717,-0.2666815231248378
17.91,0.19399195373789793,0.7101295548001516,-0.8478138728992539
17.92,-0.14378153450463946,-0.23041506626723124,-0.8532433464556183
17.93,-0.29671610206731364,-0.9419121072015899,-0.4366345948183354
17.94,-0.16400544633162004,-0.0469238101132784,0.09421802363653928
17.95,0.21697284791599325,0.9216788486144455,0.3670597060402247
17.96,0.39708476272114474,1.1989753127358491,0.22210576011559474
17.97,0.06171974735573839,-0.06498130533846719,0.11802781574213864
17.98,-0.33630718898603496,-1.9092203510937122,0.25308616869170436
17.99,-0.36253963023134905,-1.7860828979350583,0.5143185862150726
18.0,0.09511016321779416,-0.3021667820950092,0.7440503816397056
18.01,0.621853160184571,1.806580581055986,0.525796245599407
18.02,0.6711860530264852,2.303580297871459,-0.2715685704604354
18.03,0.028091916759472306,0.6988628678603456,-1.3236571450473507
18.04,-0.7222973997143154,-1.1631817103519957,-1.5424329850697005
18.05,-0.7069845783018093,-1.9107687306887486,-0.6198177593346113
18.06,0.0034858750307674314,-0.6022349825179277,0.6882902891569941
18.07,0.764081170404214,0.9786611214288733,1.5432410756232386
18.08,0.8277186112549145,1.7949048565760197,1.394521888524681
18.09,0.173893524237687,0.7486862014245345,0.5734626658871514
18.1,-0.6378331497460114,-0.8428124235190679,-0.1527405221637499
18.11,-0.8854817565147332,-1.5225030391452197,-0.5998949601627754
18.12,-0.34983714899947005,-0.4340679019407789,-0.9438672763914435
18.13,0.47185149629150624,1.7775678927207221,-1.0643477098084013
18.14,0.7812623391555057,1.3053373153222574,-0.713982534039529
18.15,0.23249695876192147,-0.05433168817217678,-0.17711861561715184
18.16,-0.37161429928918066,-1.5542272207244099,0.4157120662271281
18.17,-0.3970225018189815,-1.3533075994685326,0.6758953052814453
18.18,-0.02971877031547371,0.3658273492502835,0.6066528687702828
18.19,0.24939114316473548,1.0718393553138268,0.23063375288191265
18.2,-0.007742069655165944,0.8083219988277626,-0.057392632469067464
18.21,-0.3575037832421193,-0.477326942576512,-0.3595596399010349
18.22,-0.36904162019954106,-1.0440519163756354,-0.577019595289465
18.23,-0.05506135082741424,-0.05405864987651879,-0.4086593002651988
18.24,0.26700008257008406,0.007790449504688741,-0.03201462258085143
18.25,0.11028597628295746,0.24122849892044318,0.35075570739132056
18.26,-0.15292157137166199,-0.21808790381763243,0.4502564882481146
18.27,-0.2597434870023152,-0.29192698481319024,0.2846138067974834
18.28,-0.16714433555878708,-0.08600095845380115,-0.049853011094870434
18.29,-0.03967941895774983,0.13561532918342512,-0.30536861598312864
18.3,0.006748588095920939,0.46162393522145667,-0.39877716380712225
18.31,-0.03997503302952556,0.06136697406744261,-0.32162944605672
18.32,-0.20066035116041947,-0.44414957718996967,0.07274072482242026
18.33,-0.2360893862685069,-0.624942714907433,0.4709101356287903
18.34,-0.08108028317370733,0.04570794523967949,0.5707145504008799
18.35,0.09100161096094288,0.2930931234374553,0.39608388528632976
18.36,0.059262820224082566,0.25577203215563643,0.00692093312711842
18.37,-0.13827905071724783,-0.10575212909913284,-0.28967416380606087
18.38,-0.3077105018749616,-0.3707561870287098,-0.2751011417787013
18.39,-0.25760139418847217,-0.4106020030794106,0.05581840864030137
18.4,0.052269119255349446,0.029103434139785177,0.1961672276105019
18.41,0.30550459503604294,0.4668013629837424,0.06036051339183713
18.42,0.19195936061959654,0.1617255051441747,-0.09623722703217247
18.43,-0.07761230992163154,-0.5599599376110584,-0.19724550026461546
18.44,-0.18093147425483508,-0.8746479928306206,-0.07013052676438541
18.45,-0.05040941228674767,-0.42545096119293524,0.175481841713602
18.46,0.17931637310674375,0.5500370048102319,0.19912467611523318
18.47,0.28685575671537894,1.0108491469994858,-0.034287670080624416
18.48,0.17339804627929678,0.36871312542531487,-0.4283999529365923
18.49,-0.06972211005600247,-0.5628080795160275,-0.5969907027163376
18.5,-0.10667026169564583,-1.0306046036545295,-0.3428304416499958
18.51,0.1792576290136425,-0.6256653239132565,0.18965268132760907
