seconds_elapsed,z,y,x
0.0,-0.336937814950943,0.0323456898331642,-0.8358703851699829
0.01,-0.29092507724737965,-0.05476470529067692,-0.7196469014389969
0.02,-0.2308153798428341,-0.2051759226732247,-0.6900048784756413
0.03,-0.168514981863699,-0.29948080326520143,-0.7637279478389952
0.04,-0.11458139408467866,-0.1956462748835365,-0.9140286484717088
0.05,-0.05418663802387367,0.08289442698152906,-1.0807055896193358
0.06,0.013121987971992172,0.3139367627203952,-1.213402306481264
0.07,0.05051901584380264,0.3835111076060323,-1.2548959656005376
0.08,0.0768838602312637,0.25917007421924065,-1.1648568959653736
0.09,0.06593422756475119,-0.027496225949333254,-0.9980974251445879
0.1,0.038457720757168065,-0.3346225032420623,-0.88084830841058
0.11,-0.019875577761980606,-0.5592895053894061,-0.8538894416491218
0.12,-0.124500404002458,-0.5919536698086756,-0.8659633351107379
0.13,-0.2587762802557514,-0.46747727737771455,-0.8652881638113691
0.14,-0.37858037655190035,-0.21406567347533823,-0.8022633176707996
0.15,-0.48472824354024285,0.021469941369002803,-0.6920160676441005
0.16,-0.5216641555883723,0.23992354942000893,-0.5365648249449063
0.17,-0.46849350430960296,0.4527880712465982,-0.34336830426308873
0.18,-0.32100128276339074,0.5011489141590417,-0.09628748169690618
0.19,-0.156437922190878,0.3854986202507996,0.15132477179446496
0.2,-0.026978056604100575,0.1573804362884083,0.300713391446548
0.21,0.03823138457182116,0.040940299027679976,0.2862634391318462
0.22,0.01163697095628922,0.0548639400506376,0.18652307528214784
0.23,-0.07248245132039362,0.13892092278959908,0.051328665357833064
0.24,-0.14375005782086278,0.2675588698663542,-0.0676016364450658
0.25,-0.1548980547259238,0.3899941904194468,-0.11028188280733968
0.26,-0.13621801094521652,0.390454496152036,-0.017616480757721112
0.27,-0.15044617252473497,0.24970102058885435,0.12230386521565713
0.28,-0.15133333332637214,0.15630024632833212,0.23741159356423638
0.29,-0.09099082052402627,0.07603921582531542,0.2762434632956767
0.3,0.018938935409098478,-0.0324262293846674,0.30188749180390917
0.31,0.13367416916143848,-0.16619759901352754,0.3638425120776626
0.32,0.2648809599993612,-0.24359408750894215,0.4620006464818962
0.33,0.39546866803716163,-0.2874038326257542,0.5445173789676461
0.34,0.4940098933123302,-0.3421383309079531,0.5785697298947053
0.35,0.5177076980841419,-0.4072435242474216,0.5996450343909342
0.36,0.5269950761570192,-0.4423033191024998,0.6106898323417957
0.37,0.5459498280565097,-0.43205935406221935,0.6134338243610566
0.38,0.5484954777151196,-0.41234390519724345,0.6507353606591076
0.39,0.521928488217685,-0.39779012043585243,0.7122618991843311
0.4,0.5225006288283507,-0.3778261441893745,0.790579786443105
0.41,0.5455344524556769,-0.3550591350410993,0.8675593290730076
0.42,0.5682055537330971,-0.36479687048555465,0.9578054798844783
0.43,0.5655183770648695,-0.42716234125282565,1.0305808841056674
0.44,0.5364869997525646,-0.4647165338918677,1.0475743066661543
0.45,0.5157626169990001,-0.38298693720886173,0.9800189413068039
0.46,0.4957496514764124,-0.2106913771376799,0.8270161685195109
0.47,0.45794937896719473,-0.0571458910094221,0.648459674555203
0.48,0.4224445133964052,0.03277342258004619,0.5537953445324251
0.49,0.4060419787426126,0.055435791351342384,0.5826510222493415
0.5,0.437707738260112,0.06340170051871435,0.6962865186655562
0.51,0.507958747500922,0.04682267890740012,0.8428164049366698
0.52,0.5552480184131894,-0.050954921941762814,0.9989869785574682
0.53,0.5869838176334798,-0.21415515845650493,1.120945236567385
0.54,0.6121672753914098,-0.3312092925371942,1.1221850211638602
0.55,0.637650093182452,-0.35740283106582943,1.0003951412917813
0.56,0.6077967154573592,-0.33850860368741115,0.880679344355032
0.57,0.538565187105941,-0.2189882240970799,0.7090135224762896
0.58,0.49565831873418803,-0.07013803609590509,0.5178630357966174
0.59,0.4718880229967765,0.008665466332836769,0.4473894117794986
0.6,0.41623218105148974,0.04220662988328327,0.46591611967542523
0.61,0.32937773113949537,0.1578265813400745,0.5025739598106018
0.62,0.24557059866737305,0.28001557953618067,0.4663630621680182
0.63,0.1460050386850198,0.4349115117217036,0.3182629628540995
0.64,0.011910875028908455,0.6067271512853271,0.1555084284071943
0.65,-0.12354591752166079,0.7553408791506676,-0.03389192135912184
0.66,-0.2235998381939529,0.8777294999164069,-0.12777710464109332
0.67,-0.27144620030828426,0.9144352499963015,-0.08981127362181508
0.68,-0.25488677760562,0.842622090959672,0.0567820599086856
0.69,-0.1653100340547562,0.6651999617940902,0.1609575595978477
0.7,-0.01858245100685104,0.59842467695112,0.12890230564667757
0.71,0.14484500194371785,0.6210036542210007,0.04866615553707165
0.72,0.254047860044217,0.5787547608013427,0.05709034177237542
0.73,0.2392921792105978,0.4182464152450442,0.08074296330631434
0.74,0.13008550391738033,0.2493464961833106,0.06267216411910222
0.75,-0.015521021781022278,0.13553196935757636,0.02750444478549738
0.76,-0.17722253509076188,0.03358718346331161,-0.05228227933878753
0.77,-0.29984305484626234,-0.09865397313654346,-0.09742669085971721
0.78,-0.34757065150623717,-0.22685598968101997,-0.0485000183811529
0.79,-0.35693188506321316,-0.29807137178678605,0.09503985990138017
0.8,-0.3450416444252893,-0.28562569722062225,0.3039107323417788
0.81,-0.3327496343720268,-0.27510611605102386,0.4741661378102168
0.82,-0.3329999907798333,-0.23637536005366294,0.5427848364659638
0.83,-0.319011092874126,-0.22001869873297555,0.5567839667598057
0.84,-0.2696323144609838,-0.2658693298751933,0.5537849412695327
0.85,-0.22183525441832472,-0.3303133014757095,0.5725267512416699
0.86,-0.1952879489185337,-0.3847015262196872,0.5977508500171267
0.87,-0.20410833689418315,-0.4316857646634146,0.6087063355602492
0.88,-0.2840520271415086,-0.4406499953655789,0.6661579612688129
0.89,-0.3364557782480216,-0.40274075682267924,0.7857435647233866
0.9,-0.3536913117469083,-0.4007372266271691,0.8209487086432983
0.91,-0.3948793494522165,-0.4368740110895504,0.6449060371668596
0.92,-0.41184423264592496,-0.4767391434759169,0.3712154643148491
0.93,-0.37727090602658014,-0.535846296092172,0.11162584277835075
0.94,-0.3214574719214938,-0.5960113583080981,-0.09791458247678868
0.95,-0.27726331875054216,-0.6172783593394754,-0.20673078825040686
0.96,-0.24294203124574482,-0.6253146872054216,-0.2338303732115312
0.97,-0.20937124604127055,-0.5929584663008046,-0.20535664321842323
0.98,-0.1586661581113587,-0.5284434504649771,-0.16338820684817018
0.99,-0.07829740653679361,-0.4083956402895395,-0.16867729446132623
1.0,0.013527872942339815,-0.2276369951867635,-0.2696399368303074
1.01,0.08569075882597121,-0.026494571965628492,-0.4268760511448964
1.02,0.10875936220742209,0.13837336275763443,-0.5331151541414955
1.03,0.0920488040509416,0.19853930632365452,-0.5509240134859722
1.04,0.04942484789049246,0.1849837510414624,-0.5459144537727326
1.05,-0.0025832391907368124,0.1832297822655701,-0.5349099174445707
1.06,-0.017512340834160187,0.153381527296817,-0.46570922149358673
1.07,-0.017610137622356248,0.07547046056859495,-0.40969178980538656
1.08,-0.03962897451706654,0.058182894211159394,-0.44783226603235327
1.09,-0.08879177507136869,0.1847038183555072,-0.5410663722559202
1.1,-0.13045065621561594,0.33910409288186594,-0.534074297489686
1.11,-0.1554746857814839,0.33749351376744485,-0.5093549794002171
1.12,-0.14485781006569565,0.08044746985402619,-0.5109626646285509
1.13,-0.12203458770823127,-0.22389873288598564,-0.6195709904682752
1.14,-0.09388012128849589,-0.37706106974993114,-0.7402251644318563
1.15,-0.06758896041302534,-0.3413314499036509,-0.8279024396514953
1.16,-0.0663888071130265,-0.23827563459456805,-0.8829001998161754
1.17,-0.08251369704596728,-0.20225333992769973,-0.9201462388291043
1.18,-0.12021734663263232,-0.21432234955363777,-0.9747769238551568
1.19,-0.17014634207000306,-0.17691267216581943,-1.0836011080672405
1.2,-0.20880987506224047,-0.03636883861372361,-1.2753805332269177
1.21,-0.2404129786294275,0.15255641590317054,-1.4453198283065856
1.22,-0.26111063478132185,0.30482900683547964,-1.4711145895519822
1.23,-0.22625014631416757,0.36738231169046487,-1.3965189632359973
1.24,-0.14192350002038662,0.2972602086260573,-1.2848946292580978
1.25,-0.051193286096012834,0.1046843785318167,-1.1608386410721936
1.26,0.030210962770511794,-0.12721237891820827,-1.0542472604910471
1.27,0.11054838166197202,-0.31362417373782264,-1.0023829565552531
1.28,0.1988997315316914,-0.43116074828484857,-0.9797180659179875
1.29,0.2896724711837034,-0.4728328049272817,-0.9186048933557956
1.3,0.37109514157267803,-0.4571472877394526,-0.8030210343590541
1.31,0.4290838250453416,-0.38639430764099536,-0.6511891951281694
1.32,0.4233118336277139,-0.25426491097281223,-0.48535683572071336
1.33,0.35860647533103995,-0.08620816090582323,-0.34420785451822594
1.34,0.2803023800515921,0.039014587299502274,-0.26569906064487736
1.35,0.20146915326553505,0.08032716851496066,-0.2344345452232455
1.36,0.14956875254203206,0.112155818156077,-0.2209721170855272
1.37,0.1458667132551528,0.17489236717247825,-0.2160235883122296
1.38,0.17712563228574177,0.24326110170516593,-0.21548048111832943
1.39,0.21427596526954612,0.3040709308184143,-0.20089953795211674
1.4,0.23916098297983868,0.3617789063800312,-0.1528310277459795
1.41,0.24758369926800203,0.3996966716855925,-0.08027888495502619
1.42,0.2341193694001701,0.4018571288289185,0.001325554928096857
1.43,0.21575586069275435,0.39168689896590436,0.06727286906174744
1.44,0.2404603331685837,0.37885638765964985,0.10744740069674215
1.45,0.3126614969990161,0.3696636969122144,0.13772078580610103
1.46,0.38594380835013686,0.39033554128506115,0.16994510628596912
1.47,0.431019492030437,0.43346446693234136,0.18695258370281126
1.48,0.46359875762331626,0.48638745683305107,0.18576803628650101
1.49,0.4762329644204802,0.5385295968302907,0.1956328117041754
1.5,0.43509040697647156,0.5516592203918151,0.23661747623860868
1.51,0.3673443175862641,0.5388943369961322,0.3340600440500928
1.52,0.33146647753679354,0.535711744286497,0.4826769513304554
1.53,0.3400045901149698,0.534913705383058,0.6413979472609559
1.54,0.3758187752494749,0.5440068988327984,0.7722126579844019
1.55,0.43460240037773334,0.5635997483649137,0.8576185552221275
1.56,0.5016094515107573,0.5753423720228368,0.9140771795910085
1.57,0.5557826302162326,0.5759740515580041,0.9610501423250838
1.58,0.5779885317504839,0.5434677108012795,0.9896152819116629
1.59,0.5746422669682117,0.4663859806760191,0.9767707261572945
1.6,0.5559194185273327,0.3632687035877495,0.9436352552462766
1.61,0.5120048120242935,0.24011579763526647,0.9238801178685517
1.62,0.4549615379406591,0.13711393766594657,0.9134491952492374
1.63,0.3937556611641679,0.07672174547453767,0.9043655902034888
1.64,0.3295294848476024,0.021291678733920825,0.891537980393772
1.65,0.279884034665409,-0.021875657178123963,0.8716483428212075
1.66,0.25991119892249864,-0.0017472815360695282,0.869815037123998
1.67,0.2447788095442928,0.07416106332241743,0.9317659110393546
1.68,0.21235622204235854,0.15323676780877607,1.057963301689993
1.69,0.169746328109825,0.2053206803131608,1.2037088990388405
1.7,0.11133662923946651,0.17826776694689395,1.2892207160623996
1.71,0.04561496101317998,0.10541018377605883,1.25749581402654
1.72,0.013231957509592149,0.061571751807969914,1.1455268566647667
1.73,0.004566673160033885,0.05188190034597426,1.0170883397290258
1.74,-0.035146591548658644,0.021649596916686664,0.9402466296668096
1.75,-0.10094453055058777,-0.032083068211045514,0.9620305790170391
1.76,-0.11729163080968488,-0.046356339002537876,1.058650261735431
1.77,-0.09930213588867727,-0.05956752933399004,1.142232912021834
1.78,-0.11533228381172039,-0.09241524006124764,1.1611912053698006
1.79,-0.14708161658686827,-0.05514515862144913,1.0699414330459733
1.8,-0.16372899045965789,0.03700955958507131,0.8112723832524925
1.81,-0.18962865554332392,0.19248388348354595,0.4628678847111667
1.82,-0.23348093087728813,0.36122809182917315,0.14693419972594365
1.83,-0.2929542992136156,0.48839850555548675,-0.0003248329468543521
1.84,-0.3467495662102572,0.5290330705185838,0.07907358081386211
1.85,-0.3604626653402994,0.44249862672305185,0.271853557484679
1.86,-0.32308075009547843,0.3321337637376225,0.4256582239886111
1.87,-0.2538453786386866,0.2719520096669333,0.48538865031189493
1.88,-0.1858689538723844,0.22236570963561883,0.4511349388341675
1.89,-0.13627348881532905,0.2104398346216454,0.36751178164412
1.9,-0.11868317684806662,0.2277358066905163,0.26275716292414986
1.91,-0.11984857552488255,0.24344319602156142,0.12480592990976908
1.92,-0.14848695530638215,0.23741015134944238,-0.04671494424214735
1.93,-0.18646341124859311,0.17701889801500076,-0.1467942771092108
1.94,-0.23539718438238927,0.11501693780767411,-0.166068975191627
1.95,-0.29003596766509093,0.06515235607192321,-0.1181213976065153
1.96,-0.3198718474946763,0.02600623411880872,-0.005595119956079586
1.97,-0.3444342562874144,0.008854822671918816,0.101452890693002
1.98,-0.40954648136698607,-0.016897339205778537,0.15492423239896014
1.99,-0.48261323465617717,-0.04859797955966121,0.21550939119996812
2.0,-0.5022304588509592,-0.07758426803059747,0.2698051697816608
2.01,-0.493221593393316,-0.09028251750154487,0.3260695752088213
2.02,-0.4940983342819852,-0.07094064501605626,0.4036906539204679
2.03,-0.5163638501956926,-0.03304594814793649,0.47462186442992543
2.04,-0.5423824462909655,-0.029868659115172922,0.5099057774818393
2.05,-0.5760986083322333,-0.01692472117176857,0.5091787698425577
2.06,-0.6067862118528551,0.018564057978404772,0.4974057701210903
2.07,-0.6205681906071306,0.04994825818732586,0.48422877241079504
2.08,-0.6050454885531802,0.06410675904232664,0.425250957800146
2.09,-0.5625042696184748,0.056384606818211246,0.3162047304100578
2.1,-0.5239738094181534,0.02385761263067515,0.19930672990222384
2.11,-0.49235647663147525,-0.018732946369677327,0.07297790266912288
2.12,-0.46124026650796335,-0.04526889917040467,-0.07591369232971204
2.13,-0.4386187489101656,-0.04799872046100766,-0.24711743071578562
2.14,-0.41094369495872274,-0.04940673382649171,-0.3918340666827758
2.15,-0.3596291632136802,-0.044946814432090754,-0.49530780612341
2.16,-0.31613720001978596,-0.030831130707687608,-0.584953961465139
2.17,-0.3097851445080529,0.01074539407909748,-0.6755523341591798
2.18,-0.3255113605817773,0.07464206939577733,-0.731210299739009
2.19,-0.36319440402176684,0.159413551960981,-0.7927824734391395
2.2,-0.43069889957157415,0.23235911532412237,-0.866597308888102
2.21,-0.5068092111355376,0.24327030937766198,-0.9056955572287932
2.22,-0.5376278833171115,0.20084497402111182,-0.9012404344377922
2.23,-0.5048038584211345,0.19374495803222955,-0.9959615218552534
2.24,-0.44712976058470605,0.24275891810240607,-1.0805129674492129
2.25,-0.39742861169097965,0.3247411704063503,-1.1325364343006294
2.26,-0.3860794957942917,0.482030571793425,-1.202679973089496
2.27,-0.39047581285761956,0.6744146020408249,-1.209402626158505
2.28,-0.40180932791642177,0.7204511639282648,-1.0611255214210054
2.29,-0.39922938554700876,0.5616677995326829,-0.8937999503380832
2.3,-0.36707743438491036,0.29245010700104285,-0.7870323751964714
2.31,-0.3035215730083445,0.009564981805656665,-0.7692798375387234
2.32,-0.24148375115516826,-0.04161115426897756,-0.9413750616430212
2.33,-0.19044787442814123,0.0985921188395163,-1.1232537201199273
2.34,-0.14949066281266446,0.2723081110526589,-1.1597303057729786
2.35,-0.15433704311329835,0.3791227910796827,-1.1538336578142407
2.36,-0.21006243048871068,0.3458353000894768,-1.1470227376162458
2.37,-0.24273873898234644,0.21788847863565158,-1.1441562183582004
2.38,-0.22699677728460962,0.09919082273403684,-1.1703221946737306
2.39,-0.23831205833842478,0.03251579094441009,-1.2228558835270835
2.4,-0.2865159927989432,0.03615480744764692,-1.192617430127491
2.41,-0.3132173863542715,0.06701183184923545,-1.0113150218753313
2.42,-0.317970656479279,0.04556112424591548,-0.7318011713002859
2.43,-0.3380084173863532,-0.012509533307965864,-0.4883166634739192
2.44,-0.3239093117948368,-0.010921681727565939,-0.3110502016954223
2.45,-0.2651502237093714,0.0383292734983695,-0.18298229459428553
2.46,-0.2383662742123953,0.07698670358303325,-0.09971107269765028
2.47,-0.2678934511129001,0.10503390523548371,-0.07048023928709118
2.48,-0.3313799548933429,0.15855599833808587,-0.09557071303871265
2.49,-0.3790136505281408,0.22224633875758582,-0.15739900670191778
2.5,-0.3840041900565715,0.25908823900486744,-0.2412901796998843
2.51,-0.3571878188945548,0.2639367978585424,-0.32459991078932865
2.52,-0.30801987100751266,0.2842901010980726,-0.37619409025296735
2.53,-0.2533843066348792,0.33697915446275833,-0.41750719098489286
2.54,-0.23628564369033067,0.41469670624846855,-0.46681996957881927
2.55,-0.23386373162028684,0.48569556321305096,-0.4957832971512047
2.56,-0.2659304359799803,0.48709748650227247,-0.48877315596262844
2.57,-0.31561568476795043,0.47680316051203286,-0.45847661788953126
2.58,-0.34630480124343066,0.49457918432188636,-0.4001432732605004
2.59,-0.34106485740369696,0.47933050902145186,-0.32258883779080355
2.6,-0.30923934433741795,0.44917478196863864,-0.21431365843259373
2.61,-0.2433343778059923,0.4308220664012813,-0.0963725388094537
2.62,-0.16279657659086819,0.38568954479665285,0.005346663309807778
2.63,-0.11771354610312416,0.3119670536284459,0.05244668303873318
2.64,-0.08371849405963126,0.28461482438209834,0.09762051781826617
2.65,-0.04435510139007817,0.28416031184422325,0.16079703568325043
2.66,0.01894050194238964,0.22097477781884672,0.24034596622236218
2.67,0.06525550800191864,0.14530814025387212,0.34136340683408706
2.68,0.12273844435479403,0.12133716573309347,0.46837569229474546
2.69,0.18881192642044248,0.10230363684722286,0.5887670522043588
2.7,0.21083621699226976,0.04082796962209035,0.7022235105507739
2.71,0.20419415835916066,-0.05884678798163874,0.7778191004795608
2.72,0.15317471207725977,-0.14748070086778028,0.7907584664096434
2.73,0.09394783617445936,-0.15053191728997672,0.7986592897989093
2.74,0.0821168778218215,-0.015993258107630696,0.8190426393484481
2.75,0.13393184414369114,0.16550262490066667,0.8378834704381577
2.76,0.22654366472993834,0.24802707990756498,0.8304150977585216
2.77,0.2945997164545264,0.18470309039754826,0.7910601919584906
2.78,0.3146337057859854,0.057625179260350046,0.7590904776016459
2.79,0.3282516229121933,-0.05242339718883188,0.7136129506974535
2.8,0.34546608224402603,-0.10081194658784491,0.6384405448923959
2.81,0.37171641183745235,-0.14215481487182613,0.5727670714902715
2.82,0.3968781588502294,-0.12624719789414715,0.5100909866333125
2.83,0.422801773253765,-0.06017987059905406,0.4851934742799339
2.84,0.4318465693197046,0.059693749936946545,0.5112594579780266
2.85,0.3645565518766943,0.16094505852708113,0.59151135162217
2.86,0.2745554538179878,0.20844645747557372,0.6700444690531542
2.87,0.2335790449385805,0.25374151231694436,0.7279080799070947
2.88,0.22414359568501055,0.2792354300271874,0.737867843072462
2.89,0.2281861342424457,0.23285659439012593,0.7098186551343906
2.9,0.23400228720282154,0.14023911506192413,0.6394634457376277
2.91,0.2260872077643427,-0.013660083669766754,0.5599027348857117
2.92,0.22428036387493178,-0.19828968741271857,0.48876542834904896
2.93,0.25032623688391825,-0.34445128766206734,0.4626001316997615
2.94,0.28990180104028335,-0.36546106707585113,0.41888411428297595
2.95,0.2942963497726533,-0.3159427169747199,0.301901912817851
2.96,0.26482421488072994,-0.2884824075100647,0.30944161364075856
2.97,0.22631353426007908,-0.23547108619244886,0.30156549297037255
2.98,0.15730109793860608,-0.22415457420757948,0.2783254736292074
2.99,0.07616511481244437,-0.22764697478630758,0.2632024699945399
3.0,0.03386431344328531,-0.22852120001825582,0.26790116393391233
3.01,0.022585473167829852,-0.2634239354582063,0.2439822412049172
3.02,0.01113562471507257,-0.2963664892018633,0.13086384984768779
3.03,-0.018777655530926002,-0.23443197201469132,0.0833351891681373
3.04,-0.02354877505783868,-0.18725196199965202,0.2292653016912808
3.05,-0.03401071156860945,-0.16642624116760354,0.4046950432926997
3.06,-0.05631574355531289,-0.116183054171902,0.516445294215832
3.07,-0.053404134680197134,0.018898454530597134,0.5663883054400585
3.08,-0.014560677491105754,0.05104925031336177,0.5150338768625377
3.09,0.06883945628275398,-0.007726908706109368,0.4263534649822269
3.1,0.13107513296125786,-0.007839948784315104,0.3485678847079703
3.11,0.17225936483168722,-0.023088145065903773,0.2677766763950439
3.12,0.17465789552146369,-0.05937463389893205,0.1680123703247743
3.13,0.14055393153685322,-0.01791513157623037,0.11162734591553566
3.14,0.06716749336179803,0.0205663658288149,0.02425832747201926
3.15,-0.009406733297606376,-0.04434304416198196,-0.04940122663368221
3.16,-0.06881466484334231,-0.11848934682483499,0.01763107066974853
3.17,-0.09857994357491036,-0.25821436781517665,0.17065668681785884
3.18,-0.16554894973489098,-0.3339519664250448,0.2836539928402151
3.19,-0.25650955103640727,-0.3252306451558468,0.4092894670236243
3.2,-0.319777934781806,-0.27956653118144903,0.5504604145729044
3.21,-0.363496061354661,-0.24260810195601792,0.5849752186786248
3.22,-0.3957327064017574,-0.24191578616647633,0.5082856951503634
3.23,-0.41603356643319195,-0.27457226893553255,0.4367259670399151
3.24,-0.44678985567459417,-0.2960283913008922,0.4151965171895659
3.25,-0.48470770976331995,-0.2816905202033152,0.4128503525851706
3.26,-0.5409865556124407,-0.2639737005934211,0.3666737314232027
3.27,-0.6178478863381793,-0.24942007794738597,0.2953081879959172
3.28,-0.6468107284192943,-0.2574382788394068,0.2407197363547909
3.29,-0.5918573867683268,-0.3110955468649505,0.264990812129773
3.3,-0.5456590589055449,-0.3671259809171473,0.3319178033813649
3.31,-0.52757598551704,-0.3856452268286195,0.40023859891712393
3.32,-0.4964133625224937,-0.3885584885377822,0.4675757417615319
3.33,-0.4631973711083981,-0.373903367300393,0.48435131707185675
3.34,-0.4473302629302428,-0.334659012539024,0.3983312423715995
3.35,-0.43492709816716046,-0.2506039585934415,0.21451786804679027
3.36,-0.38793113323010897,-0.182500172705637,-0.06050721207487636
3.37,-0.3310419438645195,-0.08887491014063004,-0.3409814853980797
3.38,-0.2820936757226253,0.02986988829893767,-0.5830777644334113
3.39,-0.21023134957993594,0.1638152590690857,-0.80964148821369
3.4,-0.12463941867043304,0.2543878246180406,-0.9851777960784395
3.41,-0.05021180705183377,0.40503895076063684,-1.1660613995541953
3.42,0.017241365017282337,0.5677360391203704,-1.269353948761958
3.43,0.0810882575721558,0.6425791520971398,-1.2202409856809366
3.44,0.1398098078249643,0.6661970639636087,-1.1778736128134781
3.45,0.159916227077531,0.6813301529683845,-1.2080487986819552
3.46,0.13949932136819465,0.5933738684618886,-1.17844797264657
3.47,0.08878979447031833,0.34480731332933984,-1.0561326850130215
3.48,0.058848264652444075,-0.16604285355473616,-0.8111048068878108
3.49,0.03794834822532082,-0.6205190153094349,-0.7907882485356097
3.5,-0.010431300333714788,-0.8285387475487874,-0.8430054467945566
3.51,-0.08378370066155588,-0.7642782436269254,-0.889153012458272
3.52,-0.1604194170823519,-0.5510273789060426,-0.942704957951039
3.53,-0.23513570385002364,-0.3223507621960028,-0.9925154264178984
3.54,-0.2964619361767012,-0.10881805046755526,-1.0327832434705335
3.55,-0.30367153817138115,-0.012474662542867825,-1.0392238751284766
3.56,-0.2505765494138199,-0.06243538294531821,-1.020517801104242
3.57,-0.1842860418268024,-0.19258637093915007,-1.0155091971724572
3.58,-0.11143754218827653,-0.31177002086256317,-1.0193349115430699
3.59,-0.04000161902836886,-0.4025940441544923,-1.0548029522376166
3.6,-0.0015817860081371454,-0.49282310733668944,-1.0907479829829532
3.61,0.008003991889580432,-0.5740808586244265,-1.1067187633649918
3.62,0.0007609984092588006,-0.6012245097625369,-1.1308570293043767
3.63,-0.010258094610465627,-0.5430036007331056,-1.1354293355821325
3.64,-0.01036978949382513,-0.4628603741635319,-1.1034329626856032
3.65,-0.0008099132292207805,-0.38993934116803836,-1.0591814540018385
3.66,0.02601988273874067,-0.34354184137840266,-1.0281464300356822
3.67,0.06324603944144451,-0.3529969844390602,-1.024620334229999
3.68,0.10042291326049618,-0.45256432043644296,-1.015754241737885
3.69,0.12142829278379948,-0.5764786794223502,-0.9683248502146515
3.7,0.1083640290024052,-0.6401262820418242,-0.8842235592473675
3.71,0.03962865230277542,-0.6022350529870685,-0.7929738946372236
3.72,-0.03953153830193987,-0.48776347141195997,-0.7023754915761814
3.73,-0.12132211913125156,-0.3568649520772194,-0.649892724538683
3.74,-0.21580498111588292,-0.26771879827395406,-0.6327137592505999
3.75,-0.2995140072800957,-0.21314670249542023,-0.5833550730751166
3.76,-0.33446506882483007,-0.19231260604395978,-0.4858124274450986
3.77,-0.2797816501800744,-0.24075710256604357,-0.37894295438942865
3.78,-0.1626841045191828,-0.3353105344843662,-0.2864410313075907
3.79,-0.0577266433932707,-0.410020460920526,-0.18232446839590835
3.8,0.02708988068765699,-0.4249532229331868,-0.08884423776300994
3.81,0.1121192370363811,-0.369665402607332,-0.016883467591739518
3.82,0.18522141399732894,-0.2812523328630004,0.07341086672313911
3.83,0.24429807944062315,-0.21891874759914812,0.194781400977229
3.84,0.2715002561268144,-0.17761799021503952,0.33413048635724024
3.85,0.2874231657076539,-0.16315384620565104,0.4997272459865267
3.86,0.3411776445578114,-0.11666748884064704,0.716039901024923
3.87,0.44597791186214963,-0.046393092493466265,0.9997368853863872
3.88,0.5509552102796255,-0.07741217851502737,1.2871648025308664
3.89,0.5913856186441178,-0.1850132894324743,1.4972295456326614
3.9,0.5685533275119378,-0.19486279529654163,1.5932418531040495
3.91,0.5466194448969948,-0.060626985169740084,1.568601311877405
3.92,0.5387117656405533,0.09045332724947254,1.456600843496852
3.93,0.5246491085692778,0.15300325897248834,1.314336078665435
3.94,0.5038084976719344,0.1304207440367669,1.1680361563777744
3.95,0.500168998295549,0.0770598482410792,1.0139675072102068
3.96,0.5362067841352357,-0.04054784132335949,0.8533021347888132
3.97,0.6028419366827672,-0.23725568560397428,0.6633357637446872
3.98,0.6462970933758602,-0.36860085570007184,0.47311308997173845
3.99,0.6447930140477894,-0.42205704361127894,0.3733609337419477
4.0,0.6355398980293966,-0.4054646885682234,0.3898523995216082
4.01,0.628012596116448,-0.3418544695325066,0.4517734921718233
4.02,0.6079872101483695,-0.23912240787258202,0.5143389038098217
4.03,0.5752035732216932,-0.11105775522209062,0.5691179987833127
4.04,0.5280661645328913,0.044783372330025946,0.6276169600749624
4.05,0.46937592289923147,0.2049673044195777,0.661205553034485
4.06,0.3962773560764113,0.26900804075592283,0.6524421937065563
4.07,0.32602975361755987,0.3091466175748499,0.6604202160391501
4.08,0.2855706233847154,0.35444190170167644,0.679724713570736
4.09,0.2581703682755501,0.3413010014026125,0.6817734708719063
4.1,0.22723120027675808,0.23155103434642366,0.7008615599855876
4.11,0.22369613942337022,0.06467513409065379,0.7226514690188525
4.12,0.255271526549771,-0.1262994322775665,0.7008074271614778
4.13,0.2994613506153898,-0.29177800111316965,0.6010507049257457
4.14,0.32818400843952233,-0.41211277288387616,0.4254800774569183
4.15,0.33055924502787015,-0.47184858020820947,0.24714893973471067
4.16,0.3022998291602078,-0.4981136369719715,0.10215935953558966
4.17,0.24649518673943274,-0.5372974101379084,0.00795202090541513
4.18,0.19814078567854831,-0.6283296313177633,-0.019652726030713455
4.19,0.20131240473262463,-0.7150397725423436,0.013356624676128635
4.2,0.24595689337546858,-0.7396413341563401,0.08741202157091016
4.21,0.2805386287791072,-0.7263749440535222,0.16846703284790668
4.22,0.25745649166205803,-0.6920065824306796,0.2218512812934796
4.23,0.16941455870243413,-0.6248585262189136,0.2510818210331645
4.24,0.06077265464646356,-0.4786573843601061,0.31348377720579235
4.25,-0.018436357863723957,-0.3101661798307063,0.47999569403120934
4.26,-0.05901662672926799,-0.20096220209195784,0.7022612213145624
4.27,-0.0713828876034476,-0.1994925842396079,0.7162051556116235
4.28,-0.02653010336479408,-0.133221606517728,0.5614056209619669
4.29,0.060037942126436074,0.03944542402582716,0.44389885918725713
4.3,0.14459903509110927,0.04534571858748904,0.2843564119572837
4.31,0.2227024610537008,-0.07838506616624791,0.10206341002879611
4.32,0.3236346938737314,-0.18010201671399548,0.03210646415064401
4.33,0.46163603825509597,-0.26430332958046365,0.07266357098006558
4.34,0.5440678999416095,-0.32479266509186827,0.09877647331360005
4.35,0.4896390027880996,-0.3204255150581233,0.09170533990138484
4.36,0.35563632649071053,-0.32018986054856846,0.1837887823923737
4.37,0.2214999096835062,-0.35549693559425893,0.3775357812926053
4.38,0.09453926849290477,-0.3081426480804923,0.5515499354360297
4.39,-0.014514111001363671,-0.15342811985963636,0.6473106895155247
4.4,-0.08862514393191143,-0.015704024553994243,0.6731399868221424
4.41,-0.13425491599905415,0.0446415986310542,0.6464706368350014
4.42,-0.17094173238080013,0.08453150228934625,0.5803448357373298
4.43,-0.19383813929238727,0.12745126321440373,0.4930306803165007
4.44,-0.18240118714105347,0.14951606678730128,0.4146704625210821
4.45,-0.16764889463504912,0.13813620520190478,0.3497377376056543
4.46,-0.1808172043277596,0.09763062261123813,0.28832461389141534
4.47,-0.19999930836278415,0.039076960724292814,0.23224071915422453
4.48,-0.20166351856020745,-0.04373558812870422,0.16330696012436746
4.49,-0.21008430194834818,-0.14320743411458195,0.07751953472857998
4.5,-0.25566554619303933,-0.21779700393152465,-0.0006144490714876219
4.51,-0.32751662191626896,-0.25470036310002075,-0.03979738747242005
4.52,-0.38714067209909264,-0.291883240389518,-0.024205063319663607
4.53,-0.4087763753696172,-0.3674485771531948,0.023068760049185396
4.54,-0.4139654672624426,-0.45254016556734383,0.054611092239364806
4.55,-0.43261271479562036,-0.4931244387351784,0.02686875159450549
4.56,-0.46672332194588445,-0.47571151608503676,-0.08965999289044838
4.57,-0.5014823238054923,-0.4150696160120366,-0.2673049915765105
4.58,-0.4825803133564764,-0.40550372495860526,-0.407251648551755
4.59,-0.4031504827204521,-0.4606687464281359,-0.5051010635482814
4.6,-0.3041877280576257,-0.46636962839861773,-0.6323634432909792
4.61,-0.17413163314301247,-0.428524344693991,-0.742545471486918
4.62,-0.02107443090300619,-0.3855471561134844,-0.7484439670444947
4.63,0.1144949000159621,-0.3174540013027028,-0.7348629407183289
4.64,0.19764306130911247,-0.20266900711602215,-0.7971937067753218
4.65,0.23337419501839055,-0.07489605563739042,-0.8690261615453911
4.66,0.2305047277299216,0.014456932255526344,-0.9165723284708288
4.67,0.18089951825118747,0.09192749474813974,-0.9569245469321015
4.68,0.10170529538159719,0.2151139137300902,-0.9870911067978785
4.69,0.05928217423957416,0.2918152498836294,-0.899940060200162
4.7,0.07533279247446278,0.1861679134626535,-0.6838216019807788
4.71,0.13070130603514446,-0.08775035418586749,-0.49125851914603313
4.72,0.20731825929738143,-0.47042683419176184,-0.40163774842366207
4.73,0.2713349330806445,-0.7148907885458352,-0.47402808700108856
4.74,0.3157923601433595,-0.6973168494869626,-0.609739396635922
4.75,0.31202171681344754,-0.5252585318214236,-0.7504398606609867
4.76,0.24985836180341375,-0.31917799127158575,-0.8592999916522931
4.77,0.17217817649516726,-0.1428089691092088,-0.8689676494537445
4.78,0.07782476099637602,0.03269750172973847,-0.7655884836238539
4.79,-0.016664625612840718,0.2325169637427493,-0.5888910887957676
4.8,-0.08082932047926729,0.40680136978191594,-0.3698151347476116
4.81,-0.11234369168462505,0.4498139241190721,-0.14604842686779934
4.82,-0.12543680281601455,0.3588437665384339,0.007641961460263974
4.83,-0.12333511500890687,0.2916520588044657,0.07211472972935641
4.84,-0.0952851719657545,0.3101773281892175,0.05594047099351539
4.85,-0.021742234763006525,0.3423223430222843,-0.016157266170217847
4.86,0.09192850882496698,0.29744251452359344,-0.11653077948075541
4.87,0.24049287504762046,0.20248584065993053,-0.22352851573098778
4.88,0.38474477985447214,0.13513568943619397,-0.32983804261609967
4.89,0.45156434599500483,0.1323585511298056,-0.3998768411413595
4.9,0.4174577645155158,0.1995056537725273,-0.37174859296696394
4.91,0.285727602589593,0.251800191022755,-0.29231973179323373
4.92,0.10530588820412252,0.2695284078765115,-0.25340347514100386
4.93,-0.04035865420940084,0.3321772062571663,-0.2926566731918466
4.94,-0.0882337572276432,0.4380430859021101,-0.40433062033079203
4.95,-0.07298681248104877,0.49851751303729025,-0.5420723395367738
4.96,-0.007933303300473411,0.4860484637048105,-0.6515873653958371
4.97,0.09514901735849654,0.4513822533541913,-0.7065186525000279
4.98,0.17596807561698594,0.3912297838700663,-0.707437368036253
4.99,0.1986153003088218,0.3422362993143712,-0.6625549448934781
5.0,0.17152286543812653,0.34202588389916777,-0.5975624457026634
5.01,0.11940094306575082,0.39121040785835254,-0.5231620110582198
5.02,0.05200458155990178,0.46774209070576034,-0.40179247508818106
5.03,0.011790485367431021,0.5308082282682425,-0.2019212120749838
5.04,0.038835436906941835,0.5700797816001596,0.05093955830148707
5.05,0.1276226422854201,0.5733263783805828,0.28293473560191906
5.06,0.19329860798922893,0.5319187756048148,0.42198238435186647
5.07,0.2230175808030425,0.4794141724540687,0.45691514107507203
5.08,0.2842567944855114,0.3866183804770554,0.390726930794351
5.09,0.36413945125825026,0.23237405820312096,0.22750836018857626
5.1,0.4081112247202784,0.11684639338773564,-0.04545448001359591
5.11,0.3983304451982455,0.14642300250485002,-0.4216656114650632
5.12,0.37210061460298344,0.2377377841094133,-0.8062821705396607
5.13,0.37464370212063014,0.23039537845866087,-1.0407965433628086
5.14,0.3730364903594059,0.09816311362831122,-1.0446018685377554
5.15,0.35413419846409466,-0.051607440923161677,-0.8313743986234283
5.16,0.3472235362460138,-0.10461469323095021,-0.43198231372732526
5.17,0.3483801417851585,-0.016853744436515355,0.09291522679264526
5.18,0.3809868792388389,0.13364959551906966,0.6058679441060512
5.19,0.44082291854994327,0.2098112676069644,0.9608710710758992
5.2,0.4412389709044507,0.14685477764681823,1.1580796468635093
5.21,0.39584854878290265,-0.00428274017530436,1.25944312254085
5.22,0.34347033540843724,-0.12205899693692986,1.2387013607945838
5.23,0.31333192848295516,-0.17810492294658717,1.0927132458961741
5.24,0.2919845875488564,-0.2264821473286137,0.8835447484254693
5.25,0.27466345517823215,-0.2899913326828672,0.6222197309674602
5.26,0.30791447969317876,-0.35672597091903296,0.39665230390328104
5.27,0.38410402975812685,-0.511975248147076,0.3557197621268801
5.28,0.4584650034081649,-0.7612725445818038,0.5089737865151661
5.29,0.5495050445754898,-0.888253077097087,0.6373855649472233
5.3,0.5817109875290248,-0.8414939950910385,0.7303579227622885
5.31,0.48014818030077916,-0.7367377530780375,0.821955686851286
5.32,0.2222582295418763,-0.515907750495962,0.7997342610544157
5.33,-0.09749025142862879,-0.30062464323703864,0.6371345120938874
5.34,-0.3769325661746388,-0.18431071723028625,0.4710232320623557
5.35,-0.5190119099979537,-0.08289962865602804,0.33279463148610633
5.36,-0.5536281853419619,-0.038006628336818754,0.2396658552562048
5.37,-0.45988044443797244,-0.05156110722013949,0.2091890248300294
5.38,-0.23610370735312045,-0.23641987348239113,0.19643404482765445
5.39,-0.00896134773863698,-0.5364578394638833,0.18310406233417412
5.4,0.16783109747417063,-0.8147727225525758,0.18618300372136554
5.41,0.2714822353949846,-1.055838652470885,0.17682916465262438
5.42,0.22531391999997483,-1.1703010154147435,0.16079057405682307
5.43,0.010843537738259546,-1.0374647934316983,0.2056266643987362
5.44,-0.28397255048741277,-0.6164447128647201,0.5615947548926741
5.45,-0.43689984119433173,0.0073935588671306335,1.2537572942828585
5.46,-0.4122338296244577,0.5490980723913715,1.8963263606329153
5.47,-0.38126087145793314,0.6119502806489474,1.9013411914751037
5.48,-0.2987582758986372,0.6053443261583539,1.5890268882521312
5.49,-0.25204768980874104,0.6416439518777294,1.214388201499444
5.5,-0.26937883290767545,0.44683364006828785,0.879582953715821
5.51,-0.3334790520284448,0.11564983604505227,0.6036095892321774
5.52,-0.3368961627084339,-0.09145335049632368,0.3566982143457196
5.53,-0.21667909092914625,-0.10040730985382933,0.21696606583484673
5.54,-0.01983968164798432,0.016723768001338575,0.34271128299463105
5.55,0.24404325563481022,0.171170990896585,0.6804153383640847
5.56,0.11042690470601797,0.3857331312552003,0.9263931491455666
5.57,0.22075471923749726,0.4360842705084785,0.7959032872143033
5.58,0.19542166070876169,0.5008098198673168,0.22940667409861173
5.59,0.05365573820645252,0.44930960831766037,-0.47000451187268055
5.6,-0.06304766129760644,0.2127945913416315,-1.0376680531933251
5.61,-0.07337740037000896,0.09895680258127416,-1.4515118284701276
5.62,-0.02949808161731438,0.06397229693194953,-1.6880053700379891
5.63,0.0424348054118131,0.029783269950635544,-1.7175780849570432
5.64,0.10298144121567153,-0.051687025918575207,-1.5819872835900168
5.65,0.11460777804120928,-0.142401484041041,-1.3724699298228364
5.66,0.10010587399965276,-0.21421117994725314,-1.1235869843202477
5.67,0.041378561412315565,-0.1591147372612733,-0.8682621423113969
5.68,-0.04759536262183592,-0.00027474588064342235,-0.6355249573815797
5.69,-0.15916390262671434,0.17584560299152233,-0.4315177781332382
5.7,-0.2647431414193643,0.3187033095531925,-0.28189073366945366
5.71,-0.3690094262352801,0.45734611052076185,-0.17062638375731784
5.72,-0.4944298921175208,0.515617167962149,-0.033790258210266134
5.73,-0.5630808240967247,0.5308652812887749,0.13489686574032264
5.74,-0.5769314321694253,0.5615515613642845,0.297502238010126
5.75,-0.5449651370171524,0.4943336427559884,0.39588262156088894
5.76,-0.5001776562490844,0.32524136703982154,0.45914707657076387
5.77,-0.49112404097388224,0.13211485155769262,0.5577908138753228
5.78,-0.4778947816393509,0.01164695007236792,0.8020581252622081
5.79,-0.3900458201945432,0.007696602235004538,1.236568053268553
5.8,-0.28429346624267626,0.0723704536434516,1.7435847977355392
5.81,-0.19214138855065047,0.07447317475983392,2.0271629456737004
5.82,-0.10212767028059067,0.11106613176001892,1.9386512710970927
5.83,-0.08673543357396203,0.24170289483437213,1.4539811456706255
5.84,-0.2272118754804588,0.1841815607392003,0.7789761835818682
5.85,-0.29678926292427693,0.05098497021787001,0.014691524103690744
5.86,-0.3816070117187023,0.10740382331913809,-0.6490260677058398
5.87,-0.2888744379954323,0.19694958490591993,-1.073151578739354
5.88,-0.12498981015089973,0.10596981017077671,-1.2823920597125136
5.89,0.03402807839813844,0.11391047343420896,-1.2556375171494243
5.9,0.20445585204443537,0.013878344298685822,-1.1151600670721407
5.91,0.3528339695549315,-0.17839525527759528,-0.9253499877824468
5.92,0.3984648082264359,-0.23185321582963395,-0.8482696255392282
5.93,0.3267042212126661,-0.16098903033221112,-0.7460354171414221
5.94,0.18532060529753577,-0.05189790811873382,-0.5686550247766229
5.95,0.001149850003947305,0.007991342912698157,-0.3797703860799272
5.96,-0.19730900112527278,0.05153831109460208,-0.24646675638402182
5.97,-0.3837663881099933,0.09207045985507976,-0.14754895376898464
5.98,-0.547452344714619,0.10064097189990467,0.032726236959994055
5.99,-0.6937191440437411,0.08477100307499905,0.23015438119130327
6.0,-0.7892445080306434,0.056655074823401125,0.3875799796743824
6.01,-0.8240139210203027,0.021405865364653404,0.4713758701054114
6.02,-0.7747442214564403,-0.012669594745058195,0.4795778474378468
6.03,-0.6456432716198685,-0.046836458292701756,0.4612821508707069
6.04,-0.4554422348610909,-0.04577026293727703,0.32692885597987464
6.05,-0.2418807249985471,-0.027907981800588143,0.2556313549689039
6.06,-0.058376302792652913,-0.13408403287291365,0.3272762067614049
6.07,0.12086579622701225,-0.31226995005494834,0.46060219098659505
6.08,0.25037214975182603,-0.32201685150833725,0.6299789073924286
6.09,0.3462931984641148,-0.24829155712450512,0.7956950765238873
6.1,0.32563144293072,-0.32305067723250364,0.9053090980815834
6.11,0.11576747671004603,-0.3312696657101762,1.1667051000959094
6.12,0.0915920433358538,-0.26861448201529065,1.6053767893900803
6.13,0.11500431428113386,-0.23564710135923655,1.9207281556314488
6.14,0.048943799719087265,-0.1892904778948585,2.0680566216162535
6.15,0.004522922648843306,-0.12354755258350801,2.0312347029790336
6.16,-0.031095457964305236,-0.022999393846209065,1.8054054879414267
6.17,-0.1874501807446692,0.04521906451483495,1.4594699515043128
6.18,-0.31590855773344506,0.06675086711589306,1.1238510672138176
6.19,-0.29436047934928716,0.13023072760295246,0.831818693506921
6.2,-0.10851175289113534,0.20967683289977002,0.49759872798447696
6.21,0.13631690909394945,0.18083596274365105,0.10285411497424757
6.22,0.3036280168407912,0.07754032951075707,-0.27849867941360346
6.23,0.3956696208252287,0.03775743971819021,-0.5799768286590139
6.24,0.4368957557722736,0.03207143382968818,-0.8501894337168132
6.25,0.38216530619946987,0.08251180606170391,-1.094496892978986
6.26,0.23207545850918507,0.20865738034911832,-1.2419911349886408
6.27,0.030936180047832492,0.24354512120326036,-1.3218138137312216
6.28,-0.14229228910294292,0.11802229812944394,-1.303022162467604
6.29,-0.2849934149919838,0.013876985777087032,-1.283431327099345
6.3,-0.3812793400282253,-0.016571034643118068,-1.2632897753847447
6.31,-0.41992580752580105,-0.009848439068052117,-1.179702663957679
6.32,-0.41620648484246836,-0.039784833957607575,-0.9822958984129023
6.33,-0.41581869484299294,-0.16869872637147706,-0.7595660912729487
6.34,-0.4048237498579435,-0.2516567832803751,-0.7071685741343896
6.35,-0.3972872593626523,-0.151436827274958,-0.8017946815052568
6.36,-0.4248858991504629,0.02332042782631022,-0.8389942368625758
6.37,-0.46008637181743856,0.15951018613403087,-0.8197693795415312
6.38,-0.4936633237948811,0.30355266181316226,-0.9124909873988921
6.39,-0.5073147042532414,0.527632069594954,-1.0600804106729942
6.4,-0.47729689805489506,0.6214804660810159,-1.0145034567103564
6.41,-0.3456581979888266,0.4596555319319371,-0.8146817508752866
6.42,-0.10850200492325177,0.1616338360066732,-0.7151665731997213
6.43,0.1473844901320303,-0.14258753835489815,-0.7298190076792983
6.44,0.3058246247198477,-0.34025340948226895,-0.6755254227024496
6.45,0.3600282980976914,-0.300657413205769,-0.559103924422242
6.46,0.3150325515491508,-0.0686093630491431,-0.5677233582117447
6.47,0.18760777105231566,0.21667880140207008,-0.7477594835318492
6.48,0.029613580755042855,0.4261392258814856,-0.9526358000292612
6.49,-0.11447460384483486,0.5260866936026073,-1.0704571418446
6.5,-0.2189622828799834,0.5337929062639938,-1.0718545327569944
6.51,-0.2617616203256497,0.4877697307439306,-1.06017905321271
6.52,-0.2419317043784166,0.39388107887647184,-1.0702908150879844
6.53,-0.1366934211113286,0.3286400989568073,-1.0372523811176688
6.54,-0.005189259571795701,0.28189197356760054,-0.9939672677933843
6.55,0.0972626562471749,0.21596636487802737,-0.9608110675731708
6.56,0.13882440570932603,0.10616454183237992,-0.9722759959268483
6.57,0.160496744639108,0.010352303671744934,-1.009526102922799
6.58,0.17647423996288814,-0.058497831397003756,-1.0224613364595572
6.59,0.17790483341204036,-0.07584338050831671,-0.9498404843004981
6.6,0.1485586073348382,-0.023067271903846737,-0.8053445262879124
6.61,0.06334240075782636,0.11294187206448551,-0.6667873434853444
6.62,-0.057113605797529644,0.25932720017841654,-0.594569051294712
6.63,-0.13085283095083575,0.37362710986352143,-0.5550739941174564
6.64,-0.1160311915497044,0.435866135141277,-0.47488123662134973
6.65,-0.0722725241341123,0.44046820774134077,-0.35942678091150443
6.66,-0.055491096286279934,0.42842623144823283,-0.2656531722843658
6.67,-0.04183097292612259,0.4652965646624619,-0.21285359716238833
6.68,0.012900994485858849,0.5357665478110056,-0.11403055702899857
6.69,0.061870390475796934,0.5824966320719144,0.0188186096365807
6.7,0.06227718116334998,0.6088843307529008,0.15428526317089447
6.71,0.0012128166334951873,0.6019085140149368,0.27022882727125397
6.72,-0.12459074905812365,0.6044118871897444,0.3259999306021382
6.73,-0.29095652249305975,0.6986444747031108,0.3010230333583967
6.74,-0.4423823605974629,0.8521229069482512,0.2677009758295201
6.75,-0.5175504749354187,0.9821693022707538,0.27390647808019547
6.76,-0.4635148070038415,1.035672145487327,0.32996716891761846
6.77,-0.28271973775501247,1.0149395171148832,0.42543164835259073
6.78,-0.01229910687151044,0.9108161355456951,0.5491031475310998
6.79,0.25723247015835543,0.7933738873073004,0.6208230394529988
6.8,0.4212265797467937,0.7177238022458197,0.6175969579164179
6.81,0.4706732386866775,0.628542785347346,0.5663673775559075
6.82,0.41777921225781883,0.5162474843114307,0.5010419964653985
6.83,0.3456823602007006,0.4157672653465144,0.48862651637870835
6.84,0.330162622621423,0.3758313654511623,0.5778314290958836
6.85,0.3407107810083209,0.3543764903719726,0.686710507470215
6.86,0.3538838066802421,0.29736939842827864,0.7733664256522914
6.87,0.364739390603005,0.23069135454983683,0.8161571823931943
6.88,0.32182576922637396,0.21913021088538415,0.7785955243047455
6.89,0.2545174447535846,0.27402185434262993,0.7287446881558748
6.9,0.21416979543943127,0.3021328065536854,0.7206176533766109
6.91,0.21570493136875935,0.21051478277878882,0.7604368869389787
6.92,0.23643177028232729,0.022198119014588957,0.8603603691667776
6.93,0.27081293325934697,-0.1993651293084001,0.9689213308626724
6.94,0.31281095620490196,-0.31830587271357347,1.0249313074074868
6.95,0.3381106515346442,-0.28125474980332293,1.0100759963315382
6.96,0.3229753830442393,-0.15379117907118406,0.8974119101647144
6.97,0.22568844605145086,-0.012923553628598617,0.6932632447887105
6.98,0.009218532326296198,0.09627861346079863,0.465091661858727
6.99,-0.21100406765402574,0.19870815388276478,0.31201946260927144
7.0,-0.28144909357311004,0.2514447739835312,0.252126726610029
7.01,-0.19373499044027742,0.21525823356279386,0.2180545471028509
7.02,-0.026052181835874922,0.16253886420888233,0.19516720576242408
7.03,0.1269291354676694,0.12211760987009207,0.19214852273615063
7.04,0.20639474364206034,0.11722666870585795,0.2158003954199793
7.05,0.21905249176918778,0.16534581153263708,0.23687130382972854
7.06,0.21178583530722747,0.20879626751598618,0.24298705561281403
7.07,0.23475102767406253,0.19331420499237373,0.2282788466276527
7.08,0.2864532727680763,0.11973012115893288,0.20547593010602705
7.09,0.34012462588411985,0.07187288760323297,0.1809217410115883
7.1,0.3689457873897363,0.09718171947313552,0.1419521321662029
7.11,0.35402056106021024,0.13283206045960907,0.09201414442326153
7.12,0.2913634378984386,0.10885447663665127,0.05173326507397018
7.13,0.20082512312828749,0.03818377075272752,0.04668916186950403
7.14,0.11224438387894783,-0.05615773774556153,0.06283494429258801
7.15,0.057353309114454326,-0.11362187037961362,0.09054267993587385
7.16,0.07245104003634759,-0.12165546018856807,0.14882933414802643
7.17,0.15040367854920927,-0.1332943013697367,0.2609761120876146
7.18,0.2489208503424689,-0.15179483561220805,0.40199099499561974
7.19,0.3248959155739699,-0.16349816462455646,0.5267765287413291
7.2,0.3566099811368918,-0.1340202360986294,0.6209815540250001
7.21,0.34677533979600544,-0.07362609988050023,0.6575190597329503
7.22,0.2955275535323825,-0.015863480410720974,0.6643704478098348
7.23,0.2201985755849149,0.03996034277129819,0.654675606502232
7.24,0.14446806067947804,0.06162890692531402,0.6338181930703989
7.25,0.07869963809813978,0.06538375547704742,0.6170754602622909
7.26,0.04296931575229232,0.08892646688445285,0.6123478110732631
7.27,0.019146756819265507,0.10676634595541337,0.5553940637036242
7.28,-0.0023358564103294417,0.04705446498355316,0.43132383298916116
7.29,-0.007617118333916547,-0.037734370531242,0.38146314115213303
7.3,-0.040248806642925225,-0.09859828529146428,0.4863182425559756
7.31,-0.1238471014020003,-0.11770089329322318,0.5908716324689617
7.32,-0.2039973104231352,-0.014074405329064489,0.5726524467114174
7.33,-0.2354856763519591,0.0862846260808579,0.5562851471120067
7.34,-0.24034870007193734,0.05182609921523623,0.6153773952632169
7.35,-0.257764991297774,-0.07406143319969773,0.5370865580657105
7.36,-0.32824441691454515,-0.19895187149701896,0.29516891969160564
7.37,-0.4829943071734738,-0.29108335420172116,0.12131894241624501
7.38,-0.6756628314292691,-0.3403765177334296,0.054019485697008034
7.39,-0.8557545276447497,-0.3524511400886217,-0.011186761892930872
7.4,-1.0403011914105924,-0.400015664538924,-0.0537737276174957
7.41,-1.181704709564694,-0.4564462528466638,0.010135998993838371
7.42,-1.2035469370088958,-0.4758224472691812,0.15000856872902588
7.43,-1.1613564720989107,-0.5189324429000451,0.2850523234936551
7.44,-1.1050053624968894,-0.5706477473847152,0.3664158804990216
7.45,-1.0038589515477145,-0.554273699565523,0.3827118051023083
7.46,-0.8667196621655596,-0.48909930511565847,0.38526171282961386
7.47,-0.7016042885467226,-0.43007555845880513,0.43919996589639065
7.48,-0.5258237358897088,-0.3923963410708887,0.5726486589942715
7.49,-0.397543709642369,-0.3744759803602998,0.7362269396378899
7.5,-0.34778317021405764,-0.34783280108697273,0.836714512792017
7.51,-0.3651010651780326,-0.2795163808878316,0.8485635717004071
7.52,-0.4028020956536014,-0.1873343191469427,0.7712933633846175
7.53,-0.4323572370953814,-0.1293052991042744,0.5936063584735989
7.54,-0.4536665651723663,-0.12804891476002894,0.36190399287382463
7.55,-0.4793155329192815,-0.16362083997959642,0.15230941141465745
7.56,-0.5152338390559533,-0.2298868682805541,-0.020829664677017
7.57,-0.515896258313578,-0.2968319886009222,-0.15499762449096918
7.58,-0.46699630735564046,-0.31744867531052345,-0.24292191168688065
7.59,-0.3989250787955801,-0.2905254741461358,-0.33074879556232256
7.6,-0.30817333717363166,-0.25490669353477446,-0.43880095528702695
7.61,-0.18212279797034486,-0.24492714070055743,-0.5482530266481661
7.62,-0.03161491847958798,-0.2709780049208286,-0.6581657187860714
7.63,0.10418474743408046,-0.28447563395417313,-0.7743334005081617
7.64,0.20981257956315882,-0.25161732364917516,-0.8905502184774062
7.65,0.28387576906786266,-0.20111435913836098,-0.9958729968221968
7.66,0.3117129334861272,-0.17408996980668331,-1.0768524925100662
7.67,0.26898657390541747,-0.17462515394046702,-1.0634775788219968
7.68,0.17919244151916205,-0.22250530363434184,-0.9248767959288497
7.69,0.11343115629180754,-0.2651573851925403,-0.7851385758385356
7.7,0.08441405001492933,-0.24415459241031148,-0.7529153862284749
7.71,0.09285126969581128,-0.1673691505146458,-0.7745050757992894
7.72,0.13124997985324535,-0.0638877457484821,-0.7714660195164881
7.73,0.18614463276128576,0.04132688147724396,-0.7817519402982636
7.74,0.22855111017995286,0.1833537604442993,-0.897369335400156
7.75,0.23936039374801366,0.3478972615225456,-1.0721359509070116
7.76,0.24785152079633124,0.43193618673914985,-1.1760392590876796
7.77,0.27249684542344993,0.3765293114739333,-1.1765331281768725
7.78,0.28943893816663807,0.2580014264464963,-1.1853256798572527
7.79,0.2805988130813051,0.14359398650365987,-1.236342762884987
7.8,0.24296612853315877,-0.0036334580935294164,-1.2301826735507742
7.81,0.19005195538776143,-0.21246512812436621,-1.0858590013296208
7.82,0.15112487224458282,-0.4645871882733535,-0.8308482422147033
7.83,0.13706103172506715,-0.6654884514176392,-0.6349692863196901
7.84,0.12523167302422153,-0.7126100725647818,-0.5935571944949369
7.85,0.07323291661453703,-0.6137550464278979,-0.6379103793960025
7.86,-0.03628553764686611,-0.42315503416036243,-0.6757598714923183
7.87,-0.16409275937678375,-0.18996358339368555,-0.656347034760591
7.88,-0.2607283780812615,0.000982038815775205,-0.5790435637609828
7.89,-0.30804300641104865,0.11566214042825483,-0.5319115103883688
7.9,-0.315073267351627,0.14064130377708994,-0.5562258593798066
7.91,-0.311014644246902,0.08339114127993447,-0.6387447138598351
7.92,-0.28505445669702173,0.005432129668812299,-0.7536781442992394
7.93,-0.2241120039901797,-0.07965546466717717,-0.8513314545277894
7.94,-0.14170263153960483,-0.15239177418083444,-0.9650640367907657
7.95,-0.062307705906034676,-0.1558134748799316,-1.0443662033289944
7.96,0.011200321948356004,-0.09460569707503501,-1.0885692415349018
7.97,0.06745292170957072,-0.10270075145531901,-1.072877206102107
7.98,0.09390832846653425,-0.19551912110870043,-1.0385675220071828
7.99,0.08467553962114069,-0.2988824551579716,-0.9868374547516653
8.0,0.06105465277622767,-0.33257537587111724,-0.9697763930330522
8.01,0.036203419039764075,-0.29810129889896386,-0.9955685094238206
8.02,0.025155128005900234,-0.22128723312074677,-1.01775713626856
8.03,0.047795208612338394,-0.19276643184632494,-0.9996025843341819
8.04,0.1291813390228174,-0.26325694471560684,-0.9149121069329249
8.05,0.25740453840028693,-0.4200865707432433,-0.7469316955436243
8.06,0.39895709233861487,-0.5675451567680908,-0.5265852500000324
8.07,0.48674115606178014,-0.6447879948102642,-0.32140240066786974
8.08,0.4768737315335297,-0.6518511574802976,-0.12343049758561886
8.09,0.34727451360576694,-0.5830695963813128,0.05653797644288296
8.1,0.11010199203147038,-0.45576898773405267,0.14892009364483905
8.11,-0.13567944338721727,-0.32726122853674855,0.11467437415517547
8.12,-0.3023313912323079,-0.2168603752973498,0.018723699209882656
8.13,-0.35504549918818545,-0.08940529119766796,-0.09110536164792424
8.14,-0.3025183996007463,0.055667304140016034,-0.16919757882512063
8.15,-0.22207256065090575,0.13141909033257063,-0.2127042418055386
8.16,-0.1841488120012683,0.0747153608362186,-0.23645314359384026
8.17,-0.1982764303397801,-0.015299793416666659,-0.24607156569477634
8.18,-0.19275708270333294,-0.07795142993385461,-0.2184399605703673
8.19,-0.12764763108898652,-0.08523255263995894,-0.14448932940263906
8.2,-0.023024797770073765,-0.09736935773287458,-0.05550738669843995
8.21,0.09000482943373464,-0.1525284220126112,0.01937318108259821
8.22,0.19811153602431875,-0.2134692556692973,0.055778506259903805
8.23,0.2770406312708725,-0.2562300559290539,0.014861434293685957
8.24,0.33926618111104606,-0.26455109091860807,-0.03196407046159981
8.25,0.43245662028862847,-0.23095399022027183,-0.033436359001889286
8.26,0.5052717374697787,-0.20628607304319432,-0.002772598573251918
8.27,0.5099501281498124,-0.23967674003682835,0.06185418649202481
8.28,0.5007807660282679,-0.24495358900485964,0.18970037584483548
8.29,0.5111602487079684,-0.21261530774244747,0.3675705347197313
8.3,0.553906797040075,-0.16436636780876535,0.5731341034642874
8.31,0.6281818448409638,-0.09947016506552608,0.73544550968785
8.32,0.6629585476107414,-0.0739037518213468,0.8175705495452387
8.33,0.6867866206980711,-0.05177257389613995,0.8478556941086848
8.34,0.7132775307995298,-0.019393052969881988,0.8383341734898203
8.35,0.7179891049600898,-0.01919132165954724,0.7756606592227137
8.36,0.6806393101421742,-0.06459091579152464,0.7227992061034767
8.37,0.6040580784534852,-0.10646339088188955,0.6969300318851958
8.38,0.5028932652926905,-0.1205708022961829,0.6948809957593035
8.39,0.41162054049707364,-0.12816036468331002,0.6864777704137907
8.4,0.37921094041650427,-0.12216452531752829,0.6079651706888585
8.41,0.4040717508311795,-0.07292749280567351,0.49123555551639825
8.42,0.480267506598567,-0.09896477317833241,0.44974359003079584
8.43,0.5485067126199785,-0.1926997993319523,0.48269241331540136
8.44,0.5833127956708958,-0.2617372186664687,0.554564942507009
8.45,0.6058985414502446,-0.33096273514803776,0.6654294890072622
8.46,0.6021801100377558,-0.4939375997307707,0.7917856709060954
8.47,0.5453038991614018,-0.6229999823422395,0.834672597697455
8.48,0.4462329049682623,-0.6270765326708538,0.759539978618099
8.49,0.34084184407238377,-0.4930020603504232,0.6053502399482091
8.5,0.2723692293459955,-0.2906052787007822,0.39170914116077116
8.51,0.25438493773014903,-0.13638125071777854,0.19445618329039335
8.52,0.30164074320200074,-0.07407824352466985,0.0490912089588024
8.53,0.3977739162317667,-0.10382577506107478,-0.04810892167266483
8.54,0.5047194511496036,-0.16447372375506206,-0.1127386010011364
8.55,0.5942159235851812,-0.2329651826698205,-0.15787190538995075
8.56,0.6418160892463387,-0.25825621615988026,-0.1647767003881881
8.57,0.6213591716193809,-0.29800285648037894,-0.18094564257529522
8.58,0.522430677537346,-0.31878841572475364,-0.188070623822664
8.59,0.3678390041008103,-0.2192108081480575,-0.17330228796985725
8.6,0.21606751248726658,-0.18447865417983433,-0.1890907695627575
8.61,0.12925505762628237,-0.12219191075325732,-0.16195813704730105
8.62,0.1361614315092001,-0.11822303179405952,-0.11597040038257701
8.63,0.2167278223961449,-0.1653419062194364,-0.05536561581036147
8.64,0.3417798650503964,-0.2047656752569526,0.03937396533683474
8.65,0.4425799247948818,-0.2514647689570493,0.1285403056943102
8.66,0.49266436437251826,-0.28659949195802964,0.19480408094064694
8.67,0.49720357367302237,-0.2846002597676346,0.18624391201301224
8.68,0.4774463083103305,-0.28721163960787954,0.10417214173641726
8.69,0.43812158003340096,-0.26441747755029715,0.040219587323853376
8.7,0.3979942401757781,-0.2637354311716821,-0.010621001797223268
8.71,0.3503989718059879,-0.3052857584156245,-0.056275423452115524
8.72,0.3095994210554176,-0.38023429789941676,-0.08308920460407283
8.73,0.29020426558701146,-0.44730598836513114,-0.052504878506910393
8.74,0.2953239774293023,-0.5163579449337203,0.049972020186994176
8.75,0.3255626915812233,-0.5646367507172346,0.15748365573132497
8.76,0.3666317594801333,-0.5884203572624678,0.24526489791521122
8.77,0.39237297450717223,-0.5888538657726953,0.30254456683845976
8.78,0.39212159160031407,-0.5641543256162815,0.3419988406920357
8.79,0.3385684802330408,-0.47661578650745773,0.388458537433272
8.8,0.2324947236075657,-0.407697899071846,0.4015969517239647
8.81,0.1238482979128171,-0.4386694737530248,0.381079142831771
8.82,0.06456314865674215,-0.4701279677279706,0.35111469323407285
8.83,0.017430897791875132,-0.3930444992762791,0.36664960361904164
8.84,-0.027642467366324475,-0.3087571164827884,0.3743271585145993
8.85,-0.04969194042355293,-0.28799287048728156,0.384335897112216
8.86,-0.04426211753660955,-0.2581235011616898,0.39766729556741165
8.87,-0.01301788211209039,-0.16281845090272534,0.3680056596099643
8.88,0.03812404513664212,-0.039651142588467914,0.3070283993777831
8.89,0.10521427559267292,0.09798708335788978,0.22880847050651568
8.9,0.15598913724666288,0.1798448878840268,0.11961423289826613
8.91,0.18036285191487553,0.18354759558768075,0.011611715870879226
8.92,0.1472065029652192,0.18223113227934476,-0.06883844906450771
8.93,0.05954617058945413,0.12698917763367254,-0.10195830042978893
8.94,-0.0673342981919997,0.11049139416870156,-0.05939387869170185
8.95,-0.18923588370248354,0.09388186290334304,0.046849467422542375
8.96,-0.27601871633581,0.05688955454305412,0.20678024538977016
8.97,-0.287170005459142,0.007703609892009857,0.3644314815501402
8.98,-0.2561417759920888,-0.07410489805471822,0.46396646261006236
8.99,-0.21095718479286193,-0.1285637261468443,0.5483953192395167
9.0,-0.19036249941917802,-0.12413274514996915,0.5947237299435066
9.01,-0.19722928725998812,-0.09630142874000397,0.5906848295660201
9.02,-0.19127936887164676,-0.05190986942662094,0.5410026933750729
9.03,-0.1253216809654369,0.0004031708105736263,0.4438200042891744
9.04,-0.011418735172567421,0.006385813068397569,0.2465779363010599
9.05,0.09841887868942537,0.015773128311280204,-0.02412166035603647
9.06,0.1638458378020317,-0.004277469927115465,-0.21250764965143973
9.07,0.19234328123379996,-0.08526050892556045,-0.2672713224886566
9.08,0.19722819525472318,-0.20386331786573741,-0.21430554267463578
9.09,0.19654140991731806,-0.33183169301618604,-0.11290889868594675
9.1,0.15303978389631318,-0.4287351084683801,-0.02198788563644596
9.11,0.06605767503706857,-0.46239535745913163,0.028053479229991716
9.12,-0.06790963219124684,-0.4022523121420139,0.017010191671174377
9.13,-0.20680137805932933,-0.2952077785648975,-0.033110460466838174
9.14,-0.326536427467823,-0.19272681788807433,-0.08435280238524492
9.15,-0.39122761310451765,-0.15048736078460925,-0.13902792497055075
9.16,-0.39423974312544735,-0.17980574738387148,-0.18691240958108085
9.17,-0.38029216094351403,-0.24777248434776272,-0.2161145204979922
9.18,-0.34921010200884905,-0.2784946146342275,-0.23952920737565592
9.19,-0.2693289247903978,-0.26090919404020085,-0.2558659790875352
9.2,-0.1767147609028941,-0.21672822528402733,-0.23023237021329634
9.21,-0.106288390009536,-0.205804435452647,-0.16028233536382197
9.22,-0.057839892289268044,-0.20702419605607886,-0.05860398591337665
9.23,-0.03168940045353265,-0.2072386741638183,0.07361510644952288
9.24,-0.05322959878680968,-0.18915906439801727,0.19755743486825025
9.25,-0.10936641194018057,-0.19450473361061876,0.30804752804141505
9.26,-0.1731939285342108,-0.20036266740257389,0.3921422191993452
9.27,-0.2384949543930138,-0.19087203066917208,0.44145623339908846
9.28,-0.26371499570057083,-0.14990413860317006,0.47744982590236795
9.29,-0.2447715344644416,-0.1053252664610927,0.4744968443130068
9.3,-0.19384906810383445,-0.04981649558319564,0.4424619935354992
9.31,-0.10346223955411925,-0.010785026008984715,0.38880169966007627
9.32,-0.0064891284895036575,-0.0059271397938532614,0.3089018103594444
9.33,0.062180027145354616,0.005291671345457292,0.19936237452907357
9.34,0.11291195512905336,0.031357126898955485,0.09985236486416038
9.35,0.132612310156872,0.05634403529717631,0.04267082113196205
9.36,0.15999928717994139,0.057822843931305955,0.037225769949352644
9.37,0.1868697476832976,0.06435928885791004,0.07111244661692792
9.38,0.20879005720181834,0.06662750592160689,0.1148807560353398
9.39,0.2201262085406537,0.055562098770031654,0.1456449456974133
9.4,0.210001097030823,0.028580357722943824,0.15717381287198806
9.41,0.17929449571850806,0.014407445385458309,0.14326289867664999
9.42,0.13910304910509963,0.015113337918064679,0.10660725268025306
9.43,0.10934032446420384,0.030143043361611537,0.05382852467022549
9.44,0.09546212949443611,0.030956785631706903,-0.017070372227305015
9.45,0.08660180955209469,0.017116919472334347,-0.08687402102377252
9.46,0.06658211518934623,0.0021706727760632937,-0.13521432233755779
9.47,0.056624263489203915,-0.0056218549579283,-0.16048009616722503
9.48,0.0571106708304473,-0.003497166424902032,-0.1609841851784941
9.49,0.04241078841594123,-0.004600934733148603,-0.14342051405318657
9.5,0.030708784502042813,-0.018038284300623608,-0.11036255922086292
9.51,0.018408454935500255,-0.026212592048855135,-0.07915935312826901
9.52,0.0077535964660752086,-0.010304818723119216,-0.04622496167836773
9.53,0.015002591336342753,-0.006066289261830801,-0.009536887770536092
9.54,0.024264449783589992,-0.005085244282437128,0.04152124403016464
9.55,0.017119373674900105,-0.009154773626687616,0.10335327317689436
9.56,0.01139977822143054,-0.012134151340019482,0.1781457594274456
9.57,0.005087275086437001,0.008601862383272528,0.2480599654248211
9.58,0.009070012233232165,0.03271966400868312,0.3194350939675178
9.59,0.04266937679890195,0.055631603795465855,0.3728726964797455
9.6,0.09357774708863735,0.09069155919616792,0.394927430994028
9.61,0.1273825258071746,0.13090227526759712,0.37668097404976264
9.62,0.12777268948636092,0.16439516961647488,0.31054256207025355
9.63,0.09379189449902202,0.19095974064477636,0.2188247441694181
9.64,0.03669852766948927,0.23785075133543498,0.12907871037743415
9.65,-0.017560151319388793,0.26471406024003374,0.05877771163586729
9.66,-0.048587417383694105,0.27168784263812795,0.005139378548620756
9.67,-0.05261148050618184,0.2600592043173219,-0.04102161283623785
9.68,-0.04999469625616298,0.2587249380973714,-0.08026124044763397
9.69,-0.04990807952800505,0.27048881899220967,-0.10825887049442992
9.7,-0.035751483484992665,0.2710238469430127,-0.1310918664562454
9.71,-0.035629533816318365,0.25882242786244575,-0.15392877326305945
9.72,-0.04807117668381844,0.2642038505943176,-0.18150611233429004
9.73,-0.05161155952875008,0.2726153849376363,-0.21202098979704348
9.74,-0.0474137852946471,0.2530076423996029,-0.24332575129214062
9.75,-0.04418771385303594,0.22970094614981756,-0.2661146841279779
9.76,-0.0555873956808135,0.20533022235990384,-0.27591785924587925
9.77,-0.08384363746637086,0.1874152535177542,-0.26617078343407957
9.78,-0.11497334165004468,0.1873624405685419,-0.23938869650854258
9.79,-0.1432592452778696,0.20860482123667537,-0.18815871528560546
9.8,-0.17205563118421793,0.24461260495976847,-0.11295970635875074
9.81,-0.1838898100394931,0.2811641412496983,-0.027272404719488837
9.82,-0.16026063104506885,0.2951262210211613,0.04888325567898402
9.83,-0.11170978605577553,0.2929008795387294,0.10630835098132836
9.84,-0.07625413609933683,0.2800483106131038,0.12927208073001764
9.85,-0.06918251317999546,0.26073986704299634,0.12171528176494201
9.86,-0.09092775025997218,0.2282126188164368,0.09243361237990537
9.87,-0.12181309514594876,0.18778535262126775,0.0604975227058264
9.88,-0.14397550642925935,0.15312473104599647,0.03580557453588253
9.89,-0.16013898902826257,0.11635504616033292,0.015997841747183973
9.9,-0.17665851826722978,0.08611166795801659,0.0028975615229955075
9.91,-0.20327112066992134,0.057493410997741,0.002071717355410857
9.92,-0.22648771277780713,0.014548455344567049,0.013897696781242237
9.93,-0.22962923283777045,-0.03578204838265534,0.03134980765327884
9.94,-0.22809543930740164,-0.06697409154725392,0.05512438091480504
9.95,-0.21893006236513232,-0.06957384064500217,0.0868853642719365
9.96,-0.2041057978839567,-0.05083730829421764,0.11946437685000721
9.97,-0.18412751289324633,-0.023044867486376477,0.1385422753229054
9.98,-0.15578714069484523,-0.005900724807081209,0.1330583024988042
9.99,-0.11165848696443507,9.286062184172597e-05,0.09456489976921564
10.0,-0.05922248159446376,0.003636901054767847,0.026165967176195782
10.01,-0.007490680186492099,0.014847014852791237,-0.05988183532709999
10.02,0.03296830076320504,0.020671944958798424,-0.14345526281334425
10.03,0.05947510464070001,0.021489597722611935,-0.20232014143315194
10.04,0.0658793179176685,0.01874990393410102,-0.22277221793366825
10.05,0.057332639081307125,0.017868405537285612,-0.20513174795538514
10.06,0.050282410597207616,0.031087141043188035,-0.1664945778141794
10.07,0.05490070783270001,0.04757054672751207,-0.11852465716282827
10.08,0.05690246450096159,0.06306246820918762,-0.06903916737676749
10.09,0.04797437212136685,0.07518259973302822,-0.030596402924562092
10.1,0.037221614547587975,0.0740669849593709,-0.01651057260496966
10.11,0.020322850008502723,0.05703842984607704,-0.01978769771849885
10.12,-0.01170060121457617,0.03832866925130211,-0.026915531162064223
10.13,-0.03098535939127328,0.017762054737922833,-0.018447158901867003
10.14,-0.0654440289699236,-0.011852895597759828,0.02195744107412679
10.15,-0.11096622013915161,-0.04754092900032585,0.08892370292196247
10.16,-0.13217526089392498,-0.07176236698703611,0.17344076946616982
10.17,-0.14446000239045215,-0.07812132165747789,0.25643770652358355
10.18,-0.14881589070868836,-0.07004841305188376,0.3118082386501865
10.19,-0.15739472820376033,-0.052065255783334104,0.3311685002807285
10.2,-0.17705479799155333,-0.019766999534636575,0.32052978409093774
10.21,-0.17850613643986432,0.031048722801555403,0.286381503009301
10.22,-0.14835043172874654,0.08705703521823642,0.23742072794848276
10.23,-0.08011874949355444,0.1298887199132427,0.17718952628339565
10.24,0.02796620183899902,0.1482780881218993,0.11705506913552965
10.25,0.1290405193341967,0.15335062646578554,0.06898537035051222
10.26,0.19489681846903384,0.15786921201396095,0.021909362071261502
10.27,0.23026333218145892,0.17578641033375716,-0.034295553050896155
10.28,0.2316355105349724,0.19959962238281603,-0.09204709399385308
10.29,0.20932219820011283,0.20134220029460978,-0.13830393925054965
10.3,0.1807018682946262,0.18684843344393454,-0.16690235067703224
10.31,0.1507389131856285,0.17535409334222177,-0.18082431108198257
10.32,0.12517348363353037,0.16122657977265917,-0.1869083712289757
10.33,0.11054500963113388,0.13560760860516813,-0.19201085734741322
10.34,0.08564121578108401,0.10338089261069794,-0.19794190603516698
10.35,0.0220687936852577,0.07960477359825999,-0.19864123217577911
10.36,-0.053310219162469995,0.06233164644344388,-0.1862184283718114
10.37,-0.1000350205404452,0.05316149015061168,-0.1549075201632372
10.38,-0.12620266302272867,0.06358264063126147,-0.11461696306508072
10.39,-0.1430776637520355,0.07969565406921804,-0.08045037996610466
10.4,-0.15917419864953572,0.09172022802798276,-0.06231354640794388
10.41,-0.18542973727968148,0.10130913957763985,-0.05786753647143017
10.42,-0.20540622865305413,0.1076806370707329,-0.05201393243305995
10.43,-0.20510416320160696,0.1136073699057875,-0.03669951206279912
10.44,-0.19755324873611058,0.12025622278451843,-0.01971486863428796
10.45,-0.18682552280217343,0.13154459094261448,-0.009758187071341528
10.46,-0.177835254192706,0.13878375940328283,-0.0001332831105892172
10.47,-0.1814198915424743,0.13145400853668585,0.015063858017978925
10.48,-0.18573856000910993,0.12101174852468327,0.0346700838106076
10.49,-0.18656941398108104,0.11853239991097146,0.04289765166839267
10.5,-0.19018933468136,0.11495977244192049,0.026927178671601038
10.51,-0.2012621612107233,0.0982498793709302,-0.0104693717371531
10.52,-0.2027741893422512,0.07446942401902044,-0.06281503301722072
10.53,-0.1806868023706638,0.05182352958628405,-0.12775769536934103
10.54,-0.15044727943456732,0.03510460589011762,-0.2021692454185663
10.55,-0.12390143889579684,0.0212527470633229,-0.2775155414195214
10.56,-0.11868113768428082,0.00972781079642958,-0.3474584159688595
10.57,-0.13966149115398194,0.011725399805557783,-0.4011099191477922
10.58,-0.1635738802850172,0.029134279767091865,-0.4404880477633061
10.59,-0.1741506646029714,0.05178239325048166,-0.4629667204487948
10.6,-0.17797383555313093,0.0764004972756555,-0.46085735747413953
10.61,-0.17265579932789743,0.1079541197160578,-0.43422478912506357
10.62,-0.1505081451177182,0.15047290393204005,-0.3808437227041185
10.63,-0.1355086699918215,0.18974896925999324,-0.29681765270219285
10.64,-0.15409871839041714,0.20301946942533494,-0.20862220088131994
10.65,-0.18881898737501113,0.19224648838382685,-0.1371131791998791
10.66,-0.22223969175187977,0.1933134143113063,-0.08292255499531893
10.67,-0.23253797245286684,0.21199887798215325,-0.04363417722883096
10.68,-0.22977893415421252,0.2062197454603095,-0.013956433254148639
10.69,-0.22423698392128036,0.17871543940876625,0.011730292381084412
10.7,-0.21154458648805224,0.14791514002822162,0.02885979560741591
10.71,-0.1899436576523341,0.12077109396110128,0.027798600588720104
10.72,-0.15586254726796284,0.10433746445135482,0.011212470106182489
10.73,-0.12820275675233048,0.0942396212395861,-0.015740301877678584
10.74,-0.10812068589774966,0.0802893301453035,-0.039607416164773396
10.75,-0.07259376341190424,0.07257690604589088,-0.04820445645430602
10.76,-0.04113361356436561,0.09281376663437357,-0.05272218185745365
10.77,-0.0296900290450637,0.12347098188134951,-0.07362977071518025
10.78,-0.03532840669440611,0.15132022231599698,-0.1250902307985249
10.79,-0.05986605716427747,0.15285630887558813,-0.18266895554125245
10.8,-0.07910138796092046,0.12453069143385505,-0.20226063377316114
10.81,-0.09827165571685034,0.08529429215603969,-0.17776521104144752
10.82,-0.13070887463878986,0.07657206804285475,-0.13551021031219415
10.83,-0.15927747000709297,0.10834268081515293,-0.09987329478730918
10.84,-0.16665088826685517,0.14551886684276033,-0.08770942795282428
10.85,-0.16395289962236484,0.16836877023144234,-0.10518125231611619
10.86,-0.15563119708688283,0.19121351674883935,-0.15351083045546757
10.87,-0.14796005467188572,0.22264435632046659,-0.22776594935949473
10.88,-0.13156229936085673,0.22430737111048554,-0.31673205693298007
10.89,-0.13162111958738226,0.18314731363977302,-0.3989076046917585
10.9,-0.16936505988131445,0.1364986649699455,-0.45197545975664216
10.91,-0.18515266397279304,0.12651463192761145,-0.4510716622348695
10.92,-0.1734463894526726,0.11614424699268955,-0.40370514162553506
10.93,-0.16876405569769964,0.11897751571256222,-0.3338890002524889
10.94,-0.17040584894536176,0.12869897557164225,-0.24733181207175742
10.95,-0.18577733253538947,0.08698729692653924,-0.17064789260833224
10.96,-0.19640664357582316,0.05742629860762566,-0.10958752866082896
10.97,-0.18366148086131537,0.06376467979869134,-0.05992991162284835
10.98,-0.17283558167192414,0.09052719107743837,-0.044899428013634377
10.99,-0.16532141825418045,0.10853131827954342,-0.061509812093058815
11.0,-0.16151011311007427,0.09274012912654146,-0.09511323193418246
11.01,-0.1443624312507667,0.08106619692971875,-0.12224164512921784
11.02,-0.11138535250400244,0.0644735573829576,-0.12969580091063226
11.03,-0.09151464254222436,0.05758051851546636,-0.12688932856101198
11.04,-0.07818914417349764,0.07017161391385288,-0.11808659420740725
11.05,-0.06667737252067611,0.08357383069113229,-0.11817032283258135
11.06,-0.06248347160491459,0.07710002869685793,-0.11993737620935
11.07,-0.05622355625133173,0.04604905580616157,-0.11080220450068923
11.08,-0.06190222314991736,0.01659369804071578,-0.09332931245674897
11.09,-0.05648035861275197,0.021398012477314075,-0.09551194929392956
11.1,-0.02233022454946879,0.04294380682391378,-0.11254085575105975
11.11,-0.0005838521818761919,0.03737666015425316,-0.14354808043246076
11.12,0.01644496274309671,0.02471618767646759,-0.1770583012109077
11.13,0.021791454780957554,0.005011959101419532,-0.19828094691803444
11.14,0.006631792930439567,-0.012377775844989803,-0.21801929460723166
11.15,0.0045216252813326165,-0.02255519859951361,-0.2362453798403227
11.16,0.01763301512697399,-0.03339609482590519,-0.24613638516078548
11.17,0.014361831549990187,-0.04826952478401357,-0.24125786847495137
11.18,-0.007129439281267348,-0.05969158760215221,-0.20824836290157858
11.19,-0.05262683902171745,-0.04117893884239179,-0.1510714575566039
11.2,-0.10056650591495121,-0.01500708955474402,-0.08101321909000847
11.21,-0.13076233136810647,-0.016054072194457102,-0.0047786938963541
11.22,-0.148309273094736,-0.03730954513388926,0.051499307932212315
11.23,-0.13873187804444534,-0.04835973615346401,0.07998627908757197
11.24,-0.1166831729362496,-0.047480757932827605,0.09055055804526596
11.25,-0.09610998219009353,-0.030458308927119877,0.08793774711201553
11.26,-0.07330450050324516,-0.024161081274284336,0.09333574795393595
11.27,-0.06917730813297625,-0.03632040261732818,0.0897226176140807
11.28,-0.051329878993606276,-0.054800537098002894,0.0931262679077558
11.29,-0.018499250237544382,-0.05489456587483738,0.11166449238536179
11.3,0.023731033546438466,-0.02889927821926588,0.12308860641979195
11.31,0.051323045530251236,-0.006608689247172566,0.12806392937674402
11.32,0.0431894642407887,0.0028476724742158774,0.11067359806192459
11.33,0.05077049969604272,0.008963281792307407,0.0744652378356423
11.34,0.05673120776576575,0.01843569362844229,0.03161976631848722
11.35,0.05413927495697225,0.024712019586379103,-0.017854009362308063
11.36,0.05680002582240637,0.03492870439182751,-0.04841094283835961
11.37,0.030169284775662993,0.05217745406548574,-0.07182420807126925
11.38,0.02983196532848492,0.06325312148811811,-0.07754623722164915
11.39,0.05190631766135077,0.05931728135893821,-0.08053348240191122
11.4,0.048134061795822226,0.009149164956184135,-0.09256217928941644
11.41,0.029408000900288722,-0.031131243672447826,-0.09645769106575718
11.42,-0.026745106767052516,-0.028526273657604777,-0.09586709611736982
11.43,-0.07382065586903543,0.0009110254138139981,-0.10086701693033082
11.44,-0.09203397166039573,0.015267600738715604,-0.10696601062232021
11.45,-0.09759036160171687,0.003710634618946687,-0.1085151537047364
11.46,-0.09598826045288313,-0.023534360676725624,-0.07783955632803749
11.47,-0.11802033786683264,-0.06660142708799066,-0.02981109054005227
11.48,-0.14528273795842492,-0.09713718463818162,0.045212904147478986
11.49,-0.1378960986301255,-0.09833154834172356,0.15082424407748188
11.5,-0.10168204801441165,-0.07270279602359611,0.2645611478283684
11.51,-0.06413884986966595,-0.04015023011736213,0.3597477229588885
11.52,-0.05537498407709208,-0.006337311027088523,0.39658367629468627
11.53,-0.04135436641879056,0.00785005138702891,0.37407428162814765
11.54,-0.01781467726209784,-0.003505817724513471,0.3030016271458226
11.55,0.016505836329136624,-0.027385396159271845,0.20250289206231512
11.56,0.03716713143230449,-0.05841172703526261,0.1078906336953399
11.57,0.03882486621212757,-0.10602920792109409,0.02892220879397382
11.58,0.05364597012462509,-0.1468210358819307,0.0014401387570494187
11.59,0.06327485228107045,-0.13433117701406774,0.0030117181934637975
11.6,0.09803589080845239,-0.09851281984651492,0.015034379672889151
11.61,0.09631714112925353,-0.0787373877823028,0.013745283260785139
11.62,0.05530457380275118,-0.08235593827879586,-0.011644105458126294
11.63,0.013498815728660987,-0.10094441099903494,-0.061629405829092834
11.64,-0.007384751796345379,-0.0946173414840326,-0.11918955080871337
11.65,0.021258240941848736,-0.10144445243029906,-0.14462840746735062
11.66,0.022221763424429396,-0.12401117819234964,-0.1186368184597432
11.67,-0.0036386526355498723,-0.14269700367882823,-0.06234259916574668
11.68,-0.005595330256597759,-0.14553804104816673,0.02649324381493489
11.69,-0.0001587320319105717,-0.12199555982118665,0.10136557688500564
11.7,-0.0004084863760391033,-0.12396509517743906,0.1480644038134444
11.71,-0.042787477148377696,-0.1450759665632878,0.15526410789055506
11.72,-0.08452051288745349,-0.13906021409551989,0.10893601842694099
11.73,-0.09127061374384662,-0.11994865974978329,0.0328787562847087
11.74,-0.044969947398762075,-0.1114892815280157,-0.03913386802674018
11.75,0.03702533885836807,-0.09691027975792996,-0.0713375448593256
11.76,0.07707170199226125,-0.09510084957082975,-0.06775157233045248
11.77,0.10763668048134206,-0.10449867964576959,-0.03489364083467813
11.78,0.14624889649633424,-0.1048790217403172,-0.0008517652382662831
11.79,0.1851637506822168,-0.08556796511195512,0.04231609621468538
11.8,0.19019665676803613,-0.0736343334624182,0.10702715836774462
11.81,0.14747575668613486,-0.06805422775317378,0.1575119366948687
11.82,0.11461825697091405,-0.05236258018000636,0.15429467313318157
11.83,0.109139421593281,-0.028705715152045067,0.11360443627667688
11.84,0.106018948869952,0.013324501952339028,0.06993412012052147
11.85,0.06698062502337182,0.022117731969558612,0.0429259642025958
11.86,0.0438267954192019,-0.008731330640115217,0.03191164167313707
11.87,0.061462086815030584,-0.006158360613258343,0.04427435182780379
11.88,0.08631258294889353,0.04028430628753496,0.0785707940483079
11.89,0.1097933665108669,0.08563371644473594,0.1347329307327426
11.9,0.1164205200855428,0.12040658059830557,0.18943849817260197
11.91,0.11105652453255499,0.17558667034454345,0.18494335872304715
11.92,0.1260109870088211,0.22845649670109083,0.13836346690206935
11.93,0.13716350028758206,0.2890114856074325,0.07360241765270101
11.94,0.1385321237654436,0.2939975781126035,0.017449052045187995
11.95,0.09429814630615625,0.2727243934634222,0.0030905524586258178
11.96,0.054468559697327494,0.2754870659787452,0.01436625715521767
11.97,0.05213354599901478,0.2756271608496209,0.06963570234108686
11.98,0.05568023404546078,0.27539730503393783,0.1514426725591581
11.99,0.04814734915964683,0.2782183469190218,0.2340688135262932
12.0,0.016361105330377396,0.3180094703642603,0.27050618322746095
12.01,0.007428131694728436,0.3505853077736509,0.2437013405189708
12.02,0.02280856772135748,0.34831838387318065,0.1738403774998269
12.03,0.013576796763278267,0.3206084538840281,0.08302889137081215
12.04,-0.015203465407215157,0.2973477075333653,-0.004246756670478497
12.05,-0.03765617574225223,0.31523138051987776,-0.06544288916372058
12.06,-0.03659118934236688,0.3239798160980154,-0.0808083871355888
12.07,-0.004829438756051233,0.32718915124453357,-0.04814971236380766
12.08,0.011272361235500876,0.2873609291756788,0.02376465967999156
12.09,-0.019309029104465632,0.2570560574132691,0.09754100374928551
12.1,-0.046719456346663156,0.261408564402307,0.1440589299126169
12.11,-0.06989917069218303,0.29825838949692834,0.13886698246416912
12.12,-0.08630298274753007,0.3153161138572403,0.09255176087439267
12.13,-0.13655131918380545,0.3058663466347972,0.04251298650410244
12.14,-0.18312432314585664,0.2958435157776267,-0.011057657631112706
12.15,-0.19557482157510567,0.2860154412664141,-0.03591006078340487
12.16,-0.20369608101256068,0.28800019192724646,-0.042333935090769395
12.17,-0.2018616389406258,0.2724250558229043,-0.02565113929549185
12.18,-0.2064137323744877,0.24740417951956,0.013829163828912172
12.19,-0.2099673558991525,0.24205716752319964,0.051405479304451364
12.2,-0.19205796725232743,0.22700921523185236,0.0731683316785525
12.21,-0.18630155402039406,0.20006502379192526,0.06809191806246871
12.22,-0.18148066151063247,0.16296117807300414,0.0487998558409052
12.23,-0.20799461740647252,0.13509437535800783,0.024717156731514086
12.24,-0.22081301197190256,0.07560454586595312,0.004346995930953128
12.25,-0.2047984538718553,0.04336457449108461,0.007711400792441041
12.26,-0.16548450511996074,0.035372247613477875,0.03703519571909698
12.27,-0.12543970608115512,0.0493897547328436,0.09128366371221827
12.28,-0.1184831439922276,0.07466527618411777,0.1313841967091607
12.29,-0.07953090420791441,0.08289311488588037,0.1334542571206135
12.3,-0.029278326193150454,0.07736552674848342,0.10298883206619355
12.31,-0.009722529254475289,0.08038607312271259,0.05128505168894215
12.32,-0.018241578824720925,0.08230368804921077,0.011742719743546496
12.33,-0.04516005205209627,0.0808758691917028,0.00471021851276504
12.34,-0.05121261060663551,0.06871879368072627,0.015941766566063102
12.35,-0.030576844876158506,0.04495476056407202,0.05339646019870487
12.36,-0.010776884105563227,0.037997875288219275,0.09337824290033837
12.37,-0.01186695769295503,0.024579630927617897,0.13101376247371307
12.38,-0.03743285237801019,0.0029515859324268233,0.15718309815571205
12.39,-0.07728839588533518,0.024787754441499586,0.15225156866895506
12.4,-0.08720000411254719,0.06893626795198952,0.12867633654687816
12.41,-0.06663262613474144,0.07340205518054269,0.11507933511802304
12.42,-0.051115091358962285,0.07045650162789453,0.11100338018831259
12.43,-0.046197239007900424,0.05617691478055198,0.12837703492483432
12.44,-0.021543887265071813,0.09612587132358427,0.15525643663144292
12.45,0.05090192443677507,0.13268396675977334,0.18990337588122103
12.46,0.10964776278595519,0.16146026432174307,0.21139368054452312
12.47,0.1233929245086929,0.1838808779059593,0.23106115824115217
12.48,0.0996346412827773,0.20459124828388048,0.23906777037411542
12.49,0.07496315276445709,0.24006702113111114,0.21729928171581542
12.5,0.056826200040341335,0.26474833969989103,0.18906177127549295
12.51,0.025476586668239112,0.2558264307587134,0.15787120368649452
12.52,-0.004000457424580211,0.2122773563900772,0.1370887399560279
12.53,-0.02924928680810226,0.1911575692837682,0.1251065351743325
12.54,-0.025305390801843793,0.16786529316052515,0.12220033366571108
12.55,-0.028759483118550103,0.1344750626079726,0.11371130606419438
12.56,-0.054117543128989594,0.106935392661948,0.1047354604654692
12.57,-0.07520088532762204,0.11880763023188805,0.09306616281142086
12.58,-0.0747335671997848,0.12684606284338218,0.08358060994396174
12.59,-0.06620445961277831,0.12287519257758106,0.0836805249035745
12.6,-0.06911544821837924,0.1285017133966445,0.08854553504464738
12.61,-0.06921378814173461,0.15952694035359083,0.10092011354917849
12.62,-0.06506425176206367,0.2074311103134039,0.09867104182895425
12.63,-0.04272516392740451,0.2311704621865069,0.09609770991094659
12.64,-0.022688029073770554,0.23767621065976624,0.10808638868089764
12.65,0.0060298228519509245,0.22108185393966526,0.11824021226515855
12.66,0.053348391328160674,0.2262404035477741,0.10295545211021062
12.67,0.09500915074229568,0.2613305912872682,0.07341764430075909
12.68,0.11794031318875457,0.27578132548538997,0.04845434403728918
12.69,0.11206133967413168,0.2538207645714856,0.03502617984960693
12.7,0.0627267113613496,0.22574902811842246,0.014355677669072543
12.71,0.013121503713074929,0.20459475782621434,0.009832901579554167
12.72,-0.03934327286369053,0.20410409577536265,0.027749619304509775
12.73,-0.09087803191766482,0.17934061536386647,0.06348525398324277
12.74,-0.1498638887706582,0.1587640219506801,0.10759340629518219
12.75,-0.16257644844380378,0.15324410184731668,0.142750072467716
12.76,-0.13143448145502923,0.15937938688010134,0.16277849804745875
12.77,-0.10337061948611129,0.17424187058187818,0.16728147919819958
12.78,-0.10621806996255827,0.18676880369592333,0.15395066496927678
12.79,-0.13083880091245503,0.20019842627671755,0.10811695580758313
12.8,-0.14679166102025168,0.2248488477680983,0.037536393904578316
12.81,-0.0961505989020994,0.2500387589300911,-0.025302821738746324
12.82,-0.03303104882069846,0.24819005502811034,-0.061639365461255126
12.83,0.0028420867774746985,0.20307649799217325,-0.06474810191323688
12.84,-0.0035256136039698302,0.20334582336961643,-0.04827071181691241
12.85,0.00989422950839291,0.25632099454475354,-0.021987655741799828
12.86,0.017259593200934197,0.28303380832380637,0.007632377411512042
12.87,-0.017900243475129116,0.2880510577411761,0.02272803477425201
12.88,-0.06523064020586307,0.28785072744110196,0.012442550597147082
12.89,-0.09771446620835016,0.2853762147452653,-0.019778507746246368
12.9,-0.1207764134547109,0.26809154710770483,-0.05522405877764229
12.91,-0.16587649601655152,0.2659425034183668,-0.07892561780819293
12.92,-0.20337006808133695,0.2547578553468444,-0.1079938455010465
12.93,-0.18569326403947603,0.24038063242167543,-0.1455234080083876
12.94,-0.12701761367764386,0.2886522383868306,-0.17488323985370255
12.95,-0.05815396673057582,0.31052269326768595,-0.1816522718304823
12.96,-0.046948215262536244,0.25890262408811104,-0.1630085975348627
12.97,-0.08951378809883404,0.21028695772478584,-0.113698416560422
12.98,-0.1463691025644311,0.24277120918108755,-0.021757420343800037
12.99,-0.1728675404028916,0.323085315769364,0.09751870441630296
13.0,-0.18681692841496747,0.3618707218874978,0.2225580588918511
13.01,-0.21288882321108296,0.38523774620445755,0.3008924914266744
13.02,-0.19481408469756203,0.43519387997520714,0.27782168288645637
13.03,-0.129195354195846,0.46854774498881413,0.1595625983189572
13.04,-0.11403550140732475,0.4590848823855003,-0.02742188999373904
13.05,-0.1615660255180905,0.4244930571204709,-0.2448947553393946
13.06,-0.1901006240334247,0.3470948585773557,-0.43856915316733575
13.07,-0.18287080536793537,0.24916773959515862,-0.5634606224735933
13.08,-0.16099897763751317,0.17980743993631162,-0.5860363391298778
13.09,-0.15790541250407505,0.14992848240695902,-0.5287548825795523
13.1,-0.1672180836123863,0.11726581812629343,-0.4271172042252487
13.11,-0.1693897403508524,0.08367113939134327,-0.2824459865055562
13.12,-0.18185609980922993,0.09130933864090389,-0.12256771728280136
13.13,-0.19781424279630838,0.12671285794744971,0.010876642825997233
13.14,-0.19974099944107704,0.1581213834424966,0.09381816175732466
13.15,-0.197116105755122,0.16738758158687325,0.1347265131606527
13.16,-0.2145199202243991,0.16453691231000753,0.13675846922499224
13.17,-0.22304668879691142,0.14247288657272097,0.12353482990753514
13.18,-0.21466876270127136,0.09647776690495402,0.11866426509662262
13.19,-0.2143319477803883,0.05795009512673356,0.12146371656665514
13.2,-0.23851796391206442,0.057182855188551714,0.1345670180433891
13.21,-0.2545766151711961,0.08905409531497917,0.1499284131618151
13.22,-0.2303157287907965,0.12388927101671549,0.15074910281568674
13.23,-0.17538430606360042,0.14230378875767466,0.1451569362756971
13.24,-0.11278489495134525,0.14549731685877385,0.1429873423405224
13.25,-0.0518327635114264,0.15436467940737486,0.12857291389932382
13.26,0.019190209494843444,0.18067014899343184,0.0954196917428703
13.27,0.08637286333126717,0.2188281241033278,0.061363115326244284
13.28,0.11761863123217692,0.25405902843949746,0.04724335931377463
13.29,0.1137092247474444,0.2883945814162048,0.04846283299324279
13.3,0.11171541674665654,0.33784947043389085,0.0555419861097681
13.31,0.13355184768455308,0.3849975417492695,0.07211111221289976
13.32,0.1391753362154447,0.4079859880331434,0.07524854996786463
13.33,0.1015006941222541,0.40011215734378414,0.04894304346824983
13.34,0.04661673570794435,0.4097394283358334,0.006628708473170848
13.35,0.0033033557400006623,0.46332060224383786,-0.040330920145190206
13.36,-0.03014162352840774,0.5049839964581501,-0.07576234986982675
13.37,-0.06863614351906824,0.5234993017716438,-0.10805199570041987
13.38,-0.08334756902842626,0.5145564711869739,-0.15873550121802293
13.39,-0.059238641547657574,0.4762193795836678,-0.2049809162723839
13.4,-0.02479505939396115,0.44720096945075155,-0.21135608004661868
13.41,-0.023050585262092364,0.44340350262779166,-0.19061298841619384
13.42,-0.09575001377241965,0.45336710039142364,-0.17195591973774982
13.43,-0.20781663771815734,0.4646806047287686,-0.1424227709640269
13.44,-0.2840497438010149,0.49490404590650744,-0.08970492949872043
13.45,-0.3076609500817932,0.5375939049106861,-0.016452462435985252
13.46,-0.324672999801866,0.5587775342699393,0.0683864386986198
13.47,-0.3409536920763251,0.5592252134496549,0.13464990610088612
13.48,-0.31818138840265786,0.5532019360887266,0.16062177145498502
13.49,-0.273925683267795,0.5573005143525828,0.15210215613354716
13.5,-0.2561654206763726,0.5632305076274327,0.1283156082034814
13.51,-0.2880581837535334,0.5468355566643893,0.08846716645372359
13.52,-0.3155148943891873,0.5035251300435134,0.04083632758977751
13.53,-0.30689709863958625,0.45594127128376777,-0.0014274774959461443
13.54,-0.30396651386634527,0.42724460344752696,-0.039205547338281556
13.55,-0.3308524935560296,0.38980213756806337,-0.06044947237169588
13.56,-0.39441099423892567,0.33704213091277074,-0.068207310042016
13.57,-0.446841698780111,0.28757851747033986,-0.061711605947987254
13.58,-0.4552654208667075,0.2675668043724831,-0.02688305939944829
13.59,-0.42847298733632966,0.29386108632711927,0.031892699085457527
13.6,-0.3996278002617774,0.3123661117886209,0.09049441483312667
13.61,-0.4107926373052969,0.29251704864378586,0.12082270122825467
13.62,-0.4388845503676821,0.25705554314537554,0.1301916461771406
13.63,-0.4679012140725528,0.2319331945694351,0.13470865314835173
13.64,-0.4792273527557805,0.21807079358583603,0.13046472940240253
13.65,-0.46094548010611014,0.19751701527977536,0.11040394845825743
13.66,-0.4573092015323293,0.17083212089509242,0.08049219695755574
13.67,-0.47689152593055656,0.15373036526065542,0.04253774154088939
13.68,-0.48380450076285586,0.15959728266998122,-0.007379512348343416
13.69,-0.43788241543911116,0.19443347656377757,-0.05051661305618327
13.7,-0.352648858976758,0.22640606394931295,-0.07278801280606835
13.71,-0.30391000230998744,0.22471794873086126,-0.09276245116362185
13.72,-0.3110699568090668,0.20152543565217398,-0.1295579175553227
13.73,-0.3145955548249841,0.18791326586449048,-0.1601856937717846
13.74,-0.293376648144525,0.1915529954137977,-0.15189958924659236
13.75,-0.2795888020344364,0.19473402506504844,-0.1169789649056523
13.76,-0.2720664231446537,0.16627373662308334,-0.0763172146416939
13.77,-0.2665319259318867,0.10887772655310562,-0.03544993253078237
13.78,-0.2402140933347447,0.05068717394492311,0.012884898806787119
13.79,-0.21466610274943548,0.025980654293160606,0.05249953225069138
13.8,-0.2211868397614358,0.03242506010968115,0.0699617048737412
13.81,-0.26272828584201796,0.04049880549088922,0.06502402015115424
13.82,-0.33103755166062737,0.07615981518209047,0.028037128165670812
13.83,-0.36123460003212543,0.11854877064594045,-0.031117311058154337
13.84,-0.3175531655027863,0.12230653794033491,-0.09343323383453365
13.85,-0.21116809094983943,0.07207645653747874,-0.12688130422649715
13.86,-0.10965696411193658,0.0004981441291864644,-0.13626616967710556
13.87,-0.058580723693243034,-0.03516258148326641,-0.14960252614095013
13.88,-0.043564859360287624,-0.030549267616230117,-0.17783947067648564
13.89,0.0022057344380424196,-0.01531616743408401,-0.1941418512136871
13.9,0.06870575726596082,0.026689259527091072,-0.16936875789305236
13.91,0.07903821137473095,0.05719017568427224,-0.11744316058981057
13.92,0.042431611264383204,0.021874243268029177,-0.07201122275768661
13.93,-0.014294090847038149,0.02895248557700727,-0.03351751071440997
13.94,-0.08002312202650018,0.11447294693249624,-0.005361243588306555
13.95,-0.1297782166728851,0.22803322654090533,0.017968994805665234
13.96,-0.15805391030802435,0.30368857370964675,0.02763125587076603
13.97,-0.15508784068530135,0.3332345970981159,0.019504365147945124
13.98,-0.12703372533430837,0.33872053962264326,-0.0026000355047555105
13.99,-0.07831907922115909,0.33628149288849196,-0.032484882670545306
14.0,-0.018264749241710693,0.31301894559088417,-0.04466341319151404
14.01,0.035125848477352055,0.2236282141008286,-0.021282947530885988
14.02,0.09635794344717787,0.0779018123733554,0.023372941502759148
14.03,0.15908294493471872,-0.06658794097478452,0.06941180371030704
14.04,0.19266710489935232,-0.10980423625896318,0.067472423716296
14.05,0.22776147803333294,-0.019638638071996745,0.02117152453857233
14.06,0.22973793363701264,0.12399334766787458,-0.03326948789676252
14.07,0.19904261118197242,0.20201333335086424,-0.06576065716335344
14.08,0.19587121514934025,0.18125540625237324,-0.028293343009762183
14.09,0.166771504850702,0.1119729375241027,0.02159530066324036
14.1,0.17065751514403413,0.015693611836276013,0.07425913194144232
14.11,0.1581712801105239,-0.07238633545935279,0.13662782501624007
14.12,0.10965870264764008,-0.12016446578024104,0.1947967339816442
14.13,0.017310905539009915,-0.062051116529750754,0.2205737664010052
14.14,-0.042046468595092285,0.16437214393479674,0.16857953597589626
14.15,-0.06374990401994673,0.4069665229400698,0.06389652833499954
14.16,-0.09052389460251067,0.5567626506452749,-0.030110809662429523
14.17,-0.10725653842091526,0.6063617030779513,-0.08485946903625972
14.18,-0.11079298695071896,0.619729919518183,-0.12508625512681187
14.19,-0.08366476827680353,0.6148054147618301,-0.1579136686595357
14.2,-0.013223564444733686,0.5978529179096249,-0.17189813435077791
14.21,0.03735629239516161,0.5049905245930175,-0.12802489152842247
14.22,-3.942245358628269e-05,0.3453250185048484,-0.049791261421079244
14.23,0.0019401336388972731,0.23449308582414868,-0.004617998784977467
14.24,0.05205233790388693,0.1620467590810429,-0.0014036375987993865
14.25,0.05660140254701617,0.21944691392984275,0.00026965849419398146
14.26,0.019438172215810637,0.37292453144069615,-0.039924264521458044
14.27,0.022157108312201343,0.4246239171150765,-0.1509373582826738
14.28,0.042429972424233936,0.3855023932652705,-0.22185599317842372
14.29,0.05460784560200274,0.31840277283382407,-0.2356235588341466
14.3,0.036496310324553714,0.2502135718138911,-0.16394911146821092
14.31,-0.07879796743477203,0.19089902981503662,-0.05212968457069429
14.32,-0.1465749038684335,0.17431037297362575,0.05229128427394623
14.33,-0.09420859656520662,0.13931464203734995,0.1409602299441508
14.34,-0.06364842536586571,0.11528846505525028,0.29654044821067727
14.35,-0.0620961363564421,0.17284650165287527,0.5114171774381622
14.36,-0.012707958762837339,0.31014529079849495,0.5996803909235662
14.37,0.05212456045796027,0.4566049493401347,0.5623818093336538
14.38,-0.0017392021143675176,0.5836952261505476,0.4643637355613654
14.39,-0.1820452409390472,0.6026448790299229,0.3414633227639485
14.4,-0.304132467536456,0.5793908756688243,0.1765703141753614
14.41,-0.31964639194626315,0.5698267448142391,-0.0006959394205234913
14.42,-0.2897937487298932,0.514413936198672,-0.10462972596090016
14.43,-0.19560810700169926,0.4104917321878242,-0.1151283746754706
14.44,-0.07469395893955805,0.31316697006751193,-0.139644848334773
14.45,-0.041717353000968245,0.34633526102248485,-0.16853503785390164
14.46,-0.07107086453450606,0.4350395900620279,-0.20960127038675722
14.47,-0.08287601280788251,0.3688650720208851,-0.27449491888945005
14.48,-0.10921380925487799,0.2226920894471901,-0.3226287546713626
14.49,-0.20556312436434016,0.1477926597512242,-0.35778631580776044
14.5,-0.29211836177719014,0.17181175935224477,-0.3486533311451598
14.51,-0.2486772111841368,0.1301501338091414,-0.23721301555905236
14.52,-0.30725871730132703,0.028206184118099147,-0.032907126943532206
14.53,-0.37293301649205557,0.05776909212290208,0.19319838351000249
14.54,-0.31147276441670946,0.21016281764067737,0.36181878076245677
14.55,-0.2394438158515778,0.4108842983044489,0.483869148935871
14.56,-0.1769654286262631,0.5415408120642273,0.5513190890510618
14.57,-0.20108391554497074,0.5271810656423958,0.5506863656683778
14.58,-0.31294987884895115,0.47732962704560766,0.48457112329720914
14.59,-0.40787762263826455,0.44266317032784475,0.3612438459219817
14.6,-0.3039038851373156,0.3653891007074569,0.2612185172537051
14.61,-0.15981991744082436,0.25474706409817055,0.23164294549316194
14.62,-0.05832089878529707,0.24530200177797196,0.2434810688815879
14.63,-0.00830699154736675,0.28611993300218747,0.22985591883859505
14.64,-0.038821957275580916,0.37378739602776984,0.2461977426097412
14.65,-0.13980513902406239,0.46939866015002246,0.2587228222180419
14.66,-0.26623105273994285,0.4193287864450693,0.2356152329136998
14.67,-0.3923165482318471,0.37537893058740013,0.1558644517889351
14.68,-0.3741724885056057,0.4186817132296078,0.050633533045666014
14.69,-0.2900624206778091,0.43418935684100823,-0.019064006345335113
14.7,-0.19661816887241435,0.3243911099105461,-0.03735655678320801
14.71,-0.1291057905713803,0.15454366946676423,-0.03862382077803879
14.72,-0.053158055830092865,0.10127431501120353,-0.0750939237297082
14.73,-0.000680806366953472,0.19189905005904345,-0.08649443774309629
14.74,-0.031145889974962957,0.3166068040181679,-0.08914044039489986
14.75,-0.05555015831026553,0.3083603378506787,-0.08555613946879859
14.76,-0.036406175931054156,0.24211830266998458,-0.05847442652948187
14.77,0.000769890814609703,0.2555461139296807,-0.021476664967334053
14.78,0.0379532035166504,0.3252058795292363,0.023150505297098944
14.79,0.060988786173981534,0.3428005928775446,0.08855082775225563
14.8,0.024235858029494503,0.34210619791581093,0.14329127521412127
14.81,-0.034421357052031795,0.3527395134134655,0.20033218322589494
14.82,-0.09214642937187258,0.4009384324502057,0.226464831447922
14.83,-0.12719501489590682,0.4435183100593838,0.21077835113056284
14.84,-0.17608299615530992,0.4847733235732714,0.16024823741454652
14.85,-0.19796660505507419,0.5935861172467151,0.09203792275612578
14.86,-0.17346088468516238,0.6732276826636501,0.01884279104292859
14.87,-0.13177793762062248,0.678479209940011,-0.055589245262833986
14.88,-0.0532752418432942,0.6272338869609625,-0.12487899870613119
14.89,0.0193279194883481,0.5359265463978744,-0.21471363122010362
14.9,0.05489174773711997,0.4226856320358688,-0.27217332530076394
14.91,-0.0083570973659062,0.28920732270661664,-0.2925420262666533
14.92,-0.05097335212876224,0.19197788055719786,-0.3207966914019379
14.93,-0.0015380012942877615,0.06858100399140095,-0.2568302064796093
14.94,-0.04566550568463226,-0.06257705041122104,-0.06861017441417416
14.95,-0.09534612330678159,-0.004283022626945704,0.14242434737004625
14.96,-0.10849288467807341,0.20642069920137612,0.24071704978012817
14.97,-0.026820050172114075,0.4964979289570279,0.23119949033247622
14.98,0.007596079085808773,0.8086627721453161,0.21621145688024598
14.99,-0.06415479465136761,0.8782754051586426,0.2396595506515784
15.0,-0.21841477151881422,0.7593292727957446,0.22368752271154171
15.01,-0.32502984999524037,0.6869546158830868,0.15484476967881747
15.02,-0.4370757621816421,0.5804876046849624,0.11684984360996235
15.03,-0.450506345298697,0.5149999478239856,0.15733221616090134
15.04,-0.37931940143416965,0.45288794798573506,0.2189425029523956
15.05,-0.379869946449286,0.3505126063032392,0.22975885704570972
15.06,-0.4346505256693343,0.3193385448236009,0.24255011515050712
15.07,-0.5024531424306947,0.37611344635054655,0.2725151179480882
15.08,-0.6445736499067162,0.39834825838681853,0.2870569112292248
15.09,-0.720779672799118,0.4017574319877417,0.2570131550895568
15.1,-0.5740807044432108,0.4376736185109473,0.23157468203181902
15.11,-0.44189378702439536,0.4551990441488499,0.25921879487750665
15.12,-0.33364161724591723,0.43848759708830903,0.2733317643447514
15.13,-0.21763977695240652,0.3738499965020562,0.22902135658587344
15.14,-0.2195504183184998,0.3497444443819464,0.13274535430651993
15.15,-0.2886921528971087,0.3163112353398774,0.06012228335913483
15.16,-0.3408654797816777,0.21254499124567494,0.01863593925817282
15.17,-0.35988828535424805,0.13520799214524562,0.0021861564706992607
15.18,-0.39058328060675535,0.1354072266725729,0.04319941804581577
15.19,-0.4470600838861344,0.22018611751442685,0.17552888597613694
15.2,-0.47004194101930286,0.24301880829017913,0.3131549061994155
15.21,-0.44281170382204305,0.318896534901967,0.4158155570339317
15.22,-0.3699883014848245,0.4379874318446711,0.517991295567117
15.23,-0.39571178324946155,0.5068275875071485,0.534142621214162
15.24,-0.45388451496904797,0.49003235027592956,0.4095562380182546
15.25,-0.46649491663753334,0.429043898238478,0.21682017476173843
15.26,-0.48537308504329374,0.3453402257248325,0.031743439478763166
15.27,-0.5011110786031773,0.2498633707497105,-0.10690946623372555
15.28,-0.45258319279860676,0.1279733732580875,-0.17993236288264322
15.29,-0.3834575335690414,0.08301983617043023,-0.15409073379211646
15.3,-0.34390686582876523,0.13071274254359605,-0.03505366243174977
15.31,-0.30690759154033576,0.11850452393453775,0.11124957791725608
15.32,-0.35800076265568703,0.12772478938629422,0.19752353372002304
15.33,-0.4035191495139174,0.24557734457632774,0.24237320945311017
15.34,-0.41894799312318326,0.3375924651451648,0.24051722839402162
15.35,-0.3882410529256254,0.30878979489307296,0.18234564117713334
15.36,-0.3731466260226762,0.27694221257702634,0.09320162102215446
15.37,-0.411297035501532,0.36355270853298033,0.009259563791541473
15.38,-0.4094538962905107,0.4367918529606787,-0.04784601125784294
15.39,-0.280274918298875,0.39799838896134665,-0.07976814892998668
15.4,-0.27204466271116345,0.3869870775219355,-0.03362751587860464
15.41,-0.23954837196028436,0.43678104527675315,-0.01726252392786402
15.42,-0.17349969006330695,0.43415116843008145,-0.0589165313157642
15.43,-0.17741018144481377,0.42501569743040046,-0.0900322590076806
15.44,-0.20575470390284004,0.5033187991799049,-0.13380396127659797
15.45,-0.19076583385844637,0.5749331320830823,-0.16651646414186855
15.46,-0.22317420095132878,0.5648693567354889,-0.19782778148233515
15.47,-0.24428541931429865,0.5194823042679582,-0.24498885251984656
15.48,-0.21203679648673568,0.43422478697778605,-0.2852005273003642
15.49,-0.1862021093893491,0.29416752467406104,-0.2695387873481337
15.5,-0.21195076912762986,0.20422925465996541,-0.23691021745496219
15.51,-0.24715011690857405,0.14865867888008713,-0.2067860006479713
15.52,-0.30105039569002473,0.12990832485494352,-0.17773345854233402
15.53,-0.32857310150948776,0.18794544413550482,-0.1158256605011828
15.54,-0.30394977258359607,0.3038261525017537,-0.03615165194528002
15.55,-0.28864458076123556,0.4028680095928742,0.07726485851360633
15.56,-0.29369825013362716,0.4065031539610668,0.16942144053914626
15.57,-0.26448880621598075,0.4103559796648195,0.207755019556513
15.58,-0.23436126625825393,0.42978483950147467,0.19000778879302876
15.59,-0.2306090146375699,0.4221693533395864,0.14029538982121956
15.6,-0.27226734694277976,0.34990484208684025,0.04597969076017489
15.61,-0.32732975522680574,0.2528146630015708,-0.08254063248644967
15.62,-0.3772378097401556,0.22207796279995562,-0.1953213278483034
15.63,-0.36506140185895825,0.24205845783230606,-0.2446127463349706
15.64,-0.34075819976428273,0.22390653482536088,-0.2289144529144817
15.65,-0.330494291676643,0.1735868062132701,-0.18356640160351215
15.66,-0.31595155640023453,0.11975101507405005,-0.12661058178123313
15.67,-0.28003081657590767,0.08822561967256931,-0.037254576453003584
15.68,-0.26479549283989967,0.11480734711023581,0.06532362833474734
15.69,-0.2667875845239862,0.1401022452331824,0.15405422872700075
15.7,-0.262509688615347,0.1471276721748612,0.21334493372157626
15.71,-0.2694924441799359,0.1852031190174996,0.267675345706832
15.72,-0.29956198702183695,0.2525386693848954,0.29969978159361704
15.73,-0.3064368876310278,0.2892728302840102,0.24916942011318147
15.74,-0.28152184577646927,0.27802086090250333,0.14405335551347595
15.75,-0.25431632307887153,0.2947168601355764,0.039720476076929204
15.76,-0.21873618903349706,0.33033784943195776,-0.02785257491059278
15.77,-0.1963364794926852,0.3380166103474174,-0.07447737290653601
15.78,-0.17118432947262088,0.35064829097479755,-0.09709993972223013
15.79,-0.16253119287445886,0.38405477973086616,-0.09068035764615089
15.8,-0.143630234795541,0.358901244320566,-0.05635691502889161
15.81,-0.13959549375114363,0.24705454812034316,-0.042262613622155144
15.82,-0.17092757295953673,0.14572730223916763,-0.055792327650129696
15.83,-0.24175278800967842,0.13155705264224204,-0.06049605080707598
15.84,-0.28141307806663995,0.22727829222623,-0.05530636993601706
15.85,-0.30159945381871495,0.2870387659618917,-0.017930683921604112
15.86,-0.3499415986076771,0.24992736831959875,0.01645028150434843
15.87,-0.3419025119329526,0.16726519693257086,-0.007101546385541981
15.88,-0.28004119748059186,0.13583055226764354,-0.06473569263391156
15.89,-0.24501601730406097,0.1649201015191444,-0.07725617751327224
15.9,-0.24857217152623506,0.18280718594064424,-0.06724385664918327
15.91,-0.2644964595010623,0.16474595481289278,-0.0577503282645856
15.92,-0.29484327972861774,0.1416156625679674,-0.05554906372091925
15.93,-0.327601905428767,0.08340228747486672,-0.0224885934010147
15.94,-0.3365641888693302,0.04126046385335133,0.04380173558042768
15.95,-0.3146406763472335,0.07906359284116576,0.14204779120815708
15.96,-0.2901339628939591,0.1726158737672787,0.24939478601081594
15.97,-0.2510427022339172,0.24156929880489825,0.3292277459535635
15.98,-0.2175532231041747,0.25617259090310823,0.3543248159135212
15.99,-0.20226225558394675,0.26249847790209313,0.3019712106498836
16.0,-0.17242347946391667,0.25615675110736413,0.2100291367429311
16.01,-0.18414333945644315,0.2146849490843422,0.11264267117544179
16.02,-0.23421516949822407,0.148369843496104,0.042479715864667075
16.03,-0.26184006699547935,0.05340540264223153,0.009216766193324672
16.04,-0.21772752776169113,0.04484092899050999,0.01565367679212786
16.05,-0.16534559249510505,0.1299546916397708,0.08469927134383755
16.06,-0.1420790312535283,0.1858109649624264,0.16846392944527555
16.07,-0.11522381848827007,0.1579844879703332,0.20539166651735913
16.08,-0.0998955997689051,0.16109511322792683,0.18774242570784216
16.09,-0.11183292122145866,0.19648831206227205,0.1484723743049382
16.1,-0.13430017750931547,0.1802598518999218,0.10542310637529155
16.11,-0.19227164282579381,0.11389085294004649,0.05038373798727822
16.12,-0.2539851689410562,0.07075168028272326,0.002942228230592048
16.13,-0.264039344620995,0.08857037273403474,-0.017983525440062854
16.14,-0.22382342662834218,0.1335577343937275,-0.00839630183596013
16.15,-0.213160276330295,0.1315413763340914,0.0162415623970295
16.16,-0.23430843863251688,0.11229773365843446,0.03247302279788898
16.17,-0.2408855194971027,0.15083505204452752,0.032932793590838734
16.18,-0.23215083303267245,0.2301511590214895,0.019937882827757585
16.19,-0.16442123038976444,0.28448786550684035,0.01955022467427334
16.2,-0.09852772089095403,0.2503460390786664,0.042033334410786875
16.21,-0.09045198701176001,0.16488832658784972,0.09647804066530542
16.22,-0.040182883155424474,0.1072739566147916,0.18279089995420975
16.23,-0.0010140992420619218,0.10703187960755164,0.29642552331678423
16.24,-0.02063787207343701,0.2069378675999783,0.4032718485266186
16.25,-0.009079387915748216,0.3299706232021075,0.4557476196222715
16.26,0.01408234607926966,0.3787549455003472,0.44029475610330204
16.27,0.008664231023736525,0.3696232788553816,0.3816284505713438
16.28,-0.034973194073774125,0.36699292329105637,0.3228544291353667
16.29,-0.1049566358229873,0.3912238448528257,0.27096669056987993
16.3,-0.1477230588595062,0.41667109529177204,0.23914370189110506
16.31,-0.12325060858012223,0.4172046207077025,0.23271454468903566
16.32,-0.07294846153857187,0.38064177761594764,0.22618984113945048
16.33,-0.022981981825040215,0.38304675189246995,0.19789961671525466
16.34,0.020478133978156753,0.45645229311435875,0.12428498805444155
16.35,0.015144631816060768,0.5035160219539695,0.026690463873125354
16.36,-0.028482730088587083,0.4613727912067355,-0.058256036552574456
16.37,-0.09112652861962339,0.39596589350254063,-0.13660399840883153
16.38,-0.16314058609903417,0.36389518881718014,-0.209803462820766
16.39,-0.20634020542640918,0.32742258029821697,-0.24762108888032058
16.4,-0.20960594926437487,0.29146429978365773,-0.21477219284996193
16.41,-0.21900863800819853,0.3027375983547702,-0.11756337202879887
16.42,-0.2254852648698768,0.3370935900583169,-0.003974273298246676
16.43,-0.19923008835663272,0.35401380920497266,0.06256507355384737
16.44,-0.18868048328187007,0.34159128544506073,0.05524342331132067
16.45,-0.23116784946752153,0.29489067986591705,0.00486578083270654
16.46,-0.2894476941553314,0.21028073507687114,-0.0533271883907076
16.47,-0.326293130866272,0.13510118894453832,-0.10403707804873877
16.48,-0.3660048360625993,0.1447225290928547,-0.13451942644487802
16.49,-0.39874015186144884,0.1845134416744378,-0.08766907715290796
16.5,-0.35545768877041306,0.19466011532750435,0.05093567735001016
16.51,-0.22747889376934574,0.18907311205119356,0.19015469866226936
16.52,-0.1106567707014929,0.17372583509885267,0.27057350110988987
16.53,-0.08800375801612437,0.1835174706948017,0.3064702374966657
16.54,-0.1855086769191302,0.2551149081385186,0.3009704408101666
16.55,-0.333401885257087,0.3184353591853639,0.2592094179291128
16.56,-0.4531232293418081,0.31835144754888833,0.21224518625658506
16.57,-0.5258875814422386,0.3449224551585186,0.17119904683529452
16.58,-0.4907068355762131,0.3767039548176038,0.13362309644256856
16.59,-0.40139472491769745,0.32999317525353955,0.10046416962360341
16.6,-0.3262158471041491,0.2591056078469498,0.07524260688292861
16.61,-0.25751745806705606,0.23422576666209013,0.038859108813485595
16.62,-0.20023703789157307,0.25770994659894886,0.007311248178821636
16.63,-0.194880169344033,0.27966921881975365,0.0006593419422251432
16.64,-0.20964790591779248,0.2817859303325305,0.0021375613692483602
16.65,-0.19622096967935754,0.28703267431995017,-0.0037961758429312814
16.66,-0.18479101501242048,0.3053003300280463,-0.0038467602191494077
16.67,-0.20562870870116046,0.3131057506553819,0.009222410991221845
16.68,-0.22539525092744617,0.28304525196454455,0.02459881188164702
16.69,-0.23543876179264114,0.21722275918583686,0.02337196338954818
16.7,-0.2380647878903539,0.16748793947870563,0.03417205751159973
16.71,-0.24975000488175736,0.13421694363975753,0.08416164640420043
16.72,-0.2862014129012808,0.07836967196714206,0.1651096364970915
16.73,-0.28573171924498775,0.039742514177833595,0.24893305001034954
16.74,-0.23061407807419315,0.060464089979393745,0.3243100611824782
16.75,-0.19332143300813756,0.10514348854804595,0.40000838985502973
16.76,-0.17088601974177314,0.1461906943759002,0.4455588568713129
16.77,-0.12605518847904035,0.17134885839817762,0.3953430445752073
16.78,-0.0996234872197576,0.21635872845811965,0.26791079707389703
16.79,-0.13645922763523294,0.27640666636918576,0.14756153238572578
16.8,-0.19951148699271706,0.33522000976149846,0.020886396458002297
16.81,-0.23543665905938635,0.35796968228480824,-0.11008309309498332
16.82,-0.2234553510678476,0.3108017144730782,-0.19650527080208796
16.83,-0.20686114953010662,0.23166084552448937,-0.21794549515524064
16.84,-0.1987717687804426,0.20684534704900095,-0.22437645370311576
16.85,-0.19482353096569668,0.2272750167962112,-0.2353607457125746
16.86,-0.18395848300618065,0.25812125417080545,-0.22387581169220147
16.87,-0.15181722222186167,0.25854829523712536,-0.1520044761204925
16.88,-0.15341710356977417,0.24844943753923945,-0.0534123134532527
16.89,-0.1917593040000306,0.2410084504597225,0.027189901425696203
16.9,-0.23674600214781605,0.2251472832403909,0.06956244599600041
16.91,-0.28317819588342247,0.2299570250484839,0.08394519347038239
16.92,-0.31519646569640886,0.2538053335302478,0.07565906439886588
16.93,-0.2803757349941072,0.25863269783979786,0.06466190846174823
16.94,-0.2501809455120985,0.233018439439214,0.05496637453026659
16.95,-0.25086419542165594,0.2041930299294991,0.04855514680327849
16.96,-0.23746831198460497,0.16137769515386302,0.015360970662926176
16.97,-0.22178198147392922,0.09190460751883751,-0.005815235524694665
16.98,-0.21151078865213094,0.08189410067643595,0.018525523072817244
16.99,-0.19428155727724675,0.09504198932478616,0.06411621348791821
17.0,-0.14117951941423096,0.10060560646774061,0.10670288518616049
17.01,-0.09175766288601889,0.15075446683019655,0.14074898580608922
17.02,-0.05770334443606109,0.21947238120259904,0.1645971227583582
17.03,-0.016374705125080963,0.25194683364816783,0.14774442386561754
17.04,-0.02970500390155457,0.23586141395544785,0.10130054755191344
17.05,-0.09465881608642905,0.19915179590788054,0.03893817769166534
17.06,-0.13080621865407316,0.17182556392227105,0.003279792671599336
17.07,-0.18863239663856185,0.16618010017576484,0.03990611616121417
17.08,-0.25497501404506534,0.16468755555594294,0.11921911511016155
17.09,-0.2748970093946353,0.2413206774861847,0.1609704653321719
17.1,-0.23115527229578828,0.4040511370389552,0.16277963878451457
17.11,-0.17281790450142798,0.4837142896471049,0.16041686066854904
17.12,-0.18544796174969197,0.39690416730370726,0.11718950224976797
17.13,-0.22442080704678524,0.30255863695889823,-0.00544563812328757
17.14,-0.24218192806070568,0.28523635576372813,-0.15605878186242722
17.15,-0.27163712247445526,0.2851701457134893,-0.2467461650606543
17.16,-0.2847077457211465,0.22782330634092893,-0.2613885991402164
17.17,-0.22808514808518876,0.14071285171565037,-0.22406344364750075
17.18,-0.1868140055784764,0.08451963906081632,-0.1159250236847835
17.19,-0.16884506996124446,0.07790283201724789,-0.009279293021413445
17.2,-0.1239932235855155,0.07573213422511943,0.05970113999509828
17.21,-0.14771583302974423,0.09504838531287757,0.11747500470011965
17.22,-0.22164218813355627,0.1448412608518251,0.1465738068320468
17.23,-0.23067968397445576,0.1068072263786349,0.12990436067929534
17.24,-0.18956837709238492,0.10429007785876157,0.08399041960859596
17.25,-0.14747892593562342,0.12923872577737636,0.040774504881962804
17.26,-0.10770611946912657,0.14741108121445795,0.0009731868404568607
17.27,-0.07683365463340026,0.15321268804751345,-0.025711128719047956
17.28,-0.07370549709416617,0.11608164051242241,-0.03793198893580311
17.29,-0.11285352369005862,0.034120080157788536,-0.01873563844936483
17.3,-0.1827570660091592,0.0559173619576328,0.027332697248990276
17.31,-0.2160066675704604,0.15895955011137478,0.10071299307426355
17.32,-0.26127437571994133,0.22625587792108331,0.18492670127756974
17.33,-0.2644448911676907,0.24149848209709068,0.23897131411532582
17.34,-0.21939803332709698,0.26199940155054563,0.23037018798797446
17.35,-0.16287395140436262,0.35335050189102873,0.20905218730979408
17.36,-0.13520634787248614,0.39497674090452123,0.16716303310190886
17.37,-0.11188719397589661,0.3436114981313454,0.10041471877830117
17.38,-0.1521869625553189,0.3032531124235157,0.0004018416561631381
17.39,-0.19106381359545094,0.2779055789754593,-0.09996377703703598
17.4,-0.21088542240720254,0.2253099127635479,-0.2088331224589298
17.41,-0.17858734097866416,0.19592242499990098,-0.2517892100899485
17.42,-0.191209936540057,0.1951474036961546,-0.2177783156137354
17.43,-0.1820098768694575,0.1238573666482536,-0.11172940911104141
17.44,-0.1320339634684379,0.09042091947113459,-0.016683556709029074
17.45,-0.06180268601193004,0.14506084106353584,0.058275594353754276
17.46,-0.0803640830182698,0.2791638162081736,0.14767050251680924
17.47,-0.11294578052136137,0.31733249391834195,0.20610322564237588
17.48,-0.11711069409326219,0.2863979602258024,0.17245454358919446
17.49,-0.12939873372188504,0.299559886691921,0.0737706155707488
17.5,-0.11936498593642675,0.27555105177155886,-0.021805660365210058
17.51,-0.1221215903716211,0.17977240762872834,-0.08840153382499899
17.52,-0.113337830972934,0.02638942049800587,-0.14005276632352906
17.53,-0.12424498464243022,-0.06975199177423062,-0.15520270804759836
17.54,-0.15949639824912268,-0.030096543518102658,-0.08869908209470857
17.55,-0.1926648655393429,0.08892271386629828,0.023941422918347204
17.56,-0.14913098819898535,0.16795116323079812,0.12685397269207607
17.57,-0.13532221909639533,0.21332200576352767,0.19175565278116868
17.58,-0.1437992409790444,0.3642693511575146,0.17702004764584944
17.59,-0.1581512802810377,0.4425485714934977,0.09109609165303637
17.6,-0.17358940364477987,0.44973385202692456,-0.044623639624851816
17.61,-0.19638176192333948,0.41157683713011245,-0.17239570959207068
17.62,-0.26666849530800885,0.3409789023251027,-0.215704977025776
17.63,-0.2708931083816853,0.22247165387272158,-0.19377859832110966
17.64,-0.2575290830976764,0.07766270805213672,-0.2212541888422473
17.65,-0.19951215010336493,-0.040388555884603675,-0.20693870105961706
17.66,-0.12151783178086842,-0.15705519180251432,-0.08185127405310044
17.67,0.04958484916520703,-0.3063240129618489,0.1982855340026391
17.68,0.19810189203211906,-0.33620660730576674,0.30497062521915785
17.69,0.2409313770214994,-0.20392937084282847,0.22262632991485806
17.7,0.23807937877430965,-0.03501805318968014,0.09241653188513348
17.71,0.21831780703109646,0.03166105135422394,-0.08066432706192395
17.72,0.16623048527655912,-0.0008662701230028712,-0.22339922682490385
17.73,0.11650615983093746,-0.002762671971892937,-0.2856170833592832
17.74,0.142695699186624,0.043767198510353204,-0.19775781326458433
17.75,0.29904259464994815,0.08103361799770745,-0.13878554257747303
17.76,0.41499956943353644,0.05831958507182346,-0.17460595624492056
17.77,0.40058439653278444,-0.024098759243229392,-0.22814871481810442
17.78,0.3198912823615284,-0.1541004536202962,-0.23618432752656338
17.79,0.229475673020212,-0.26490295921653856,-0.1830704698217033
17.8,0.08722439156249927,-0.2694334886640251,-0.06617702883175494
17.81,-0.06711797644139363,-0.1320387020275042,0.16286572443739686
17.82,-0.11624402651821546,0.022502723824223737,0.4145903025346363
17.83,-0.16543833479744147,0.019516490734672896,0.4774384144600064
17.84,-0.21974021391100954,0.006968446488697963,0.4021076748700484
17.85,-0.3222203460172442,-0.003645470656023307,0.30351870212910537
17.86,-0.43524296853025696,-0.056745137393294516,0.19696034297518017
17.87,-0.5110267796655718,-0.08069983123645535,0.11076390509404396
17.88,-0.6067542329901676,-0.04037121275119066,0.03769185241050677
17.89,-0.6723437275269956,0.005038158640501403,-0.010830364279097802
17.9,-0.6909251886309178,0.011320483023920662,-0.005161409535949647
17.91,-0.67954473781883,0.014603153766763409,0.03866801560132692
17.92,-0.6817623047628554,0.05626411581998526,0.09130711233993524
17.93,-0.7023877605182008,0.1334073937826132,0.13268067264469963
17.94,-0.7399165348809092,0.19059812811576002,0.2466349205643697
17.95,-0.8044056978074509,0.1863273400140832,0.47915077620455604
17.96,-0.8839746189423604,0.11062967040552528,0.8204109240082116
17.97,-0.910234525823317,0.0922505759238818,1.2586990450851874
17.98,-0.8356535892577267,0.1146617426682279,1.5855394930420152
17.99,-0.692044458397089,0.09055434019566938,1.676657809996872
18.0,-0.47299043831313997,0.060042759937189,1.5821231064512435
18.01,-0.3081623351524978,0.11872286805247871,1.3175084158401928
18.02,-0.19357885414992412,0.1084916491265591,1.0287239153474075
18.03,-0.1586896906738725,-0.054975511803502436,0.7246760902715055
18.04,-0.16899738731780395,-0.021241225877382322,0.3837966968522433
18.05,-0.2506495179393245,0.18236918796700524,-0.02907368251721162
18.06,-0.2620312972349191,0.49319452988218504,-0.4565784139620153
18.07,-0.06661265509386237,0.5738304297636971,-0.8479533184764354
18.08,0.03703145422680481,0.6019698439144744,-1.173431034154794
18.09,0.035024356107134724,0.5055995561243581,-1.5010193558069254
18.1,0.0072833330211072665,0.42733379641371044,-1.8929047779184194
18.11,-0.01253752173393808,0.35995203854903207,-2.1682403615506973
18.12,-0.01921215399681267,0.21590741360317117,-2.132412386618105
18.13,0.019928394000510496,0.02690346774623333,-1.9284269695386622
18.14,0.10689328880782437,-0.2545187225054312,-1.659109207127325
18.15,0.19942771929166012,-0.6804921994358725,-1.3556333604173163
18.16,0.25828485588843286,-1.0626999113883686,-1.0202064648837872
18.17,0.3115666988231156,-1.2687382489748023,-0.7060439069296098
18.18,0.3235556920753779,-1.3742352738780708,-0.4641430357613387
18.19,0.2979699686715117,-1.3750627180015391,-0.24326586810480866
18.2,0.19119051635121664,-1.24130904138525,-0.06887398010189691
18.21,0.00363088843219248,-1.0605231787688887,0.09729144887764467
18.22,-0.166671278329412,-0.9212042557624592,0.2940915271100411
18.23,-0.3658594727247919,-0.8635341358773665,0.4906950657334996
