seconds_elapsed,z,y,x
0.0,-8.626587983006239,-4.546685983270407,2.059685774037987
0.01,5.3072125559453545,1.6315003627243512,2.9014284219232214
0.02,7.398848944384003,3.6140948488376825,-0.7525290055037704
0.03,2.0175548950513016,-10.848830229256142,0.11930148347474065
0.04,7.405163557220583,15.07110278690861,3.2833789057622282
0.05,2.705166041958025,-1.3902948702420739,-2.7795307860134666
0.06,-13.9204583319616,-20.683308994657143,-3.573951661443778
0.07,-0.8193331509391665,5.104790734364649,2.2872691283109488
0.08,4.255143687771245,-4.159622895096105,1.3302938650696596
0.09,2.279569437629249,7.899146118021396,5.120511166112834
0.1,4.682209730872236,3.4369383639172253,3.479811516895541
0.11,-3.59962071918185,2.3871022150830057,-1.0425532335287098
0.12,-8.3669366080767,-4.814260006998968,-2.589887766332138
0.13,3.493468497437276,-9.271299182273546,-0.40770103850806294
0.14,8.247939517535654,13.249204473943758,2.7438030658321253
0.15,-5.862970167335937,-4.655217530012294,-0.8621775376821406
0.16,0.05206302635854662,-0.6083951657110788,-0.973770380109321
0.17,2.437733801697574,-0.9132074868608654,2.8887609220818025
0.18,-2.1300559753785566,-10.718408955516853,1.1890937449096841
0.19,5.767040367166708,10.615629606504788,0.9365004767988662
0.2,2.5484740327621083,-3.206947520394085,0.15326579107780305
0.21,0.676265561474061,2.2487979950963455,0.004564495096962717
0.22,-4.844586887754028,2.664159074686256,-2.2451753711448226
0.23,-1.2957677037243942,-8.584248848661025,-3.152220051240909
0.24,-0.15275806444155432,-0.8705409186293784,0.8742106426029337
0.25,-0.03232707495560094,2.0393924938255714,2.282715685536315
0.26,-4.358272653593337,3.451265690365026,1.4835961421915382
0.27,-0.9830417673436402,-4.014907161499568,1.4171842776552181
0.28,3.290428918868472,3.2956291850999815,2.7757629119216043
0.29,-3.3170793645119825,-4.355153412950525,0.5411185754232355
0.3,-0.4609248102688825,4.258484882425304,-0.7835202897449379
0.31,1.8372058129691413,-2.8702424485376685,-2.253978663649682
0.32,1.8127739631900406,4.828145354444217,0.00981199960595834
0.33,-1.3849078239862895,1.7634422885257128,-0.7942196228138055
0.34,-4.0550606917772205,-4.862648389573191,-2.185123704696824
0.35,1.957543304249767,9.50454372083959,0.41650702051008115
0.36,-2.153289701720162,-11.100592071421929,-0.7048202161217701
0.37,2.573054434843815,3.5892417565707015,0.7575169493220926
0.38,2.464809753499993,12.608604325296517,-0.9936963890637359
0.39,-2.518284743394422,-3.2918314899576675,-4.7009068452430105
0.4,-0.16481764870310478,-6.573412271431235,-2.65302379319959
0.41,-0.42484070595635837,0.7669279372432043,-0.4679708474576908
0.42,2.035306588818842,4.39896381241626,-0.3531355648727947
0.43,3.1773089403974097,2.2440951587450524,-0.14738937183336498
0.44,-1.9924298674828684,5.018082952631832,0.48467170802972914
0.45,-6.086400016052347,-1.3011173579067055,-2.3326589656639
0.46,-4.298162234719436,-7.68045858955148,-2.1891238528320867
0.47,0.2796816902343675,0.8413224427833216,1.614370341824691
0.48,1.4607561030234653,5.319053305500856,1.9409814148843931
0.49,1.0623459139554503,0.6018369372999187,0.30237782858744877
0.5,3.7349638582506715,-1.143691973982604,-0.4999917461817268
0.51,1.583264661465305,-1.2833807437878106,-1.2961441712837507
0.52,-2.4419719029911273,-1.3529886715301207,-2.8505622349317625
0.53,-1.965582742919299,2.6787914424148256,-2.808635550605248
0.54,-3.7744667606896587,-2.3786591494851583,-1.99055580115622
0.55,-4.544735386560568,-1.4354852169398462,-0.16213797125308493
0.56,2.215959048997095,0.03952054810182082,0.7441855041037152
0.57,2.319378896594373,-2.749413620785882,1.3120663578843417
0.58,4.811145758443258,10.871953806105562,0.22420965235708135
0.59,-2.275879164768651,-1.7440889308288647,-3.9286469069341763
0.6,-2.472243930670918,-2.775539775169647,-2.6927033420001747
0.61,1.4642939666518724,-3.855973985742877,-0.2193464676497432
0.62,2.222402685261478,-6.1209451197635705,1.2657987203383496
0.63,4.134037615479555,12.905075044740624,2.917026068274943
0.64,-4.241015730845412,-1.191039260372314,-1.1304231030870835
0.65,0.5701801392303971,-0.2254253012394971,-0.9552960220588631
0.66,1.0287706676650332,0.1107714474923478,1.4674818563876744
0.67,-0.2953744604253504,-2.1376005948719663,-0.23485360871665145
0.68,-1.4127990376989392,2.522409849970921,-1.7249164641841386
0.69,-3.8375102023019494,-2.6227527361598053,-1.6603524718673317
0.7,4.179575465632617,1.5416285673591463,0.3792418666344991
0.71,4.02951908017872,-0.48668972794960275,0.4994393647682501
0.72,2.1320220795173723,3.519040627732193,-1.1695312769069717
0.73,-3.2059247846248127,0.2584938733093729,-3.1635943194979874
0.74,-4.275030302389154,-5.274729924043815,-2.5092302270668685
0.75,-1.8915639861957771,-0.6890594836457953,1.3213759682785484
0.76,-2.9265179886484964,-2.6103979140444227,1.532250352195188
0.77,-1.4117988857755726,3.8306091202410926,0.6697338984223999
0.78,2.40417642173061,-0.5450789998219685,-1.0132506460135229
0.79,4.607179296875156,1.18643526902299,-1.2308520981234534
0.8,4.120302870515712,7.704749178911978,-1.4512175467666881
0.81,-0.024968216209942107,-9.598752713096687,-3.950134593916693
0.82,0.05130674258476131,-3.1732099092582433,-0.9852516235200823
0.83,0.30203853933337466,-0.9578892042984646,1.0970839638682106
0.84,-1.0367710249332818,0.9185141371676355,1.6691478476215116
0.85,-0.02793958345088387,4.176528525157703,1.1561115110278002
0.86,-0.16939328628470754,-3.0024102205185406,-0.9943816246550647
0.87,-1.8985646787863304,5.2666578360023975,-1.2315481630302823
0.88,-4.0656534505732935,-0.5356944801268009,-3.5831610282984308
0.89,-1.9151795579867004,0.3215704269904469,-2.338616316937446
0.9,-1.4031037811484306,1.2187510824401206,0.5994357124114469
0.91,-2.811160391761061,-5.810249985137542,0.7830616230158334
0.92,0.9587454087008822,2.2546706059969237,2.0677974668430195
0.93,3.693080260315532,0.41855979903464924,0.9847002447480082
0.94,3.963760613810506,-3.161257475110351,-0.547977091802587
0.95,5.12786687330198,3.3257465026981463,-0.6647634823486391
0.96,-0.14260140164299884,4.146637007690028,-2.655108183272135
0.97,-4.8210192799719405,-0.24739439654815465,-3.499391133273292
0.98,-2.963263703983014,-7.064998312519037,-0.025289735218690712
0.99,-0.7331931255650095,-3.369149259527692,4.114204701257505
1.0,0.7125220312302649,8.8508906336146,3.4683203559483173
1.01,-1.153694454152516,4.710144172137166,0.05810908830807038
1.02,1.0725255445461448,-0.0863666507364993,0.03390229356981367
1.03,1.1868913309572147,-4.250868406103027,0.03218549406349491
1.04,0.5325392681222763,-3.7755932371797396,-1.0358616978073927
1.05,3.041422009267832,5.727869362510791,0.4983787397100824
1.06,0.8900561028986282,-3.6298222166796927,1.2496813909876288
1.07,-1.2999127198041704,-1.2291510214880184,2.709058548427101
1.08,-0.716998372030858,3.592633138447665,2.681455358799893
1.09,-0.7567656765208457,-3.2559891095516136,1.021136379621928
1.1,-1.2113227182506119,4.067695685477449,1.7725210237809306
1.11,-4.657236593327921,-0.8688284016385666,0.04321855431182442
1.12,-3.133750946056918,-3.448234823706966,-0.8571709474446294
1.13,2.2007808744022377,4.014747973700672,2.3801691797612836
1.14,0.07355111999208086,-1.8393200553876743,3.605158862794791
1.15,-1.2592010377211054,0.538173460311679,1.4266138415135554
1.16,0.25351757287770643,-1.2807944422443205,-0.7302955415334556
1.17,3.270332699897217,-3.986035453421846,0.5894167673651829
1.18,8.248163216478883,-0.1374351628498084,1.9215386045990641
1.19,1.6564533621327797,2.630114659668726,1.2591828377701595
1.2,-6.960471151421354,3.499233323170445,-1.8482249695047492
1.21,-3.898315426420548,-6.426286201458878,-1.5580471518592898
1.22,2.038491090914148,-0.5742684424869182,5.490531315092186
1.23,0.3702008443788367,3.5586104230991804,5.368007426800543
1.24,-4.341588687806909,1.167647118468948,0.10321030189736691
1.25,0.11905596172773869,7.670382478797077,1.2580373067991517
1.26,0.44507434715982797,-0.658779636490781,2.56323019770773
1.27,-4.185197995193115,-4.554640917470672,0.646620804244918
1.28,-0.7063612409512565,-1.8093357599328836,-0.722453009457958
1.29,4.901689618317989,-2.437452158953189,0.567832614384784
1.3,4.892586407972944,6.009920981197171,4.022321162429167
1.31,-1.9144962051076213,-0.25175216061770733,2.011278375000199
1.32,-2.9246064939888896,-2.2247558562659746,-0.30893406056460626
1.33,-3.6537551770486365,-0.6361744801558378,0.8363433105252894
1.34,-5.573454640215811,-1.6350982934224545,1.584790122059779
1.35,-2.9128027387756745,3.1900002366637343,1.256735748225406
1.36,0.48021893833294227,-0.5642851772833106,0.13332599638895382
1.37,3.1420696326136777,0.418154071371835,0.5489694643766254
1.38,1.0757889090404786,0.5123475456846296,-0.29208233901651126
1.39,1.0350560454784608,-1.5664188505673002,-1.7666255054160072
1.4,3.5585742145489894,-5.588916842877493,-1.7537235632842774
1.41,7.19273514423659,-1.9921838860216692,0.8522917082362014
1.42,1.7041367614609637,1.6020706539809044,3.162024552976367
1.43,-4.263052132533771,-1.5690316188322213,0.26075652575573116
1.44,0.21285792413689286,0.25165495226183454,-0.42714320598553845
1.45,-3.563906284419473,-2.6521073956757553,1.5599563859695444
1.46,-1.8997451325129866,7.068964756789143,1.2856145307798919
1.47,-0.4532726532877588,-1.9532444032073126,-1.546502230724908
1.48,-0.5869063301064676,2.5933750214588684,0.32056043870958995
1.49,0.5795779045606756,0.8566610132912507,0.6036810734970008
1.5,-1.3595351813152332,-6.565705660219889,-0.305561781591566
1.51,2.692490820290452,2.9937708687531686,1.4511641646271507
1.52,4.75927485656547,-7.930024044845467,-0.3873575009718082
1.53,5.087114810119292,3.774214314715765,1.4020290919888987
1.54,-4.6690454631714235,0.4227596933702511,1.3484703440997992
1.55,-7.718431691685759,3.9613899772962995,0.1271893041308797
1.56,-8.35930474088379,5.271066207525342,2.828197736577045
1.57,-3.2158636673127052,-6.468670568448394,3.632284316435819
1.58,2.1517039775463553,5.948411466446313,3.6473452533530795
1.59,-3.1807885092438135,0.8341294984306096,0.23109263229254395
1.6,0.40069816661793567,3.0351107512762203,-2.6441798321860777
1.61,2.8832401912547985,-3.4976348509509485,-2.3884494457879843
1.62,2.9252205913381153,-10.43406185279246,-1.0789056086020143
1.63,6.713446054564567,7.8742789883799915,2.49372481676335
1.64,2.0331103212710673,-4.5937160108976265,1.420622961970989
1.65,-0.9423521477638349,2.976890652248114,2.6374683565293866
1.66,-0.048849369950081156,2.320284781788044,2.1553925605445112
1.67,-4.282072736183922,1.6622875836515099,-0.5867459462946238
1.68,-5.483469928322685,3.5546546658834375,-3.8773883238547286
1.69,-6.56359541873023,0.6079149543803148,-3.328796245390767
1.7,-3.3581144331315773,4.233638007882233,-0.16992959094576632
1.71,-0.38418505433326566,-8.997712065725281,0.42277939568684375
1.72,4.0861129234090665,3.6123559300224226,4.336472235492322
1.73,4.988409913395031,7.54263175555461,3.756171444297216
1.74,-5.967903425051954,-6.302612655224319,-2.0513435252389964
1.75,-0.06963396972454738,-1.992624626479519,-2.206970032581358
1.76,5.112479138839609,-5.658150614595423,-0.41460979629374006
1.77,8.369340638350621,4.602478892826942,1.2486814548841758
1.78,-5.6260955249086155,-0.3674047447921316,0.04055923418479046
1.79,-0.7267176252760841,5.612786300106983,-1.511631569396636
1.8,2.607544062584196,3.362915607777106,0.6879982609270621
1.81,-3.3165591129275684,-15.539134326736747,0.6552557082766562
1.82,2.5366618211802665,9.404332428193655,0.15133270715879626
1.83,-8.846483792892112,1.934073705839138,-4.139400031159427
1.84,0.9160130749527866,0.8023452441023464,-2.952278852033461
1.85,2.6143464265114016,-2.883007792145985,1.5481227381298024
1.86,3.3479618517010796,-1.434310151106431,1.8707988475268311
1.87,7.808858902699814,3.2029380876460793,0.39350840591212277
1.88,3.612178783223178,1.0443318864460491,-0.4013105977058651
1.89,-16.661275285410643,6.537393792389869,-2.1275742762217327
1.9,-17.47299219023886,-6.570157004946783,-2.1532225910689964
1.91,-7.478580964880896,-7.248864491924258,3.5380670985531486
1.92,2.647495268140381,-1.1815880816687514,0.9225074796903554
1.93,8.162222468495123,8.944839107590308,2.3915220166544002
1.94,11.372215336795504,2.3045188863066937,3.9679989970511036
1.95,18.9469355985076,7.456481945874804,0.3225225254996009
1.96,2.560542385547219,-0.17309816781671294,-3.843040144537964
1.97,-9.921976854416158,-18.368371892792712,-5.382198112261131
1.98,4.821246553837172,-13.307729077589464,-0.21238299059686838
1.99,12.07424109892963,10.250857496165239,4.346453621429938
2.0,-10.957715635570807,2.250346501905085,3.12037713885021
2.01,-4.666013721961674,7.969005413600787,-1.1251920370108794
2.02,-0.08613637210526814,8.71626110410311,0.10702477110001074
2.03,-10.23991244515866,-13.364896362566352,1.22709238871891
2.04,3.9622403481794013,4.337235301300916,-0.39798991764549063
2.05,-7.6691281488682135,3.131372105556731,-4.082525481357921
2.06,2.8699974401623507,3.3484140736711794,-2.5601276468903604
2.07,5.821950934261779,-9.130319093493664,1.5837583611872788
2.08,7.935191306474517,0.8747203693825778,3.5502121712812427
2.09,6.293047397003613,0.543038030290494,1.445275187730993
2.1,0.15060374659296283,0.7490215457806623,-0.5956277823633414
2.11,-6.538902861443372,7.803159387415941,-2.0577766909945736
2.12,-17.906784966501966,-4.524585275470434,-4.072239214050908
2.13,-8.28959387551852,2.190640175235723,0.1889401202889731
2.14,0.8214605879182786,-8.304802253854586,1.1217893243032613
2.15,1.3651637822141547,14.695232263038552,2.1788116739697996
2.16,5.748099163759745,1.8025369417663875,-0.42221847584400374
2.17,9.664668622012464,-9.688913711328912,-1.2155934041067058
2.18,12.133470312392275,-0.6891488964013845,-1.0213375771164837
2.19,-4.6325320975382365,-11.906627696797564,-2.2842598437056756
2.2,-2.877896825908215,-6.931215815245086,-2.1082427117326787
2.21,5.141257767470477,3.3134841751421495,4.104227873192012
2.22,-0.10286627213615267,13.69454392607938,6.941313027627025
2.23,-5.06073493071841,-3.1286645778628293,2.42191731355119
2.24,4.342109531134533,4.916992521159086,3.2022103288945525
2.25,-6.921669678635461,14.862399434563322,2.8906091277177994
2.26,-25.296368209542116,-0.6717502866607014,-4.2984962499952255
2.27,-5.632087662357937,3.47764215150399,4.875663647391869
2.28,-1.2752706962948432,-15.146872784820605,3.2840739508457752
2.29,5.808675777320777,-3.5635657402656937,-0.5576851585016338
2.3,15.8144742538192,-3.560979687464473,3.453039041673007
2.31,27.09314809781102,8.109702206358671,5.858314256953962
2.32,21.622106118195617,19.90115431104484,0.5942526279170808
2.33,-23.405665821194756,-14.46777244527585,-9.808147122130071
2.34,-18.92277811975652,-12.916179207557226,-4.878656380688469
2.35,-0.5615367345570476,5.065799107068739,8.30271154940159
2.36,-11.730418603412382,4.036861735756495,6.015039452962602
2.37,-1.5932747705631405,0.2878500585155719,2.653585259101601
2.38,6.971324417091476,16.098824472261875,4.88289886878837
2.39,3.9443488472405446,5.628199161908406,-1.5264325756307384
2.4,-9.956767190380477,-11.785208982481523,-9.804026207155394
2.41,-0.23087932497368246,-1.5425717174889613,-9.405850518644247
2.42,4.397317608692972,-14.60488950230797,-2.7667504250466086
2.43,6.684798722789699,0.5046882680342143,6.289637469020711
2.44,8.489304400464885,5.986840522079349,9.11281274360705
2.45,3.059954902554927,13.00983781932114,6.9409814994789025
2.46,-8.378665029671607,-1.659795850222391,-2.7846066571935246
2.47,-10.223010408026159,-5.621642517399778,-7.128267594323286
2.48,-14.698496437379148,5.332396131586145,-4.264167430980427
2.49,-7.168985933391856,-0.7074235353044149,-2.8536628532308876
2.5,-3.1155324093935777,-3.7157135579519265,0.3215377514654444
2.51,6.893560719154518,4.805763306927947,5.648119583978969
2.52,13.570062005015512,0.8261590506981988,6.830167484361246
2.53,16.93603738822545,0.15815314844286021,2.4861201998626963
2.54,10.192150015116347,4.301428017543472,-3.707331717560794
2.55,-10.041306947166733,-11.457163637119116,-9.84234534083685
2.56,-5.062824992519234,-12.326258166662278,-8.668909363264572
2.57,1.409949463505205,2.117267341189601,1.4968991194862662
2.58,-3.037736680134625,14.608486522757746,7.220185198817393
2.59,-4.443679323514153,5.042159427275776,5.816027737899934
2.6,-0.17937105815528034,0.8891055881776704,3.9935420227979996
2.61,-0.8555411830145844,0.5953809125147793,1.1843623069077347
2.62,-2.6406206237535192,-5.837307894810542,-4.1848298285635
2.63,-3.6699124174904827,3.5413834477720822,-6.656239870506667
2.64,0.08517072224750816,-3.491321124076328,-7.014408437859768
2.65,-0.7409229542300613,-9.676518415569346,-0.6560254189706145
2.66,6.051165122451435,-0.3379751209935762,5.060963282159483
2.67,14.525103926744816,5.4099250559341865,6.370028904201293
2.68,9.957511592167402,10.95263763730407,5.220806689244357
2.69,-7.583907878837718,3.02658799106894,-2.630121455123997
2.7,-8.1562859438137,-15.164017586221583,-9.902924264427359
2.71,0.8108727294375242,-2.156711966142711,-4.6902569832309595
2.72,1.0905348448458327,3.3479426699765096,-0.6409225081526471
2.73,0.45323568466603836,1.6753257237065156,-1.370030426474943
2.74,0.8162391800083681,2.1601096371613457,1.453144352163091
2.75,2.0413253535171645,-0.09880206794890634,3.264959539526268
2.76,-0.30249494622298334,-2.1954660536711765,0.48923902669072394
2.77,-7.118511483844167,1.9347714139455765,-2.3128900362766527
2.78,-7.440564771513481,4.255797785376406,-4.3143769342233975
2.79,-5.703588860351994,-2.7686023962418047,-3.1627334008508887
2.8,-1.6969874720347802,-1.5824886059515584,-0.8426084899144696
2.81,4.456562782013359,7.707503809728024,2.452288604762551
2.82,4.476328936127005,7.278329698709392,2.66945032541723
2.83,3.758386162337107,-5.929935761886131,-2.149448135554221
2.84,0.9948631898894558,4.131700593508459,-3.2274538940740713
2.85,-5.08212041974886,-2.8100610113911633,-5.633269230997887
2.86,0.6944500340914246,-1.4479415147206809,-3.2551900160251512
2.87,1.699514889806332,-1.4243532643426269,0.582277728065087
2.88,-0.19714042857485214,3.9884639346755866,1.855897108348039
2.89,-3.682205963174774,4.468210094749754,0.7163668376457132
2.9,-2.4646625711650643,5.363116639432894,-0.4589347030930002
2.91,-2.7617783018621105,0.011114345886067412,-0.5122452201652166
2.92,-0.3017422239557819,-9.710706727371974,-0.8590041315274488
2.93,2.982437764660278,-0.1505804747240802,-0.32254081441844695
2.94,1.8951734313498556,3.291712764423375,-0.14948977604604224
2.95,6.092870451035855,-0.44983196743521175,-0.5971596548515535
2.96,7.753369811728437,3.501058866856448,1.3420487169552022
2.97,-2.352151074416687,5.302926199155069,1.0565536164279146
2.98,-14.880920116931392,-5.751877636992352,-2.5485250630598486
2.99,-7.684036162659248,4.046674208990678,-0.6792888040702374
3.0,-8.261473156414633,2.499634513208905,0.39363509863776436
3.01,-6.640326793809312,-1.2867337301448083,-0.9410294115691885
3.02,0.5096280198406835,-2.003690793532818,0.5820051360820921
3.03,5.632519577875904,0.22458188866294648,1.3151754003946485
3.04,13.03975483469769,-2.5271439302438266,-0.19818254486303527
3.05,17.2695198410565,2.3344280054426205,0.41606997655764083
3.06,7.946727440217101,3.1278986804345,-0.7692646687831788
3.07,-9.663776414739726,-11.855741319001925,-6.191915979284072
3.08,-10.57855496366555,-9.808554031279636,-3.7678616767739035
3.09,-1.0241383259556112,2.587661344542296,3.6184935717237794
3.1,-0.3559742231331522,11.628679936166428,2.138121441421337
3.11,-0.4064565373920912,1.5075240573403292,0.26886396697872206
3.12,6.156083669927581,10.992618732866092,4.4212784955331905
3.13,-0.08393695774772958,9.539433618232632,2.0070181205213204
3.14,-13.2560581710844,-11.886944793240634,-4.067589011732892
3.15,-3.956773402850268,-10.517910443158755,-1.716111453102363
3.16,1.2085785757006882,-2.7149123997124076,0.9802166248913133
3.17,-3.378319491199917,-0.6120072936370974,-1.408837957796419
3.18,-0.33465032509169457,-2.8938348366724167,-0.9960377331282075
3.19,2.952481242853548,-3.0346178591668598,1.1416041454500596
3.2,6.645615858783835,1.4043647742396912,0.7566643764160574
3.21,0.12890329003375633,6.486234503321136,0.06717988163681998
3.22,-5.981530945094656,3.468432323844568,-2.505594754858731
3.23,-6.776735733876835,0.18981612499538514,-2.7917512467458883
3.24,-10.743505517953736,-6.124449278355156,1.0752922903633775
3.25,0.931464895725127,-6.732009386434438,3.1235290479531708
3.26,12.403136954135269,1.2717586652161583,3.1354694089501045
3.27,16.60689945676861,-2.1860102754674893,3.119208225975127
3.28,18.646523798831666,2.1052044039703643,3.2769072950410765
3.29,8.769354702725213,4.143613787712019,-1.6586027591437493
3.3,-4.556376262075273,-1.0860917323112937,-7.840528751823731
3.31,-8.581078688443993,-4.464413176285442,-2.6376805236236818
3.32,-6.635437129087686,-2.455207044954154,4.0484711128523445
3.33,-5.096406299103628,2.9870853207298973,3.262529877818903
3.34,-6.387966377111368,6.973305548781692,4.342837237305524
3.35,-2.434447123532335,11.974002501151649,3.393641981783786
3.36,-4.6670840064237975,-1.2081802835455218,-3.0460128246203313
3.37,-6.178869734452662,-3.868291899844907,-5.603479267400951
3.38,3.9356991496683746,0.6507476296608532,-3.8351709018481492
3.39,10.562064159607758,-4.504440837467564,-1.890901082746173
3.4,15.324147578520284,-4.834330159027447,1.5909225258625703
3.41,22.425013118323886,-0.5714892149812418,5.527467390235011
3.42,19.715523085631542,11.492184260533547,6.181550324799433
3.43,-19.628376602561374,8.295198234725525,-3.0924254382131586
3.44,-37.91627074589574,-11.756360564950182,-5.548473095635201
3.45,-14.914134264562215,-13.647808866601284,2.678000816674401
3.46,-4.674949609199772,-2.847333766038309,1.5790837325859766
3.47,-1.4354950797992982,12.919425472171454,0.8249457401455986
3.48,7.993527737652419,21.21034282575724,4.720323171877785
3.49,10.062574304565327,3.523834598151449,0.7778525698902605
3.5,0.8903254792447157,-11.457337929106558,-3.5607842996483194
3.51,-6.070006208896422,-7.053322937467343,-3.163295696559566
3.52,0.6464839030420331,-11.131868202892903,-2.39934415062023
3.53,7.04929605382687,3.058147371421409,3.6296552607454324
3.54,-1.3893103060328773,2.979682866775468,5.9395779213084285
3.55,-2.80377462810128,-0.31964808318869675,2.4637690964317
3.56,2.4521070280015365,16.18832193755035,0.7543922960406125
3.57,-4.032064961714944,9.077201045065948,-2.6807028870008334
3.58,-10.891509934406026,-3.635559454044557,-3.834116073997934
3.59,-11.215731196031767,-3.6905985518665405,-0.8080975778920925
3.6,-5.917492640551218,3.144561878914785,0.9404582906052923
3.61,-2.1862819158072324,-0.8173422942591486,1.9372823617765742
3.62,0.4072002908108341,-8.075544947363714,3.6787165162796014
3.63,11.753462462413829,4.478370165898916,2.915939915060322
3.64,21.050636424584702,4.018948344260087,-1.6270811516119528
3.65,16.333989001648447,-0.48956555519835,-2.5143145300680523
3.66,-1.6471570565375746,0.7672855722504801,-5.231338685294724
3.67,-5.476534872669508,-3.160979819254907,-8.12874054861047
3.68,-4.382364260100422,-0.5226154689618374,3.1719033829080825
3.69,3.5651726305357423,6.876089445751833,8.625508394500375
3.7,5.194505837382363,15.888909976221544,5.274474200332359
3.71,-15.547287328325101,-0.7938656995199018,0.1586972511215019
3.72,-10.538237733485795,-20.10169368308251,-5.119274167372867
3.73,-11.919930831030591,-8.87055135749322,-4.019421765840591
3.74,-5.615283421357853,3.5482246433632314,-2.4648466686816652
3.75,12.295244448502197,7.769465412765671,0.37789900764219775
3.76,12.938313674641503,2.594014711161215,2.380164189375285
3.77,10.243365539451947,-6.21842847842883,1.9166983921741578
3.78,10.571152229447984,-9.771679426181697,2.9830527180677713
3.79,10.644257507410218,13.226296758964235,5.1045215431848945
3.8,-5.650155128089951,2.3012367446191213,-3.174684596230656
3.81,-15.995150187857297,-15.42927295150627,-4.4469759280829155
3.82,-4.714689901863185,1.674447798228048,1.8627804750949277
3.83,-7.40354173380317,-5.483881821179974,-0.9576763948096696
3.84,-4.564625996411347,4.5984177262890125,1.3611344617449
3.85,1.7532502400036782,10.645237407401327,5.316870477871738
3.86,-9.638975770960592,0.7421577903895926,2.9681234227429223
3.87,-7.800414491401216,-5.071653674885245,0.4272218331436688
3.88,2.3057521033232105,-8.325815068463212,1.3977240114268985
3.89,6.804822175829575,5.937167432105028,1.7264036904773092
3.9,0.9455888164908863,0.3493558542151938,-1.0571598477539088
3.91,2.450061061270036,-6.852050378038193,-1.0668186982480026
3.92,14.615202769753804,-0.20543930427405854,1.4122150118890893
3.93,22.15138493706217,0.786231978032432,3.404633010838249
3.94,5.620141069696615,10.578256845662889,4.6947371553429535
3.95,-21.361103746287817,0.06251141861339526,-5.36799369393032
3.96,-15.917968723195338,-2.4897815037767295,-2.879823755734474
3.97,-10.342817444734731,7.29565811906787,7.240530856169675
3.98,0.9843222747551348,-3.6767710784330596,-0.37616214535754544
3.99,2.8735177832576766,4.4340780556213995,2.0233642479997536
4.0,3.1124912014454784,-1.7285610551649455,3.976787637048442
4.01,6.251628480983383,-3.712114959306428,-1.9874740162106903
4.02,3.6122186680268977,11.813752469341434,-4.888905853756325
4.03,1.7837224350336676,-7.298101280223236,-4.924733810240478
4.04,-1.6775645371254615,-12.990955939097658,0.5196087963928617
4.05,1.6512192501111214,-0.5820034080805598,0.7493335133095363
4.06,-5.216899679604072,7.1198588588635605,5.560485410381832
4.07,3.6059737256513085,18.58935397696999,6.874812079893184
4.08,3.505912201021745,10.342094103503666,0.12094437142949488
4.09,-16.844816557174155,-2.6520025477298397,-7.057391889682616
4.1,-8.42063557077393,-3.1636931570954063,-7.246137180143694
4.11,2.061036980934599,-6.819617147067192,-4.848338490856592
4.12,3.134594730224979,-1.399814414446416,-2.9494451848034333
4.13,10.544252382165467,-3.3838671715633355,-2.1257641293410643
4.14,10.380403288654765,-5.0234857176191285,0.2861236949067112
4.15,11.263355386311284,6.4735594364690865,1.4957494762199721
4.16,6.135161262525755,-8.541807004934023,-2.708177297119943
4.17,-7.612934316639111,15.854193955071276,0.7229744496365695
4.18,-19.564092858903003,-5.670728264514402,-3.366135125352425
4.19,-11.076481736510896,3.7068530317022077,-0.10553356538106407
4.2,-8.806315031090586,18.275378452374035,1.365986197180668
4.21,-9.165542018716133,-13.10646078307538,-4.703151737411453
4.22,0.4401234910927254,16.143330245608812,3.995810580922389
4.23,6.389581718388246,-3.5272297557261894,2.5647205030050664
4.24,12.69473938680006,-9.104339801791841,-0.14209173127523966
4.25,12.187394346062334,5.260605716890398,2.13484219306054
4.26,0.6463457226096718,-17.889420056305205,-3.501488962337088
4.27,1.379767340522663,8.653327489605125,-3.1802579950461496
4.28,1.3215943689852334,-9.4228557243806,-5.230470094375495
4.29,-3.3566328308806685,-4.689339960584042,-0.007599556717858391
4.3,5.923971218546134,16.98316203928349,2.153043686865837
4.31,6.708862595662844,-3.552201889081921,-1.2521819554872793
4.32,-7.238339488424395,15.85256574308831,3.082293490405661
4.33,-9.541660977360968,-0.11462046882135724,-5.3885646906453655
4.34,-25.322986853413873,-9.77261341774331,-0.297222942307104
4.35,2.2718015091879415,-3.2564688305886493,4.948547886506206
4.36,8.404553000543498,-11.084345074923647,-3.0384323794483343
4.37,9.283244709689141,-0.32106522241045354,2.773402155736608
4.38,20.953781494698717,10.69018358508655,6.787042488116047
4.39,23.895440239354425,8.890249578188634,0.6692693179530309
4.4,-13.350008980840514,2.496918107250168,-5.583070694312618
4.41,-32.50243279645399,-20.28461723114981,-7.1738099274745135
4.42,4.159500444161293,1.2349182568443848,6.068955479862279
4.43,-4.4625408957151445,-4.94515586078475,2.6593508322069415
4.44,2.7305872325160156,-5.6418383779623875,2.6253343784608454
4.45,15.985087558755703,28.424130463091885,9.888716761335322
4.46,7.6625294832962565,3.850539235259814,0.41068945988130295
4.47,-20.653983696200328,-14.740558231203941,-10.355548732165849
4.48,-12.785653495704445,-11.856571900137366,-5.215392045606576
4.49,5.71484398504404,-1.8850044798581822,2.585961624710104
4.5,3.1874805204436427,-2.1784643709505027,0.7629581987620225
4.51,7.1220426142956015,2.558211523145497,4.934868267939866
4.52,13.914438115970544,11.436145230771428,6.938411654185477
4.53,9.85829762719945,5.78320040360487,-1.217640258648057
4.54,-15.734435983417962,-5.873641464746003,-7.874465365863259
4.55,-11.35399097780936,-13.638504738178298,-6.040353668546106
4.56,3.5660412498168124,9.196804777776793,2.4127175844399313
4.57,-9.295490117152191,-5.7773396007589675,-0.29479577592044337
4.58,2.1622635205876675,2.424365054067837,1.4009734586152487
4.59,8.452897331869146,14.70307155557049,5.353205300229104
4.6,6.368425525821979,-6.224522076639845,-1.8228787136211322
4.61,3.830683931061377,9.020745414556352,-4.022076620976996
4.62,-13.424146223001031,-11.374783531252957,-7.809586429040528
4.63,-2.7394408663696392,-10.965789490044843,-4.930320486792094
4.64,5.409312309978247,1.8639230124739508,4.065554433963932
4.65,8.362465148924729,-5.401662214834554,5.054772524666807
4.66,13.892364800984938,16.785562148041627,5.152718673951655
4.67,4.610590897968558,-1.2439630137684903,-2.237769916593233
4.68,1.6283550674083247,-5.799205815593728,-5.322471959740788
4.69,3.1142774786020753,7.43942450739399,-1.2460171310600399
4.7,-16.436139819349332,-2.6920123207294875,-1.1721671985813502
4.71,-20.705073101131724,0.7104463392330276,1.8047658812845149
4.72,-7.123268960014174,-3.8668460993289795,5.4709270568017345
4.73,-5.48995184258126,4.452617564108705,6.58448839191671
4.74,4.7634742058915815,7.888955774369054,3.222292874224441
4.75,1.1677114450463104,3.806825309595046,0.2929829464372611
4.76,-8.961994159951695,-1.8841641027603395,-3.828245818676819
4.77,-7.717739924751648,-13.271951484311458,-5.048755312719015
4.78,-0.08058755837547937,-2.445566388238606,3.9680986157561637
4.79,1.147314270338454,4.894908761392436,7.384505103149454
4.8,-3.898097905150094,12.505015725035342,4.831970995948625
4.81,-4.72532067232792,-17.07878635335792,0.8201641203584993
4.82,9.39352401423646,-3.3407629657442186,3.1938819931995184
4.83,18.68607580223911,11.248713934891098,2.946072826394521
4.84,7.901528359338029,6.029601287573538,-1.4379811960842357
4.85,-10.002456036632685,-1.8137367476353732,-7.055638321066507
4.86,-5.180940954283136,-10.313664272893481,-6.540354749111184
4.87,-1.7753314277936803,-2.0491763837198906,5.49479506368747
4.88,3.157260088449568,-7.277878123408167,3.0445608164422215
4.89,7.286208897536641,9.014123470273944,1.3697384394236187
4.9,1.8350339415119974,12.323269391361759,1.3764159005448422
4.91,-4.243909286749085,4.5671582791676,-3.8854234535275105
4.92,-15.464214490592873,0.2776795180499696,-5.770296545591609
4.93,-2.391919713390096,-5.149227664701276,-0.9074546703629147
4.94,6.3995569035941315,-2.6033809700339585,0.48641222885195634
4.95,5.858467079073633,1.2489414319039103,3.896736157256273
4.96,9.684002234946435,12.073676431222982,7.109737759757108
4.97,10.601120645588221,-3.161958959620099,0.4282782219086547
4.98,1.9295971682379025,-13.699459284324252,-3.926141111779742
4.99,-9.721535267439613,-5.538680942474755,-3.3426566054929494
5.0,-5.943115214525171,-4.565133146457671,-2.426742216939495
5.01,4.0893236241941455,1.3675185946270951,0.8822432673452163
5.02,1.8983910218058098,-6.238499263566673,3.636519269420721
5.03,4.5338955827956084,4.847164207080125,4.819344276587325
5.04,-8.463950442438483,16.530844013105543,0.8576812587633933
5.05,-21.34635259103816,-6.734725793431709,-6.046310358972496
5.06,-7.049549190695253,-8.151705485904007,0.39610966505473677
5.07,5.277751945017311,0.6978051324989414,1.0818901773382594
5.08,6.250572404305866,3.5762616546373893,-3.323896642883981
5.09,7.321556560002312,-0.42608058870020843,-1.7306209669683148
5.1,11.502504214796387,1.7504776436565663,-0.5003205247846008
5.11,1.9462311400495373,6.619030566880129,-2.1883507514254648
5.12,-16.81312246695457,-8.697265270241516,-2.750429378789396
5.13,-5.9726478484189265,-10.533115910574297,0.22178937206507787
5.14,1.8834277488335607,7.366466454974962,2.3378238240522684
5.15,-3.18437690472458,-0.8001089598103266,3.3164776061117
5.16,9.265669929597854,11.789151747251818,5.581298656968855
5.17,15.180651674318433,12.0560121707845,3.7812361740615748
5.18,0.4396699481347337,-2.62362502441029,-0.5795433928789248
5.19,-16.45513680623159,-5.109481618945556,-2.8763872226564633
5.2,-8.784972997600509,-12.757748641651483,-2.3211459432624353
5.21,1.8082996168392202,2.704189218007802,2.143747049089598
5.22,1.7940044583776549,-3.0752601973816747,2.4427725550247024
5.23,10.128611729876987,11.65805295643126,5.811533152234508
5.24,15.414427440303534,20.53568626473457,5.78266039548112
5.25,1.4625115727170659,-9.5717428715466,-0.3142657269697947
5.26,-13.987628282262182,-4.681084581225775,-3.0714447474060473
5.27,-11.727380739038665,0.5142864352421395,-3.821527770143045
5.28,-3.094536320120603,-6.540379780819915,-1.4204414555530915
5.29,-3.86457202137402,-2.7169581324464893,-1.2108859150402946
5.3,6.306664616944346,6.605176622511282,0.40379329080327775
5.31,9.575848924387673,8.424219443402949,3.8073053600292273
5.32,4.126312561971324,-6.066010450831166,0.6635614665627456
5.33,-7.179539602936089,-1.6211408796774185,-3.9954461407704907
5.34,-9.908864597204563,-4.861409649713904,-6.249851150585225
5.35,2.6862600384049458,-5.343864514181988,-2.8359999139793564
5.36,1.9611819628595688,2.0106310632563638,0.49263951117839433
5.37,0.2212737951288264,-2.2325851052815198,-0.07196627947615697
5.38,7.055931728413986,2.6128368918986,0.4923176141198521
5.39,4.959162010124303,3.40445747233732,0.9861816188793755
5.4,-8.551935436355121,2.655372731326111,-0.0519304547869015
5.41,-10.898402224897959,-9.112745249960737,-1.1306797427187703
5.42,4.30890036591915,-2.4086617298640185,0.919573332977231
5.43,0.5507191482086711,7.647319660869261,0.44683152561986894
5.44,-6.827392267248745,0.9493768891155736,-1.8463051450491665
5.45,4.859765832102228,8.40822105456642,0.5291485972655505
5.46,7.413650732463373,-2.4935777864935993,1.351932872749448
5.47,2.720569676205753,-4.6378698180848,-0.1833424552559565
5.48,-3.7675149980189753,-0.6617850551122721,-2.2735622219303258
5.49,-4.8218348480905115,-0.9470814568912864,-3.3450064497266174
5.5,0.8394814450127076,5.278670641532631,-1.4992505108380718
5.51,-3.169637515577671,-6.854617121202593,-0.3606605426676186
5.52,2.181023513907003,4.3882864633566285,1.4298826685578203
5.53,8.743667232071687,6.77727490013052,1.0549166456436612
5.54,-1.008558409292891,-1.6550978973095836,0.02229154268001332
5.55,-5.760524423863388,1.0987177484901984,-2.2477968069863596
5.56,-0.7236776872055541,-4.294432655367664,-4.07641079299906
5.57,-0.8913505467503726,-2.8750311683426446,0.9924590746957556
5.58,-1.1823769210401973,-5.875340766846592,2.609531406936384
5.59,3.2105709303029135,-1.7195161473055425,0.11768329777938435
5.6,4.130457809114509,0.0673320448951058,1.6043499894183175
5.61,6.056253803751819,3.9299697737352677,3.353058495671749
5.62,3.5226979310758253,6.837589176699625,0.6224828058981431
5.63,-7.245207452754343,-1.8806865172647087,-3.3695491523876444
5.64,-4.981162998249468,-3.2831847639484946,-1.9299666590050752
5.65,-0.46239018901379136,-3.1682037427446534,2.2846956750646523
5.66,-0.15943938859852125,2.634573999025757,3.8642681416519857
5.67,0.6388458136713342,1.636586381377926,2.2756038085361068
5.68,-0.1662048430296733,2.6245496439750804,0.25497618974977654
5.69,-3.796572967502867,-5.546005854831012,-1.933906176976927
5.7,-2.054634468415519,-4.967370877453458,-1.3823364011820445
5.71,4.447111285351229,4.3382688833549015,-0.09720832178615214
5.72,5.39564626152299,-2.383192416646642,-0.37194460856724215
5.73,2.149825575068977,7.203302918245168,1.7048137034200437
5.74,0.03011458685359991,-1.806155607738365,-0.8066039955397342
5.75,-0.3557541408965781,-1.6223461840510183,-1.8546472992938838
5.76,-3.342805864803411,-0.5080705221823427,-0.08821112852758317
5.77,-5.8206517341032,-4.070821044751791,0.2844870111766025
5.78,-3.7300896803279397,7.438097601688444,-0.3821606538869457
5.79,-3.536026769792004,-4.366274084274389,-2.3608164312635274
5.8,1.7899366636080982,1.9696320153555575,0.4908642942792154
5.81,8.54908904460374,1.7858031520114928,0.9186711378415373
5.82,7.416324440801901,6.533826316068445,0.25720277933248925
5.83,-4.820883134858689,5.313009999940666,-2.113005949640298
5.84,-10.603446590106852,-15.799471583824069,-2.2103455196838646
5.85,-2.274113547736448,-5.19602728708044,4.180246684148635
5.86,2.799296332601969,-3.0923745559518263,3.8281624208852896
5.87,2.237069508700605,6.8568442432891406,1.1232747295855425
5.88,2.243540244782202,8.21235855835116,-0.8323233483766608
5.89,-2.8442445555835882,4.608475314299425,-0.8322792018200229
5.9,-8.633432498518884,-2.2375326813135503,1.0505988351313085
5.91,-2.409771093584518,-8.971112342044945,2.6833900084885887
5.92,4.388451997784209,3.8795952972287537,4.6679503660740895
5.93,0.7606532259064966,-0.06942275456508185,4.626334001680796
5.94,5.811614333185248,0.49983315208906287,4.463874221488602
5.95,12.89536010756007,0.7109679446480781,2.633294840202111
5.96,8.59002401229736,-1.3995037734049678,-0.29710796712131304
5.97,-11.581547654868126,-6.141643244838087,-3.1086287552042142
5.98,-5.13644775510247,-4.437871068703155,-1.370407016185614
5.99,0.9508453154443983,2.472968444055047,3.179880667883064
6.0,-3.94755959335947,3.604521735562664,4.755013165938563
6.01,-2.267900560357408,10.317703768419713,2.4936391999532166
6.02,-3.7330596181295137,2.2529777819132697,-1.393355839137898
6.03,-3.8972573665372825,0.3512648115255772,-2.748868865089195
6.04,-8.929419748188533,-0.3904996342546885,-4.0458940394733105
6.05,-3.4994813985277604,-0.8232519673759824,-2.4942460925922854
6.06,-0.05181988012580763,-11.66534114410323,-0.21359250817065134
6.07,8.080504781330607,6.737113379196371,3.7725046616013103
6.08,12.208341918266637,4.485532337918915,3.5719291402733395
6.09,12.242937622148663,1.5925290799974683,0.5624327124610145
6.1,-0.5050678690853552,4.469311840891026,-3.5761814965590086
6.11,-14.544125709928714,-12.156783841480902,-9.7036087897186
6.12,-3.4953949080632842,-3.751170338526814,-1.9695381135394534
6.13,-0.13597297375323192,-5.078883530966219,5.340012618807021
6.14,0.6379253674266494,18.00577457509417,6.104007172144551
6.15,-1.0902194875085522,-0.5804487224053254,1.4676706152681884
6.16,2.333193453339842,-7.007888212171672,1.5682384297801295
6.17,8.68032788657489,3.4542193145498388,0.034360620013525134
6.18,-4.85316868529304,0.44371038712647604,-4.462012150214821
6.19,-7.1323363999068174,-2.8903449498769698,-7.6914219072881505
6.2,-0.1828959163651529,-5.435454527451271,-2.6765147885433764
6.21,-2.415803818430672,8.890408674361343,6.27212553360201
6.22,-0.60214023197662,-4.800613710588731,4.922428108783974
6.23,6.194208348260834,4.674218206154826,5.25970900993828
6.24,5.65585678203994,12.363783020468599,4.724795850980064
6.25,-2.340821835241073,-10.388642813772904,-4.711324639901685
6.26,-6.4491929360168925,0.33993038391177244,-8.131944998016762
6.27,-0.3254097128913358,-8.905819943356155,-6.512224670017028
6.28,4.3071410195952184,-1.0373062747350161,-0.5248514183874535
6.29,6.063577189994227,0.10809673273514686,2.77067030204253
6.3,3.1032581313157563,3.2754327100364944,6.532524616199135
6.31,2.652257705080984,8.675979255528805,5.678775526129833
6.32,1.734378699240429,-10.480396818876551,-1.4845419779117037
6.33,-0.6774169476168397,3.5203844880268083,-2.918611608130057
6.34,-7.9449072088533725,-1.4837464014521489,-6.3200328959037915
6.35,-7.499600729056121,12.463797097814293,-3.3627771199225536
6.36,-4.798818134461889,-5.739393214562259,-0.05862510763844497
6.37,-0.4545476788601235,-14.022934407327242,2.7344482612219965
6.38,11.295349287907321,6.839149752949957,9.586056390065322
6.39,12.95283496307091,7.290881357972483,7.816985894853339
6.4,-7.673024742714043,15.644792207252179,-0.8442049779877143
6.41,-14.26044496190275,-22.291325129691014,-8.556611623403494
6.42,-1.2349937617553852,-3.6883611548664454,0.6541402692303517
6.43,5.029320276196618,-0.4997495036744748,-2.8278257770966393
6.44,4.836468414761596,-5.179892114218756,-2.8666401590814874
6.45,6.256466083978697,24.876353374551044,6.3773732638602585
6.46,-0.3218927608798392,-2.8676074345527383,-1.4286359299343827
6.47,-22.377334873909092,-1.4417918185403447,-0.9200249330443353
6.48,-2.168348391826786,-10.495403711052521,2.0328319798105166
6.49,-0.6351373907128789,2.2958804075970303,-1.1707320189152917
6.5,-3.0329147408264263,1.287243430881827,-3.154533618892114
6.51,12.843865382037148,0.5236768991150099,0.11387223532931667
6.52,19.057339147041077,8.225859467599614,3.779611306681128
6.53,9.322895478479309,9.67495961551584,-0.2549446599992766
6.54,-17.238985832108483,-11.194437317012419,-7.500914054173641
6.55,-1.3517752276965425,-8.310208865439062,-2.2073240013256203
6.56,2.136887240588366,4.4138130282736014,4.146293038292228
6.57,-13.200898157987407,-4.388279997536286,1.0893112114872459
6.58,-1.601471157510968,19.28681378107658,-0.07115572590489316
6.59,-10.508730559048193,-7.972430663370858,-2.3955536923197025
6.6,-8.630279863743706,13.224191399619007,1.426314179500583
6.61,1.3924461056157256,-7.86212199176631,0.9206580365979581
6.62,-0.6395196548300501,-14.45695098218317,0.26544073857851247
6.63,10.544326637603252,11.949690144711127,0.10154474025602797
6.64,11.422058310448882,-12.293927992859496,-2.0044748857484116
6.65,16.306429504471062,16.141224184757256,2.469282836275003
6.66,10.117116437701881,-4.433133165915711,-3.686352102759364
6.67,-2.872134414557391,-6.405824155711876,-3.773907553302511
6.68,-17.367687660531594,1.3598915356522294,-1.5035850174081864
6.69,-4.527660129687378,-7.129243276237647,-1.1223200643897033
6.7,-6.061451668426014,12.871325853731587,5.678084119206762
6.71,-4.840677651140369,3.347163814693024,1.1184031263736254
6.72,-6.732899913120579,10.838438241063523,-1.8613743110782468
6.73,-2.729462930017292,-5.481278093801823,-1.0182324996360694
6.74,3.287253850150766,-6.361589627359302,-1.2681018068005658
6.75,0.7379290840148466,-4.124230463218067,-1.073818370621078
6.76,5.159305059292732,-11.30624627214637,-1.0491942278871944
6.77,17.16762174166883,10.258715121731555,2.5640031340192855
6.78,11.933298713161681,6.766516916093877,0.1738653962039519
6.79,-10.290956201382318,5.034997512702139,-2.4025749175618443
6.8,-8.477814788853053,-13.023174590224315,-4.011899151822837
6.81,0.21693147152986048,0.3462424229044715,2.1516386367365232
6.82,-14.479350422711825,3.111830670480617,2.208144490439561
6.83,-5.89406980029749,2.8842844328469694,-1.9963071831301864
6.84,1.072723924216999,4.785972745493559,1.1944287944607168
6.85,3.529048710722395,-10.151666624766483,0.7079466321375842
6.86,15.842342780428845,-2.9553433693692908,-1.1233289603582917
6.87,18.03006333836082,4.2683667903113465,0.023314708148751334
6.88,1.6980054581615291,3.8783867348669276,-2.32151281820516
6.89,-12.636352566834026,-13.485108153691858,-9.245636462540032
6.9,-8.43276858402092,6.135620400811737,0.7849922890790114
6.91,1.1011136304636056,-0.6446917535106567,5.722882189689283
6.92,0.9351163893373388,1.7390752192874919,2.530170765514429
6.93,-2.1643807601431533,10.790686073856184,0.38472142746286914
6.94,-8.738468239691848,6.951603925912437,-2.2218184262432565
6.95,-4.2902800553945895,-0.7148524031421344,-3.2891368417997375
6.96,-3.7940769144251156,-15.288138713858894,0.02204608853011869
6.97,7.996130685746162,6.564585984291542,1.4128250937826026
6.98,7.922506371901943,-7.451489256931057,-2.9564497400955854
6.99,6.648518995651292,-1.4291983825825918,0.10909582028176848
7.0,8.044865346158334,2.635743761175224,0.8111087520942762
7.01,0.9867157594293037,-3.3486349550345915,-3.411594275707326
7.02,-13.632546852473395,9.006387697039335,-4.15664239685762
7.03,-7.206172017963072,-0.7504775830141107,-1.4126146380792566
7.04,-1.5369903784809231,-5.4226905718033045,2.433395209089285
7.05,-0.3291761866487789,5.708895579155572,1.9332914660134115
7.06,2.577619043928299,5.9083074030844225,-0.18477721396382088
7.07,4.396631472928407,2.3652200103440033,-0.48390596894048066
7.08,3.3388132154052967,1.2791765415891692,-1.585035076607273
7.09,-5.637681987102664,-8.633293435355252,-4.765075372511532
7.1,-3.580784011146548,-3.333553815848751,-2.117463389023439
7.11,5.217822714589567,-8.953268730630707,1.2916608588624068
7.12,9.468568786329179,17.689992944244455,5.43342440395766
7.13,-1.7294146705433058,3.2448069079774298,1.7453464646524235
7.14,-5.095911897521583,0.2163795472750989,-2.044372562946389
7.15,-5.50365028267845,5.58208741046657,-1.2531284578196202
7.16,-14.907193158116176,-12.303854318724918,-1.0588312093991237
7.17,-4.553726488995456,2.133956484724414,-1.3494985192227444
7.18,-1.8608449608792266,-1.8463577103865783,-2.2350888333281977
7.19,3.915963381744356,7.108081685157032,2.4987380691708587
7.2,10.152298555653605,3.735842358150779,3.0139850093512663
7.21,12.893678054981827,-6.423655090685353,-0.5364522147823512
7.22,6.341646780745928,4.524176322937978,-0.6288304406085458
7.23,-15.261143708207323,-1.089600419120499,-3.6052698100094656
7.24,-9.936389840656236,-8.338457712525319,-2.7140138022803697
7.25,2.658096718392618,0.9339424760462354,6.185732559757503
7.26,2.519940145843732,-8.229833974859517,2.3006027827233257
7.27,6.271534211272173,15.058039639785939,0.8960133382786201
7.28,-0.48967038319070777,6.319644398538936,-2.1344221939180255
7.29,-2.3333355512889904,-6.2838550278835985,-3.979058841847491
7.3,-4.905909671934685,-4.423543609214969,-1.7892936958768524
7.31,0.5851046079084705,-2.763426518659708,0.06721369170373925
7.32,5.1204794751229095,5.115323848778787,1.0015213643935765
7.33,2.700195391003902,-5.3001430915631795,2.154659694747669
7.34,7.043458154373522,9.024976603499477,5.342840672536253
7.35,2.4358413116680833,2.401896422486052,0.38916986166419143
7.36,-9.498751396001111,-4.283303283643767,-5.072448299958801
7.37,-13.497984539940505,1.9864177527112017,-3.2140527837386994
7.38,-9.496370656749384,-1.8498381041198102,-0.09236251337187515
7.39,-7.201486679012216,-0.43490861416509186,0.3381592392180444
7.4,2.4460855444676577,0.9260463760623183,2.4025395439111157
7.41,8.350458564042771,0.4299496477179483,4.867142160188982
7.42,14.766134286890354,-0.454736625960372,3.619891640066392
7.43,9.272872904066908,1.5594555994816686,0.17237406742660988
7.44,-4.20651404948266,-8.300766095024798,-5.105020292540374
7.45,-0.6975064267770836,-11.30244797998131,-4.2873066832981905
7.46,6.69883498208146,1.313912343635729,3.923813627066423
7.47,0.43735662406554354,5.420541191297566,4.186128499823742
7.48,-11.246285818391447,4.148119013404776,0.1104192963799342
7.49,-10.127519367571882,1.3209837277980112,-0.8345360231449661
7.5,-6.832163422533207,-0.7193471183621509,3.841876053981886
7.51,-4.184776570284256,-4.678436195371205,4.352989316295751
7.52,7.835162104277415,3.239435791679341,0.3441053920267847
7.53,13.290587513091554,3.860788197272468,-0.03899957255724455
7.54,14.845613872323408,-6.825079871057848,0.2970928985386748
7.55,14.947690449012883,0.6523949741602113,-0.11116247262483459
7.56,-3.6331805505844343,0.6389143454602801,-3.4015814446648003
7.57,-26.15384868641785,-2.404457929606013,-3.184841060042898
7.58,-31.745072219348692,0.3896573177969218,3.033768458867216
7.59,-31.568487178904007,10.201118092086869,5.131034876797209
7.6,-19.92894340621996,15.645341973265845,3.896177623751363
7.61,-4.0140803826647895,17.354275931576748,1.3108030208403925
7.62,-1.2578744705605829,6.824943430546465,-2.9091350029554808
7.63,1.8337982723142976,-7.912624804311674,-3.407729187054489
7.64,11.566922776362325,-9.816221122389457,-2.789451273986042
7.65,23.01323342938869,-2.9746841204886714,-1.4516594213513292
7.66,23.65150477774589,-2.991483051123267,-0.019457472083920957
7.67,17.18453140312605,-5.16082584044913,-0.578393614559416
7.68,9.541107846149941,-6.325597834089486,-0.26529992440232775
7.69,5.483689221509894,0.5820188112455584,2.484633732785955
7.7,-0.8096564534069612,10.257598732013639,3.7492128142224703
7.71,-11.532059200435796,8.745160324646406,1.239870424385019
7.72,-8.338599623368761,8.486599596280485,-1.8551548047286661
7.73,-5.829067802300216,4.713723275543082,-1.429190346475024
7.74,-3.915276715385416,0.6744785249297713,0.14224274668361703
7.75,4.74194361858827,-0.8916676334479066,-0.06801819593104053
7.76,9.648314512336134,-3.8662163951932325,1.0932490547486016
7.77,13.164399427143561,0.7875682144660114,3.669420774964327
7.78,11.744855619699479,0.7610020900426222,2.6192113906538848
7.79,7.825164610282426,1.9327780547305937,1.8987297667369352
7.8,5.493437128268834,3.0386857540090455,1.9548606589063293
7.81,3.8020424157607073,3.404209843586351,0.9951832916746168
7.82,-3.8036569785381436,7.554850279657831,-0.2578615461082119
7.83,-7.374773858377649,0.36963304290022236,-4.338578643846669
7.84,-12.194870927505766,-9.636180498411136,-4.919224072849397
7.85,-13.55788255328373,-9.055544375073868,-0.5669992080560307
7.86,-2.936788882987301,-6.7240866477228405,2.9794121183850333
7.87,3.7046249597454377,-1.6033979576000377,2.6621789100671114
7.88,6.21926391336748,1.2876100455774464,0.9712080902852259
7.89,9.803757131177125,8.014066733296927,2.0878673115417663
7.9,6.5481104750275225,14.490876410966075,1.1286044246147253
7.91,-19.286934865100612,2.2004107712737433,-6.577709701197209
7.92,-30.038796860116488,0.5232713391638466,-7.406409210042218
7.93,-18.24221102094025,1.0415592164698557,0.4446056827773299
7.94,-9.044309217531335,-3.7654465283010055,2.41801771892088
7.95,-0.08420707501035274,-2.4157061232008927,3.111514068618493
7.96,12.070315253391378,2.27238846158378,4.72474424172256
7.97,22.949171394087646,8.6414351518284,2.742827746061113
7.98,16.01902987763838,1.2402253189167247,-1.5691258662801575
7.99,2.513891932080023,-5.081046336210261,-5.662419560743389
8.0,5.506622035294299,3.0622592618272515,-6.613822381874086
8.01,7.391290887559311,8.563780311487928,-1.5938632399590933
8.02,-1.8008474128394933,5.673559981389168,3.762299865626291
8.03,-5.30616458818648,12.25318253858634,3.844733803344111
8.04,-7.241546731083377,11.401952812272928,0.769492416161421
8.05,-11.798768796556972,4.421876917986303,-0.49031013864614864
8.06,-6.917139484502969,3.860001432649253,0.8571792934800437
8.07,-1.2509204017203408,-10.403566733356538,-0.7526766855351006
8.08,4.499133185112813,-14.193929495176688,-2.641708982719072
8.09,13.872826880995191,-1.4778709289389784,0.009427537114035989
8.1,22.38236794248576,5.618378752959573,1.8951828514413533
8.11,21.67432942492504,8.502351919253746,1.2157974492672161
8.12,9.838400804421168,0.010477788994032622,-0.7377255773021013
8.13,-0.5238112734083034,-0.7766046936609512,-1.1599215479051812
8.14,-5.790292783989283,0.8102779549341214,0.5185918703719554
8.15,-4.80271113925604,-3.1434381667954154,2.8180491254322098
8.16,-7.788818746927479,3.201105016315295,4.744394427699233
8.17,-7.10370150983532,-0.38267127397436607,0.4237391943772595
8.18,-3.438514303168184,0.4143884066009873,-2.957858178972562
8.19,0.7422202962928015,1.3671633951306759,-4.641723234068126
8.2,6.0105639680389205,-1.1356173955423003,-6.007926950102895
8.21,5.101376388480454,-4.751164310915317,-3.626663822459476
8.22,4.255453045400262,-8.775096454123233,-1.2382740369686167
8.23,8.606362051502014,-4.297563614414166,0.382833826321917
8.24,10.362551237903238,8.465129240644368,4.422736710714918
8.25,-2.279865585792489,10.840892373118146,5.290949708341592
8.26,-15.340203380167612,-1.3084571648285852,3.1740579804148936
8.27,-10.155635239026912,-3.7518492105122174,2.28618644126988
8.28,-18.237998228468665,-1.8704988625647203,-0.6849083319935492
8.29,-21.575280468000575,12.985168686197724,1.6415927467669877
8.3,-19.55941105236914,6.993724107909873,6.541023060579814
8.31,-11.673439882643754,-2.4808208873032,4.959303996575766
8.32,-2.9312884801813617,-1.7343857573246217,0.5695631183131891
8.33,-1.0112385573405507,2.638503307148356,-1.4467603824541517
8.34,8.480541232204798,-4.556814589238154,-2.2142746578070738
8.35,14.722506769715752,-3.0627804731207124,-1.6533687758402016
8.36,15.292093628116307,1.3514812487515686,-2.2374601224716404
8.37,6.641466044246894,-0.5888312953430872,-2.8266127468634954
8.38,0.6650708581062932,-1.7212530979882532,-2.4071778293934365
8.39,-2.7098241689876823,3.5748841538300944,1.9182864015718315
8.4,-5.100486670533325,3.3815545562467015,5.001892611089634
8.41,-2.9704636295002143,-0.19691176020551415,4.023818215859384
8.42,-5.0999276790281725,7.805106775210522,3.54507758353063
8.43,0.4590537401728447,9.42202646726523,0.8203720069103584
8.44,4.820243849270353,8.440264722800007,0.954463651592342
8.45,1.8057958436580486,3.506336317807362,-1.2300724841887485
8.46,3.3027730107821487,-5.388690087518028,-4.616441714469634
8.47,6.412696584099267,-4.220589675596659,-1.761623896383452
8.48,8.353198481787416,-3.9863341297433132,0.6736605722173672
8.49,4.003039430149157,-1.014405390152619,0.12885659014999695
8.5,-0.908992143636731,-1.3988359156402104,-3.347327388885272
8.51,6.496281697732202,-2.270149851507841,-4.181633621549227
8.52,6.334851128162897,6.035321405940048,-0.5224131316507945
8.53,-18.182684765066508,0.30093268599648226,-3.588169067809152
8.54,-14.56705515285935,-0.9698071179571566,-6.476478873500109
8.55,-7.206708429010304,-3.796635754222905,0.9574199140899742
8.56,-0.6549191433362322,-8.89548212207151,1.7144511166202443
8.57,8.547978217910037,-6.543177935915638,1.0428524158742392
8.58,17.747098310565512,-4.496669671533607,0.8746188195899162
8.59,21.577135352056615,-2.755151914673031,-3.651094986958016
8.6,8.079802282686995,-8.788629782922339,-9.884033594607292
8.61,3.790632972273826,-8.985773631935567,-11.827318074850725
8.62,6.619076279745003,-0.6581914161676625,-3.814965268177934
8.63,2.524951500438295,2.0774983301128103,-1.3929277024804774
8.64,-10.746013801695929,5.4611094838460446,-0.7594151939128545
8.65,-11.8981102059205,7.581586501583336,1.529468882384569
8.66,-27.764113738076098,5.667178659878075,3.688951730793786
8.67,-27.55898164845887,13.08830630714812,5.165427022834557
8.68,-7.083050371030186,-0.26916785250904773,-1.6585373308076967
8.69,-1.0936994182897086,-10.514641784689783,-7.367502405599095
8.7,12.45104100726409,0.449002151884379,1.428232329243336
8.71,25.535472617642956,13.90849749293265,8.685005965080716
8.72,22.546495309899875,8.016556752709786,5.36997793510249
8.73,5.552708373573381,-4.907821239034934,2.0413644857715716
8.74,-14.529118610537282,4.418826623587707,3.091978208451633
8.75,-12.786300818040054,-0.10123808790816291,2.100984017439523
8.76,-12.3137005733578,-4.658430518102001,1.8611038493381693
8.77,-5.226787522544668,0.8165819201695266,-0.6913492632405567
8.78,4.3564176691200895,8.974709391487941,1.2864837742048163
8.79,3.0544256196753885,15.219268338979496,4.714176883677662
8.8,-0.39852686188783215,-5.5614143490117876,0.49151966672145697
8.81,-2.551013446827479,-22.10811643258975,-1.716934492009373
8.82,5.787632877234351,-11.472850675063713,-0.11654969847830388
8.83,17.610365548608545,-0.06386943856668736,1.454731752765347
8.84,18.619588178462458,6.929274568862646,3.5532553898460715
8.85,4.243727909573815,15.568172414855477,2.6986782330708468
8.86,-12.960468474132583,8.767098408858244,-4.262060792673553
8.87,-9.840267873635293,1.3587316891296382,-1.7848578708616307
8.88,-4.795995486733722,-4.928526240643317,4.108309036620584
8.89,-23.75344558867282,1.493105452771594,-0.18201932152030326
8.9,-23.308614075210887,10.831760538152839,-3.5409160985221444
8.91,5.948830174443598,12.712166281412939,3.0443160977262633
8.92,2.540986755807573,-18.690168932398414,0.09894376768347701
8.93,20.483238563289923,-3.187843561235251,-1.9541415020354849
8.94,29.995937346125327,14.724081066446045,-1.3060859143781722
8.95,6.631847961701307,-19.692261816155195,-4.870073274247514
8.96,-5.154537426648833,-8.586784814623451,-6.204883486757344
8.97,4.213412463964563,5.7075177824591625,-8.106732195830576
8.98,-14.065403715238809,-4.126237410386812,-0.1561427332432175
8.99,-1.27448050346511,-5.456124869333247,-0.6092412032545178
9.0,4.2081311039692775,8.338221986263298,0.3518776858961761
9.01,-8.35281260771838,11.972315550214372,6.464648421218591
9.02,-5.755307970644248,11.840383871894629,0.8350553481991159
9.03,-19.468412248209493,2.2310917597088853,-3.3180413683111114
9.04,-2.686215995736493,-6.132706809031109,1.0656626869220482
9.05,5.6066687979398795,-15.817810310356464,-3.806411869683816
9.06,10.910450674236191,3.0795083502533567,-2.617191354421502
9.07,13.096318901770475,11.832369724576665,0.7035118577078137
9.08,10.99917736385134,-0.05747987719110481,-2.1806709044117496
9.09,1.8291878971709918,-4.12377201538451,-1.6071262514994158
9.1,-10.569261760650122,1.5194363824599715,0.2192656912025403
9.11,-7.298186865044679,4.197771578586837,0.6211149124793208
9.12,-7.328635197114491,-2.320202812464654,-1.253611904103594
9.13,-3.3841828095053414,3.149153473329072,-1.6027077924437763
9.14,8.72073196192847,-4.253797791106331,-1.523961788213424
9.15,15.171784874497753,9.615407289048493,-1.2555383262956732
9.16,7.862318325607987,8.722809615548872,-5.19644769975252
9.17,-9.48708331266316,-15.147564638386985,-10.44561009784261
9.18,-3.817542217359267,-12.882146094118166,-3.4397528298545508
9.19,1.9884925281190362,-3.692391223181182,3.1686274669438146
9.2,4.471508177181493,4.522129563285471,1.1465911745500348
9.21,1.165894787905383,15.190820052922646,1.2026735322663342
9.22,0.638542120758179,4.583434828404663,-3.1890632626084963
9.23,-5.759399961694743,-0.10226309330453331,-4.474865027836799
9.24,-23.86815555603672,-2.451542745190401,-4.943492048195531
9.25,-16.393895281279384,2.136023555201883,-0.9565801739286462
9.26,-8.913008359164545,-11.180877309668183,-0.6648879706084864
9.27,-2.1699756959133514,-4.934748444886437,0.5025744454342732
9.28,11.150513139711979,4.955020968301479,5.103507627544757
9.29,17.77699384822081,0.5437259544648263,3.4019823934930313
9.3,15.769613045093596,3.6633576899073366,0.39541157284650863
9.31,-2.4784382144299384,-8.18665999659757,-4.111547119202453
9.32,-3.0192566558602074,-13.478256927297899,-6.5461755267344905
9.33,9.964584889418115,5.016344912869199,0.7434672298987492
9.34,5.218773369835804,3.4319269742438276,4.870688816594999
9.35,-5.943842392195472,-1.9592790507370976,2.4730015622426222
9.36,-7.737787863610688,-1.4236020565053207,-1.6486918856365054
9.37,0.07051933993550996,11.209106566370213,-1.1668934351539044
9.38,-7.498575704684265,9.670514083608495,-0.3634264113693977
9.39,-10.48921238233061,-4.902398210483363,-3.412502394970042
9.4,-8.271266461139962,-3.2437743542259847,-2.5695700053202755
9.41,-0.09934629887743274,0.6845730054056518,-1.9153191355170065
9.42,7.366817065873009,7.112744371713779,2.0628719471460446
9.43,11.784824345834146,6.870974118251841,3.56331750471797
9.44,11.34486590005579,-8.640079970625575,-2.269561362385657
9.45,4.073532642028269,-15.037426406740506,-5.430972876018547
9.46,-4.67021351578146,3.295222641897044,-4.999936865469062
9.47,-13.246357149557245,14.022887966835391,-6.853660496766279
9.48,-14.540851797750667,-7.9816782057620586,-2.081378299874766
9.49,-3.1778484794329263,-6.245536221018321,0.7107301643978903
9.5,6.649419701117918,-5.326078087521523,0.312221307208421
9.51,3.408062266050366,8.08437259204561,7.8603434939258205
9.52,4.965976799272188,5.411820717189755,3.2416026951877703
9.53,9.189074934570197,4.05944258080843,-4.630756754512555
9.54,1.2172470362430623,-2.5978154555816007,-5.064414344250552
9.55,-2.6009437567322444,-18.071380527379965,-2.555129554385066
9.56,5.508809220132891,-2.092127473006154,-1.1046387682863519
9.57,3.257468685700732,6.643269819806608,-1.3064393062731054
9.58,-8.736009926824341,1.7093866593629032,-0.5697243519166526
9.59,-1.5370087108723551,11.816652286038362,-1.505219814669083
9.6,-4.767253880104072,4.150941143005415,-2.6554812570787125
9.61,-12.202588012641222,-3.3977715941241806,-3.480454627363378
9.62,0.1328059702557023,-2.1173554885148187,-4.490863454498829
9.63,3.1811999810424436,5.375839379832006,-2.0488045708053675
9.64,6.472728480938211,3.00979760185943,-0.5860809193658301
9.65,7.469608853227324,0.1250638059089324,-0.16558258895715633
9.66,2.4526026129347906,-6.743024862953762,-1.5451439737111348
9.67,-3.056666433402649,-7.138154883015353,-2.2121308515664504
9.68,-7.91706729378238,6.066331612871484,-0.985824565598337
9.69,-4.750907606405283,8.314729098134256,-0.42903493858195885
9.7,0.46334718258218965,6.186979908927936,1.0242552930808746
9.71,4.798679022394909,5.5604932767924975,0.369634513643609
9.72,4.401388952208627,2.0056656329546474,-1.3998907394351667
9.73,-2.9553022035089622,-4.647642010778062,-4.1227275963153565
9.74,-1.705015718087385,-15.368051053178942,-7.200231762810497
9.75,4.6607682341904075,-0.8587041699741125,-4.7358885644479125
9.76,6.2616473249423015,5.128885126036103,-3.1046317030819592
9.77,6.235474660863253,-0.079138627745869,-2.8907023111924386
9.78,0.9856021291277006,2.7708939549375984,-1.8579910688000776
9.79,-5.458495512304514,-0.1735028713013067,-2.158504717312497
9.8,-5.579088706711207,6.14663208608779,-2.4453438048478215
9.81,-9.772009288658586,2.9975257076083093,-3.7642177944447326
9.82,-15.137133886938036,3.102214843845582,-3.7939823518471716
9.83,-9.825552280237698,2.7533627137834378,-2.617257266304888
9.84,-1.2915804003765934,-5.234070446691292,-2.316839162018002
9.85,7.180466592967504,-4.761995077199079,-0.17259476441106436
9.86,18.11148552590139,1.9593890441021609,2.9301524102983754
9.87,16.118788196875606,6.137246255030914,2.686692863619572
9.88,-5.624808266933023,-9.203042409822341,-4.388953323357424
9.89,-9.135292271780049,-13.162286128987779,-8.401042725117298
9.9,5.737293574213268,6.902041830976449,-1.1786040322717994
9.91,-3.7458936317461298,10.646521718588456,1.2554792301853537
9.92,-16.434551109619214,3.2290780328006825,-4.951925948869643
9.93,-9.429237487597204,-4.690666117230663,-3.696808846091919
9.94,-0.12220680936975681,-9.15130194302646,4.053267384090614
9.95,9.082132948027901,4.293645377437134,5.736262620990913
9.96,1.5797087392016262,10.696555372569613,1.0570886272637634
9.97,-12.782281539935905,1.60177324062043,-6.686488908869343
9.98,-8.72900188444708,-10.667477848888433,-5.935675309930971
9.99,0.4083039799484589,-12.250681262828484,0.6385755718198811
10.0,13.844102552544054,2.5672208677647435,1.295943534944333
10.01,23.371892118763355,12.786314709013194,2.600749949261684
10.02,11.705438776568963,10.249981455506843,4.192099043264297
10.03,-15.058383490360065,-2.29143898966994,-5.523934920037431
10.04,-23.57382837995457,-11.36061149414796,-8.660185348778981
10.05,-9.829647511515626,-7.197823720834593,-1.0643633555647165
10.06,-2.448319246431891,-4.562978596878986,-3.8357607098239996
10.07,-2.5659369214659873,-2.6870764369303264,-5.110410114725251
10.08,7.756729452582018,10.546890298046163,0.40126768822816716
10.09,17.177195838215308,9.383349652043297,1.7092863001637486
10.1,13.351387474011734,-2.8061995923543086,0.12332889202608832
10.11,-6.604409351105733,-2.434201558169864,-2.6299824125451683
10.12,-14.311422401091795,-4.570718715761738,-5.467204205980838
10.13,-8.43264684502709,-0.4708087518369606,-0.26872150934883443
10.14,-9.177700658622735,-9.266766181590757,-0.1293115817167445
10.15,-5.06364131499649,-2.5004224250741984,-0.6669619921269399
10.16,0.8104213276450831,5.6347613277841155,1.0737581724427314
10.17,7.191674839519335,3.8157918660394303,0.050483582751249534
10.18,13.932140558570923,9.708994349961468,-0.24425405229321306
10.19,2.3248922817493067,2.3312736081560725,-2.673011266986662
10.2,-8.702176236880847,-14.372935954859093,-8.832982316265527
10.21,-2.4758141222356222,-14.201532891580761,-6.0149638034640045
10.22,7.682086146628157,-2.660406331107543,1.69015908587212
10.23,11.812589450605579,8.968444913725639,3.0813223429901706
10.24,-15.420084863811146,13.462177244387238,-2.939591442252659
10.25,-25.80820017765644,1.3770350362637078,-8.174526411709733
10.26,-8.439208646330444,-9.145854743803495,0.6028010915384634
10.27,3.2128942173580657,-6.614321586588208,4.082331640410285
10.28,11.988440225169555,16.458579218068834,0.08145142432676211
10.29,7.25749326592979,13.151498247318706,-4.00270552670634
10.3,3.905016185758376,-4.851446143563535,-4.298113204880156
10.31,6.383206845558573,-5.09288922221566,-1.365719436871231
10.32,4.522723350031975,-13.27517056925839,-0.8605227138057797
10.33,2.143236024069032,-17.062068725215948,-0.2382311174891515
10.34,-4.310745801295127,0.210094442658594,-1.1770102037235468
10.35,-7.4729873687649055,7.975165411459726,-4.724863854089999
10.36,-3.184164402509847,12.244005863585055,-1.4830692307409548
10.37,-0.7003905968022928,0.966132309929316,-0.4952047163875436
10.38,0.252239161219715,0.10172258309899007,-3.650432596326329
10.39,-9.700852375507933,-1.536202803965676,-4.562784541646479
10.4,-0.4764034710254741,5.9980119494046304,-1.7296241125319218
10.41,7.949628934620508,3.417958468835562,1.0418091949972186
10.42,7.795008661493968,-9.139075376950933,0.6420346051097996
10.43,9.854072608389373,-10.862727405567767,-1.5653232356659108
10.44,10.788905470314297,-4.888889331950956,-2.916696418674819
10.45,2.499689214904361,8.727039579860467,-2.85311653232966
10.46,-13.359830642908511,4.844501390268299,-5.271939860470848
10.47,-15.487367754675168,0.9255028658848439,-2.9687139734126533
10.48,-6.359602632761124,-0.037883974713827095,0.7233820535070192
10.49,-2.6983992534592636,9.660988155645196,2.037688896456347
10.5,-3.168907810395246,8.125175949506335,0.6034243382880162
10.51,-1.70265730256857,-7.852367918896857,0.8364669603348358
10.52,1.8891735676859358,-11.06302824548818,0.594261877091737
10.53,7.76864539188221,-2.8547035631468285,-3.994302916883082
10.54,8.780893373142973,-4.810716008694102,-4.368165694819039
10.55,10.870744063050193,2.069970039045165,-2.7469219613218874
10.56,9.534117943909795,0.22447796880162318,-3.643126886046101
10.57,-4.965342844443109,5.378324514039771,-1.7342502757182836
10.58,-8.980862791829141,8.185255328164718,-3.663596263981071
10.59,-7.5108748084215105,6.57423840271661,-1.4323090688830429
10.6,-9.761249585326503,2.0386416504368796,4.00628805452762
10.61,-3.4096528271318354,-1.127708558114904,0.5146678765929664
10.62,-7.028819955505091,-0.6248082685189973,-3.4518189706783153
10.63,2.3321665833718157,-1.6416561605016717,-2.8900457659323635
10.64,8.383452567405651,-3.725155769960603,-0.4941582414827774
10.65,9.864142139918613,-3.8863314453240756,-0.2475538747832749
10.66,11.727994300546484,3.5610348673521353,0.6055799108753458
10.67,9.521078202735879,10.197649109198398,1.1152244014753985
10.68,-11.969201907235254,4.36389912347653,0.8976282671914073
10.69,-25.549257574368987,5.461145827554499,-0.12786822802680542
10.7,-8.012455038881377,-10.470748882171428,1.1204625656524492
10.71,3.1340479069037404,-8.145697706059071,0.41219348819746926
10.72,10.623799557486155,4.110598492004657,-3.4685894433817026
10.73,12.072601717787462,11.85657063365862,-2.887891431994706
10.74,15.834586573057681,5.111642830960219,-6.57522656969449
10.75,11.705204438234741,-6.447228801168038,-7.246209622898933
10.76,-9.943404489646865,-9.803183898984997,-0.23566726716578845
10.77,-17.455343029617115,-4.57753540042242,2.8698752443592035
10.78,-12.013240513739747,7.684702078498601,0.8963421310327204
10.79,-11.552780162776461,1.5685675353750055,0.42815005347343105
10.8,7.683705089010788,11.413979352748916,1.148091400940028
10.81,13.917611027288594,10.363131402150355,-0.19745890457425852
10.82,13.937188570385839,-1.9073275953357136,-5.194430180801951
10.83,-2.874481971579069,-1.7236954035000955,-8.228866938528851
10.84,-5.763089034829884,-25.842421390919018,-10.944354836242361
10.85,1.4854706925187715,-7.866712460462416,4.531148496941707
10.86,4.96516837507939,-1.0626380653255456,8.391541603348857
10.87,-3.9467211530123523,19.54946909740851,-0.6026618857285673
10.88,-11.3885869731627,10.892875173158428,-5.36626569240449
10.89,4.050740144457924,-14.55130075405458,-5.887984842354277
10.9,10.237407604481094,4.068049590113727,-0.737401655409192
10.91,-7.138520554604003,8.88111882138733,-3.1385807944590853
10.92,-24.25307707600383,6.088284276746802,-13.57386470201289
10.93,-6.8533988827153145,-13.050073955780643,-1.374091390480606
10.94,6.382812439757129,-10.020811679168528,10.93904512907015
10.95,20.98754028049411,4.273889692184486,6.859885430684392
10.96,25.293137424295708,-0.5618878720150455,3.525658599570396
10.97,6.9210035307085604,18.097251782705484,2.9962710493087314
10.98,-29.847695300433095,-4.439209106521982,-15.062916556594441
10.99,-18.472156447310418,-9.898833741824795,-11.152234435768202
11.0,-0.5489951673409585,5.978704703914145,4.043519071698739
11.01,7.380617781056846,-4.952908814399083,-5.142090438395355
11.02,-1.843552944108584,13.280164758563355,1.0668408596307346
11.03,0.41612154361587894,4.415090434643776,3.3727693330424797
11.04,13.056664797352923,-10.093871436905939,-1.1904438621124234
11.05,12.818644664361637,-2.5021939134040236,0.7945689651440623
11.06,-7.88903976683041,-1.6219192202324215,-1.0605160225919068
11.07,-10.308554117666825,-15.320729393227762,-6.608824783303297
11.08,0.1579728618231232,4.962617749651846,-1.7194603040838388
11.09,-3.571796173432704,4.866658314585914,0.4955971500154003
11.1,-1.8924164228787757,9.153616940841875,-0.7949076974927647
11.11,-8.12376477964066,6.011598212996939,-1.8914768210155812
11.12,-7.999700266445393,-7.359309151102186,-4.594779959916086
11.13,-12.184315453214145,-1.7479934502831291,-3.8748760420623345
11.14,1.922999315150215,-3.6959276999165835,-2.716913212240527
11.15,12.438352227386961,-1.1532235048633812,-0.30833037929133555
11.16,16.451535566974428,1.223802647572688,0.37282655281044297
11.17,16.003355523369517,-5.119159618643769,-1.8411003827801908
11.18,14.93061498981573,2.2087977481365275,-1.915134802447373
11.19,3.1375052656167446,5.219753769687536,-2.064506532771717
11.2,-21.07128081999113,0.048892905182649604,-5.181711525736846
11.21,-9.10082206680042,-2.469302048915985,-2.7607024798960347
11.22,-8.399072200833668,-1.4561171220519036,1.1390684048982882
11.23,-9.448701221561999,7.00429072308209,-2.9603322971396997
11.24,-8.96408121410584,7.249047845059852,-4.721496439797981
11.25,0.13195891022240408,4.898580537928605,-1.9442334295853576
11.26,5.028932687830261,-5.108387538379944,-1.5399311730200047
11.27,13.312457743453534,-2.482112027517208,-0.4477485534230756
11.28,18.49995980739607,12.219123169356608,1.1740749414468292
11.29,1.7139429190379611,-0.8736910845142281,-3.804230046271235
11.3,-1.771279384258101,-17.480673723887243,-8.155743926436406
11.31,4.708427528709557,0.2263775286998715,-2.3434289394851855
11.32,-11.659128402234618,14.218791554433944,-1.833618693008074
11.33,-32.284373453151716,-3.0131394345112223,-6.3867088473222955
11.34,-7.041930188325167,-5.662257661498417,-3.427067329589418
11.35,-6.041616390060067,-5.004122824584667,-1.1388818012467046
11.36,8.051286774778628,0.36472416063535107,-0.0121669228472705
11.37,18.496785521392354,18.67039694762389,2.043888299193908
11.38,14.432869589817095,5.810504639012908,-3.5920908066023367
11.39,2.2298927518065703,-13.57528467759528,-9.226119083114863
11.4,-3.1819728842330344,-9.078983105976027,-7.760484917187972
11.41,-1.824516158054717,-0.504822881522154,-3.988324046500477
11.42,-10.662623415736865,1.3823946159513278,-1.2269176634212062
11.43,-6.507850933786784,3.485943998498775,-0.9724064014438102
11.44,-1.3595300817000961,8.685466645774056,2.565212342886377
11.45,0.48405677873178554,7.635374332582094,3.624633254579626
11.46,-2.24942613513846,5.3037412337641845,-1.9425449746168404
11.47,-8.738031629923448,-1.9776489998713775,-7.495157570974811
11.48,-2.686790938581137,2.383817319830059,-6.496291129968411
11.49,0.8246638197480132,-17.837972843754287,-3.0920789030305826
11.5,6.25960263118958,-22.430375282067942,-1.8096220156905014
11.51,20.489382429368963,0.6767404402928507,0.4606868532275514
11.52,21.203852152252054,24.984749783504558,1.1371608058934313
11.53,1.0339956799387178,10.93904748325541,-5.550619499557749
11.54,-16.01721370268867,-6.655112497006499,-7.138985172167744
11.55,-17.16586659270743,-4.373103378387306,-1.494991632873544
11.56,-19.88311358576356,-3.7323021328651502,-1.9674528093456056
11.57,-15.908554619315046,9.858805534481043,1.0856115393031953
11.58,2.1615714010425715,8.400145799453911,1.751584783421332
11.59,2.176729913745362,-5.01284770621308,-1.824029170387082
11.6,4.413148544854077,-5.539400778582463,-3.766693371148645
11.61,10.473782131335774,0.1873107245201462,-4.872566687011341
11.62,11.55771369043684,-4.652949202693261,-5.645868154087783
11.63,2.926331611290124,-0.40715141443064884,-3.3494420012369828
11.64,-5.3547491453577605,-2.513447924012814,-2.4482730657909553
11.65,-2.963132037039203,-7.558103133409493,0.7215608176966323
11.66,5.679247159233575,-6.590600038912292,3.044096676065723
11.67,5.3217097946537395,11.00890509999903,1.769835864848999
11.68,-12.796610773508702,14.601450282275383,-5.876064055949204
11.69,-14.438252801299111,-1.300902443374786,-10.72399265788498
11.7,-6.218749182881774,-1.4303161183234945,0.42942392946391306
11.71,1.3001960159203727,-14.36121740833142,2.4681643092038064
11.72,10.745584470709694,-6.3192574479184795,-1.387859218541184
11.73,9.541899336026347,4.821361071104196,2.2777680912434057
11.74,6.011448546018728,9.600896121154573,1.3959081682593584
11.75,-1.8262461778701695,5.999215676004008,-7.625026556779474
11.76,-14.701611164187266,-3.1898671603199547,-8.534075089074516
11.77,0.23205953401612778,-11.762078870706771,-3.3802283526546906
11.78,7.953263739023745,0.3509982992139955,-0.48637037743391653
11.79,-4.328689982488255,7.974511516139412,2.4193420018786425
11.8,-8.058501939909068,3.9519496190176824,0.2571224100260401
11.81,4.609252967717204,0.2978629110172668,-2.483554231452475
11.82,-3.3576981587475685,-8.00092766949635,0.1593355668268444
11.83,1.5609899889518961,-3.6133844449655683,-0.9589374516360303
11.84,1.8126909889158576,8.023956157548854,-6.623758018339579
11.85,-6.5512752668258365,-0.5847873821499139,-7.784481620826737
11.86,0.6861195213106437,-4.732880927763364,-1.5478279836214281
11.87,5.1270617828886085,2.1446420257917707,3.657673150181003
11.88,4.196459648949995,-2.6338453524174072,1.949732251236603
11.89,-1.7236096092501088,7.570293432192558,-2.0436259978171014
11.9,-20.06772096700682,4.859074788476656,-7.283616709546067
11.91,-18.918357786221137,-10.424504812433401,-4.624254207712448
11.92,-0.19809360024924416,-4.354925101228433,1.5575513119763196
11.93,10.508850804622252,-6.102195870798566,-2.5016532554628066
11.94,18.64465259983308,17.17082544832,1.3697685212401343
11.95,0.6439400003120745,14.54176859141212,1.767156231420051
11.96,-26.642009226199956,-7.7202505440754186,-9.33174574843734
11.97,-19.910034102935896,-13.150150886172742,-5.536077147351705
11.98,1.5459461542394086,-13.550842110572978,5.4469269546784655
11.99,20.83420481826162,-2.7622173488621105,1.0819165909525585
12.0,28.384694650159954,21.788568264812916,3.636866982164554
12.01,15.462997477043194,13.019269796157097,2.4126577201867896
12.02,2.866575539997161,-23.064912698799148,-8.24827989320143
12.03,-1.027853874755976,-7.506761811036071,-8.84283441924995
12.04,-11.032248082761248,4.357700206334105,-4.295143523246849
12.05,-14.960861147833109,-2.311873813900103,-1.4859644460431767
12.06,-7.263477759164774,13.028232821664249,2.2547106732739426
12.07,0.06408470428288049,-0.21779862378538262,3.9177786607609906
12.08,2.664904388389539,-8.664706015074369,5.115972054797512
12.09,-3.7966841757599825,5.142585926174827,0.27466942023966645
12.1,-6.4525351076492,6.524191652412958,-11.041983476807236
12.11,3.919428043859633,-0.4509801764544479,-7.1987331818693505
12.12,8.57569532215827,-3.8699225914312567,3.1285721745554307
12.13,9.04550153156098,-8.790323624418258,-0.028188238737731464
12.14,5.665854456272223,-10.219030330907238,0.009823018506905257
12.15,3.952105396624103,6.820363556790165,5.546466467025717
12.16,-4.745014632733298,11.737589846368701,1.5517520011791026
12.17,-20.04762809632396,-5.118713777412662,-4.368721494363693
12.18,-13.92720849874484,-7.2843125598459775,-2.3579470006943497
12.19,-2.1443928122557483,-0.1471106346517197,-1.7834923053801248
12.2,-0.10471443387940371,9.170735244091391,-1.778586496255159
12.21,4.381220425044586,2.6594147357048588,1.0773295305189865
12.22,9.76657469531019,-11.815508312338963,1.3640276408091576
12.23,8.858356852955666,-0.34389017510007136,-1.4732282390391693
12.24,-4.298303168015455,-2.5623845770587312,-6.618814923702329
12.25,-2.6352067581448644,-8.468775228174614,-5.3401381922091264
12.26,9.938044095547294,10.900947594219385,1.0593840781967498
12.27,0.10992209668954978,5.929179336520111,-0.553430384354308
12.28,-11.132992442875103,-3.248804418117998,-3.4751554102335382
12.29,0.6685779762114148,1.579589436897594,-0.007363021312339235
12.3,7.036935491822682,10.627183507661353,4.592966319985768
12.31,-11.329768560281911,7.609141966681717,0.4047070835153921
12.32,-11.133760326729236,-12.16841026884063,-4.709128270163388
12.33,-1.158589323857484e-05,-5.66606683645502,-2.6155731329374814
12.34,2.3578119636448367,-0.6722977372480399,-3.3598801215157037
12.35,7.221756440589363,4.169124843782298,-3.2498843872157797
12.36,10.357962342900702,2.374202621375451,-0.507172174537081
12.37,8.086375259167774,-4.292285636150297,-0.4277608415860338
12.38,-10.002452002239293,3.042148050066544,-1.0501929650461659
12.39,-11.249246801127331,0.5590465505242435,-1.9372402673848474
12.4,0.9739931167461844,-2.8112867743809344,0.9922576092434685
12.41,4.977026128681194,1.1388152931939284,2.694661526655154
12.42,6.6898510588107465,4.204080568381925,0.8089147279898439
12.43,2.7331698709274415,1.1537295728450414,-1.5194310494169159
12.44,-2.3593388639728197,-3.2013782082972826,-4.879656291817449
12.45,-8.540805056732477,-5.426860757069643,-4.898963955404711
12.46,-6.738394351295349,-3.5494715939984847,0.9904256077600806
12.47,2.2008905705331294,2.369589264565223,2.1350958942184075
12.48,4.602907426514602,-3.609644317133208,-0.8269228266986224
12.49,3.822299460649038,4.604085759604642,1.8824208134726115
12.5,0.20659085781036746,6.2350106141143815,-0.35871910546982155
12.51,-5.069159612444025,-2.6206485474106462,-7.747919864658431
12.52,-4.115154702452465,-6.138948268167656,-5.684955748130016
12.53,5.841231172867205,-3.7689281447265146,-0.4938931981303556
12.54,11.422342435636688,8.85391232569905,1.8521594164364603
12.55,-2.628277913839348,-5.310028479312958,0.7605337840313158
12.56,0.13925319685787407,-1.3276657271949937,0.18937506086975403
12.57,5.649427079384735,6.425971939609575,0.4436154958504086
12.58,-9.667112760295874,-6.049039336698355,-1.528398633667754
12.59,-5.80419192865855,-1.8946071191207157,-2.51676964590168
12.6,0.7835377869057474,-1.3367591573275766,-2.3248494283770853
12.61,-6.115842046694086,5.27307810723638,-0.0094448102586
12.62,0.5192004422722274,3.506887225302969,-0.6307189696776645
12.63,2.6299120248025143,-5.779816851906876,-0.9593584097415184
12.64,5.704020693700155,-0.5549073349014577,0.4062601026863667
12.65,7.46060425138722,-2.071706173028745,-1.2355515816285458
12.66,6.42443284312982,2.463873401724464,-1.0987138874320468
12.67,4.452350499798407,-6.495719296940021,-2.707373735302079
12.68,-2.6895026003181215,8.88991382348009,-1.0250427753048115
12.69,-5.804689708304674,2.679739174633921,-2.1421117868911073
12.7,-2.0145512255971108,-11.063498254816512,-1.346491411565039
12.71,4.725429884602466,6.793252126984866,1.5185514697523872
12.72,-15.922363074609416,6.009428018398339,-3.3531232019486676
12.73,-10.456216522949651,4.610458689677509,-7.612136268944052
12.74,-3.2982625232405884,-8.789958915605167,-0.3557708751746116
12.75,1.9038689995398137,-2.439284768776476,4.063517253521034
12.76,9.138528803467391,-2.107885147550573,-0.5311064627119562
12.77,10.468028244334414,-0.6802528690851304,-0.9172355597981703
12.78,7.374536473102015,7.056933620607078,-1.3878242027059369
12.79,-2.7553907582217922,-3.970945553233811,-7.162972400592091
12.8,-3.3863642766329685,0.19798633703932467,-5.112466245916203
12.81,2.5473128512145453,-7.7122216792220595,-2.2760745878924817
12.82,7.441453913381943,7.103260718173972,1.0711087722770325
12.83,-9.990158985004701,-0.5895863591342092,2.7769002558388136
12.84,-2.5801193894392007,1.54540868876731,2.298159953330953
12.85,2.933317589106409,9.226453167937517,2.0324390355240425
12.86,-8.681722184422341,-6.000999168583908,-1.5823614550767604
12.87,0.014017080385549718,-2.1495792903639055,-1.8911345255092324
12.88,5.2084865853674955,-7.024709380338168,-1.195224565009534
12.89,10.31677366734809,8.66593559632226,0.3946044906844892
12.9,-3.564906952083131,6.912007307324473,-0.5140680619561667
12.91,-3.3894961080287573,-1.0748056741634793,-2.260184748739393
12.92,-5.114728502539574,-2.39772537784772,2.767172573546722
12.93,1.5411809622233985,-5.065589256226899,2.951845551908658
12.94,9.140525132208122,9.378279497565583,1.2313384684334374
12.95,-7.1114036991263845,-1.1749303893453753,-0.5439000142679837
12.96,3.4532927185012205,6.268966478859536,-1.578994201147454
12.97,-5.7849826393018535,1.7246903025897486,-1.429014628420235
12.98,-13.206210210071617,-10.827527848590377,-0.9117753848067396
12.99,1.579878193958761,-12.587653218671651,0.4157668183830373
13.0,5.647157764361111,-0.010683497935323416,1.2397660010924305
13.01,5.559394636828772,15.950405063006713,1.7454704209522993
13.02,7.512952124961731,-4.311232378263664,-2.0954715682088705
13.03,10.05309652939539,10.407592618346076,-0.13258466604819663
13.04,-15.121173694509983,-12.717461737975377,-4.452240581064224
13.05,-17.90954931609189,-2.585929032767609,-4.83305759202864
13.06,4.6977330290018635,0.8849069109539156,1.5572072423236234
13.07,-3.4484542984323436,3.9083445337115865,6.77786886891998
13.08,0.35273735932065087,11.515207693020972,3.6334316285043555
13.09,-1.4926049063803797,-9.596458870000133,-1.328769626644772
13.1,2.671835573383766,8.848636474976512,1.065813070682234
13.11,0.7062129560555839,-9.216889763510464,-2.1296208854165535
13.12,-6.5132253384089065,3.038821673700479,-1.690521516937126
13.13,2.291678185513505,-9.037426704491622,-2.031796278218692
13.14,11.852516770716406,-4.621252769113953,2.729147119786798
13.15,15.167084978393696,21.41367264982714,7.545769507470184
13.16,-7.40906141849538,-11.614993340870758,0.6769565171028793
13.17,-3.6280503093020453,-6.19991967149335,-3.6546605837065496
13.18,5.100434085915123,-0.45391124748457834,-1.5814490373938286
13.19,-6.331221542180657,6.334279965927892,0.6715215042770564
13.2,-1.220211327654674,6.106899510810019,-2.200730292080438
13.21,1.021220217134033,-2.8148218352988135,-0.7638183425939986
13.22,-3.8396567705729288,3.004304155289496,3.286214117791168
13.23,2.8807139204888754,-8.167149399075424,-0.4552556209760903
13.24,4.6911954296300955,-0.49772795826671956,0.1652939871657878
13.25,-0.7635155750848792,3.8110586789388066,-1.804104878833728
13.26,-1.578291619708659,-9.398074561980858,-5.941604430071447
13.27,1.64909212602802,-2.590241043532016,1.141719276622657
13.28,8.87850241599987,-0.04581329301173663,4.600190243913968
13.29,7.438696181256849,8.006891883246038,3.6058494724449326
13.3,-18.666482294635784,-6.912994925282617,-0.8188159809770333
13.31,-1.1076334908614707,0.5291295496873593,-1.6591335970034145
13.32,-0.2607614305838013,-6.593835470099908,0.6970583883157603
13.33,3.6390928920218064,7.7632535090051515,2.502728345935233
13.34,1.6918082848677816,-4.784919007992316,-1.827829840085341
13.35,-4.514544891426577,5.294736469324832,-2.6395298213103837
13.36,2.270024995123664,-9.72739374126929,-3.6993030933021647
13.37,4.477996199025476,1.2948924854628279,1.8129406591031307
13.38,1.6371237511774221,4.807793208735006,2.3083732587384764
13.39,-11.857088460990049,10.159753063661547,-1.9086649287534256
13.4,-5.002223981984235,-4.792495819181258,-1.4977409905808763
13.41,0.8774416672650627,-3.8013869022272413,4.826777094337116
13.42,2.271589065371046,11.116717358774888,3.793399046215771
13.43,-0.2620362802714982,-0.20966800614650583,-2.122625065788864
13.44,5.0092821009531185,5.905620439215068,-1.0971022258584437
13.45,0.5525322512816346,-1.800347645013113,-0.7873299001596944
13.46,-3.5643447090555833,3.438353866348679,-2.680533557521566
13.47,0.042612158793144006,-10.541424128026353,-3.6720798760625963
13.48,3.1112306053752166,3.2403947891740783,1.5922860013190778
13.49,-0.8935846580047373,7.206021511547153,1.8412984474797367
13.5,1.34290765734065,-0.3176474120002246,-1.04600253575213
13.51,2.756534389230519,2.985033525395986,-0.5789019249767384
13.52,-4.280489516369861,-6.1967823682238965,-3.133642145044847
13.53,1.3032046973231273,1.2130596120305501,-3.0106697623173773
13.54,1.965732373697377,5.869409072765434,0.5502482482756688
13.55,-2.0568126780780904,-7.216831068690946,-0.1688561014220784
13.56,-0.3279335559707456,-0.9422465086812036,0.23610061691004514
13.57,-2.620265613077647,-0.886579389492216,2.036656799833327
13.58,-0.8289530950758861,8.69963496315799,1.8408618025057155
13.59,-3.289182199619521,-4.384605459043135,-2.313692589097461
13.6,-4.219846886824826,3.5122117915531126,-1.2044686629204455
13.61,-4.993025303447183,-3.9818713383605306,-1.1325559463314756
13.62,-2.1379496496280463,-2.7666352763566566,-0.7905701813438737
13.63,4.86278223959641,2.9647520749502,1.3666165417030933
13.64,7.603039148806813,-7.1189402719962365,0.8370367599220447
13.65,9.48578933712037,12.902096846645119,1.2863115818807032
13.66,-3.590825219380713,-14.29757821156063,-4.443526745244176
13.67,-4.286710837376402,-4.118940857268592,-3.4860604686432373
13.68,2.4800721489167517,2.1356096317204933,0.5550026423587737
13.69,-3.270125207685641,1.6246777503479755,3.2585972288105314
13.7,-3.2116191778929695,2.9428182015389797,3.0653511099142743
13.71,-1.3593981070739782,-1.7798809881501638,1.9521118154514587
13.72,-2.6936996723104105,9.19884017098158,3.14391713204118
13.73,2.5543793290293406,-4.183575815097449,-1.1918032753121321
13.74,4.6909233187328825,2.001167792444825,-1.615883214730049
13.75,0.9815495253740008,-5.026218196151485,-2.125357140830153
13.76,4.31710068269777,-4.206702543344431,-1.5440739020841794
13.77,4.711739435293948,2.668523367939711,1.8566768401429865
13.78,-3.5589188250876056,0.1523174714709068,1.2913219356397858
13.79,-5.8433792176256505,-1.8039397081140995,-0.9948764927454625
13.8,-4.537999265350858,0.9454034111069879,0.7460487333113869
13.81,-1.4783555906505628,-0.7700906896188087,1.3632242442660385
13.82,4.9261006587819995,-2.4715194495615433,-0.5323016068852982
13.83,5.466463245049028,5.886259438170383,0.27358044470004705
13.84,-0.5280827575514704,0.5304022257041097,-2.700508096180031
13.85,0.6888135281403609,-1.276025551607751,-5.259571830995884
13.86,-5.158760044818581,-9.946051112036304,-1.718843293951882
13.87,-1.5531893099743401,-7.354169272454177,2.1207477628707876
13.88,7.630013742584842,2.703336758255995,2.5416771039066774
13.89,3.9565636778714266,9.02772733666786,3.681285064867411
13.9,-1.6362545875656997,4.828899100357174,0.1456323053317965
13.91,1.8758687208434712,0.904860685669,-3.803372903680845
13.92,-4.214047177194055,-7.24613231924082,-3.0991472595238263
13.93,-2.6187720238109895,-0.4911065843390454,-1.8053857518395278
13.94,-2.8608691755396545,1.68425463459163,0.014542941690920519
13.95,-4.420124883664007,-0.8514165391262498,2.588618050866673
13.96,-2.244948064745055,3.6015435340338433,3.3783730896258843
13.97,-3.9648376443837807,0.40256234920124667,0.1915770282899213
13.98,0.19802689185860653,4.9759988363623275,-1.8218336048494126
13.99,-0.4321833941060529,-1.0874071843557402,-3.1518552220776
14.0,0.49930466547163643,2.5383707204721544,-2.2694586681281486
14.01,3.1727073977852536,1.9287438004399595,-0.7006209477314447
14.02,1.3422715415104673,-3.232781678089231,1.0391184416801924
14.03,1.3998076173321135,-0.7036031455898892,2.145730353430167
14.04,-0.2500781183919704,-4.526126320251992,1.2270412438024731
14.05,1.2842192886093486,-3.1583947223028086,1.1456387700635173
14.06,8.90958240195804,-0.7449640683066017,1.3035207783481393
14.07,12.899918714114571,9.28357885124684,2.8925714933413382
14.08,1.2621052448640988,5.2592884040357895,0.7316199702349069
14.09,-10.881987229756731,3.341300602719367,-3.347331790629511
14.1,-12.656930663465182,-3.144208344750726,-2.042461057778657
14.11,-10.047104254981107,-6.637810917842536,3.532759103415136
14.12,0.8366484377382891,-2.9696740541087627,1.7358500813120619
14.13,1.9849586812433677,6.135176957833673,0.8408825851566316
14.14,8.202695225391803,5.134749774892375,0.42531509945179735
14.15,12.24604425193238,-0.9464906526950223,-1.6093107817496852
14.16,3.2273775993653384,2.960696782918668,-3.2361807876118145
14.17,-8.385871044750214,-4.938444861495908,-5.8334643100848185
14.18,-5.297354592552589,-2.08694936270844,-0.23400790259016624
14.19,-3.023011400193803,-4.200936547417585,5.831096084073034
14.2,1.7477907418577203,-3.7318763390007925,5.021246178391945
14.21,7.316002010684694,5.054320945604372,4.528530980876782
14.22,4.560153184174261,11.50534978810521,0.728646499331167
14.23,-6.488505046558657,1.8665699593882454,-8.68938073324435
14.24,-12.316185775199003,-10.99609363352616,-9.653161898817308
14.25,-3.1076611270677406,-5.3472859481672295,-1.3710997329212025
14.26,1.859776710023801,-2.9738416275361073,2.5629411929688706
14.27,0.8494317224188215,5.163125065709496,6.596102521787575
14.28,4.753060652592672,7.551059206189281,7.4158991165685375
14.29,5.893493199930899,2.2507189375293812,2.2295431234319047
14.3,-3.0394822405715005,-3.082976344771695,-3.2267543911571592
14.31,-5.569935008025468,-2.6747313474496246,-5.933846172822349
14.32,1.5886701408422785,-1.244672867067346,-4.2625005611668705
14.33,0.6462140083156371,-2.0916764867178186,1.1542382029271911
14.34,1.4677161962000094,4.099840936754407,5.280727282107452
14.35,4.244742827191368,2.7210762832106425,5.163311114458238
14.36,1.2670944602828604,-1.6972083420493553,3.1256001958008697
14.37,-2.9452324551580396,-1.7660393951686015,-0.9096047579238649
14.38,-2.9457570296157867,-4.095832432019842,-4.042338582259414
14.39,0.19637664541649635,-0.1296924309547247,-2.631950869432681
14.4,1.3614382082879812,-1.7045766211283704,-1.0038469713609113
14.41,3.1444558774544213,4.581075378392236,1.8836145598742589
14.42,1.8747405212465291,4.508051102032859,3.4401410026288715
14.43,-3.0889557287338216,-1.5904904157717925,1.5900370895737577
14.44,-4.801796987961512,-4.5339009393638365,-0.046321101053256486
14.45,-4.372513654272522,-1.8717141144005822,0.2568690364430779
14.46,-3.7115050044936386,4.589838576743708,-0.26964221593874305
14.47,-3.3327486909923905,5.198611859630093,-0.4950982834769492
14.48,-2.5709688455088586,-0.8157935646175414,0.8760066866670329
14.49,-0.6129809287173313,-7.644472587517573,0.9176887108735494
14.5,1.8521445634202782,-1.7284713529386178,0.7889046021350592
14.51,4.821704911560914,-0.2836309084424853,0.17786446944897039
14.52,8.583516152646148,0.9106381958719685,-0.7860209950437314
14.53,6.2076741374712325,2.951900900197558,-1.9762986257529884
14.54,-2.515260212629332,-4.473762617042095,-4.37161121923999
14.55,-3.6745024555739776,-2.640074882824708,-2.7435791152037923
14.56,-2.8053488646482956,3.1555101422054257,1.8822547538191525
14.57,-4.691252209835701,5.122168373811517,3.171557193937608
14.58,-6.133002777210968,6.7902278565144885,1.2597815449159764
14.59,-2.724470001348589,-1.6725315793403563,-1.1245648928885434
14.6,5.114632124671333,3.6224692906494953,0.26589563967166896
14.61,6.734042104447306,0.9443157436974463,-0.7565190515283096
14.62,2.2828417260143947,2.4064410180316065,-3.4056099085045686
14.63,1.261952203279865,-5.6487347707068025,-5.479517467667641
14.64,0.929979747453085,-6.230311760454127,-2.0304276073696377
14.65,-1.9181519387221495,1.0157036483079473,1.9385455291257827
14.66,-2.5975170692736493,-1.3223926762184353,0.8341310122137688
14.67,-2.4010706209930412,6.737788053464575,1.3118394127385509
14.68,-4.83983622894204,3.4823637439844894,0.7381385539769589
14.69,-5.673617792876869,0.39259242206606104,-0.9475459514905737
14.7,-2.9895749933714058,1.170708264407946,-1.2450981537298382
14.71,-0.2157992567864213,-6.284064718387107,-1.5066775898540112
14.72,5.785858528346138,-0.32840113950732963,0.4717645442977787
14.73,9.033834285158932,-4.220246801584305,0.6976038124576783
14.74,9.43958392073895,3.4044553065678063,0.44631126149992645
14.75,5.128907371692227,-0.5744973465611345,-3.0862578253485067
14.76,-3.5608744326204813,-3.6197458226944272,-4.565044606615131
14.77,-1.7796482273284076,2.341109281962016,-2.309144118584498
14.78,1.6757387173668512,-4.8224098684760595,-1.5866308946834877
14.79,-7.314359720329267,10.626161803740745,1.738392579729003
14.8,-11.95081702636867,3.6228230483300017,-1.8980088048194266
14.81,-7.804088002217541,-2.155992591281552,-1.1524757499160714
14.82,-3.7833956180514674,-0.6651745255390722,3.466632022604582
14.83,2.460905006954057,1.3309279284781133,0.6654123137475203
14.84,2.0617902123886687,-0.8554894009175615,-1.5146977479894599
14.85,4.403218793826879,0.737285945185002,-0.7962722298334874
14.86,7.091113053636901,4.722523731203594,-0.22386735152287235
14.87,3.52989112869568,-6.176015289375238,-0.9801638827351605
14.88,4.570355685910924,-3.620590081781539,-1.0000630758247528
14.89,2.128671766363384,3.7027438888341697,-0.8350643302240336
14.9,-4.966116894793381,-2.6400484845813326,-1.2812907648953766
14.91,2.333456707548901,-3.2073455018102255,0.5544419188343563
14.92,6.907342236013569,0.18644198483684882,2.7641322014088976
14.93,6.12226804798844,2.3653072096154713,1.4810246030276353
14.94,-3.7170911935781277,3.460076862292544,-1.8107751572722668
14.95,-4.73850059305838,4.319337422932472,-4.877521816504766
14.96,-11.323145073561584,-4.828281100943477,-3.015900154594253
14.97,-3.722083529876727,-4.042284876688988,0.41980753574955987
14.98,-0.5660399504714515,2.427417335562181,1.0876848876455143
14.99,-0.59215069718897,6.328339492092072,0.5120737940040745
15.0,5.626184082393406,5.613043882884254,-0.3939061213559384
15.01,2.555716626262816,-8.109580937194476,-1.677611223081505
15.02,4.438551161311643,1.4642917579121022,-2.4314497633200634
15.03,3.097140711169567,-5.553450881810673,-3.6301588265824645
15.04,7.044590655697975,1.5366993942680534,-0.8280371760044116
15.05,4.946134985147566,0.9781880036064292,2.319550685524239
15.06,-9.977540682054663,-1.5976731735373189,2.592688459775175
15.07,-7.625017983909831,1.1612351882029386,-0.48864026844895925
15.08,-7.693746408937065,-5.859408747262458,1.3661267433730504
15.09,0.5404035770245681,3.882289839338233,1.8298463072953493
15.1,-0.8636641212829255,1.653479865845921,-2.099649535119555
15.11,-2.814160869774393,13.161705571264207,-2.6298046927213337
15.12,-0.12227104181422721,-3.8153414595102078,-2.8213414840577293
15.13,-7.628237848249684,-3.455224193205474,1.6036379527366336
15.14,-1.0593976864409544,-10.782012584795176,1.662495599594249
15.15,8.746394235096957,4.9498965700737045,4.058956857977702
15.16,8.836933111845811,3.8475252653942693,4.173779558430648
15.17,3.4839881888154665,7.806859454721142,2.2436755095432135
15.18,2.3135540250870754,-5.450997277768277,-2.793680572470729
15.19,2.9740506145384984,-2.0266392213464277,-1.812121296449025
15.2,-5.061889659528633,3.3444493083444775,-0.33332230329665213
15.21,-11.4919478010447,-5.693295008554116,-0.28771005306072145
15.22,-4.1359444619018095,5.143204129420989,3.2942497430051345
15.23,-5.4202228735377735,-7.583224380091397,2.9200886663326964
15.24,4.245366117436529,4.3529786909189365,2.4385478804419902
15.25,6.892486696427132,-1.759274087817098,0.28991570590059723
15.26,9.703843834064454,11.712099448950973,-1.4749649360920551
15.27,2.7873116065160533,2.0731271917491885,-6.297917567318224
15.28,-1.1979604413635112,-4.956319384029708,-3.980161911030199
15.29,-2.3849868333208377,-6.075853421519713,1.3431115485116627
15.3,-5.041868327689938,1.3222666524982811,4.55525430394076
15.31,-2.4346424326439564,-4.551881366289644,3.3710973339591384
15.32,-0.592102138561168,7.786909312790186,5.567552432222656
15.33,-3.5016412379674104,5.541320782987732,-0.4176862170230127
15.34,-8.208611365890672,-3.5681628912356276,-7.381282973096935
15.35,0.5223140384284779,0.858491030095176,-3.089319345713096
15.36,3.677505823877528,-12.992273924577505,0.20302904285776124
15.37,11.755440769332935,1.6254495786193708,4.494985746662244
15.38,7.712153674280143,-0.09059848617855959,5.5796397723781075
15.39,-0.15228262465614417,3.0565581582948935,1.654649419362058
15.4,-4.689943415118897,3.8589210439608026,-3.8392533045205215
15.41,-8.412243275335694,-2.903511778904873,0.795225770822845
15.42,-2.5204236143521683,-8.369088785963342,-0.4017137650846191
15.43,-4.9574802341802835,10.452119894767572,-1.7639521627972523
15.44,-4.587731155663789,-5.315117003739244,-0.9013788026997107
15.45,4.140064291165287,21.78209325399408,6.072105536635121
15.46,-2.396850776908064,-10.840163674556706,-0.11772269056292917
15.47,-2.5091141324452777,-18.32689918856604,-2.523400309103137
15.48,9.952155393784471,1.3117513760211867,0.16799820157502432
15.49,15.59366316105322,2.622719066429629,1.960850250946828
15.5,7.52512972914235,8.280662535467359,3.730703769930493
15.51,-7.165616635694551,-3.462099250863102,-1.0232897720619225
15.52,-4.256292348019269,0.6260080310340849,-1.8686219620050322
15.53,-5.13605847814695,-6.352029885618591,3.214393630181384
15.54,2.7014387126269357,6.73755052976066,3.6751411879584053
15.55,-6.170804605661819,5.043220374758081,-1.1451711978881418
15.56,-1.6814450930580491,4.827468056867076,-2.9336611745016534
15.57,2.54229630582411,-5.595321229462887,-1.4094593305010967
15.58,-1.4336827391632214,1.5903599814267577,2.1575340423452554
15.59,-0.041619789004064475,-7.540221806891807,-1.2379133604485242
15.6,-2.0541859139706866,3.0473060476584077,-0.3129311637732469
15.61,-1.4291210543346633,1.5403561705911302,0.6823319626626756
15.62,1.8258751868797287,-0.9384459034568606,1.1493064669077393
15.63,2.6581272957279305,5.425676025093271,1.9139172547548584
15.64,-1.0278306229800922,-0.27506716029254713,-2.6938968388554807
15.65,-7.196996450062187,-0.10398267724543697,-4.123881229132065
15.66,0.7609205314835136,-2.2733330450577847,-0.7280238546030926
15.67,1.2135450996231287,-5.887217829423034,1.995673107522569
15.68,8.554246164130914,0.3711121318394519,2.082404228528643
15.69,12.493898355716915,5.018502509821134,1.4344889916320773
15.7,0.36240852628162556,7.37516910683909,-0.3608041334593511
15.71,-4.81071659915121,-0.5272634368770991,-7.233279908876437
15.72,-7.564661030898874,-4.074860178960894,-4.1901866286461456
15.73,-2.2616587033333166,0.07215065413625502,1.3993575937536118
15.74,2.9891907439716228,0.1572513842036003,-0.2806992281432949
15.75,-8.54463795649521,10.252273465776655,1.9983699241641835
15.76,-2.32564021629691,-0.5743049145433964,-0.9632778227069974
15.77,-1.1698286327087253,-0.8830576306137208,0.9242304875736607
15.78,-0.23180076913996284,-5.016230338917166,1.2174540463511847
15.79,8.366171094633941,1.6018202185132546,-1.5352470002578351
15.8,7.516130043323982,-0.5925999604375214,-1.613443737968549
15.81,4.1069522553208335,7.911066856370802,-0.4372300949930052
15.82,0.9317096098517587,4.281088638366535,-3.462576043431467
15.83,-2.8787160870150275,-11.361825587132007,-4.59609574502119
15.84,-2.4281991330731287,-9.294740627541596,-1.5027928970348876
15.85,-2.190091434969734,2.8448790739108696,0.1794387603251708
15.86,-11.291638123348116,8.72810294328459,0.1965590575278706
15.87,-0.21578132247114534,-2.1956887219742187,0.41087183907229957
15.88,-0.9593289464728524,2.846393192388492,3.2280072627648075
15.89,3.9984009188419956,-4.673235659089501,1.6148466762562572
15.9,7.22771287045715,6.642386166507494,0.8747874504311983
15.91,-3.7947985033565796,2.245045938796084,-3.2030511071169183
15.92,-4.337965757342856,-3.2732771024279836,-6.367432288422609
15.93,-2.965306746200705,-0.7760759316110337,0.33778853875535075
15.94,-1.5202940527342454,1.0088958190926074,4.726140696928466
15.95,4.7488171688003975,-7.0814979115067445,1.6118692276818054
15.96,1.4871239179595,3.400953249316972,3.735974442445669
15.97,-5.1326751605624406,2.462004670485684,1.35340917930018
15.98,0.6842138290901696,3.325489060207132,-2.544185821535951
15.99,-3.4407415505248773,-0.5223747400405254,-2.188000156809199
16.0,-1.8132393294141882,-11.6599296503774,-2.179134056536476
16.01,5.7045390054202745,-4.33068602962309,-1.041855750741677
16.02,7.776278976352874,-1.4188089885339643,1.5042440386653313
16.03,6.144520213010226,14.576377097088837,3.1494317111441408
16.04,-3.9162788398548067,1.396889082403621,-3.1442192586817135
16.05,-12.138125972191672,-6.427365357511945,-2.4417817213637485
16.06,-1.1009363146259434,-5.1725720155151915,2.9879062311817557
16.07,4.681178732923248,-1.874557302457239,1.8245145755703376
16.08,-1.8078317711507754,11.098309874618808,0.84083794197048
16.09,-3.655341050454788,7.050982010848088,-1.6260129998423591
16.1,2.622783223499287,-7.74777629191315,-2.3255686725834086
16.11,-0.862047214102712,-14.730738006554299,-0.39797582444852886
16.12,7.559723105355336,1.4230987115679028,-0.13703083550864315
16.13,7.809732423052994,6.118328706283797,-0.5752886577825551
16.14,0.5452145418117738,6.041483376444245,-0.04702830221233678
16.15,-6.374474266366738,-5.468880116695495,-1.2609532090673135
16.16,-8.418066356420795,-2.9699532148940238,1.1859789403583338
16.17,-1.0543773240326284,-1.929546754389527,2.7525501930570893
16.18,0.42651174587312246,6.566953727028009,2.2763768470207464
16.19,-6.7336692335683015,3.802994149351236,-0.8236404892513309
16.2,-4.403472026926435,4.089462799785988,-1.4923125563869457
16.21,-1.9176915786098845,-4.679450753351418,-0.5115648376155496
16.22,-0.5257320118385316,-12.233665798979281,0.4318915281743527
16.23,10.43970101871544,0.5389998443170259,1.9361720298214875
16.24,14.193561209461173,4.50832073907688,2.9773333993438653
16.25,6.514000094706258,5.871793726779758,2.5185590968556477
16.26,-3.237546119924776,-0.8584731377141166,-1.6984094032047672
16.27,-8.051889094983686,-0.40306795457086,-0.6961246890936024
16.28,-10.762982743681581,-2.411095548338984,2.56676024294875
16.29,-8.284558231757043,-1.7190227448901214,0.9339265159464707
16.3,-11.48039289543745,5.8374344720270575,-0.9548493492289327
16.31,-2.7402234791421236,6.504697740685268,-0.45646155329070304
16.32,4.178149578539809,1.7228014811550247,0.9129417280894517
16.33,6.178900023305252,-5.431682090679767,-0.7058792867616421
16.34,13.176389965417023,-5.9270376322129685,-2.5367249444146784
16.35,16.551587448930636,6.68825182531207,0.08418409626265777
16.36,9.443719510296827,2.768285921390112,0.2642697224119166
16.37,-3.3400405325220754,0.021361663584664514,-0.6988744140411352
16.38,-14.917824359630073,-4.1969598508719965,1.1220652118784633
16.39,-7.794190693094974,-7.9014578279753325,2.8854311845366594
16.4,-2.6773019434350496,2.539244685998023,2.686649087782398
16.41,-7.385601203493147,12.875289954939998,2.011949671508646
16.42,-0.09618930448626628,8.63935243737466,-0.6339231040686537
16.43,3.533256158481043,0.5015289460518693,-0.8487709416919181
16.44,1.1073094796531593,-10.58091256721974,-0.7966779416703432
16.45,5.6612612099165815,-7.640164331009609,-0.21455199243472745
16.46,8.784475906452226,-0.07784370136868746,1.9182263684389538
16.47,8.705682647445826,0.9458004002220408,2.4644232550733065
16.48,6.705403331422463,4.220633902638944,2.4554661935366435
16.49,1.4112740142265459,1.3213912656212905,0.7874575456771149
16.5,-8.29638761376694,0.32248801924311365,-2.1421550155837505
16.51,-13.02046876441675,1.1890560092110471,-2.747884071161802
16.52,-6.841792328263073,-1.2310135759176968,0.4337888524827551
16.53,-3.7102158074575233,-0.7901665527438876,3.567313035836596
16.54,-2.331701234621979,1.091660565054226,3.1255444018769287
16.55,1.1729739562035484,-0.62554123295032,1.6568809604039911
16.56,5.1091105828972125,-1.0231912951118574,2.028628636518749
16.57,8.259930638574959,-4.484662440829205,1.5158166644215756
16.58,10.998314000533668,1.7805891541793084,1.4536487891424144
16.59,1.9635916074349762,7.265969400690263,0.8609412759643631
16.6,-9.656741874618556,0.8099017494584093,-2.9695976870069045
16.61,-9.19595895195182,-2.1245057854985188,-1.4967282208103767
16.62,-5.452038318494339,-4.259312885427876,3.547791649115941
16.63,0.11265088853784944,-0.4432866596191425,2.658070985279869
16.64,0.11824680443786661,3.1532436548870937,0.33872112580935276
16.65,3.686614235702966,6.935782564710038,0.6289599656557248
16.66,7.382737401367257,-1.8140320618583434,-1.256086460064969
16.67,5.645209421810042,-5.983220173634075,-2.684938784131467
16.68,6.409823677894733,0.9277484717801896,-1.9282323576140965
16.69,6.787119761103503,2.188416878573542,-0.5685815332097945
16.7,-3.6021206928973024,3.362582057374283,1.381733402843922
16.71,-11.948550692828686,-0.3185368341028223,-0.6771896878155528
16.72,-13.665723605564537,3.441025273522115,0.37430844112914974
16.73,-10.966578852537983,5.5221289242615255,2.617541453849391
16.74,-4.916549163356451,-0.3411348880128964,-0.08845738418676419
16.75,-0.6799078950770834,-1.6744988067975748,-0.7547341171567143
16.76,2.5156618956267844,2.8713801846717306,0.30865788577491554
16.77,4.37404020354319,3.0335857373048905,-2.02780481719648
16.78,4.570582177346735,-3.3940759305159798,-3.5727423812654195
16.79,4.743902990360748,-7.220577604768297,-1.9667297881307821
16.8,7.45247894630577,-7.655324831131735,-1.1129566796019599
16.81,5.584590796266108,3.937444099142927,1.2265749556029413
16.82,-2.8411542689340044,4.772530945302431,0.3356007738515845
16.83,-5.962084032146646,2.456488527779359,-2.224804573231756
16.84,-10.52550394619762,2.025186800820414,-0.15494980934867275
16.85,-3.9400177489471275,-3.811439809047993,1.8960075381153838
16.86,2.8028064852469026,-0.6956774642463159,1.7984791739460695
16.87,-1.2028031230736946,5.148491726763761,0.8523321673489381
16.88,3.2852461670341353,4.281637241052897,-0.7610348727345775
16.89,5.9548699607359765,-2.1060898148467317,-0.15093895549545921
16.9,4.957660883106624,0.13160678996476616,1.0055793740042303
16.91,1.689066626601469,-0.8124784332729948,-0.7250125734658517
16.92,-5.242819479912411,-4.851645636006853,-0.86629155469396
16.93,-1.27474914084089,3.1716032114659223,1.7434078060226357
16.94,-0.34952828837401784,4.203093329344986,2.3379757415759843
16.95,-1.2142263470995514,0.26696290033137915,-0.3277066780163955
16.96,-2.2924429469943757,-6.638799011755322,-2.6066382757923154
16.97,-4.538601509438124,1.3671155674647082,-1.3981360440204222
16.98,-3.4862271792580573,-1.3102667027749755,-1.2673512571289849
16.99,-2.8241721590329316,-2.7994116228232837,0.6478336219484644
17.0,1.9687003626507207,-8.02862027612612,1.4921890240731484
17.01,10.475861546076992,2.833314989452491,3.489420210681703
17.02,9.588336475725594,7.159173743222976,2.636191394146696
17.03,-3.0627280580615324,1.7424615473165446,-2.78064326316672
17.04,0.1186671247951745,0.6266195919066934,-5.899126626996276
17.05,-0.7290055732853387,-7.689746117362145,-2.9754001379995185
17.06,-1.4905896434631187,-2.896740673555122,1.211992369162766
17.07,-0.7210106611378886,-3.2339391237861275,2.0556581427903686
17.08,1.3768476486655823,2.549911086246591,3.307659565015709
17.09,1.2813999744244247,3.455181565024212,2.517880460651264
17.1,-3.8417995102531615,6.5550482238829755,-1.494006433901251
17.11,-7.576564244630916,-1.3881225955545773,-3.467431389100345
17.12,-8.060587359280794,-0.24385419453763912,-0.7121031806495628
17.13,-6.022271898243341,3.5902787077909837,-1.7512801836626624
17.14,-6.1504918023433035,-5.583806630073784,-0.940129719769931
17.15,3.056918820742349,4.245399836501949,4.62664120184517
17.16,8.956321533373838,2.0945573121629097,3.0899898445189335
17.17,9.517244463079907,0.43017253969360847,-1.681194004245346
17.18,1.2847807330091268,2.9673582428170553,-3.4424358012723166
17.19,1.9292276724230812,-7.293980139452948,-5.940761006947
17.2,4.273925531396404,-3.8669774692281527,-2.534935848941342
17.21,-0.9891463510704801,-0.7096807520910702,1.6702944410318086
17.22,-2.449629062652682,-0.12115120796535939,0.5658942729196303
17.23,3.0164829593079405,-3.0662091025307494,0.28803867788767074
17.24,3.5522324395413754,10.044387676415166,2.7287467068386433
17.25,-9.010390159659627,11.52738909026738,-2.2038535903409957
17.26,-9.985918596048696,-0.18624804895560843,-3.9976719563605103
17.27,-2.774911670038806,-6.818889508133985,0.7128629978228913
17.28,2.912233375755661,-10.922506624551602,0.7735984617558376
17.29,8.041258536205646,12.225488325290081,4.655974868635017
17.3,3.24814423759776,11.113319491359187,1.8934379373228563
17.31,-1.7754388646454209,2.349039869920947,-4.63770205934462
17.32,-8.20731401523992,-12.457745600707435,-2.1679289433510043
17.33,1.389959154418552,-7.01964996196946,1.2408498884973562
17.34,7.999430546572128,8.866875430045061,1.3725139672312296
17.35,-2.0413543599620656,-1.0847039350602632,2.2026383371132905
17.36,-1.70597441178314,3.237070400080093,1.866668449636709
17.37,-2.9587803394642345,-3.3413629000052847,-0.4770017277241412
17.38,-5.316686760326222,-7.10458525425387,0.31071893209020396
17.39,1.3441283249434486,7.827139766284659,-1.1841773177945192
17.4,-9.822952529487427,-5.498623661785912,-6.267660786741944
17.41,0.8195966852539058,6.129348049084926,-1.4536143236105996
17.42,3.521145450225543,-5.058929233301074,2.1625604844094743
17.43,5.523319451183953,8.82158988777655,3.0483792181578373
17.44,-1.3233990386342036,0.8373297910542821,-0.560886258827836
17.45,-0.40195003510621063,-9.636590040746672,-2.4767626924310604
17.46,7.590498248569577,4.744044021510547,0.6781528260631609
17.47,3.0152931228325848,-0.21542221336506095,-0.019500095062060296
17.48,-4.096452520521815,1.3380595835433948,-2.226872893710181
17.49,-1.2806280800790688,2.1824303642091505,-1.5577297532190888
17.5,-10.114057281044051,-2.458889966473047,0.5596246805472407
17.51,-1.4510633252020302,-1.772484658605717,2.0863091569709953
17.52,2.5631510927629964,-1.48138634276124,2.9888671624974807
17.53,2.977967400542713,16.867114611669102,2.710019261450156
17.54,3.9408078783150473,-0.5645932151958419,-2.5425852691808086
17.55,1.8693554736765234,-9.835207633072322,-3.136729044487601
17.56,3.594849991426865,-6.1403060368699975,-1.719878752683643
17.57,5.626196608756657,-1.3036185954652186,-1.6190339773178797
17.58,1.3084950696715971,8.973804361119038,0.5516979056094196
17.59,0.4901194691302069,-4.990690875617311,0.9613104067298553
17.6,0.38967339259889483,7.434196961750987,4.121550940645855
17.61,-12.691010179588671,0.13852699558303527,0.6010635885793811
17.62,-15.05408337591887,0.3508533604341971,-3.1656710719012944
17.63,-4.202783669305502,-0.16190444971842544,1.3540420849488846
17.64,0.8030603762560125,-2.614994194185587,1.0524137343238087
17.65,2.2262810569124802,-4.147334321501122,0.3444872567627243
17.66,8.065043196123549,0.08356771135564056,0.44986704211829065
17.67,14.363015243013471,1.320926881248449,-0.47553895363171766
17.68,9.169680347139558,-5.801153902664028,-1.1017871301619064
17.69,-3.4766186704446036,3.5079177046985466,-0.9950327256738773
17.7,-5.416033401640755,-9.86331539650665,-3.6507903670783333
17.71,-0.46563110050359946,5.914337527259077,1.3163358167944403
17.72,-3.102941481618631,1.4190916302093695,3.061955338672504
17.73,-4.9305805777310745,7.831833484397045,1.7769007286206977
17.74,-6.731211944098113,2.869446861510803,-3.5226392373841438
17.75,-4.310191070806407,-4.4630882583977245,-3.556733391540401
17.76,-0.434797217896083,3.3740993159441657,-1.1449164774462004
17.77,3.314873109212273,-4.748296640225183,-0.5353960182117503
17.78,8.248301090267239,4.456659446376281,1.175504795947335
17.79,7.765009096760292,0.574350319400795,-0.12503169583742427
17.8,0.8474566984333909,3.045437591864833,0.13253053122227787
17.81,-2.1772638327138045,8.54448434900907,-1.3716920634105871
17.82,-9.266393271839522,-2.9602155610922134,-3.21054271537246
17.83,-10.227223376896514,2.2713921844415883,0.022720533667917167
17.84,-2.054501376690496,-1.7460700120983335,-0.20309041455305596
17.85,-0.37704628135510876,6.380860899465983,1.515417617047223
17.86,4.844358532170169,-1.9576085840624131,1.099040157273666
17.87,3.975602335918507,-6.0873921606754,-0.3671549426586479
17.88,3.737058653072357,4.227655654323435,-2.626308837946602
17.89,3.2969975253091452,-6.4002709367214505,-4.622777041322896
17.9,4.816755066182407,0.8130027483061878,0.47017961549038445
17.91,4.658409758779769,-2.6265732035969545,2.3758943513139017
17.92,2.9772920057552468,2.10197729466371,2.796468687412083
17.93,-5.045525327478682,9.048170323972698,1.8836135129769278
17.94,-6.177257738108247,-2.6061035377812782,-2.0373949776041087
17.95,-16.877359096491794,9.932185010628466,1.34688973456108
17.96,-10.682062399520833,-8.804136662804336,-0.03298121497550008
17.97,-2.2227449153250194,-3.621262873831508,-1.4615679936049744
17.98,2.250440166362367,-6.939466905090437,0.5192050712690566
17.99,13.494758217398033,6.048410492859063,6.189565953379162
18.0,16.072732778956652,15.103542349721742,3.881325023033493
18.01,-2.0970823947916495,-11.82901982257177,-5.1638931911367685
18.02,-5.923394333041967,-4.179381428304813,-6.016446712512339
18.03,3.2215268926030705,-6.721581146386145,-2.404376536502843
18.04,0.696617085362643,-0.6435088844728745,2.231477683588415
18.05,-5.827846766950757,3.7504285672564315,1.9264236552028726
18.06,-3.7051372739175976,2.6318797949156822,-0.5555479668355797
18.07,-2.172150855829411,9.130726032499574,2.1472265485588293
18.08,-8.109224489125463,-3.13872495456772,1.2109099741336335
18.09,-2.593695916492539,1.0707717420290659,0.6498934675982234
18.1,4.7802672840996525,-10.544497288462635,-0.3651958146534602
18.11,13.85522355719421,2.0379480433204487,1.3342026628687953
18.12,11.085489576698361,12.354861793910427,2.910399693840039
18.13,-0.3864730813679292,-3.4778388993676757,-4.650868826348697
18.14,1.654637065947057,-9.371491365649511,-6.189531547591642
18.15,4.741180300013698,-0.05810753063620361,0.14830620800364347
18.16,1.3181731226328375,3.8360392165261175,2.5015363391026413
18.17,-12.42369642162898,10.36560448181558,1.4371674750668488
18.18,-15.762574833582821,4.773079785968099,-1.58306295153431
18.19,-19.673658371071344,-1.9805832359631947,1.5135726550337587
18.2,-4.077417720922042,-8.71946589036233,3.593510259467419
18.21,3.42958286356671,-6.051998132160181,-0.4214622577160006
18.22,3.304131297098662,9.32960338863646,-2.0727595503661616
18.23,10.658265989274565,0.8403584612506529,-2.9592831723681847
18.24,14.438911632714653,1.014006275130221,0.6028609101543966
18.25,8.011391320420685,-12.519326469996939,1.5430869741264186
18.26,3.5114794584929636,-9.011630536263445,1.0415642760194856
18.27,-1.9546464035585367,5.7540243979600145,2.8976347948703167
18.28,-4.975280077635784,6.668124133913636,2.929349460841812
18.29,-6.089406785227658,3.72830788535739,2.528932113859993
18.3,-2.9817457320181866,-1.349635890739866,0.6974810174971879
18.31,-5.196200010331835,-1.3573599505649696,-0.9434850925577315
18.32,-8.567538409268717,13.921041896649534,-0.564620742167953
18.33,-5.731997482136308,-1.299737107429603,-2.646717745826497
18.34,-5.3246664509583574,-2.5073620802037064,2.2491874062888932
18.35,3.057284728296983,-2.5294637271425477,3.4665386799998155
18.36,9.751782863972888,1.3292198577579497,1.8432035878505415
18.37,12.609051088087336,2.0866617466970823,1.7283100679300576
18.38,9.333922485778679,-1.9105956660442,0.9865374545787851
18.39,3.3022076023355074,6.535333733106187,-1.2348913199644063
18.4,-2.3576938183475606,1.37685931986655,-3.4536718552572028
18.41,-7.047833887838442,0.8781913642018551,0.6324158155018529
18.42,-8.898256778845814,-6.780748275731468,2.659044096820327
18.43,-3.4636876508672243,-7.38055760347153,2.537109405446131
18.44,-2.7542507157344884,-2.1475662164831375,3.708770103722513
18.45,-0.37220863790768777,7.827172970942223,0.9476356203605594
18.46,0.33244724494527667,7.51354921017382,-4.182215128255065
18.47,-0.3496398282844438,-5.51829167652939,-3.416717102298141
18.48,2.474542603609997,-10.451438468426367,0.21789642617327443
18.49,9.975902446683396,6.637936742429767,3.085755885077746
18.5,2.223513711911142,8.499255808439266,5.019855068970016
18.51,-16.939058293381493,3.2853760574188997,1.8486932957360618
18.52,-23.35451939840897,-0.7558114883884715,-0.3057479715570173
18.53,-11.50257108260214,-7.279128745231271,3.621233729070704
18.54,5.578252618546923,-2.8195926229901986,-0.02156881444447345
18.55,9.702031744817239,-2.3244029945152898,-2.4362113943470063
18.56,15.641140141693068,2.6445749291165455,3.49632129798898
18.57,21.500416672198607,9.389888338212463,4.001133332116833
18.58,9.75903815463388,-0.842805259508264,-2.795964011909861
18.59,-8.73339782674348,-13.727812114225594,-3.1421907712918915
18.6,-7.0882237858240975,-7.246777737148713,2.7238450481142547
18.61,-0.8630678133416354,5.59780822794214,4.8377030635828735
18.62,-3.6350566518360394,2.058345272620708,3.9135932480920554
18.63,0.6226845907702403,11.791901432868432,4.3075041621941335
18.64,-2.2113516130791493,14.727429902660482,0.7930229103876494
18.65,-13.8879923254018,0.8769384825297162,-5.290442119630752
18.66,-9.874646939225116,-1.982081559798754,-2.394398449664487
18.67,3.2480431808223846,-7.492054811094931,1.9452902475379437
18.68,9.231968138679136,-7.869873501056113,2.4895896997132185
18.69,17.177556399792433,-0.8965060821583046,5.541962583103144
18.7,18.78916414347404,7.9654368949043155,6.293604690880963
18.71,-3.77880909322632,-0.017850666441548313,-1.2007302094939698
18.72,-20.67811995357242,-8.532004881043033,-5.00571063560517
18.73,-5.859408470291205,-2.562274638417117,1.207316120622913
18.74,0.2553280548781709,6.243870094010547,4.472144552532826
18.75,-4.934950359831429,2.7695421355867857,1.8568355411740152
18.76,0.6219224201494713,-0.13884740867257683,2.85198088147952
18.77,5.369670427576801,0.985635922907675,4.272109132899878
18.78,-0.02074754266247414,-2.423102084662877,-0.308013053802743
18.79,-3.806293138415407,-3.9846388718234693,-4.001999216672966
18.8,-0.0371408184636004,-6.654057213018182,-1.1780720633094894
18.81,1.8202786176416261,1.9001679479802966,3.9719745728013454
18.82,1.383879584114492,3.5949299203333593,5.587924906005126
18.83,4.404677872138892,1.1794666760805728,5.060606442955309
18.84,0.5183377154594364,12.04619264064918,3.794290159748282
18.85,-12.04382274200914,8.244175207137296,-2.646666431945684
18.86,-8.275227302301708,-4.9411877736771785,-4.79225637371283
18.87,1.7178112489403254,-9.970234958305294,-0.5368510698061271
18.88,7.6629267144244455,-3.1083759797462207,0.48217365034200743
18.89,13.291040137737815,12.201710921369596,1.6156795467336424
18.9,8.13830262112226,3.0409015185797266,2.0379630451893944
18.91,-6.779694360811186,-5.1549361256816155,1.2701952461234165
18.92,-10.238533641257137,-9.543061931153483,-0.25833433122960403
18.93,-7.787473496741838,-0.26786578283718043,1.971332022530563
18.94,-9.029791074810943,16.63239571746811,1.785517560049763
18.95,-10.369343301336295,8.678883813832039,-1.0112319511478485
18.96,-7.435764174968758,-4.507606539840534,1.9674102208129647
18.97,1.8315390816748343,-11.065713452563099,1.9076956127718314
18.98,10.310379162369006,-2.291519156642309,0.7233393681398219
18.99,10.74022517342605,8.646988822931977,2.0463111857924674
19.0,10.613994488739714,1.540962351956809,-0.60792134624911
19.01,6.782384266833949,-11.424821361177958,-2.3645158669938997
19.02,5.2284750691405115,-10.278510717017,-0.09262206169764253
19.03,11.571636966005187,-0.39814410474927975,3.1921205798268555
19.04,6.529274399392788,13.001153685606504,6.0947958281963786
19.05,-25.47448936701463,11.21918490640285,-0.6532304114320873
19.06,-39.02058442494922,-2.2246200623622485,-4.639809616023416
19.07,-16.0481827042874,-6.5552614512344896,5.2801169957141605
19.08,7.025528695597628,-4.585029676031239,4.478260945070137
19.09,14.23995645079772,7.242664669009455,1.5146499342427502
19.1,11.532042189174225,8.231266446640818,4.699019124254353
19.11,14.826083657748608,-0.5897608186848924,1.0167542176123154
19.12,11.923321436935494,2.0887366319095997,-2.113727434947101
19.13,-3.5074376632815287,-9.21014746926036,-2.637027939512304
19.14,-4.192444656294846,-13.12509826708601,-2.7781790523654646
19.15,2.3255562557664486,0.7577237293175543,0.19533469940205128
19.16,-5.88507057567655,5.551819066109131,4.765304355665117
19.17,-5.014651153958981,7.156513177236745,4.1266655110558315
19.18,-9.357340905671254,2.900497845672999,-0.7989979589613139
