seconds_elapsed,z,y,x
0.0,0.8094552651882171,1.3927625183880328,0.6530106117621064
0.01,0.536483356024605,-2.29842211315517,0.4662094371602551
0.02,2.369236095452091,-0.07183791755568891,0.6706114814025523
0.03,0.9249877001398955,-1.2973172290057695,-0.10792570306442034
0.04,0.2595299489342239,1.6398915775691634,0.13278538868593692
0.05,-0.643363748939853,1.8006905311464723,0.3065445502206435
0.06,-3.102801561371153,-2.058275210275855,0.5285414081079944
0.07,-1.3893054648763594,0.12997934835895225,1.782477389144589
0.08,-0.22696629240430216,-0.5333683054978855,1.8920565995763423
0.09,-0.23575439327201844,0.9614693268028116,1.4024597984682432
0.1,-0.1383505663455525,3.3416337693574882,0.6739835206154007
0.11,-1.4530631686170894,-0.40650932157162867,-0.2763106486275185
0.12,-0.7586049939845595,-0.9643985370281993,0.4467947227543281
0.13,0.30760953880584724,-4.297276214733609,1.374314729695407
0.14,1.583305247110261,1.506890737743375,2.9657839260538355
0.15,1.6243022696885538,2.61628668960301,1.6089145051439726
0.16,0.8582154751867361,1.1553429432994096,0.3014141803862468
0.17,0.3553105616636529,1.6267434904438416,0.10123096921127127
0.18,-3.3563844577751567,-2.3164070889453123,-0.5423402756057422
0.19,-2.270971897016612,-1.863421304667587,0.404116960714419
0.2,-0.246710026283318,1.5100442425127167,1.8163866416494479
0.21,2.472421511575036,1.9862389079114067,1.835280941237684
0.22,3.2690528898448674,1.7887508115459552,0.5189077769638811
0.23,2.448452954914273,0.8883446074063391,-1.7397032274368518
0.24,0.553753948375996,-0.5629314083026463,-3.0968708585753646
0.25,-1.3051225063106144,-1.061122434095252,-1.9750449314345944
0.26,-3.13808051781549,-0.41318475846233915,0.1855790360086816
0.27,-3.736198581443037,0.6707207356429957,1.672756196948908
0.28,-1.8512833414767722,1.7147726002094164,2.3206223617399413
0.29,-0.09644702266145191,1.383095532191425,1.901304898410246
0.3,1.6023410498935209,2.3212406555734324,0.4124657099985214
0.31,0.9628283606288186,1.8215992006053767,-1.5971487510833324
0.32,-0.3785981966774351,-2.670383355039174,-3.3450169573952193
0.33,0.038803688993139046,-1.8001142901361296,-1.513612909561074
0.34,1.0233561791582937,-3.959749477178884,0.8406568274059948
0.35,3.387649493248931,0.3031621101662848,2.981407367162294
0.36,2.888230643920149,1.1716570954627963,2.925609500107959
0.37,-2.0051403112576374,0.2368542446113787,0.6353451749450044
0.38,-1.7566223397988971,0.6073553170908886,-1.2790326710012512
0.39,-2.3633376457152546,-5.418111879026781,-1.2320925511770286
0.4,0.32664368355390905,-0.10892576959948838,1.2512927666763207
0.41,0.9859047061463473,-1.139641106755009,1.4437050135253862
0.42,-0.33257299685411895,0.7004406636023152,2.036376021043025
0.43,2.140403684103386,3.351977817343169,2.529869229972938
0.44,-1.7084378834798881,-2.4571130877197187,0.6681703089250801
0.45,1.0414276349809442,0.04407899769499715,-0.4854561359253487
0.46,1.1713709794231655,-2.831427619299927,-0.841459664706037
0.47,0.04631238478213116,-0.5468526875077693,-0.46584768066459276
0.48,1.9836650468146075,2.789497418693544,-0.6744079715977624
0.49,0.29934715181535143,-1.3829650782985259,-1.1557636261288473
0.5,-0.3484912815882243,-0.7217102279877107,0.2724405413001614
0.51,-1.492782937390262,-2.503427617610034,2.0915282179874453
0.52,-0.7813490769576891,2.857024030441718,2.3523975381425464
0.53,-2.4464854056208365,4.53615905418816,0.34581031148750585
0.54,-3.288945403681248,0.9990165281781265,-1.3016312906264795
0.55,-2.5992783692500985,2.1142836688280657,-1.2147474243584346
0.56,-2.861563263689454,-1.1736532568388605,-1.0150216385979491
0.57,0.001844313384166997,0.18795490879842844,-0.08326613182162443
0.58,1.9683049340533898,-0.9283311584539313,1.429793756946613
0.59,3.997083210940168,1.0696003816027293,2.9939902397812
0.6,3.3863135561709146,2.3547937117308746,1.9704326361371256
0.61,0.0003500895339820049,-0.804587320372923,-1.2467955104891246
0.62,-2.4150569980096477,0.07581727427060705,-2.669291811256209
0.63,-3.181684694486404,-0.9158931041885071,-1.2139822855868228
0.64,-1.908059832209289,0.3035041568182963,0.9758176429845898
0.65,-1.7881171530780422,1.1232115187606584,1.8979747988698081
0.66,-0.6137475577676431,1.190717411594559,1.8748137297216325
0.67,1.14813343239893,-0.8341136870471906,1.0482932909656566
0.68,3.2144533324855025,-1.2409340153294495,0.4612140902989966
0.69,3.516389269691812,-0.30464693207700966,-0.24152103674887127
0.7,1.6206465703659472,1.128191463596528,-0.8604014175707518
0.71,-0.7990413750206322,-0.023553521205651667,-0.8896744409744622
0.72,-1.6981642123026428,-0.610186966299193,0.10486333364488913
0.73,-1.6779605385880476,-1.331049097373297,1.1443538496680765
0.74,-0.6199850689452159,-1.3705240294233547,1.5072790255808597
0.75,-0.180170473247755,2.300636498695036,0.3997934696178972
0.76,0.22861144695842583,2.3758790403650396,-1.8545025742022967
0.77,1.6871936303632415,-0.29042001266150796,-2.5786455010497904
0.78,1.680179795978917,-2.1108140105878443,-2.491933186874504
0.79,-0.39736351020862914,-3.6272760860939703,-2.34987459156687
0.8,-0.8686356589214193,0.354427513439818,-0.5992457848717364
0.81,-0.9928975509753286,2.3388278361017973,0.8950790701966265
0.82,-1.8608876616893693,0.10571674764487372,0.814895511015734
0.83,-0.3766634420062337,-0.03711334756266588,0.2614259476360658
0.84,-0.2257644435810291,-1.9817470687681038,-0.680451403515763
0.85,0.9044715999760864,1.4385436631347301,-1.262708120491932
0.86,2.182363375023172,1.8678260536287175,-1.5366079776120236
0.87,2.172569954649012,-2.104219699874516,-1.478284766878972
0.88,2.417999977824955,-2.775958711031657,-0.7066337677025546
0.89,0.7764203305880496,-3.9088645119471166,0.24740729804398753
0.9,-0.32572252125162476,0.9929285048743437,0.9517971255824056
0.91,-1.4536064167573755,2.381548242817497,0.13093596977239028
0.92,-2.960047541175164,-1.0321021400261716,-1.5141337709345508
0.93,-1.379874487274909,-1.3378391746813074,-1.995120864933351
0.94,-0.2005263735431602,-0.458482762301835,-1.3897400093234358
0.95,-0.3891247381855786,3.7872243903562963,-0.8146720010614198
0.96,-0.0957473526052697,3.3706524343600455,-0.7709483382455296
0.97,-1.0512930036331378,-3.268121753610862,-0.5603369257451883
0.98,0.349659346435941,-3.872835432013572,0.6441253079452055
0.99,2.4435851574891583,-1.2309261210028228,1.2364311557392895
1.0,2.105159015828301,2.8494407340858006,0.7097608471171639
1.01,1.5722843948599188,3.8146318961287027,-0.885367701954215
1.02,-0.9914951072284968,0.3988298451882215,-1.9601843199703604
1.03,-2.471346674461153,-1.9244725296717975,-0.39687176668943924
1.04,-1.9594485920541718,-2.202873657216998,1.8568577229761658
1.05,-1.1971129477587183,2.018032978215823,3.0324202015270054
1.06,-0.060326595220764154,3.4155019479040183,2.7793591842711756
1.07,0.6268089652979403,1.2387856516061164,1.9199435081015717
1.08,0.9174152808552793,0.6871719417062512,0.6654540482688792
1.09,-0.09334105342342938,-0.6861075782628459,-0.8877617091682928
1.1,0.16813514938529162,-1.3634069747757318,-0.22592611828659628
1.11,0.9104960874618737,-0.6749264894979974,1.7807195084355576
1.12,0.07856802893889209,-0.10395282628933816,2.369255966888212
1.13,0.34238916615433224,0.2058784420039595,1.8588979032399893
1.14,0.10190821645590291,0.9180419505072314,0.846253064504195
1.15,-1.0138450607598315,1.1971914874794538,-0.23112224306140444
1.16,-1.437005199285096,0.2147923777712564,-0.6824311985424252
1.17,-1.7210195976276867,-0.5965162364160815,-0.7357183671951468
1.18,-0.7692056446346666,0.24351855362294883,-0.560067918949357
1.19,1.0867641386166196,1.6376315317461947,-0.291215220200486
1.2,1.8056176498748964,1.268289105606448,-0.4889779751255872
1.21,0.1268649122108135,-1.4459754228159136,-1.5570158409809818
1.22,-1.8567460966405387,-3.4349636922517273,-1.7679391651947314
1.23,-0.8388987563449349,-0.9368002233186841,-0.0898691342269619
1.24,-0.39135641249246356,-0.11138738800032828,1.2834137971853525
1.25,0.7457081976472495,1.9771037250861578,1.5885985818071906
1.26,0.23268801175187848,1.0139416855762793,0.4976594253828651
1.27,-0.47000592598907137,0.6449794279882893,-0.655478655035727
1.28,-0.14842537528642122,1.1067204818041618,-1.1193458535873346
1.29,-0.5721925153229699,-2.190017092677681,-0.9249312220797373
1.3,1.8717942600357875,-0.9327270464652064,0.4809783197554474
1.31,2.150244390335006,-2.5074334308082693,1.0986666248822623
1.32,1.2343110185556525,0.9530868155633246,1.0290039199694485
1.33,0.15285086868538206,2.51783678847271,-0.29952702010866594
1.34,-2.9380662502062984,-2.6821885494220115,-1.4285525703428017
1.35,-1.2586444547929754,-2.5837423437073914,-0.01648828635614066
1.36,-0.014079302765358993,-1.9421842106821152,1.4129520368621784
1.37,-0.2425971101916957,1.8088153048409743,1.5975968255045896
1.38,0.9008502589934183,2.9087264066324527,0.8300168002828711
1.39,0.42464352447707937,-1.7759252517881472,-0.2691919561860933
1.4,1.6285840212896676,-2.249988120649119,-0.28045213004050484
1.41,2.5666411742701767,-2.595605717284514,-0.06120245233108018
1.42,0.8395258517153631,-1.0256084118970572,0.2798278816916334
1.43,0.4937700390111457,1.2778238426377428,0.7069595435602604
1.44,0.1935187668257591,1.0685064780652949,0.9114155420735544
1.45,-0.6920395569282194,0.82064944267916,0.9994025555334216
1.46,-1.4133010903660148,-1.005258384830279,1.029451144991024
1.47,-2.8058164575954243,1.6298620338776004,1.1158989504542065
1.48,-2.7550799559505075,2.8249715359798895,0.136271348607691
1.49,-2.443010188911277,0.33288053423854386,-0.1836460902159749
1.5,-0.6548402004484972,0.08208046914062492,0.26032392304183044
1.51,-0.5251756054218844,-0.8486233575737188,-0.15556175759405613
1.52,1.1205881044614396,0.9515356858093478,0.05526436473438875
1.53,2.3203467494227925,0.4874999610096592,0.16725342194537812
1.54,1.3845483937842034,-0.6094753186796449,-0.05719648303242629
1.55,1.3935331358860579,-0.8709946305999486,-0.9413529947365207
1.56,-0.6527876492736552,0.9915765099440701,-2.1932605510726035
1.57,-1.2378376378729259,2.2633984037527592,-1.8461586678654915
1.58,-2.3742859546435624,0.029657111544928557,-0.3443362368231344
1.59,-2.5678007887779883,-0.4846842838333219,0.701596676397025
1.6,-1.6916035854373812,0.9216549906319954,1.0798089480130149
1.61,0.10294719216543133,3.6693268204639833,0.998850407740506
1.62,-0.5005754597044461,4.814747474903868,0.06807617592385055
1.63,-2.32863010029399,-1.2518964361051568,-1.957568465606746
1.64,-0.5816650458316758,-7.131409719178257,-1.6717157166290249
1.65,4.082504884454911,-5.011953077025003,0.7914966437506372
1.66,9.580267927017475,3.096853764477314,2.4305923986463087
1.67,5.774949721451291,8.38482923335874,1.377573099641638
1.68,-3.574668654533976,0.45048383031938066,-3.7218485013780493
1.69,-8.23683161472807,-5.181209409401691,-2.78471634624021
1.7,-2.4671828172904906,-4.6939627508255874,0.44070555211298873
1.71,-2.109231315041504,0.27827480523297815,-1.004835712550605
1.72,-2.433447792277663,5.515880539246597,-1.5190691663474047
1.73,3.4116689954977035,3.1887301552011693,-0.811289460565559
1.74,1.63127971187794,-2.3892311338633925,-0.8066402555828699
1.75,2.9031317794327323,-2.1138010099556865,-1.8876786506813938
1.76,4.13353857137186,-1.5247972398492502,-1.6568212113600178
1.77,-1.45109453657917,-1.2449444424637115,-0.5716815287528599
1.78,-0.9471340124585196,-1.2967963424233278,-0.4877970517906254
1.79,-1.1606939875221203,0.17959730138438823,-0.15461767011438074
1.8,-0.9215163217977296,4.058196295505718,-0.7910250683216236
1.81,-3.988716353658643,-0.8581576367916871,-2.320486045483073
1.82,-3.1182281043720863,-1.035081644200054,-1.3724847097929431
1.83,0.16212761899392183,-1.0411832850472735,-0.14110808503187847
1.84,-0.5828667851424318,-3.9244588929874977,0.0917834785907822
1.85,3.3658401581168675,-1.28667496284576,0.6065115361240051
1.86,5.799557696021951,1.2689716589813196,0.4473577389240891
1.87,6.597486526738094,3.8901475543670445,-0.10563826388670156
1.88,1.5695987765050445,3.438051932707023,-0.41970057078315104
1.89,-4.591160488234692,-5.106638943575954,-2.489654412296405
1.9,-5.027196045686469,-0.7780908263850996,-0.7840696291760297
1.91,-5.441563175065904,-0.34128110863903727,1.5666686902188238
1.92,-1.5647726389301235,4.181222850307324,2.459326141405329
1.93,-0.5884940203727007,2.629401242232076,0.371465998207763
1.94,-0.3407814606708147,-3.5382463840790295,-2.4396311156053847
1.95,3.1240905763558864,0.23727812129512932,-1.6515979123423927
1.96,4.91029886981239,-0.162914193960417,-1.2714204439351988
1.97,3.1104868031170865,2.9440243433029925,-0.5555858455259177
1.98,0.7238851204237804,0.289859858852312,-0.7661631540549173
1.99,-2.813122877771809,-1.6665860439178442,0.5339734045988891
2.0,-2.472932504141467,-0.47674957607410984,2.5624285847914456
2.01,-2.6041192223862906,2.0411618765268504,2.0056391401844365
2.02,-4.847704759809902,1.731356535117835,0.18625566035958413
2.03,-1.9346039184822803,3.076611454874143,-0.9417959200467583
2.04,-0.798234549620896,0.5203119255706472,-1.1645794934800966
2.05,2.4024380939260244,-3.5119064538877107,-0.1650937009370461
2.06,4.2377539342338615,-3.9725044949920307,0.4411207040807374
2.07,4.031476445921292,1.8188695554854326,1.1820140530514973
2.08,1.6682240356426552,2.373727892962865,-0.1442746117153012
2.09,1.2460383052741184,0.33898095102017134,-1.1757880196484443
2.1,-3.425229287280039,-1.57396983695858,-0.49566964272352615
2.11,-2.3187266186688,-1.9188567489558943,-0.9280187177848549
2.12,-4.104713388978006,3.466867785112755,0.047377789129637325
2.13,-1.4301153884282574,3.6000271681488245,0.22689676338180562
2.14,-0.8518400131125033,1.9140065112161242,-0.3506909280832699
2.15,1.1692228309593817,-2.98774089816253,-1.1757673504776984
2.16,2.771502436131817,-4.078254670931029,-1.0463683157963108
2.17,5.1673893387017475,0.7348396146735872,0.09352178514547337
2.18,2.4308902890535076,3.4330891243528185,0.24067448381107756
2.19,-0.5891314045952214,-2.0136176257748426,-0.5653652242402044
2.2,0.13413781106474246,-0.08302016410557825,0.4059959604931542
2.21,-3.140663017462839,-1.7490177246503185,1.4230443517777793
2.22,-3.8253008119690763,6.286516292207946,1.640711657596508
2.23,-7.756468900079157,2.5454782508663523,-1.0838063378834375
2.24,-4.394560636428921,-4.19239620237626,-1.3872390367889746
2.25,1.839749611407079,-2.968993590382061,1.0038450790463467
2.26,4.717873913626574,-5.942369897108942,0.9415898660998302
2.27,11.401413594263067,7.289581825529582,1.5809654584817907
2.28,7.147631316705215,3.582723034393048,0.8819110636778544
2.29,-1.594152596319518,-5.449394552149614,-0.9296520151901577
2.3,-0.8396014188441356,-2.3111390700827243,-0.25462431598918067
2.31,-3.8483163814451844,-7.655446789202733,0.5366525778481296
2.32,-4.44301586920817,6.326261905400371,1.5735575483722954
2.33,-4.117292750462491,4.566909706517427,-0.7087299462646309
2.34,-4.250708978021171,1.0916710126331102,-0.3792133701621765
2.35,0.4636834887481919,1.4175396193781942,0.428133052816785
2.36,0.5459357794390629,-5.646874053941388,-0.588070168215282
2.37,3.9812263750331702,0.5655855632720871,-0.4053787141294304
2.38,6.005108117066439,-0.7144984147176644,-0.8040974316184396
2.39,3.69655132228492,1.4139792910665876,-0.8718174240367582
2.4,0.81330588735955,-0.7565023472902673,-1.973596379177439
2.41,-2.5304726341925563,-0.14149224055236836,-1.9519489211355732
2.42,-3.4767480084709113,2.8594686568060075,0.6186352582485358
2.43,-3.916252546928704,1.6111201364501815,1.1192301200128232
2.44,-6.802321819756347,2.0418025909014625,0.1849612356330368
2.45,-3.0956541614668946,0.9627983268787674,0.005733887430221364
2.46,0.47674391090854773,1.9339343749127098,0.5610112039625618
2.47,3.4292722521332295,-0.16775518937972958,0.052064913077992936
2.48,4.370232171947347,-1.7091519898704244,-0.8002620426507309
2.49,3.608180144384589,-0.3382629930041763,-0.8734984420483318
2.5,-0.06612161854398639,-0.47328141051103917,-0.9315399862091552
2.51,-0.5024828837833328,0.1882862871811014,-0.5501952224154819
2.52,-3.8992966259756674,-0.8660712144634604,0.5835492487830103
2.53,-1.367709406164688,-0.488577535114191,1.1167795798807307
2.54,-2.3500460088861255,1.792978173562336,0.4002445362095154
2.55,-0.6792857309293545,1.745050753552115,-0.352672453726249
2.56,1.5494959370383032,2.5375919682717947,-0.2706661797857705
2.57,1.283720303733751,-1.02530666692059,-1.4559578912946214
2.58,1.5170561797248996,-3.0030795875680196,-1.9297404096753201
2.59,2.047486937135654,-0.7279230222754226,-0.26296736198843385
2.6,1.5440345862997569,0.091826603048983,0.008542816402668487
2.61,-0.7934362611302125,-0.8744651241138521,-0.056073039229171694
2.62,0.5525228395275842,-0.11316444164817394,-0.2903224461529905
2.63,-1.2558483808560228,0.7263708108688413,-0.5366024947958808
2.64,-2.3155751051342848,2.917404393104558,-1.1201780155039995
2.65,-3.724050643978268,0.9010883449319146,-1.6315459140949342
2.66,-2.333436786155736,-3.600685669831246,-0.6243861435785286
2.67,0.9162701244887356,-1.2189028620684965,0.8138989779068443
2.68,3.2676788621851545,-1.0318632128691607,1.139579153525809
2.69,4.617704786928917,3.242477158655938,0.10030874526658158
2.7,3.279967663011109,2.3024474576150484,-1.501987964065722
2.71,1.1254244221777077,-2.821056846381674,-2.041809511746871
2.72,-0.695844316009757,-0.9105788608163115,-1.212418124510864
2.73,-3.504069544974062,-2.794026395457602,-0.02364531367216837
2.74,-4.554138736736215,3.508054496712891,1.4927537180894719
2.75,-4.617744217334464,3.457771263073317,1.6671523068739371
2.76,-3.3994504112783757,-1.0206691387452356,0.9273628079234222
2.77,0.9424233561484299,-0.25525227827731456,-0.3016619319091769
2.78,2.114124330549083,-3.021731556144708,-1.7889282808440954
2.79,5.125796552034158,-0.7276082062250243,-1.6574460955985575
2.8,6.305062113352975,0.7780959875975804,-1.2264246349163963
2.81,3.552060991728006,-1.5130720861055948,-1.8578307360525395
2.82,0.057639696618138406,-1.7058283242587438,-1.0678075537128604
2.83,-1.2407792639350022,-2.3018701144154643,0.47496659444317935
2.84,-2.7000900538350687,1.1996157036546617,1.4880392871071964
2.85,-3.336835407346972,2.075766611436492,1.0900883206779899
2.86,-3.8250397692998797,1.7869295072173443,-0.12831061029297228
2.87,-2.4425015696959864,2.6336696515880504,-1.063588945193918
2.88,-0.24201488908851682,1.4789787692601613,-1.4426144158026821
2.89,1.2871106816531683,-0.9533190461566219,-0.28671474075136005
2.9,2.6302868972445115,-2.3767088179272937,1.333138644359552
2.91,1.263045868778995,-2.401350415549479,2.0766280259374645
2.92,1.1638345345124568,0.2554855062299208,2.5320283737297653
2.93,0.7611958980599647,2.2061487913354467,1.6178285813047533
2.94,-2.4040091069926457,1.337735758244412,-0.1336056134871029
2.95,-3.982274086942182,-0.12450356528660796,-0.6630579360645448
2.96,-3.764319472976197,0.15864304655358732,0.03695256679624586
2.97,-1.4948047065506567,-0.2897269114907006,0.9576547256475034
2.98,1.9370780918686592,-0.5879720737841843,2.7024721776053044
2.99,3.748068598331519,1.256420642422117,2.7939129671205336
3.0,2.666876416534735,0.9594924488343192,0.27270095316849713
3.01,1.0998463053687821,-0.2761107501905213,-1.394935603337557
3.02,-0.07894889959169693,-1.215165285814551,-1.273218748834125
3.03,-2.044472624851895,-2.489950551174208,-0.4765333012190253
3.04,-1.6017584898717232,-0.2023898680464116,0.6650826128405821
3.05,-0.674281130319091,2.6685989190742814,1.3641726160977024
3.06,-0.7096529320710772,3.740226674283398,0.8921520687579703
3.07,-1.1672580825461716,1.5609591692126839,-0.13899333357092516
3.08,-0.8273960204338416,-3.2890336054046183,-0.8820633808258885
3.09,0.11511922299926466,-2.1196458152020123,0.13295219627240398
3.1,1.444884899529324,0.3870096460719402,1.6591591119910365
3.11,1.5144178906747623,0.29220139018193797,2.0786497792683347
3.12,1.1758153456220157,2.086351312666962,1.9079506567338054
3.13,-0.6812999572800594,-0.014575808226214161,1.1625813246269938
3.14,-1.2313377802338614,-1.3409822729060064,1.3148799623973066
3.15,-0.2974973322193163,-2.1628005041150318,1.632225169436493
3.16,-0.061598781210537246,-0.20188080098639824,1.5498459721970392
3.17,1.3708099020550666,1.5591796029418095,0.8683774099515909
3.18,1.9696597794014046,-1.3507067781049549,-0.2199153546725358
3.19,2.890788595122732,0.5169069526831797,-0.20196614068200594
3.2,1.5863569143006182,-0.8820370806375617,-0.7827003589112131
3.21,-0.15867340064363683,-1.735061266993722,-0.39365748447419474
3.22,-0.22242490733112238,-1.175185477735879,1.2132151581578243
3.23,-1.9990340398350293,-0.7210723439080964,1.9030153346827423
3.24,-1.63165367080614,2.2691107794280403,1.232483889739439
3.25,-2.08096157463079,0.6702168454708384,-0.004861548765936088
3.26,-1.4670371650084397,0.5801331297521688,0.20437880285870272
3.27,0.1489458824162086,-0.9910276971567578,-0.08153201757076695
3.28,1.022167419705455,-2.5451254342705267,-0.4530316776565782
3.29,3.6946189281250583,0.9309849751739915,0.5462320305988912
3.3,3.784614433217441,2.8075027800673715,0.6684801835382602
3.31,1.9509976630485084,1.3538082297062375,-0.8667361419523034
3.32,-1.5012388660963343,-2.8132439192481686,-2.248364202565157
3.33,-4.408280514655086,-2.9294178459016686,-1.2605439187431884
3.34,-4.013254816052696,1.548445470374852,0.5927584760628659
3.35,-3.0592650907061545,2.797476342183731,0.9422124898796223
3.36,-1.6741134703919445,3.3916959821577994,1.2441257523532414
3.37,-0.8716014159182797,2.167778804389781,1.0694852210965462
3.38,-0.3971026270285212,0.514759835543385,-0.023349029016087392
3.39,0.7370352482818058,0.5816584550805819,-0.7728577615370588
3.4,0.67602429986598,0.6464024902693366,-0.7291239535794595
3.41,0.5553518649513034,0.7500809190849551,-0.5754420337181261
3.42,0.3605751232725841,-1.8529470054342556,-0.7996135847436314
3.43,0.841417949871314,-1.5304698260726464,-0.0375330976952081
3.44,1.1839879668594866,0.41821743062408817,0.788332937999672
3.45,0.17004887527078513,1.067016756804029,0.053557034215072526
3.46,-1.1659222178020123,-0.2934037439108457,-1.4544264144996903
3.47,-1.3373907004728116,-1.0927146526058267,-1.8108461770267017
3.48,-1.2618820798083006,1.2023807813019347,-1.1139540214250334
3.49,-2.0208136179636265,1.3902256537220685,-0.8159167288285708
3.5,-1.6492603402470623,1.0092001973374198,0.13199990252958071
3.51,0.0430400225380597,0.5050115748560695,1.4951622471119415
3.52,1.788572446335928,-0.11037677822339588,1.6791441466281358
3.53,2.342795567657607,-0.5031783569664549,0.5439943130547582
3.54,2.5021656421030847,0.7178402685229593,-0.7553684378859237
3.55,2.451147725226163,0.2674971899520667,-1.8155417314567013
3.56,0.783359209734971,-2.4591562035390315,-1.77844020363147
3.57,-0.2578564522676998,-2.745172189803677,-0.47085800092276464
3.58,-1.4553622119390337,0.7482940401436953,0.7724592632783827
3.59,-2.42455204300064,2.628428623967788,1.0934750397884097
3.6,-2.9979728744263587,0.16018149583202176,0.7142600592729055
3.61,-1.8105465508496013,1.051610720867954,0.7513455128392964
3.62,-0.8078638510090577,-0.24258083532473024,0.22444857535430532
3.63,0.36901847784873054,-2.077672037070736,-0.3424763244017494
3.64,2.4797382661279865,-1.0474886079514654,0.045499024037023585
3.65,2.8887728964413424,0.036259198104610015,0.3563989550271794
3.66,3.067020501087109,0.8154118541566283,0.0944669890534913
3.67,0.9358885415206503,-2.041239191026712,-0.4253693530104168
3.68,-0.46315293758345805,-1.586030384595151,0.33123007821877676
3.69,-0.6228360653514172,-0.6684226234034931,1.3345782025857695
3.7,-2.2009162207764956,-0.42353925606314485,0.676639799949898
3.71,-1.7775349675543217,2.668877581516985,-0.802488437677462
3.72,-1.8021788710647966,0.9022672531604209,-1.8055261746043356
3.73,-0.5346819180430326,0.8151792859742159,-1.3200915983614703
3.74,0.6416704534669782,-1.8205988346350066,-0.5866633095771231
3.75,0.9874874829863922,-4.823392074137121,0.35445103104646025
3.76,2.7654335373006034,0.47464980489312963,1.7852606869452627
3.77,3.100957549631534,2.3457909761136477,0.706259787147328
3.78,0.962241124144276,0.9698896929280124,-1.275559347660723
3.79,-1.519911492883725,-0.5131016084550927,-1.752258853721853
3.8,-3.5696774788387478,-2.2440565022391064,-0.5839143677348793
3.81,-2.9983264804963285,-0.030637206767217,0.691281280188479
3.82,-2.058239103017724,1.0413646492352593,1.5424571965724916
3.83,-0.12417377755891158,3.8289924301566076,2.2135454201622324
3.84,1.3330145540235678,0.13957240052545408,0.41414538079567165
3.85,1.178715271163109,-2.6420158641219516,-0.9763174407192922
3.86,3.0062028500809586,0.43154381156359406,-0.5390479814372906
3.87,1.5011654680493562,-0.8157762875837182,-0.2352868222607348
3.88,0.2563498306358583,-0.3828695790221904,0.3697417462395064
3.89,-0.5547421158808398,0.5796475193296091,0.8449310695179746
3.9,-2.047873995772601,1.6053284218909984,0.8548868915065351
3.91,-2.944527514599447,2.464492323881841,0.5846133691847036
3.92,-3.2279272696804444,1.1223609539633486,0.2667072105346015
3.93,-2.5317152482696526,-0.8087653772035175,-0.3597264258853886
3.94,-0.4292214237833415,-1.6867084982850484,0.24003509529950295
3.95,2.975753715068008,-0.44807584547393403,0.5885968574879613
3.96,3.702602053501906,-0.37017396673802483,-0.06895988161423591
3.97,4.798960997316306,1.7422413354480664,-0.294584114145814
3.98,3.231224041945993,1.7002584295077137,-0.8628784270863689
3.99,-0.5114926107609372,-0.35306692487767666,-1.1703190548292972
4.0,-2.796719050213812,-0.7611756467364478,-0.4423207263990958
4.01,-4.914017055800061,2.2868845329187995,0.9181021026498942
4.02,-5.043522358004203,0.5103111597574058,0.8426107345914501
4.03,-1.812530705593387,1.8481705658053318,0.5844185753297072
4.04,-0.2393124383604193,-0.47440354351965164,-0.7253825863983042
4.05,2.0318013769248036,-0.32885704132363713,-1.3499941267524718
4.06,4.5251003773646605,-0.35219488894713086,-1.6124247950719113
4.07,4.104927929655561,-1.9275989556010948,-1.3128016307198287
4.08,3.061291801991471,0.3881835244182168,-0.1410385804818753
4.09,0.16806806132948388,0.2052165934771039,0.10919480918756237
4.1,-3.1594023984660002,0.7335977421856148,0.21076229993960094
4.11,-3.9486988428593,0.2185620364449987,1.3708412563950412
4.12,-3.422541131287143,-2.843563216398607,1.6615387074990589
4.13,-1.6490165549532456,0.6431593689691659,0.7006423568347314
4.14,1.1048551014807912,1.8403327206448965,0.7724305498678243
4.15,3.915761291717913,1.4647526193966518,1.0794911410281913
4.16,2.6493090355742024,-1.0211345313118185,0.11220606045363989
4.17,-0.4118763581265654,-8.922193253778108,-1.4965702043978242
4.18,1.6172093051556882,-1.4147752926458184,0.7196480188956549
4.19,2.9466796269206257,1.1225417256433654,2.116866546986765
4.2,-0.7790450233948516,1.4361940785557736,1.7239721310346192
4.21,-1.4330903039801652,2.3142557876520744,0.8102148988684068
4.22,-5.190050217901632,-2.5648277507556996,0.22993658130047806
4.23,-2.0582463623078024,1.5598705292169759,1.3327941258300553
4.24,0.05489472346517263,-0.726537161930542,0.8441797170764346
4.25,1.19549939405766,-0.24896446026037883,0.4011351019284603
4.26,4.230075306912213,0.8498911114404731,0.0010194055019603068
4.27,3.4977927656139163,-1.7775179834242754,-0.9606021011340715
4.28,3.3864013295522004,1.9692682618059771,-1.2412187288259113
4.29,-0.13861337195158288,0.8406431355478686,-1.7074978597034522
4.3,-9.239081311754205,1.698242096177319,-1.2490127148611336
4.31,-14.827415947514718,4.074940556440369,0.5038562102653461
4.32,-4.2429548642068635,-3.3198133853116425,2.0610235638968906
4.33,5.107063776759742,-3.977047957943802,1.3373520138692518
4.34,13.515416258271447,-0.6338013530365622,2.144589436889526
4.35,19.8679595355723,15.219026404671895,2.8275571266866115
4.36,-2.8186450895703845,10.59730683903551,-4.583033406948659
4.37,-20.960025125641994,-18.88410396437189,-11.274562349824267
4.38,-4.4023947039641635,-13.07357757382773,2.7981946597908554
4.39,5.855064850333504,-3.0545000621130205,1.2246769562170516
4.4,0.6665103431715255,11.30451720376976,2.4045243820954654
4.41,0.4798380600066359,16.32098495045676,3.6649024181124865
4.42,0.16738287313077152,1.547545262205587,-0.06597203613677285
4.43,-13.116780023720873,-6.569566605456246,1.2297031945089434
4.44,4.68142532599098,-3.428162020704222,0.5373226824117662
4.45,1.8781199438567426,-2.9329363865674623,-4.714772700788395
4.46,-1.8002347783318506,-1.9288051064718086,-3.9771245341719896
4.47,7.995426761255513,2.2350132918796977,1.4068537030535715
4.48,4.8837383288616385,2.898903464486263,3.3456824230369886
4.49,1.816402432714534,-3.5035658695329586,-0.0977591521420149
4.5,-4.465889746408838,0.5660089983937412,0.3710191794987273
4.51,-5.377407725113511,2.312463156838658,0.4054846853744624
4.52,-2.553193118632318,-1.6593504991019095,-1.6626594641881887
4.53,-4.672132817545447,-5.018162822642753,-2.861356908497303
4.54,1.6606599003090186,-0.23194645661907198,-2.541622558402158
4.55,0.24066490370955618,8.989116900232986,0.1611176636830076
4.56,6.218493704707749,11.079912624435494,1.2572778947508496
4.57,0.14044351384082596,-1.1219680958040539,1.2097827733125814
4.58,-2.7052456782494776,-16.541364397401306,-0.4634785595771191
4.59,-1.4980840896883667,-8.489730997155426,0.40529088858115253
4.6,0.5520617320890069,9.737222748643733,1.0768852199612875
4.61,7.612199681635319,6.97877853791856,-2.2549960092150547
4.62,-1.201787337415825,-6.484510463404892,-0.9493617212928993
4.63,-1.645085788712956,-6.248583625724168,-0.14495932163257286
4.64,0.22569664288093572,-1.5673045653590274,-0.21962274675695098
4.65,-1.5692695861529895,3.6554566066092398,1.623960248961555
4.66,0.3163536291845859,7.67902469756509,0.598074112686526
4.67,-6.791798590524624,-2.6308585795580393,-2.2701495828398954
4.68,-1.2649524973090613,-4.950706105689422,-0.5780561845328676
4.69,5.235592006410796,-3.252173158535937,-0.08249860773291141
4.7,3.8219205692110028,-0.15557409958581117,-0.34143516314887995
4.71,2.038363617606655,1.4311006938615898,0.8141202770486403
4.72,4.256865013598326,-1.5647711609067314,-0.12860157112508566
4.73,-0.9561747585046924,-2.5360472329586017,-0.665581495197694
4.74,-0.8904307872212812,-0.6553863019146033,-0.6526507002515822
4.75,-1.9875272337151413,5.101613202845645,-0.4352126027486789
4.76,-5.8259222591710556,1.7456617173492122,-1.1909200781438192
4.77,-2.998389627467396,-0.23106031433929405,-0.10457503213048984
4.78,-0.49470935676063477,1.2430659362620724,1.6790600114145853
4.79,1.2865898442281052,0.8706007293940388,1.155577163775912
4.8,0.24516769038210706,0.5604691250018864,0.6784504349370436
4.81,2.1121535538456473,1.4815948167592592,0.6896881330550405
4.82,0.034362161507641355,0.35803411097522,-0.023482167292022415
4.83,-0.33148435442745466,-0.1614931353209137,-0.05681234307418461
4.84,-0.2618682573397782,-0.036312279930144936,1.184255423916359
4.85,-1.3383787132284546,1.5201552791524233,1.66575830632956
4.86,-2.585436711343907,0.9927140579604787,1.531993867306004
4.87,-2.198405704609497,0.48472165945765405,1.8136382727432572
4.88,-1.3136946214721954,1.955315534633437,1.4026613091448865
4.89,-0.8550601091970929,-2.171444674630984,-0.5524932034139354
4.9,0.9759532265600374,-2.4712125023823144,-0.36613183612049627
4.91,3.0965669295122624,0.12254343606680813,0.557534163313737
4.92,3.027888246824911,1.5371863675694928,0.1999527514040166
4.93,3.2370043274220763,1.2619808583883831,-0.1589430285742896
4.94,1.5729706442736666,0.41525906231052395,-0.2497898700374605
4.95,-1.3661096050311028,0.23476827728387853,-0.5618597435714592
4.96,-3.344409048211331,-2.3425209148756103,-1.206210058499093
4.97,-3.406189987929896,0.06999478601675671,-0.29462617963067433
4.98,-1.448957206725419,3.2978026851051974,0.8776044305693619
4.99,-0.4306758059307136,1.8806911680055651,0.7169188169025397
5.0,1.3308976877305811,-0.8244117327584857,0.048058533333963004
5.01,1.1776015163017952,-3.9670629440471057,-0.45288871651679935
5.02,2.2840951400290717,0.05715792504985102,0.024062802210025103
5.03,2.3493102848763265,-0.2685734422837166,-0.36563201139024776
5.04,1.2664330523117935,-2.460456225625122,-0.6192955196788914
5.05,1.0617944787901656,-0.19313765128570437,0.4142016071442398
5.06,-0.5277830273983132,-0.20776266790246212,0.5839400310735249
5.07,-1.3689620923770565,2.8392185342612457,0.967982999566481
5.08,-2.794011985688483,0.04165422900708594,0.2590346495857943
5.09,-3.0012343087629443,-0.9051499628874006,-0.34452543635310473
5.1,-0.282260607884877,-1.4800272507544072,0.2549075519833956
5.11,2.2531078286349806,-2.186117637028202,0.9845096489995506
5.12,4.098696077295493,1.1923291445771362,1.2296205260878628
5.13,2.344966317964179,-0.9603955060824944,0.14948506309229284
5.14,0.3572412334512439,-1.0391153514347646,-0.20322785127631562
5.15,-0.5671288045148446,-0.2530766427192998,0.5994997087457745
5.16,-2.4481463438732627,-0.4043405370043282,1.2397984517131768
5.17,-3.3913091448144357,3.153351523028423,1.2927712482660294
5.18,-5.245477506348594,1.3181419997398747,0.5338182507365512
5.19,-3.103810801736286,-0.9284439305229005,0.3383684027679484
5.2,1.0190083980603666,-1.2996011352474224,0.9348541082178864
5.21,3.8928956598464692,-0.617283835437028,0.9052372410681465
5.22,4.3847087237262885,2.2829007227783995,0.11124776252752165
5.23,2.404518563940994,1.9511953260577835,-0.9039659728735332
5.24,0.08051428718613192,-0.45521350036668506,-1.3081583029414976
5.25,-1.1840506748269075,-3.19149147445732,-0.38944854720961386
5.26,-1.083043943774656,0.6311869318824469,1.5040135852925984
5.27,-2.751914367922765,6.734204230161531,2.072398191774075
5.28,-5.6517685094951196,3.1306544635533893,0.5250222223897005
5.29,-4.955125223725329,-0.5372670931008117,-0.27857177961648455
5.3,-1.673828436610055,-1.8569565404182276,-0.10152023645598612
5.31,1.916844707495478,-1.1943523792536834,-0.6948120269989881
5.32,3.9768067123437816,0.5902630042529041,-1.0869849961684694
5.33,5.213665130858795,0.6816894542930368,-0.8019435894839704
5.34,3.786170224881346,-0.3573104943925703,-0.9168933038775046
5.35,1.5339006706311664,-1.2236913349295422,-1.3269377621859513
5.36,-0.6850057437783416,-0.41628918944647836,-0.6327154183784367
5.37,-3.099866747209012,0.14888539335428155,0.11084119796516091
5.38,-4.2513759690956165,-0.19407642400448616,0.33466163709439123
5.39,-2.7086824602755932,1.1428160767580062,0.8814617359474
5.4,-0.4209024602332297,2.5234353003350862,1.0068427880256745
5.41,0.6401554073065152,1.8057204960919941,0.20921594387637263
5.42,1.2990184707183015,-1.2548440316962608,-0.9834588944024887
5.43,2.1398814215040436,-2.6965492528908173,-1.056965871513048
5.44,3.0191710447529205,-1.4362167342810155,-0.19802777809128713
5.45,2.19928317598437,-1.4582719301485223,0.056620849574303994
5.46,0.43901860542479765,0.49323255487130885,0.03634264838550946
5.47,-2.043520682444713,1.927797512007944,-0.21500361745381197
5.48,-3.4752520943053646,0.37145352448122065,-0.4008890277169326
5.49,-2.246602980330889,-0.3363849566442733,-0.016406215788742573
5.5,-1.611381135811583,-1.3786694356172216,0.03144530630845177
5.51,0.03045171961228335,1.8983199924244971,-0.3197885034048472
5.52,1.9667068887059025,1.024321877770069,-1.2659298152348417
5.53,2.70127558913319,-1.8277901756431734,-1.2691302283625658
5.54,2.953437219535478,-1.2077547711682823,-0.31730762699953985
5.55,1.114724510310199,-3.241178946003247,-0.18179289644372784
5.56,0.3814602098728218,-1.122642850252361,0.3366771802643632
5.57,0.6730418926025051,0.9044085232900825,0.984275459589499
5.58,-0.04744758075966563,2.077399086004352,0.25515715253354454
5.59,-1.8075360032822048,2.772619172109755,-1.7875227404626113
5.6,-4.3697885041594695,-0.32325790003489957,-2.644492675067772
5.61,-3.370613831332491,-1.0239272089713314,-1.0093366119740075
5.62,-1.1168126537513374,-3.1243756302403964,0.5723602943502625
5.63,1.6836512736112121,-2.309681706042975,1.6400679405444976
5.64,4.703346189927044,2.7093213181444815,1.932360502282106
5.65,4.69605062203092,2.184073338456751,0.06148532066889257
5.66,2.633369822236948,-0.1276843891720661,-1.9780571518184467
5.67,-0.05531003352820287,-2.346692650463044,-2.2801383082521283
5.68,-2.7158508954132516,-1.1080019290373673,-0.8893070598729936
5.69,-3.9726728271049048,1.6392541024258234,1.068705653931462
5.7,-3.810726234766673,0.8583700377062666,2.3924213266644263
5.71,-1.5897559790151996,2.7531327327000525,2.909664176123607
5.72,-0.5007734245952107,1.9206703885097896,1.2338937891839725
5.73,-0.06701563694733507,-0.03079375965792357,-0.9318342539429951
5.74,1.2073618930950338,-0.38209515023535456,-1.360916259126079
5.75,1.1583322582790911,-0.585649452709578,-0.5623973657810113
5.76,0.6391569758249439,-0.7644681994652339,0.6962673557857066
5.77,-0.33512657813493096,0.021086197035934104,1.904514250396648
5.78,-1.6421620160746173,0.9256792382295551,2.283352210557095
5.79,-2.2328433740138114,0.018258443961312643,2.1245202574418207
5.8,-1.4660929322948146,0.41554278876647033,1.3365645942298208
5.81,-1.219698471993522,2.2038267328670447,0.41162539688618377
5.82,-0.3152922103730768,2.061376622240752,-0.10966886865672267
5.83,0.9129889208888383,-1.7030913291304253,-0.19384262862421922
5.84,1.8410210194047971,-3.8996029662113583,0.6045166607610631
5.85,3.4728822579777794,-1.8200486621257914,1.1945878383648811
5.86,2.921351886679997,1.3768295330010283,0.9519509599548106
5.87,0.9308375160096182,0.927701936578346,-0.5681707210202709
5.88,-0.9500262625312291,0.2568468243394857,-1.2014287041177005
5.89,-2.9746137828583428,0.7220087425428717,-1.030226825683804
5.9,-4.3807221077556475,0.4016198282332274,-0.8835517654487698
5.91,-2.7346864120440717,0.9957952091067318,0.057433247054844115
5.92,0.024060752238414588,0.658956035567589,0.3011221738488446
5.93,2.2371266454726184,1.4938909626881434,0.07496349835096074
5.94,3.5060948705876505,-0.4202718702394461,-1.2559291518622218
5.95,2.7742879867347834,-1.513846495842823,-1.9056232152749448
5.96,2.063981244655926,-0.686418263344595,-1.5130514297124913
5.97,-0.48087834203594676,-2.1752155186841313,-0.9918740996268903
5.98,-0.9675383085283339,-0.7310821482555777,0.4928534550469521
5.99,-1.7032968257096348,-1.1525017078299842,1.6738922115945698
6.0,-0.8975465322430559,2.6162135819929726,2.0115290315308085
6.01,-1.9937144156360278,3.4641966741487127,0.5993094595652831
6.02,-3.0124738829021194,-0.17133958465834753,-1.2849962641461237
6.03,-1.1758419115148149,-2.7005703569721713,-1.067477839760755
6.04,0.5345917276314164,-4.193149835338072,-0.14166909740851016
6.05,2.9346390476562365,0.9286906685140062,1.1560848840849576
6.06,4.075079113867314,2.678521647047961,1.5636237772678385
6.07,1.9896857648717516,-0.7569420566708652,0.555924849825668
6.08,0.5675442602010232,-2.3169405876897238,-0.1129615004235823
6.09,-0.370509205414811,-4.497392112842624,-0.40142540478105115
6.1,-0.16732580645772077,2.5501683494468197,0.7649881969922695
6.11,-1.8374363982111406,3.003265997321303,0.47034937788232106
6.12,-4.259324756813997,-0.8886251045794525,-0.31025082580940366
6.13,-2.963840052768382,0.6658176362801506,0.7846757220178064
6.14,-0.9203663195936921,0.3514757921523329,1.8131860819947747
6.15,0.8552163057136489,0.4341026701825821,2.0102308251828553
6.16,1.905044605935447,-1.6990573366667656,1.6981917471625405
6.17,3.4073495081776004,1.0259682073966068,1.9353069791459943
6.18,3.8023313428856467,1.1091239612324117,0.8309130587091779
6.19,0.956106473849568,0.6926159738837444,-0.594344999273341
6.2,-1.2629714630849396,1.4433873326874647,-0.8490953290001412
6.21,-4.107963845670811,-1.933872786662048,-0.6113590915804236
6.22,-2.7112059689449173,-0.47683402494261,0.3169666444237728
6.23,-0.9759115821964033,2.6809834669224086,1.3373299755580892
6.24,0.2917506236036956,5.474150604219293,0.8444912878883786
6.25,-0.37605522187175167,1.242922204730495,-1.9847591197306333
6.26,-1.0848466254093023,-4.056517503785564,-3.475425750181147
6.27,0.8007165930547279,-2.728816133611787,-2.244170401438451
6.28,0.4331164777780596,-0.10993895276385603,-1.3266511411820787
6.29,0.7774755611879564,1.4257744132329986,-0.3988287705974732
6.3,-0.22603596818052843,-0.34170981829070585,0.38585701790894916
6.31,-0.0776668216763014,1.7604842805733778,0.9786669708097782
6.32,0.0734057520702194,1.3918831413209256,0.6503399033386189
6.33,-1.8357615753458116,0.8032575777569843,0.12267171335288869
6.34,-1.8463009251062998,-0.5313087728376902,-0.5101985292272878
6.35,-0.9969007814301521,-0.6144754825518137,-0.1747599836525683
6.36,1.5994628033034892,-1.7368043731702396,0.02539001388087426
6.37,2.0371921194662184,-0.8481863501978862,0.2650846677521334
6.38,2.0482752244089064,2.5443047110773707,0.7818978507207424
6.39,0.2637753178783219,-1.7369181934301907,-0.2045478974643376
6.4,-0.5290152561841776,1.0061997965978773,-0.7650000890556171
6.41,-1.5275007422649165,-0.9415398666244356,-1.0390666798524324
6.42,-0.9408917524853507,1.7503183115490333,-0.9758486141546294
6.43,-2.329864055441148,2.0540034846116764,-1.4120228848799938
6.44,-3.1833456151332444,0.6995433951618759,-1.2221678342163387
6.45,-1.026225464981953,0.46189725475887455,0.008818710846673128
6.46,0.26131463014620326,-4.427701456502355,0.6132179795764582
6.47,3.8240780930391582,-1.3519005534469681,0.9975621428078142
6.48,3.296127654401369,2.5219915248242057,0.5006397440780835
6.49,3.16780930238649,1.0745539591278506,-2.0706954343527224
6.5,1.4537238698149264,-1.1729761645418677,-2.9104289098387084
6.51,-0.9737568768913719,-5.149447725039906,-1.4592090374597968
6.52,-1.003105615109243,-0.27414036279593873,0.14768846517930959
6.53,-2.1608643036759827,3.3187894223403984,0.8606874387156271
6.54,-2.342049635018261,-1.207874566241044,0.21255654760301762
6.55,0.8836826008696987,2.1254171887266153,0.01469706651552278
6.56,1.1958989226822037,-2.69045671325492,-1.638429481621814
6.57,1.4146289817641942,-0.7302930339602476,-2.8186706960294807
6.58,1.9678305752581529,0.6303565174555067,-2.5950914745692883
6.59,0.4420221227316517,-4.062902344515402,-1.1900126924594834
6.6,1.2331150727236384,0.015900358365571216,1.1290710872734686
6.61,0.43667358780918303,-0.3221987084256937,1.749332851487603
6.62,-1.6646863111861565,3.4798892773576338,1.7987708131269255
6.63,-2.9457122630182857,1.5169376989157055,0.29871786030700453
6.64,-5.281073407198071,-1.7096741910078768,-1.0100409913935626
6.65,-1.271500629766234,2.9295980144949225,0.19440666744585797
6.66,-0.1337663601338285,0.27659604518540043,0.7971374913119671
6.67,1.4334108173339972,0.6734772457958383,1.231728558226352
6.68,2.225124662298525,-2.434622611450737,0.7118644844195956
6.69,2.221828043230536,-0.25052919121321937,0.4803230726723142
6.7,2.189520322239047,1.3144192216086292,0.3431896600246816
6.71,-0.5992659563579552,0.6511878750316592,-0.5653206768659007
6.72,-2.1461153696797863,-0.6607581523613885,0.17926570246009174
6.73,-2.246512392138745,0.7480442203071533,2.2713332331512377
6.74,-2.909888404135459,1.9332105980332883,2.0017311678037255
6.75,-1.681764221009469,1.7634681529886858,1.2060654972412927
6.76,1.0138798444998793,1.1382416346299606,0.7625151045913232
6.77,1.3239075207255893,-0.05351242296361034,-0.24422834589008258
6.78,2.766560353767855,1.4409910899170648,-1.5635386066278143
6.79,1.5724071642530704,-1.6697603927852565,-1.2990540751815907
6.8,0.4826466932784259,-0.34062866710052075,0.6216510760275846
6.81,-1.2279260211869956,-2.8428246175740037,-0.11974935111666983
6.82,-1.1275340758843317,0.11157454268145975,0.6227141458170289
6.83,0.739656900402556,1.2333165760804514,0.8834647027021851
6.84,-0.5652960720183012,1.1636724565199645,0.10583544837445819
6.85,-0.22097257390013436,3.242099270842149,-1.3339372927228421
6.86,-2.751099547259497,-1.434272989500788,-2.7877914708496676
6.87,-0.7519992418587019,-0.5223401837431223,-1.1968673267070369
6.88,-0.7417941227440293,-3.153961894068247,0.19137308307966577
6.89,1.3234174276354902,-0.16969700806444518,1.558188956386796
6.9,2.438017069829424,2.6659183471409547,1.9422792504104676
6.91,1.3216736116987056,1.1218079808167267,0.5773708681246708
6.92,0.49250312293900544,0.40400838197102,-0.5873472079485098
6.93,-1.5945275067387241,-5.485913206554194,-1.761723730638616
6.94,0.43747086358047943,0.9142615728310055,0.02137848490470985
6.95,0.8892569714202412,1.8258595532557986,1.551213318455254
6.96,-1.1495061653138734,-1.8174939252052922,1.5201299146348268
6.97,-0.32111538526983885,2.0116626747402493,1.7305568992368339
6.98,-2.8696981790893354,-2.0275985225900413,-0.11615549690260035
6.99,-1.1470443109316524,0.29473972497369244,-0.2568578358527373
7.0,0.9645886240326206,-4.011571131577555,-0.1297891496956944
7.01,2.559311887832639,-2.738273271762834,0.6219078238107234
7.02,5.096170485655133,2.9536914186809478,1.2633569941326899
7.03,2.8375160777619985,0.6314138021959232,-0.3216987757019137
7.04,0.7394351764395988,1.9149108828514856,-0.9165900584534338
7.05,-3.151913412567452,-3.8563376086739347,-1.1005763146585241
7.06,-4.006269364445989,-4.13794237841288,0.04998526496181294
7.07,-1.0769398816095705,4.23930428421015,1.1486979552785765
7.08,-1.9951822817341511,4.204546502484687,0.28847725320444795
7.09,-0.5146273863309767,2.1658266557771775,0.35978310649051204
7.1,-0.11999624874045316,-2.7081748164102697,0.006025067837231518
7.11,0.39276783986889935,-2.846237162381369,-0.7406838081387352
7.12,2.023779380291013,2.4075078672461454,-0.39184113103431895
7.13,0.6729889165357078,0.9306682866012524,-1.0357094578550115
7.14,-1.526935630183297,-0.22456849112371077,-1.2242842365211708
7.15,-0.6740164331571386,0.15554408165435468,-0.9262647317403107
7.16,-0.7130885258747903,1.0905688294267228,-0.5124671971344386
7.17,-0.6162097469771722,1.879991893055336,0.43888095898222335
7.18,-1.1817162473857818,2.695775171363154,0.4854156511894457
7.19,-2.064146217059944,-0.8900732738065289,-0.916609836331307
7.2,-0.43767568185840144,-2.03922112658639,-2.00276946700616
7.21,0.7927235245155371,-0.8674701398552066,-1.1444061674293462
7.22,1.4324711317012753,1.898924973617053,-0.3085608259437883
7.23,1.0510606827450515,0.6077306582684839,-0.606096461102849
7.24,0.7237369105522794,-1.6637740237502352,0.3249876872279375
7.25,1.269402779726928,1.764161902690304,1.4245218139841145
7.26,-1.862927175938489,3.000396704425815,0.2539466731400868
7.27,-4.48409703771594,2.149375222241026,-1.7712965589716223
7.28,-4.4716869449541266,-2.5424699545398686,-0.7914646926293263
7.29,-0.034851838636084265,-4.426005585252941,1.215498127977625
7.3,2.330991017519077,-2.113584943196807,1.4570965762633952
7.31,4.74413001163411,2.554385728087639,1.6948991632879629
7.32,5.70649799937872,4.52400716753695,0.8151338079633558
7.33,2.0250236373628634,-0.06858802623986461,-1.2224588064590145
7.34,-0.9775273972966305,-3.6498464835005073,-3.053488849255524
7.35,-3.08887002761233,-3.4158240724809747,-2.285249100297538
7.36,-3.337124756018087,1.616488685154958,0.20866668481872536
7.37,-3.2900668772812174,2.643197424638496,0.9682145644516221
7.38,-2.818247082227289,2.125459686031291,0.7485769988198104
7.39,-1.4495301330175578,2.4654064062701444,0.21991333960211326
7.4,-1.6389011939399305,-1.667412229753956,-0.808230732623883
7.41,2.0885939112962997,-3.094063544960752,-1.398346149712176
7.42,4.009120884840089,-4.827256840962011,-0.6217441093576912
7.43,6.54434211315228,0.33331427863775803,0.5325309988057679
7.44,5.686820537394976,2.7658067966794326,-0.44085046249464305
7.45,-0.4528182279435176,-0.390335663984668,-1.7830623390938065
7.46,-3.8135988637892715,-0.8722475378320536,-1.2458681613845284
7.47,-3.608770399323032,-4.692661501686614,0.15819209638520235
7.48,-1.1666171722576568,-2.1832655881320715,0.682466738364293
7.49,0.4541015488610024,5.124242806997467,0.3266991612271968
7.5,0.1765994303982983,5.87807692993808,-0.9909271079137073
7.51,-0.04837849852618041,1.5868795755811647,-2.1866964172205052
7.52,-1.6192315874104852,-6.403756562108652,-1.4928338087240478
7.53,1.8771764455417717,-4.9181359168260395,-0.281835327535983
7.54,2.347449956462828,0.7169354455814694,0.4043985211392177
7.55,1.101413956078236,2.1766636230908336,0.7159936736205463
7.56,1.70333472332942,2.2539661963712234,0.2103382923482232
7.57,-2.0148769412694176,-1.0694517421958514,-1.1574004829000812
7.58,-2.438711260288014,-1.3029744947981223,-1.2032819562158021
7.59,-1.2665018274050097,1.2000570588672395,0.31107806859143894
7.6,-2.131986796886747,0.9359367368309679,0.40698808377006995
7.61,-1.1164211147681673,-1.2848717506175702,0.690194997335546
7.62,2.007497488498153,-1.2608557782926302,1.1399705850840156
7.63,3.7327562325186805,1.3072565516126673,0.46155005189227866
7.64,2.4109414044376067,3.0451200067196242,-0.850078404937168
7.65,-0.8763844240798171,1.1132819554085034,-2.1760662425864257
7.66,-3.4247595605664354,-1.1799243383500628,-1.598635630924908
7.67,-3.6875398825772785,-0.8295063172060742,0.5242284830575198
7.68,-1.7535517112076842,1.6634930669558359,2.1894957124481835
7.69,-1.292122675220367,3.9014140596167395,1.7717122868629418
7.7,-2.1615325880174763,2.612714648784208,-0.06689861282261006
7.71,-1.134326830893225,-0.01592645415272268,-0.9061948024794372
7.72,-0.4333720783270789,-2.6399134955627885,-0.9686354104011555
7.73,0.9740534746173667,-1.8656256884782338,-0.18870292178766132
7.74,4.185172857545771,1.1875204220513682,0.917351248677093
7.75,6.121832974504807,1.7656757622476316,1.1287224575552908
7.76,4.531438617262572,0.5308427688964362,0.1375869303635983
7.77,-0.30737550383897333,-0.2541085787507015,-1.759430005098006
7.78,-3.6472391000536772,0.2616071455876188,-2.3283795288695375
7.79,-5.972717989996039,-0.08857740247799846,-0.5607519014718415
7.8,-5.015121883979641,0.5606637538684888,0.7429004987865521
7.81,-3.467838821184504,1.3708795397762317,0.2956319026320724
7.82,-0.8760064777881521,0.9230546294938299,0.5649132276956219
7.83,3.2701059585294936,-0.26593373492157185,1.257309119708254
7.84,4.755144033304264,-1.230368122223704,0.5744946008561309
7.85,5.951350439916357,-0.16623772853574043,-0.22289950141408646
7.86,4.8122153113350725,-1.6584559312870268,-0.5895433407786905
7.87,1.1437109590712913,-2.4199053525230942,-0.20112505903614117
7.88,-1.1424111767765293,-1.9606974941998956,0.4825084330531266
7.89,-2.736349585996611,-1.7345178606914382,1.0355064398275726
7.9,-2.958333187455019,1.8706528817350638,1.821419882181133
7.91,-2.819910276018167,3.1551620291804507,2.161681732624095
7.92,-2.0473947860037462,1.5836592396580058,1.7994487975166782
7.93,-1.161832880422495,-1.779954241015074,0.6649419691146947
7.94,-1.0225762433269985,-4.835483198758833,-0.5980535623015496
7.95,1.9411296689791178,-0.2545230383572593,-0.6319958891269627
7.96,3.376039870347673,2.125270125880916,-0.3748165838822356
7.97,1.5677097845495405,0.8129252758601293,0.038959792616019014
7.98,-0.5397285328761088,-0.5181737937671791,0.3036280104183783
7.99,-2.952245549988362,-2.6267195361637476,0.7299371405144457
8.0,-1.4031371611820358,-0.46998038890532856,1.7086501310474869
8.01,-0.8537829096876056,1.858492162421786,1.1222175066456468
8.02,-1.1805877359038417,1.8705319737626396,-0.9835211403520859
8.03,0.3138256956236289,-0.9365051146769969,-2.256684439549266
8.04,1.2895200998783058,-2.3967937114668683,-1.4105985844964313
8.05,2.423222389921623,0.8097141371690861,0.4027961726419921
8.06,0.844504446441741,2.5082447347344488,1.3572467760626332
8.07,-1.5316903885035482,2.2756490770361735,1.0358457072665421
8.08,-3.8413505703079833,0.5353975277833225,-0.07203006190850775
8.09,-2.889072811543007,0.132553273769406,0.05225959249140966
8.1,-0.8722303597693568,1.4765941555613407,0.2656838373554345
8.11,-1.7636729077267237,1.6642903620558,-1.0895161600513656
8.12,-0.10671342110260279,-0.08247907245470451,-0.8891349199260423
8.13,2.660886829675565,-2.0877868718074635,0.5731508139863598
8.14,4.073031039289486,-3.175944454020529,0.9855211198235827
8.15,6.193958508912843,1.696754010838564,1.0456374593550832
8.16,1.967305663815827,2.8177891800764936,-0.07913854779585912
8.17,-1.4678221169952723,-2.388730401304366,-1.918735109850023
8.18,-1.636066073755212,-1.4880281412696852,-1.0939195940496398
8.19,-3.2067466257129613,1.114233837813126,0.6195494767418206
8.2,-3.980424941947734,1.8401280139267981,0.7059237245715865
8.21,-4.806985348709209,2.2388064158255387,0.7400277752714615
8.22,-0.7826250968434686,2.0676888580274593,1.4970757633115408
8.23,0.9665476295106137,0.4731596091939615,1.233541406308882
8.24,1.8632143452139849,-0.7772787084397249,-0.37173803017562695
8.25,2.288424138255925,-2.3181103146145405,-1.5742420395714976
8.26,2.887541436963819,-1.3902180371767008,-1.4771177201629635
8.27,2.7964925672123813,0.0783893791088135,-1.4048387063138208
8.28,0.5910468928624294,-1.1753208831683266,-1.5846661768931714
8.29,-0.4077116230336331,-0.554406063264152,-0.7856419401203625
8.3,-2.135996158205403,-0.8850262099848474,-0.10024651171342633
8.31,-2.4561484935415168,-0.3231278037972991,0.543677645689513
8.32,-1.2779116927564638,2.9435238675934503,0.7501318550711741
8.33,-2.2900827172568063,3.740631137406304,-0.4166210274265053
8.34,-1.3809645364509109,0.5229457382077713,-1.4682372017260212
8.35,-0.28303651740176927,-2.6987306702886387,-1.2235362650856398
8.36,1.7719542685030052,-3.359923765250715,-0.3607989599355306
8.37,3.9419402558714456,1.39448266352662,1.1566819639991173
8.38,3.0468536340222574,0.8035412210211799,-0.4812090404592943
8.39,1.6226655522646507,-0.36895315359976705,-2.6294486346720665
8.4,1.244542256027081,-1.4054603812212452,-1.9174396752339524
8.41,-0.7370153294220357,-2.4871001836738587,-1.2983770224227877
8.42,-2.7879411566881793,1.3391265821054137,-0.9995653405657312
8.43,-4.010046347418349,-0.44755527656439287,-0.41688439551791945
8.44,-1.9772785695071147,1.292121480603305,0.6704418914729154
8.45,0.34176489923165815,0.3786922044810015,0.07412658607574055
8.46,1.8678980863036754,-1.789455805362153,-1.1763375154575049
8.47,3.2997769485703095,1.5453183561394286,-0.7747050370753944
8.48,2.300084324206885,-0.4914148741997379,-1.3893740162334225
8.49,-0.682462919543958,-2.3003301148438067,-1.7029059154574904
8.5,-0.5251045079834555,-0.3691145289113686,-0.5305601722877412
8.51,-2.500115732692728,-1.0189128214938536,0.6173477068723503
8.52,-0.7998529568501316,3.2737206633986866,1.2600086276497038
8.53,-3.644310676864548,1.8195876654941812,0.37037358516091806
8.54,-2.572031872557731,-0.6008770816300778,-0.09141376296863553
8.55,-0.09154657658863664,-1.493476521616887,0.23367660251437106
8.56,0.5373301732492599,-0.4873283591974113,0.4660209238499453
8.57,2.587695816212757,1.5047072304282505,0.7280739486741781
8.58,2.2112939826974682,1.162322314815426,1.0071482022857157
8.59,0.6700181163274775,-1.2248390100506261,0.9938965020117118
8.6,0.018322010002568685,-1.585777014181972,1.2821805061395675
8.61,0.2763038062522351,2.3326646194635265,1.8161746348611911
8.62,-1.7312701908427304,5.306906138743998,0.8773853202719344
8.63,-4.883123665018826,1.191596472635755,-0.9050719662637066
8.64,-2.546905322757024,-2.950988273750563,0.30616752838584566
8.65,1.1325781229119944,-1.8422102031484244,1.0297753744934648
8.66,2.104805162747668,0.9380013932351281,0.40796202275533355
8.67,4.214659961148616,2.4154098742735184,0.34757374963404847
8.68,2.943622981768419,1.3188712357711851,-0.48202910454343384
8.69,0.14728183812326912,-1.1616639774931696,-1.5505414739444303
8.7,-0.5727062386946639,-1.7992235969252035,-1.0082912884534327
8.71,-0.4582791927059713,0.2825136305229909,1.160354677083038
8.72,-1.6300268224865258,2.7552367463039973,2.135269549724497
8.73,-3.6705731969271267,0.8163023891806016,0.07949576845993239
8.74,-1.2919165830753574,1.3934738651427594,-1.1930256401217116
8.75,-0.10507682807429801,-0.9261924785236682,-1.2252921020305432
8.76,0.3066522962859948,-0.044174482199910534,0.049049277000547446
8.77,0.40267512717576986,-0.8981373525244963,-0.008644249540348075
8.78,-0.6092032047001616,-3.5786259549096733,-0.14657591649509888
8.79,2.151212307839344,1.084676887310905,2.1741818689797805
8.8,0.43732367231249,-1.5530631626516327,0.9706192653651535
8.81,0.04757507397779618,1.629066905793382,-0.231099885087951
8.82,-1.0135306354175624,-2.3133268002723932,-0.5561194942898757
8.83,-2.400572530621909,-0.5048777983667591,0.5214438060175891
8.84,-0.8631653074938115,1.767219517056441,1.3839502560385208
8.85,-2.658985991784331,-2.3353019596797773,0.39241787641688014
8.86,0.10582905817611915,2.0237859073866713,0.6994814068094397
8.87,0.5244404592636465,-0.4171187142490041,0.70203600143362
8.88,1.6396855398920087,-0.9433255867607345,0.3153948734180174
8.89,4.136291386456501,-1.57931254858607,0.4188244998427719
8.9,2.6162915412050096,-2.620029430194412,0.5271881937267962
8.91,1.387695207011327,1.469297203893027,-0.772576195439462
8.92,0.09381895167411879,0.8811057287801102,-2.530762656909161
8.93,-1.902418980396186,1.111205101575309,-0.6351787015637427
8.94,-0.5183675065533346,0.51130773194884,0.8556969921239594
8.95,-3.687695037588111,-1.267631320915421,0.6285012383099922
8.96,-2.297197675181875,3.0684599876936596,0.7078551997168345
8.97,-1.1183933450537311,1.1448216347952977,0.5657416986535312
8.98,0.988560576182723,1.0184482585596322,-0.40487938222687786
8.99,1.9232041812709233,-2.431356042349728,-1.5003177151875282
9.0,2.9442135582250972,1.4132571740967743,-0.7354879944238091
9.01,3.0772684348141417,-0.1382033157290672,-0.619191198542227
9.02,0.03785872992357555,-1.0355842616956783,-0.5215693942762566
9.03,-0.7154158481294048,3.306496141928135,-0.4640637757350962
9.04,-4.7706723378970874,0.8502303382377872,-0.7572122561660446
9.05,-5.653617088196731,0.5199658466532974,-0.1680899132941971
9.06,-3.296038311257932,-1.0397750801462493,0.14487798423518927
9.07,-2.781033997426994,-0.004159110559765735,-1.0079430443858164
9.08,1.0953625334237171,2.7425268967765337,-0.1957126710541136
9.09,3.1761299224897885,-0.8704993030578434,-0.11902818400389914
9.1,2.270390775647751,-1.0173085542103149,-0.8204459890785019
9.11,2.1405306275042646,-0.016035380371327478,-1.1013353273610662
9.12,1.838251510588517,1.968965968690278,-0.15250661715351743
9.13,0.669108117411217,0.7983114832899796,0.7311204470977437
9.14,-0.623939750328278,-2.2906894198428494,0.48946920427609386
9.15,-0.5060408615496369,0.39387754388513485,-0.03514669256586621
9.16,-0.4508340568635563,2.7038227238873205,-0.6769356662196178
9.17,-1.2806034457791837,4.11854419766549,-0.6319827793279563
9.18,-2.7446930032321135,0.9242142688913948,-0.5514563939254105
9.19,-3.5549836746288817,-5.798424665907021,-0.7874054812692143
9.2,1.2190278835665804,-4.46596152850728,0.4973909240619343
9.21,5.849850606060469,2.5358644558142163,1.9298102988497685
9.22,5.886972906279108,6.062738796593468,0.21796740418398547
9.23,0.5788010181986207,2.957801900637867,-3.2605676109497037
9.24,-2.273812011698617,-2.6892795094092126,-4.0105827676104395
9.25,-4.677881452284589,-4.374205736326333,-0.48281332482274936
9.26,-1.1091814533205082,-1.275183415979555,1.5081549342666793
9.27,-3.472703588858211,1.6662296083715582,0.9735721337427179
9.28,-1.3975873456058319,3.6756383393940784,0.4807655384259441
9.29,0.37149525364827457,0.7808947107253245,0.10617530245787907
9.3,-0.26912726054636676,-2.7716356324498044,-0.5346088360853095
9.31,3.0125498214639834,-2.0005468203203525,-1.2035166404179176
9.32,1.8455783262620251,-1.0727373769361455,-0.7825554092211732
9.33,-0.5170928512668482,-1.4385694258340236,-0.350633622514599
9.34,1.6850902216519872,0.6969461438719434,0.23940413334802582
9.35,-0.31148120467217444,-0.5713067983532475,0.09494488656081265
9.36,0.06277638412796537,0.8026158063674088,-0.2788867989560985
9.37,-2.1862784505180564,0.26815921273820287,-0.23900489113926096
9.38,-3.9116916111227966,2.0306393934962803,-0.3950890511339023
9.39,-2.626397685819264,-1.1346851595302572,-0.5462925556768111
9.4,-0.7985550222910586,-4.247849619235608,0.005402170062493554
9.41,2.866637883061969,-0.5974240004306385,0.9738193505293208
9.42,4.487647876107554,2.7242647941563902,0.8652320272640995
9.43,4.679024634037867,3.717724311543461,-0.2281206406964277
9.44,1.4678668940386486,-1.4737905726170666,-1.3418423363589513
9.45,-0.7356450931059917,-3.5013685361365723,-1.1846738644917294
9.46,-1.9261432697002652,1.7056312930612325,0.007587823223313891
9.47,-4.329256203727755,2.6938555981666585,0.44124620953348676
9.48,-4.442722547860063,0.513833912215391,1.237516372942032
9.49,-1.7254282242478756,-0.34104292012039156,1.1572097348284374
9.5,-0.5106371609682983,-0.045366931751426726,-0.11861050995573003
9.51,2.2643273811994113,-0.018330755776933796,-0.13148450475615023
9.52,3.5095685506973786,-0.4831134746835772,0.09288874677620414
9.53,2.2408430008844507,0.46626813646664356,0.10547390038562646
9.54,1.3282602003363855,-1.149708412812171,0.4111263862086531
9.55,0.05795431714513454,0.11101848436747438,2.3150108059875594
9.56,-1.985607163769678,0.8484214687932735,3.380723942463326
9.57,-3.8072417206357447,0.3065114118312686,2.4327562754985883
9.58,-2.8213176710989765,0.7145858883066983,0.929911277095129
9.59,-0.49748857058524115,2.87445775061976,0.4787110409930853
9.6,0.8235406637105971,1.8824009193515308,-0.11090946934034145
9.61,0.6073659466836382,-0.4925454035894213,-1.3076056948095471
9.62,0.12053232990409626,-2.568667915418527,-1.6910530361873282
9.63,1.6807975519830207,-2.8214070971577296,-0.16334118940917514
9.64,3.3005077051949754,-0.9053911554768741,1.0692892372711849
9.65,2.2577142849432383,0.7200492948637104,0.4952510750084475
9.66,-0.0942295788030329,2.775515591849765,-0.8330814468503825
9.67,-2.1171486423590946,0.1829380784808822,-2.452672588868022
9.68,-3.7125191803048665,0.09893609098795504,-1.7444601465244025
9.69,-4.995100049863889,0.2563975996286475,-0.2621519490716888
9.7,-2.6207254124690778,-1.0613224886413197,1.0000394199751395
9.71,2.4911668873718367,-1.4446809243550962,2.2393700190325134
9.72,5.602526557185528,-1.0310355381230656,2.142024618148973
9.73,7.701647510347344,4.729204926192659,1.3707993826463976
9.74,1.83022457549431,2.130504460269859,-1.700846174750244
9.75,-5.699659354866981,-4.053546292580263,-3.7458747123561915
9.76,-4.323940189972203,-4.763513282485858,-0.6584534381166245
9.77,-1.5215722285693405,-2.175669002488276,2.7337412469311406
9.78,0.6163061233848023,4.150181457288173,3.252105206637794
9.79,-0.05758114240733989,4.566807675295086,2.7179948106162417
9.8,-0.10432851195859864,1.755988167049929,1.3191060227182376
9.81,-0.6372825072897085,-4.036302668611135,0.04220177873676755
9.82,0.798176814996594,-5.993131419475196,-0.02677149729987042
9.83,4.09087986212615,-0.46031103981986216,0.47085876534424287
9.84,2.0339142638127536,-0.0966042785536909,0.7814583032486266
9.85,2.0910373995268454,0.7985092080147095,1.6811931990789117
9.86,3.6235664373255276,0.9224162911121931,2.0637975108451343
9.87,-0.18222592371540028,-0.9506093138273581,1.5131902329652136
9.88,-3.4723527964068963,1.7999315711304578,1.0856669179843317
9.89,-5.142119237553227,2.0757996042828686,-0.10003135198631585
9.9,-5.7133292565588105,0.6701733477588822,-0.5687409064377589
9.91,-3.1974081107403074,-1.6643092581704657,0.18742290135222672
9.92,0.3346272196513844,0.25754122634595733,1.0804213719242983
9.93,2.4330110234764653,4.172348383977727,0.9273859649105742
9.94,2.620780202619908,1.4274466037355529,-0.07258476076565147
9.95,2.2024400209088175,-0.8464429547583848,-0.0897797248002268
9.96,0.7401513576690426,-3.128342602286702,-0.5697450294790571
9.97,-0.2877371436706486,-1.3625689469703053,-1.2552340406916633
9.98,0.8347384670075507,1.875576901730581,-1.0652038706148055
9.99,0.039356392679318224,1.355018183108214,-0.2892409841074296
10.0,-0.5165810116550795,0.5404418668417823,0.4235800004814545
10.01,-0.7700147018863448,0.5092001676300143,0.25932364897171906
10.02,-1.0008063126529643,3.038750077425175,-0.22940253559942478
10.03,-1.0455110343714464,2.167332214974327,-0.31275093557750117
10.04,-0.8690976850235936,-0.6972581214029554,-0.275184813535869
10.05,-0.26652188363952933,-2.7211186850741615,-0.2089516354638338
10.06,0.4426286137051615,-0.9661997497645848,0.404752670215427
10.07,0.48839924084280917,3.1472960835345716,0.6725687334196095
10.08,-0.3564703531359039,1.509216413107487,-0.15971163241131087
10.09,-0.46562274575663837,-1.8423708264241139,-0.742773787835203
10.1,1.0413951113650635,-2.33778827413543,-0.41752292357013293
10.11,1.6574329848514322,-0.5898646993544001,-0.023051318540760757
10.12,1.0178434205039995,1.9918483719917197,-0.12371750011748861
10.13,0.5807014549166406,1.1419826461811826,-1.4833830733012658
10.14,-0.9375135195401373,-1.9845152412276392,-1.9829847783590984
10.15,-0.12204264440196388,-2.563709089865154,-0.3419441102446796
10.16,1.2320451780655335,-0.19703493142517817,0.8785501510404912
10.17,-0.808570644668771,1.2296205461104568,0.35828738362628726
10.18,-1.0366605398858417,1.8888810903784343,-0.9211025163893203
10.19,-0.7857268662862426,0.17286418560970432,-1.7511836688764442
10.2,0.4067734234269708,0.6009890947938209,-1.5988336765755737
10.21,1.4552613437980413,1.4061758814128031,-0.980239835338485
10.22,-0.1591838154329279,0.07483195562929824,-0.6847660382048626
10.23,-1.1519133368667445,1.0248414423943677,-0.43163133285013316
10.24,-1.5221074056179784,-1.512539676318089,-0.628523514160204
10.25,-0.11469672791119775,-1.3649778355740092,-1.227905656469446
10.26,1.552763336161537,0.3858981591922718,-1.3793704854988176
10.27,1.9963586127899364,-0.5867508057264775,-1.0809251839888983
10.28,3.0440076617959906,0.924291190285918,-0.5508653590399157
10.29,1.1789003383344938,-2.750965814311835,-0.7427589795947765
10.3,-0.41330351164014995,-2.321140803386583,-0.973874129608851
10.31,0.5141183842511138,1.8695694089726935,-0.8820168802717961
10.32,-1.5990028190188847,-0.9464794851533066,-1.0050722754617614
10.33,-0.32157352481456014,1.1361827581086585,-0.2608858588301032
10.34,-0.7657998060143865,-0.5488600204296791,-0.6912888221025351
10.35,-1.9712430398613408,0.46183925924874913,-1.1474755455822019
10.36,0.19222835560180213,1.8032752571604715,-1.1972665068496453
10.37,0.3847931295480763,-2.187049242371247,-1.2493145084109591
10.38,2.19181783995355,-0.543283876275284,-0.13895277037013465
10.39,2.6627910260646166,-1.5434067819784136,0.6507031095631426
10.4,1.9709144409874204,1.0290498358406783,1.5437478424968445
10.41,0.8180143142872104,2.63547240776696,0.8351376067824495
10.42,-2.59062244340277,1.3715662227781216,-0.933970126077838
10.43,-3.5189875834210125,-0.4910984218319072,-1.1728430772618619
10.44,-1.9979978934584393,0.9632043225513675,0.6553505023786325
10.45,-1.1599892322972907,2.0089992741183287,1.3320200267723785
10.46,-0.8814773841198464,0.5374617959301007,0.9166211190858248
10.47,1.0316537032500794,-1.8162393983964598,0.9685991428792268
10.48,2.540437883906726,-1.382388993961994,1.1154579190248892
10.49,2.5765400229132944,0.1610346600745373,0.24345232093988953
10.5,1.0211099000655879,1.5401841602128432,-0.6280927122310485
10.51,-1.8698136962762062,1.0137097717751897,-0.6492154767714192
10.52,-4.1694440648844875,-2.432623152613161,0.5859580636696108
10.53,-2.2838145984760274,-0.7064781481387946,2.043180126961588
10.54,-1.1421697604624639,1.5920278567970452,2.000652830017345
10.55,-0.8803072520105713,3.2651827668496565,1.2984490109333826
10.56,-0.1249065225729933,0.937232526310624,0.018929957559619334
10.57,0.8186553716907576,-2.9313368164252576,-1.176771198151309
10.58,2.9950446049384216,-3.4116929630596404,-1.2730128360899722
10.59,4.946487370539182,-0.9652318030420233,0.49059687652533485
10.6,5.280688306758221,2.149881601358204,0.9542038036687662
10.61,0.11423190888080013,1.2539054053385155,-0.4719859737639744
10.62,-2.624542119790352,-1.3365965036761451,-0.8066431603513152
10.63,-3.836240617962874,1.6438321802855411,1.7216709248475164
10.64,-2.4358523097830003,-1.090133292463409,2.439983898699276
10.65,-4.104496725437659,1.8661715101333227,1.2568779237761596
10.66,-2.455136458305095,3.480939904532232,0.6861969820242908
10.67,-0.4079442246572106,-2.1614539537885182,0.6954272629799938
10.68,2.3376655155501083,-1.2185620733818894,0.9736050643970259
10.69,3.9732731429981074,-2.944785452639872,0.2192487351288117
10.7,6.423951115154234,1.0417563167115436,0.5568623989394635
10.71,4.863179550719051,1.0964742283900692,1.0496553019833514
10.72,-0.12812542641903468,-5.960520421628887,-0.07051013578336297
10.73,2.5665758615175442,0.7898772886703411,0.7100990701354172
10.74,-1.4866004368902987,-3.637625094880316,0.8007878219728256
10.75,-4.2295380005005345,2.1377354521329566,1.6532674589276892
10.76,-3.762357435148852,3.7204813658714215,1.4988968183008562
10.77,-5.111125624309186,-3.309835277155629,0.057719101015805276
10.78,-0.07062969433525257,0.46181348204917455,0.9554284031775208
10.79,1.4969611567959382,-3.353276779856407,0.8420641367130504
10.8,2.904928803306829,2.5104198310704744,1.0175286216896644
10.81,4.4056346974309974,2.3507240999436263,-0.40917032256605834
10.82,1.3196902566045439,-3.169794195259228,-1.3938381085854927
10.83,1.0811780179065538,-1.540297941823939,-0.03789099254373956
10.84,-0.14754506565433728,-2.426651473527017,-0.27752339446911484
10.85,-2.475025076585589,1.3077537935531693,-0.7765881664420378
10.86,-1.7090203545473892,3.259415855298719,-0.977556122190203
10.87,-2.542747241646612,3.9282682261135595,-0.09015808377912561
10.88,-1.7550218133623072,2.130094985913233,0.21984602696796657
10.89,-2.1085981322781535,-4.0121276595691455,-0.35458703396644836
10.9,0.311314740103381,-0.06088720827788941,0.22433856624683132
10.91,2.5222079698761584,2.302893553956767,0.6259570875948036
10.92,3.235260694199505,4.147956109603165,-0.3612896230746313
10.93,0.5475791476146261,1.1489208383552652,-1.8019869686430532
10.94,-3.5064444675152333,-3.040219390011291,-2.1047706121225507
10.95,-2.737270965436985,0.46442106018079954,0.6819743648718384
10.96,-1.9691486079456597,0.4977937624416179,2.5360653061676226
10.97,-2.309430581012533,2.2889905458327036,2.110876858295987
10.98,-0.9307308533548213,-2.13011986810291,0.31913429885899575
10.99,2.23394619677571,-1.394020153062893,-1.0897608033690627
11.0,3.478013349420709,0.563118341900014,-1.1698965169715403
11.01,4.068471093388544,0.6747739973356066,-1.1966177745030857
11.02,1.066896579232392,-1.2815819418587249,-1.39146443763851
11.03,-1.160159000836585,-3.432837715116795,-0.37394141477240783
11.04,-0.8874012604108273,-0.4047729383023005,1.2345675952684465
11.05,-1.0585325938645214,2.6137480972752054,2.091178136121875
11.06,-1.5432291712069206,2.864680800766639,0.3510271586393427
11.07,-5.204508517355171,0.21776548100502394,-1.688973837530667
11.08,-2.974110155977385,-0.703593222820722,-1.1026008577456567
11.09,-1.0505920298598859,-2.829576998084686,-0.1214098337249546
11.1,1.8012453097973848,-1.4431915861607518,0.8839793713177951
11.11,4.671738617565772,2.283287637774979,0.856679466254775
11.12,2.5466300213615556,-0.37745037847101054,-0.6001766969811748
11.13,2.4345872602854484,0.29487598290072725,-1.0919334655491402
11.14,1.737474165106686,-4.209395702819279,-1.783621374481994
11.15,1.4314319378035816,-1.2465901728001245,-0.45484357179992424
11.16,1.6327415799385052,2.282250832856628,0.937353865026924
11.17,-2.2490271245607767,0.40253729310604,0.15841845741525992
11.18,-1.8354371039597792,3.031169751753965,-0.8643380573200077
11.19,-4.862267284197771,-3.8100891802912393,-1.2389916313068037
11.2,-1.3075032060454945,-0.20133419461400778,0.42065474403409847
11.21,0.5944612343032014,-1.1460026388713673,-0.27395014446596794
11.22,1.6887267079132058,-0.8511512994365062,-0.5724325826761009
11.23,4.646889684654184,1.9252077131075398,0.19319424170807842
11.24,2.6165360303917136,-1.1552561578882108,-1.463804677409683
11.25,1.7764555582580277,0.5001214624295974,-2.405849358022899
11.26,-0.4542907524973853,-2.4886794232765657,-2.120305707594154
11.27,-3.2523811926804362,-4.309481870387989,-0.3330775798922738
11.28,-1.4958349087459555,1.3824500081360984,1.619131012618115
11.29,-2.716491001448657,2.8061877591709323,1.178908720192043
11.3,-1.988697420554911,1.8822459131195908,-0.4319146692210188
11.31,-1.4241297624549292,-2.2302755880413727,-1.6603823875926629
11.32,0.39211555137278126,-2.9534940180736498,-1.3854387588111106
11.33,3.1521758173415857,1.8245121652599967,-0.34802455302470253
11.34,1.5019489298447166,0.6977788219610239,-0.09345685345839282
11.35,0.5421684770873111,1.0632543806410975,0.45722422156421266
11.36,-1.231958623186244,-1.7383440854481944,0.8916559775132074
11.37,-1.814997669771235,1.177363124750788,1.779109353142864
11.38,-0.8148820292266236,2.6786702497818413,1.6041952311411811
11.39,-3.5446323645392166,0.04468524939708724,0.6361651902321115
11.4,-2.182172895761388,1.043374249275955,0.35051523725296907
11.41,-0.673363052604269,-0.6075821114965755,-0.6457877566954646
11.42,2.1465695155923847,-1.4456884748636736,-0.5940446695532596
11.43,2.9940415325928607,-0.3673172054733226,0.9958817758891575
11.44,-4.267851923559548,2.608810072678881,0.7557372325795909
11.45,-14.927850843755902,3.461527626988478,-0.41017157007524047
11.46,-12.163608817448766,-3.3350060102842933,2.1983419325733733
11.47,2.7776645348461115,-6.541995835520026,3.1281945382718424
11.48,11.842480746880657,-3.7714595317407604,0.5616353050574094
11.49,22.577031749160632,6.3832639779808,2.3546662237563547
11.5,25.029583376393397,15.033163485874436,2.562151826403184
11.51,4.226126867762945,0.022386095624401182,-5.612363141738441
11.52,-16.892464478023303,-20.396853520258066,-8.747303382812404
11.53,-4.033422196286651,-9.009591978583215,3.8941388445993996
11.54,1.6819543052959236,3.177547918949469,4.567716153869869
11.55,-7.111803123003665,1.952895839370194,2.2577674275483646
11.56,2.1099683866049412,14.7622307600765,4.421409985162591
11.57,5.902426669348925,11.706610226335695,2.683211471799639
11.58,-6.984696086995981,-2.727740389810576,-4.036991525028547
11.59,-8.210630249582849,-3.2990530053227287,-6.842494915736229
11.6,5.3750413045845375,-6.941515027616859,-2.86324175072873
11.61,5.36012545717353,-7.205584562249287,1.3361492021781467
11.62,2.545266940421311,9.54845864978793,5.48634583400559
11.63,-8.086082932024858,2.13807944296673,2.6250972544630358
11.64,-13.444685728937728,-4.471346378063369,2.743690663645187
11.65,-0.1838638810297179,-6.561269098308754,3.128837886703179
11.66,-1.5312786941149508,-3.875003553946477,-0.9747930491323146
11.67,-2.026467969650983,2.1500124382130354,-1.6885082850523572
11.68,4.156160235209268,5.988133409900348,-0.6791961861200752
11.69,2.7879100776965124,3.756098908308232,-0.101041994810616
11.7,1.7463881330552558,-4.632799748988425,1.3874087467019622
11.71,6.637551307405514,1.3151608309567375,3.9662281311628593
11.72,0.9497277672607612,-2.2280707912266315,1.8619419522716512
11.73,-9.026949641655296,-4.408252995422876,0.49669876487563974
11.74,1.5210329035132186,4.529973163416485,0.5965760592744779
11.75,3.4743927231605363,2.7478441429803846,-0.2519353461157755
11.76,-1.7186306307876276,1.1794599085154724,-1.2016755657872424
11.77,0.41660904189616055,-1.0122106066329521,-2.2257542646033412
11.78,0.035098915239974215,-0.8619722553000218,-0.97217975932435
11.79,-0.30066571688943067,2.1747921088866105,1.5909966915338882
11.8,-0.226360329702565,0.16154255621306116,2.021201111509489
11.81,-0.7559603546876134,0.7625622364172902,1.050634524117137
11.82,1.285760885599935,4.673926831992251,-0.451928975409363
11.83,0.3828956392276864,1.3005230301416613,-1.3842135567724951
11.84,-0.5867754225665307,-13.341521354185717,-2.814785031222002
11.85,-0.930323772874488,-10.776472681202005,-2.396672157347722
11.86,1.6758920815357432,6.406047219619965,-1.838795642325046
11.87,2.035495852008281,7.321358382054289,-0.5420691990206475
11.88,-2.371341966901564,-0.48557812084246615,3.9127144937470075
11.89,1.4437650638769703,-2.054679966595718,3.482597095809175
11.9,-3.3445007020418642,2.0590065596631115,0.08848010387178051
11.91,-8.395627673559078,7.228762343429452,-0.4281734401102587
11.92,-6.360557317726503,8.073466787313329,-1.1964771415022264
11.93,-10.69968489064063,-2.451909333361557,-1.3011203186479556
11.94,-0.5348170133016756,-8.8959808837087,-1.3395320660015948
11.95,5.111326221126511,-5.034509137637429,-1.6690628927714002
11.96,7.14647253738015,2.290888426883022,0.8702122919374148
11.97,11.045122039193219,3.6113887152434025,2.237926292173569
11.98,6.399573344184884,-0.9257370324140479,0.5691088920088485
11.99,-2.976071955567942,-8.267789645397063,-1.5680656695478326
12.0,-3.755061410591324,-1.8011689542180807,-1.0681495929272609
12.01,-5.072978800043801,7.231019437949434,-0.4843847455670802
12.02,-12.376075879471465,3.9826887566561426,-1.745977932740225
12.03,-7.903787847741165,-0.36720952961804204,0.21093146417119973
12.04,1.3572005790400195,-4.250114211853181,2.090121722343529
12.05,9.149361855994785,0.5883963878634346,0.583682461651747
12.06,13.402117876790975,6.7023717061406805,-0.20482604702278043
12.07,11.768781823475326,3.3026848096920918,-2.311143777457968
12.08,5.319301118096373,-3.9393888844545843,-5.880937825278929
12.09,-4.660609594883241,-8.545894739446096,-5.8911027363723925
12.1,-6.490753491621378,-4.152709661724083,-1.6561607061694619
12.11,-3.4774470655869596,3.1750830970605604,2.3549716097762885
12.12,-3.5341534745775527,4.479103964246291,3.318494464887176
12.13,-1.370325847488685,3.0254250264557174,2.360988700521755
12.14,-0.6262720922673304,0.625953637585966,-0.46905073895213734
12.15,-0.07405071838392858,-0.3327322692734309,-3.9204977264933385
12.16,2.5821080651309973,-2.7511335892967246,-4.328863411439868
12.17,5.445623168497231,-3.9925949304012773,-1.5228327118183544
12.18,5.375923478048333,-6.116747670469548,0.7655918801775435
12.19,3.354941337293726,-2.6046330448352006,2.857296801241211
12.2,0.5689938735407749,3.0640088901293017,3.7363591199548547
12.21,-2.0819927926469775,2.014635149513529,1.1323464609418292
12.22,-3.5951932526280697,-0.4523550257522775,-0.9408255049138688
12.23,-2.5541777887032557,-1.9635183816747515,-1.1453961748404327
12.24,-2.6908175097649005,3.6933178692008037,-0.7010914216697594
12.25,-3.2198745539814815,5.81075198771926,-0.1617815884381275
12.26,-4.1646735852509345,3.7080147075501992,1.9050023809790144
12.27,-2.8598898459399638,-2.0494903530708055,3.2219716911199026
12.28,0.7379155033561187,-3.893000902185024,1.6816273776206767
12.29,3.8086529202724555,1.6461943694616634,-0.2627496959441045
12.3,5.04213982879118,3.4087269637412136,-1.3636609623911116
12.31,2.7961830726450065,1.1789891436368025,-2.6954116766085985
12.32,-0.08133140707302505,-0.9638796625106971,-3.3305749556164597
12.33,-0.8229179794869934,-1.8275433773846292,-0.7422063648880859
12.34,0.6606367222099844,-0.07059480493225637,2.8922076088953554
12.35,-0.6647001980022569,2.9148859974149057,3.5850719663227637
12.36,-1.1539493567731371,1.4220992359947566,1.3438368592071945
12.37,1.1899181654939242,1.1178496251986119,-0.7791369192562021
12.38,1.2526207973490406,4.118086622419967,-3.0742006744745787
12.39,-0.05467158152044509,1.9153679443683425,-4.788620181338161
12.4,-0.3589262855459069,-3.0856621341771535,-3.3932913854276805
12.41,-0.7679961986146022,-1.978486244271121,-0.28654639361498135
12.42,-0.7760748555425633,-1.5603940486444825,1.7776287978486027
12.43,0.7105941465061116,1.0082438041547832,3.0673235085975827
12.44,2.4128478915650753,4.306848907048755,1.7774935037851347
12.45,0.026087078461635924,1.745340880874972,-1.7985581619547697
12.46,-0.29551663698359976,-2.0020066841176076,-3.539002425936072
12.47,-0.27584596043466697,-3.5288174645552637,-2.648197907740024
12.48,-0.20624581781504886,0.4010559655479288,-0.8969402320764679
12.49,-0.5481462435755623,0.5875332791457785,0.6384311505747142
12.5,-1.2923422344633362,-0.20464777619704902,2.153037857482497
12.51,0.7214423129867473,-1.2185888479513525,2.905868779154938
12.52,2.8398254425673652,-1.3757810571221094,1.7846719293219238
12.53,2.3769667059245396,2.9606174212615373,0.4172659507151627
12.54,1.040522258618916,0.9821098606585493,-1.4308512174993633
12.55,1.0185816824514728,0.5275579479091664,-1.818970952463518
12.56,0.72800388843745,-3.0134697267650834,-0.651289852564985
12.57,2.527809697235296,-4.114130228331522,0.766548935357854
12.58,4.851778792690087,0.5005863793653621,2.8302472173021207
12.59,-1.0255826122984173,0.561454890226819,2.7910675615693985
12.6,-1.6815125645332192,1.8792442556693099,-0.02005146633433361
12.61,-2.4106710874102255,-1.1630164474112825,-1.3150121764405038
12.62,-1.732338370213852,-3.5068344869394785,-0.36543383516605493
12.63,-0.5289449672190785,0.5831892820717534,1.0639328262209062
12.64,-3.7311288042813335,0.3116454081470725,0.3471634098277109
12.65,-0.3541966838380821,2.6365485739064183,0.7543483676469239
12.66,0.6888312046250336,-0.2303821099156531,2.450497970348268
12.67,1.082169166683917,-5.409787667969332,1.8215616924463973
12.68,3.458029330718611,-2.219770313823394,0.7701498314700969
12.69,0.3156583287468424,1.9407302685979702,-0.0724436483494057
12.7,-2.042253401832193,3.446547750265491,-1.660844018549846
12.71,-7.130855531704049,2.320160151187711,-1.9622652578203756
12.72,-9.79696153899861,-0.651600612369736,0.14861879541988585
12.73,-6.173929850254321,0.49622510039383766,1.5314664902433315
12.74,-4.23118071561639,-0.8316616871299588,0.13396199520299912
12.75,2.1495482784359075,2.068356283359465,1.7210445773674017
12.76,7.200152613228748,2.7811198110284074,2.7779183344652267
12.77,10.05902237395311,2.0951246540238193,-0.1503861888636463
12.78,8.44439509749255,-2.181445872274001,-3.051485353947132
12.79,8.322112155302472,-5.177755294526807,-4.052940895491636
12.8,11.247077539570379,0.8546659422586544,-2.6843008792389482
12.81,-4.6928133463534065,6.098927066840988,-0.24275992857022397
12.82,-20.934109710847594,0.7030277529284329,-1.4793596213679159
12.83,-13.042805055964662,0.533927793170565,4.951234829467168
12.84,-4.730449427053714,-5.091802524229586,1.2056040569487032
12.85,-2.347399595778711,1.7961141911100431,-0.8148652520859323
12.86,4.352409686281074,11.11103376614947,1.1280385925199392
12.87,6.18637780960973,5.030906384821999,-1.6098475636601863
12.88,-0.028418101631516535,-4.558922121733359,-4.763268457952804
12.89,1.9510734842651136,-7.233542687102523,-2.235426285557292
12.9,6.444081444585414,-7.311012584124165,1.0308394926377362
12.91,7.793364394957622,-3.9139802744493726,3.0422330692475907
12.92,-4.369410080337445,3.198905394795421,3.283353949100549
12.93,0.2387917882674569,1.563405898088752,-1.869487781836455
12.94,-1.691116167399773,-3.00206079695419,-1.794120708415562
12.95,-2.73875753464879,-6.492991226908059,-0.489448389377211
12.96,-1.6391735947737724,3.9722505275815574,-2.936875144612089
12.97,-4.230012790659321,4.103573970549809,-3.59854580107083
12.98,-0.7713222698421947,1.4527737440379116,0.10714487010346178
12.99,-0.7830579131845072,1.7742752573634173,3.30574319705619
13.0,1.7682262334804233,-1.1405490451710902,2.507134801041183
13.01,4.238494155442622,3.947786323304059,1.517871821063713
13.02,-3.001936749531627,-9.380062459119205,-2.1252166503812555
13.03,1.2763720446807418,-7.900706514795436,-3.4408629446394077
13.04,4.6302104270606375,-4.258178234415407,-1.7867913499586041
13.05,7.142134422022153,2.2937796807803945,-0.8588998652779127
13.06,6.278660296700564,4.838958314192028,-0.6380604607109649
13.07,-2.517325320063239,-8.077491278078357,-1.4971255244366364
13.08,-5.038872089069301,-4.582917462855127,-0.5005634897280339
13.09,-2.8656223404445824,1.0552035379448417,0.5679816779024116
13.1,-3.7240375920851636,10.314299967454607,0.1330190242240008
13.11,-3.1679597583689327,7.262067779888387,-1.8170480937817246
13.12,-4.619912530320464,-3.4388333182860964,-1.719754836537154
13.13,-0.24620648476174253,-1.3451050862224105,-1.5827385844862147
13.14,-0.5215473698951678,-5.008881627072633,-1.7126071195809778
13.15,4.369190097456727,5.534983805604508,1.337933770532613
13.16,7.026559430062857,7.155890800384788,2.0507198864116387
13.17,1.698917002560575,-4.724572318768124,-0.8434168347814428
13.18,-1.8722538597205136,-4.996451290804363,-0.9665728432201024
13.19,0.5092489480681053,-1.2881420724163402,0.45723948504055517
13.2,-2.2511657347011536,9.232058342956348,2.4655581859862736
13.21,-3.119516664729973,0.4615310654717242,1.4586040661267343
13.22,-4.854974866576316,-1.0655925850675432,1.0154898402149493
13.23,-0.8941228579825994,-0.26224308882505376,1.9551559999424173
13.24,0.22733924652722765,0.02544146103504748,0.6860200211455653
13.25,1.793070981001009,2.8826271101348846,-0.5216436891212611
13.26,4.242965394852216,-0.32979898238455974,-0.23056551606541176
13.27,2.099369685252241,-3.6210680528361006,0.07699415206314315
13.28,2.0141851906934254,-1.9188887403303283,0.046722620860520835
13.29,1.0496525360406266,1.196012124099079,0.2604386059305934
13.3,-1.4208983723374606,1.9417403628009808,0.6625403126413457
13.31,-3.742510148274294,-0.6820874235779812,0.13668008466659262
13.32,-2.17858807567147,2.410621041459463,-0.3101677984995917
13.33,-1.6348875193595822,1.6931838667359693,-0.5464955456335719
13.34,-0.8182047608250128,1.271069169265601,-0.6715456897989984
13.35,-1.539051497477485,-1.7246623622852566,-1.5109125771925254
13.36,1.753257404629111,-1.533940602084799,-0.7094962616389546
13.37,4.008352243004065,0.48954202094529653,0.41265940915725347
13.38,3.086221203964075,-1.671582099900426,0.31060748516994247
13.39,1.2425404502934332,1.4081103148510312,0.6878796633631045
13.4,-2.0401752472791572,-2.9846808751216565,-0.44307817365693625
13.41,-2.3539897292285823,0.559531164450787,0.6018663456169313
13.42,-2.137725940554037,0.06182354203727589,1.1757109464037359
13.43,-2.085606162699858,1.5361627875607773,2.22098600607916
13.44,-1.449402518769793,-0.47272585126729033,1.6082154038733587
13.45,0.615818781434188,-3.6336696314447505,1.1678048932051752
13.46,4.562188054648311,1.906284930307056,2.092225938462884
13.47,3.9299357348066053,-0.9225604199702574,0.46286424788869623
13.48,1.2607639853326846,1.1325732493181193,-0.7436806374116377
13.49,-0.5597090857102284,-4.14044841193059,-2.159956653062942
13.5,-1.4280950421661147,-1.6793988952341083,0.24514060126520942
13.51,0.38761148389216027,0.47285379352826407,2.5187242934483187
13.52,-1.8239940173351923,-0.5933885628965451,2.598161149537393
13.53,-2.772246303695243,4.998223604430174,1.9565975856842601
13.54,-3.734387354865346,-2.8120817757443843,-0.39329273353765043
13.55,-0.8216494357465501,-1.2691267577414775,0.5357611019127811
13.56,2.1971894493507533,-0.8640512291359984,0.7794147297244303
13.57,0.48884472614646896,0.2811319807144377,0.12264135405284203
13.58,2.5571173866724255,1.8625255610832232,0.058314073578505085
13.59,0.6419730898216066,-2.559540545675772,-0.07787300883211
13.6,1.1782570038796503,1.5182612315956996,-0.23257764795967217
13.61,0.1358067518529375,-1.3745981999769588,-1.2016744898528424
13.62,-1.462520824932144,1.7748439306476775,-0.5191203716203782
13.63,-2.4186395350369523,2.4447296000873386,-0.15630900228895747
13.64,-4.0808495835027125,-0.2858145507233681,-0.5288932381392356
13.65,-1.6115398332730624,1.857499990155207,-0.13937712681842998
13.66,-0.3971591686110103,-0.6882272746766127,0.21267354769379834
13.67,2.539953610393936,0.53298415615597,0.43520736434583496
13.68,3.394028883386442,0.6814150771864861,0.18362529346409256
13.69,3.3384893661340143,-0.8581092516796277,-0.3640564404132712
13.7,2.2658334641753477,0.20018028999575252,-1.084532843652432
13.71,0.6605202120850849,0.21119635837583636,-1.169787546883144
13.72,-1.0078373481313176,-0.28130392832563117,0.13165624507512508
13.73,-1.9118261982241602,1.0775267313752948,1.371182724239674
13.74,-2.3737492429633003,-0.09888891156163195,1.7153545423040282
13.75,-1.9640233636331819,-0.4243840414676238,1.3062912755330511
13.76,-1.2715807804213948,2.0721334884084257,0.3885982130495507
13.77,-0.5854853592275681,3.2611537652352593,-1.0683127842629123
13.78,0.039473936898939334,-2.323729420632868,-1.4411907694531427
13.79,0.4283008387326092,-3.1375245818388473,0.33173261686122973
13.8,1.2588060532361403,-2.108463696479287,1.485598996251142
13.81,1.2946046983507071,0.7426422654111717,2.1435537955915773
13.82,1.8160985503239775,2.5989492897764332,1.4482304465635745
13.83,-1.0504374724616001,0.6810082476575713,-0.46424124767833697
13.84,-3.667033188148907,-0.8319688547019515,-1.478086568979453
13.85,-3.209401861529931,-3.122628799438823,-0.760779998623899
13.86,-1.1664815442342353,0.37998859597585977,0.43282156963713386
13.87,-0.08700794831415001,0.010415046810454557,0.7032943678457347
13.88,2.3468246509595927,0.7313918414461462,1.240587334056322
13.89,3.0754756297163377,0.7890074898398384,-0.05738165433187995
13.9,0.8818691402089566,-0.24558546848323848,-2.140740946434336
13.91,-0.015046672417820607,1.0662213059391206,-2.296455121185187
13.92,-2.344078153589049,-1.8822717592012672,-1.5193098966704386
13.93,-2.52256740504566,-0.7427952515238657,-0.31799063874585864
13.94,-1.5282449211179157,-1.918378531779404,0.8920474745381671
13.95,1.5128423491629512,-0.059422524521063176,1.3531385032218837
13.96,3.230562058352867,2.9462834268918354,0.8372564846676722
13.97,3.0042322361990426,-0.9649560491920198,-1.4189033153286692
13.98,3.13577151496578,-3.2989977269769963,-2.6028588852500096
13.99,2.6244328318644503,-4.497634753893703,-1.8362144861455203
14.0,2.5379569544053213,1.8178404401728954,-0.31184957434434024
14.01,0.6426336088107607,2.5527532141327387,0.33038181191317745
14.02,-3.96383097615902,-0.21623153723453892,0.024775949592259365
14.03,-4.571654928455551,2.315996039708568,0.48641349009444873
14.04,-4.01635387621006,-1.1263888793825998,0.16137082494714358
14.05,-2.5298099337276327,0.36741173025676765,-1.0098298695976629
14.06,0.22440145576577514,0.39639614804764195,-1.5085417918983985
14.07,3.099022269774318,0.4791779752555009,-0.46989643107978285
14.08,4.329939763788864,1.1388306276475488,0.10624887848032802
14.09,2.1235786333230093,-0.9883375711138275,-0.2660799277654253
14.1,0.506312072539028,-1.5242153129007008,0.7012729281484816
14.11,-1.5639744402407192,-1.610261079741832,1.8474822784792422
14.12,-3.49441645249118,1.7206283735090377,2.357599154385482
14.13,-3.9299362251233974,3.4050055864949615,1.9181924301920212
14.14,-4.083136334098955,1.3967850867193874,1.1779101375827006
14.15,-2.242665042784958,0.1265981291654201,1.1410706099945347
14.16,-0.1759982553113237,-0.40758689145807253,0.9394348229430428
14.17,2.6593217784245073,0.0255690623962175,1.2647282077838902
14.18,4.864719180676362,0.3984898438216667,1.5862121184088305
14.19,4.085892908402713,-0.7138224516022618,0.717109019994825
14.2,2.1413247996363136,-1.1032114668407913,-0.4479215519737824
14.21,0.8816489836336703,-0.522767425773848,-1.4098824444838252
14.22,-1.131010665795931,-0.5074667042614046,-1.5767544951550374
14.23,-3.1496055108426906,1.0979102914332464,-1.108793362660119
14.24,-3.9511950335548613,1.2381417820747038,-0.8238669561718447
14.25,-3.0271734766998333,0.8897353212120742,-0.14630798107026688
14.26,0.11352243726594617,1.3078792309956175,0.821565810300503
14.27,2.3582132986738205,-0.20168192627166134,0.4467519181962984
14.28,3.4461859450363943,0.29686996767772605,-0.7230324632569368
14.29,2.6584692050387093,-0.23902648265260343,-1.891556214725035
14.3,1.5597619130487983,0.30924515854329254,-2.00069444223887
14.31,-0.7129214367602174,-0.24360035907116812,-0.4975393123835555
14.32,-2.2584583117598167,-2.227711349706678,1.763021032779993
14.33,-2.8308079913774544,-0.2597135748486716,3.3331603126347176
14.34,-3.9637388093161747,0.09005447055446213,2.8058804260305057
14.35,-2.0307567498595933,2.4453392191504677,2.0328693964682087
14.36,0.8694911496628871,1.9741960742720495,0.9530044151919581
14.37,1.678429032864765,-0.8518156490498539,0.028897360446583597
14.38,1.3438144017890759,-2.903227182075101,-0.09979319344621429
14.39,1.9052083546955765,-1.915152276619276,0.24173259837475167
14.4,2.9048022843349037,-0.39440053938411845,1.1191082812604423
14.41,2.694849566740798,-1.8214568160942333,1.6060292323179939
14.42,1.1674856469983899,0.7373453137204997,0.7651398423279434
14.43,-1.9386904899462125,-0.4657729709354329,-1.6757926426733332
14.44,-2.4883460307167873,-1.6886304573302162,-1.947532010975217
14.45,-2.280636857381239,-0.7893842495601282,-0.041579816041302044
14.46,-2.0392402277153314,0.6873946838348869,0.6444777006587803
14.47,-0.14665339458875734,1.460003848553855,0.6427833646311014
14.48,1.3960579246445326,-0.4772381750924128,1.0498734780680026
14.49,2.2623275860559002,0.4813290179653754,0.9768771921338416
14.5,1.1441826809854758,-0.6306287377394968,-0.5294722991817237
14.51,0.00812967152980533,-0.03339766331624944,-1.4241359288429154
14.52,-0.07887740410470519,1.4952159480010516,-1.1259088278645635
14.53,-1.011631407196477,0.5364396536330045,-0.14239940392577888
14.54,-1.288406950237751,0.8325961190898242,0.9554917788643427
14.55,-3.210272992930309,-0.02073912722268915,1.241786787122904
14.56,-2.6073095491805303,0.520266696719176,1.211076895040787
14.57,0.8376165457205055,-0.5437449289141434,1.10078647352493
14.58,3.382628739237596,-0.03886706415320201,1.0525810806023983
14.59,2.5827499637588116,1.7400590315879352,-0.3490223782101819
14.6,0.07745892072254534,0.20539553371258018,-2.478424945359036
14.61,-0.8968998960464324,-0.17096499658176997,-1.9105796229752652
14.62,-1.901901749228876,-0.47372716381906627,0.3604913930046122
14.63,-1.9145883616390573,-0.4303798185833785,2.2839056314315735
14.64,-1.6939265272530815,0.7560220647170109,2.2093853687438303
14.65,-1.7861752800496182,2.260472729571849,0.6003110231755128
14.66,0.41451947975706144,1.8574566917139617,-0.20771638650627755
14.67,2.588759821668752,-1.584614350001163,-0.6636358334175442
14.68,3.208431615035213,-2.3274769309778733,-1.6604145537723822
14.69,2.3005808562070915,-0.05811211540950837,-2.3090210975842513
14.7,1.3554178715213205,1.4824021002391061,-1.7475447094099574
14.71,0.07013105577456409,-0.011244424054888543,-0.5715432838159588
14.72,-1.3039377008319826,-1.4628445011942857,-0.27996399678583117
14.73,-3.618679516061869,0.8692806318120766,-0.1296088855373635
14.74,-4.5558581799627635,1.139578668289224,0.09388403290710713
14.75,-3.2281920227556844,2.0135098002993566,0.1356115752269437
14.76,-1.3326395799915534,-0.24180927314985,-0.1515387517933179
14.77,1.057281208416239,-1.3093362735668894,-0.6131271102153257
14.78,2.6397719536243676,-0.7027353610763837,-0.7319333509142647
14.79,4.669780924983307,0.5622247484459504,-0.4201157331388106
14.8,2.9746757989439594,0.3848726395474723,-0.5815504306913654
14.81,0.28554046118247434,-3.837952315803006,-1.518016574425953
14.82,0.3214725019439948,-2.1442145431717905,-0.7130405725067527
14.83,-0.11032997224056493,-0.8241259778456658,0.4641064983841707
14.84,-1.303473505100604,2.3129648927847613,0.10820168762637634
14.85,-3.2285123695985134,0.24554343127824008,-1.525439282625858
14.86,-1.5956416622857186,-2.1205336025296284,-2.089316516114474
14.87,1.8731455715193361,-1.0405466869121227,-0.8530801007714501
14.88,3.322480373967299,-0.6560257634282974,-0.0436365709895217
14.89,2.987798148108406,3.536552625759484,-0.4998786349339782
14.9,1.2621483870603694,-1.1072327435606952,-1.6552665342180137
14.91,-0.9198737998486799,-3.89844923282531,-1.2096324914439731
14.92,1.3172704231802117,-0.1909760074298881,0.14269601058634881
14.93,-0.10859078967355017,1.2151955994811159,0.6523841347189353
14.94,-0.936613829959205,4.090178111586958,0.397397993541351
14.95,-3.157981180919928,-1.2271645054946378,-0.9464928650394383
14.96,-2.38500160969719,1.1667365744554172,-0.5571204481103478
14.97,0.5183899234946469,1.4769273771337468,0.34515237423001227
14.98,0.4720426489496317,-0.33894055503916704,0.6458412440097439
14.99,-0.2685248496297833,3.19124438052493,0.8921961984843286
15.0,-2.900439575562715,-0.6384466977238322,-0.4451527546476962
15.01,-2.1527237526610925,-0.923933841302712,-0.10757015753377376
15.02,0.02772332987582168,-1.2174429433632337,0.6829084969793475
15.03,-0.18325135211828494,1.78242460939891,0.9308058982972629
15.04,-0.2917052835176365,2.8113804392069506,0.3013241161518536
15.05,-1.3985469753342996,-0.18678202603041894,-1.477282043671374
15.06,-0.930690536564067,-1.4929240921443672,-1.6071073451679967
15.07,1.1869896231709975,-1.8118817279509583,-1.191228253892393
15.08,2.315518751209447,-0.7698082046627166,-1.0762087154918458
15.09,2.4151172333999766,1.3122424285466772,-0.6228492669513819
15.1,1.092703540352272,1.6491592386246274,-1.2155974067957462
15.11,-0.12583225386902383,-1.0910983381960384,-1.476769362483415
15.12,0.8696030924679902,0.1945779836940997,-0.7232252786757455
15.13,-1.899450753516004,1.7699732786952003,-0.26356733301913726
15.14,-3.685375591416227,1.0191877023895846,-0.5603138743574713
15.15,-4.037812920388765,1.150884298852432,0.18712808393664937
15.16,-2.7373525842019073,2.300690338482885,1.0766298097690352
15.17,-1.218213101440544,-0.561324469310451,1.0155917909589283
15.18,1.7528669584338292,-1.9949707232181324,1.2005821067011484
15.19,4.791147324374583,-1.205867298849681,1.2715293778078822
15.2,7.073155923162642,2.090123710646378,1.4275199175962212
15.21,5.006626199981727,-2.3467988330695118,0.6694423597222295
15.22,0.20462290825158821,-1.4714462299204367,-0.03128076944502628
15.23,-1.8676028326661473,-1.4566488949217404,-0.29084360048158975
15.24,-2.658527878921427,-2.2104154221072077,1.0088577571514115
15.25,-2.3873497478471246,-2.1627105279979224,0.870887477927814
15.26,-1.6979549375283636,0.4259101280490643,0.21315900143074937
15.27,0.18740607413809085,3.1988220309087207,-0.20061678522204313
15.28,0.7877673042429183,-0.5737506882809442,-1.4594670366938785
15.29,1.2682556228919357,1.83517279870321,-1.0563277839409437
15.3,0.8617141119640914,-5.158902510629978,-0.9738263341393958
15.31,0.16234988186327462,-4.3411474146363025,0.6055598642346659
15.32,2.208659920653225,2.0489610249634778,1.960080446759832
15.33,0.43846672250917695,2.5117532437775636,1.6270151319831578
15.34,-0.296776411146899,3.0828698917693447,0.6902661676480616
15.35,-4.55617262382934,-6.515908015138785,-1.9472969605729658
15.36,-1.9161745019909453,-1.103028036863202,-0.6464538313701281
15.37,1.8785469872117952,2.508562317855119,0.6727214797124113
15.38,-0.8778046021018463,1.4366635514010928,-0.12786704388475614
15.39,1.1050715170555572,4.5223540692096185,-0.7489127495789186
15.4,-1.3147413148116827,-1.8171808576841528,-0.8645410481767347
15.41,-0.07169279661844498,0.40688886811273495,0.06337160517775069
15.42,-0.8778203903701708,0.668306155009329,0.3892728768069587
15.43,-3.0348087435881372,2.584448411392074,-0.079293720481427
15.44,-2.055191364244839,2.9436229808077803,-0.8975001121245089
15.45,-1.2816344805904971,-0.7617896161482126,-0.8572027346375858
15.46,1.3209073489543368,0.8511660469881928,-0.2366903060662564
15.47,0.1802892946657834,-1.9883458596459351,-0.521012214307362
15.48,-0.9540460085121097,0.07306534388362104,-0.0903737668801271
15.49,0.7867268023854539,-0.05166116587475988,0.17456252879482045
15.5,0.3882076969179744,-0.4079848524186802,0.06971149045869048
15.51,1.6690209403058922,0.948139823610589,-0.3049998340289044
15.52,1.0546719847828825,-0.6484909369618883,-0.5874165743313896
15.53,-0.9460909187653371,1.4015399278691916,-0.6634613067852209
15.54,-2.662703633617779,-1.4210400822591258,-0.34986474699206116
15.55,-1.4198273252454636,-0.022422875617284423,1.0492745658238267
15.56,-0.36987017284305124,2.5350744598318324,1.6987858708195014
15.57,0.5239964770492609,-0.2634965338042229,1.3221130360034932
15.58,1.7641068919489333,-1.2267043627108762,1.3313113861337917
15.59,2.254946234716773,-1.5217589257152906,0.8510829948511529
15.6,0.41518887435195323,2.327933567531431,-0.37466119330406533
15.61,-0.5443512605524069,-0.9080299654921042,-1.6225176812334379
15.62,-0.45133916362157334,-1.0030817789668096,-0.46155457932319227
15.63,-0.6866033851657837,-1.8235741798942664,0.6457814797675058
15.64,-0.6459221112794541,-1.2072991922606604,1.0240634458051159
15.65,-0.5916829534958261,2.337615737424746,0.5128014748718105
15.66,-0.9427142962243323,1.539118564723699,-0.9394126289428106
15.67,0.08321173310923975,-0.32692930402951337,-2.0265265953667355
15.68,0.4195291610445553,-3.889116073438718,-1.8047195484775118
15.69,2.4714453790837907,-1.9409179594351478,-0.3503419253570819
15.7,2.928906250607025,0.16669187326574644,0.8040010050259853
15.71,1.3427508038321694,1.0347596600251614,0.07184236343543164
15.72,1.9468739673101059,2.6403341369048885,-0.9621318103510409
15.73,0.6371502830052692,-3.1831679716272316,-1.9583990350423484
15.74,0.6206333104867984,-0.7349520596727731,-1.4115779642429191
15.75,-1.702093178952299,-2.683906197919911,-1.2052664593087412
15.76,-2.0248720597671035,0.7716717063065119,-0.1989477119300621
15.77,-0.32586736488722434,0.6252937521454338,0.8940117691289413
15.78,0.49132797072652135,-1.826988754457237,0.32502644584699
15.79,1.8882466625729684,1.2889453254104493,-0.34602097296821305
15.8,0.7562295648984578,-1.7863780386440977,-1.422301864299268
15.81,0.5575352469141345,0.3212816133412304,-1.028035028697375
15.82,-0.48065849055893933,0.12059581322348693,-0.6596471121709925
15.83,-1.8339217364348825,1.992461850356293,0.36587750980325656
15.84,-2.0617910247778006,2.4756629115498763,2.0742828911663844
15.85,-2.4152299705747193,-0.661594300288388,2.2123883811995553
15.86,-1.108679308865606,1.1496663937505693,1.3321218321165293
15.87,-1.138792422485386,-0.3410975364552205,-0.5591798669976108
15.88,0.3274236337013494,2.221240628527491,-0.7546371697289636
15.89,0.6858598925315804,2.4481944651989687,-1.2792893591442762
15.9,-0.531146337749546,0.3365896392556114,-1.607841380088668
15.91,0.0020583609565249456,-0.3043816495226181,0.6128076069711307
15.92,0.06706548846753749,-1.8387256675168613,2.2582206296749776
15.93,-0.39082553715031143,0.7107299180512721,2.3746494511009013
15.94,0.5254767796231795,2.382079977018096,1.092290664526793
15.95,0.12225557120421829,1.6596338708515281,-1.1410172261100502
15.96,-0.581928494388506,1.3118912291533005,-2.456790082066636
15.97,-0.3319078662188767,-3.85015109057697,-2.3300416578031746
15.98,1.2966952924320942,-3.443398242551171,0.25767460691792976
15.99,3.9693978031023396,1.7729265790822049,1.9253811731505894
16.0,2.2014622078407204,4.85086281508008,1.68418426259127
16.01,-0.06223824361780497,1.1615597607866557,-0.15590055812458328
16.02,-4.00413813373049,-2.4176943550562195,-1.2700809546958567
16.03,-3.0786762769783453,-1.3532579778060856,-0.1227685784536074
16.04,-0.7211372063276029,-0.8122128375707649,0.3195371029628817
16.05,-1.9220439678865198,1.134979497879261,0.20229817547986867
16.06,0.6584076580394895,2.8301311916726535,0.563201435908761
16.07,0.9544950239494152,-0.8742800936079134,0.18934326468474236
16.08,1.9397631910470796,-3.3309690054090106,-0.3976339826053574
16.09,3.507177087536488,-2.4578160954355748,0.19651521363354688
16.1,2.1420499516707476,0.05703374212079341,0.8052396365949335
16.11,-1.9888393024961173,1.351325992477583,0.16336336908880608
16.12,-0.04219922036817494,1.0317948257061846,-0.5191588192170247
16.13,-1.7017246668296926,-1.3022695211946902,0.43949781432422447
16.14,-0.39441709325083785,-1.3882678710698297,1.3194851266136627
16.15,-1.3656873470258941,-0.7922457283641883,1.3563489626295544
16.16,-0.4311544926319417,1.7391864637732317,1.129352414035574
16.17,1.1581112969697547,0.5900143994452999,0.9351838632290985
16.18,1.4349032203379157,-2.3824913914089,0.8994241760930204
16.19,3.292230227493677,-0.6252712207076183,0.5552040565840215
16.2,1.9800937584800673,-2.711588097692867,-0.23889169548694714
16.21,0.2449231151417835,-0.9129144435972991,0.23001074780113256
16.22,-0.5195241419415765,0.926277691883641,-0.02678194603710871
16.23,-3.3369523737671867,1.7016149804584437,-0.7763150491888201
16.24,-4.906799006457609,1.4792347478134755,-0.3288213958959132
16.25,-3.002557334196601,-0.596635068526926,1.4204425463928327
16.26,0.3865119614004993,0.04466665172300609,1.6059429717087546
16.27,1.3548373528700544,-1.7100807466379158,0.33885512147061747
16.28,3.2347677795332173,1.6104648222181623,0.7973601310694628
16.29,3.5234028623821874,4.750190744668151,-0.6890029836181554
16.3,-1.3435845120935017,0.6649097495015011,-3.0940053129044025
16.31,-2.784739373428167,-2.413987029871084,-1.7254329791721073
16.32,-2.328503007065767,-2.4746516422308016,1.129796078470725
16.33,-3.880354087158147,2.9218524666879575,2.1919645649006037
16.34,-4.139586286263758,5.364512296664596,1.5873881415488085
16.35,-3.294077837584067,2.2613206719458487,0.6859657933779605
16.36,-1.5822634964114783,0.40420855508009995,0.2875688784526064
16.37,1.6423335770725784,-3.017432838262317,-0.9967077178859484
16.38,4.06316246225978,-2.5663072081566414,-1.9158689490149197
16.39,6.07970012184413,1.0175950563644895,-0.9897894312266292
16.4,5.789697541936761,2.257154252049276,0.2056236190726199
16.41,1.831335994096359,0.014963755215847908,0.06534414719138215
16.42,-3.0173484731334037,-1.3847530338910985,0.041601201745455604
16.43,-4.322905119270566,-0.7097316461160127,1.4029897606089887
16.44,-4.50031402522305,-0.6141697707153221,1.5204946399036279
16.45,-4.038307175814374,0.7176639025935707,0.13406699356077237
16.46,-0.06928865583418375,2.8015274489010795,-0.18874668732563746
16.47,2.777785252327497,0.11877090948979217,-0.1438106705765767
16.48,4.0142682901109845,-1.2486060540545443,0.017496231222405793
16.49,5.2859192914604405,-0.4053130897470336,0.3032980187354667
16.5,2.703466374063994,-2.6820492856930813,0.4833206050986235
16.51,-0.24039857819091984,-2.332103229086575,0.3711861328502509
16.52,-0.130946270886136,0.43958846412268493,0.18668123340218837
16.53,-1.1371080749623284,0.7800368164719583,-0.067181953368567
16.54,-2.4903809309385965,-1.0789170232916938,-0.8328238389517741
16.55,-3.009096459760865,-1.7267992576524014,-0.6877856097226249
16.56,-1.2044237659556902,1.4215899345958956,0.32765278065056536
16.57,0.15748628571124912,1.4575060615828097,0.29181969292998383
16.58,1.3908665605254031,0.8975009517997893,-0.2666750468314876
16.59,1.9030746381516066,-0.42538173561397424,-1.0574916521639743
16.6,0.6941285645108574,-2.3314698694948244,-1.56057300567509
16.61,0.5160855077653081,-0.30568555945322706,-1.2489409033988135
16.62,-1.5044937490462806,0.37019213887224756,-1.479686082369718
16.63,-3.008300765698805,1.211659893781883,-1.6473805917529214
16.64,-3.4436803496150765,-1.2179798512466815,-1.2745042867670309
16.65,-1.0418064667853448,-1.766642791436547,-0.044295150779532014
16.66,2.3691205974914813,0.4422244738573362,0.8593570548093877
16.67,2.7344963450727775,-0.22423558480667694,-0.1959275325383264
16.68,3.40135068815609,1.0596706115152927,-1.5251003520091486
16.69,2.5014361043836293,0.7989227259085357,-2.5369450939039377
16.7,0.4584892377910525,-0.20832245265349555,-2.489483778638083
16.71,-1.0146048159811867,-1.1464222963566113,-0.7247080242706513
16.72,-1.6957254831538189,-1.498834909068378,1.3902263853728651
16.73,-2.0903027119823814,1.5888317577326705,2.573622959384295
16.74,-2.604240074867204,2.828180081421335,1.5331204974436032
16.75,-1.6346137874214202,3.29696615543067,-0.28433477461139406
16.76,-0.8586510449847683,1.2137373068509214,-1.1096351640991042
16.77,0.5031981574736922,-2.227544339786961,-0.5243921029132833
16.78,2.311676830414867,-2.4375427494099355,1.0271026528676817
16.79,3.0932062212498903,0.3390262780957329,2.357232749294066
16.8,2.9520657728239468,2.3528618263747316,2.5743406059695433
16.81,0.856795809577177,0.5039159920688356,1.3450555087272829
16.82,-2.2336579455567187,-1.5751452749405945,0.0769599767902534
16.83,-2.6546475404162764,-1.8578776995824684,-0.08390604127007253
16.84,-2.683206610274598,-0.9870363487813831,0.09493339912574361
16.85,-1.9984055474951525,2.1403055470989836,0.5993154488022401
16.86,0.10265079669110085,3.970303690861524,1.080859120362085
16.87,0.6716636706348508,0.5736825659224912,0.48662883473157154
16.88,0.4628876853728976,-1.463856441451162,-0.1430692843193521
16.89,1.4274574040159442,-0.7584496909414862,0.09998222368940587
16.9,1.1095627514006898,-0.552174231260457,0.5326783530932746
16.91,-0.07757509999960181,1.300905486569266,0.653992013521708
16.92,-0.6841877049349546,2.3994449966224787,-0.06505877996650494
16.93,-1.9462465443920418,0.8612554169365991,-0.8050218364421401
16.94,-1.5720994896679812,-2.457941720810373,-0.5231393433277924
16.95,-0.6084767846631765,-2.0224049324347515,0.016874813891670105
16.96,-0.09153015115425425,1.7397462424217833,0.17417953639888767
16.97,1.3947058994943817,2.3378267247808098,0.10023337284374782
16.98,2.3905759366146655,1.4034737539480033,0.24138132254237185
16.99,0.8512564223211672,-1.8979512140234027,0.03301517122679709
17.0,0.036340396302937984,-2.5299062910196404,0.05168823993928451
17.01,-0.17370432948844786,-0.3041938905848994,0.8414202465059195
17.02,-0.35175396534670983,0.1184261324543841,1.4897241125593943
17.03,0.011548095360476096,2.090110225524868,1.5077707287315698
17.04,-1.201969851488524,-1.8528668650892473,0.0991224982784271
17.05,-0.698313520713279,-0.22015363481939879,-0.014968532865775314
17.06,0.5944533154047184,-1.2739229021063023,1.0311895691484667
17.07,1.8529059131989256,-4.141433972069889,1.8557769862112108
17.08,3.3268005033065067,0.0061405837409389775,2.3522318593691707
17.09,1.3428693747015776,-1.9429267660330325,0.45597279924222167
17.1,1.0222359271188681,2.130199128612707,-0.4779904218828038
17.11,-1.4226339615353192,-1.1407164746226686,-0.3669845679499054
17.12,-2.750619318246934,-3.8695608379222812,0.6576910304693433
17.13,-2.1826167426210907,-0.8029850790000482,1.218522805108082
17.14,-4.389490022356786,-0.4506437765583044,0.8365408087597749
17.15,-0.5094697822238639,4.636108219086544,0.961580956927936
17.16,0.9561419210824547,1.3359352210143005,0.45481639244731503
17.17,1.5062107407839072,-1.8602535354216163,-0.19292244078115683
17.18,1.9177160774461937,-0.6652529662409009,-0.506426158667077
17.19,0.5252374868280045,-0.14299776455931812,-0.5355550947583024
17.2,1.1856004651126821,2.6251923039725216,0.659930404689642
17.21,-0.16499982134781946,0.3377254426832052,1.2641702854392625
17.22,-2.1214095603306165,1.4295602620164019,0.6734709758214041
17.23,-3.579143670322713,2.1275873032552743,0.2981159386946411
17.24,-3.635841703145837,0.04309821003123211,0.3043637375755763
17.25,-2.411335974369576,0.9565676966967896,0.13167770124831232
17.26,-0.5860669296650555,0.8178293096826903,0.09742187218914215
17.27,1.9611673242410221,0.4174105960967076,0.2320874886792662
17.28,3.4253091987544133,1.0702557870821048,-0.19900818881829097
17.29,3.235353698201724,-0.514290570023613,-0.7667968440610303
17.3,1.649933238462784,-0.836565323586349,-0.8211868058569931
17.31,-0.7103612167060296,-1.2930062242657696,-1.6664996002242682
17.32,-1.2056963167830153,1.5885658497567727,-1.2185442734729073
17.33,-1.0661778824827843,-0.031696095881165766,-0.04904426542665171
17.34,-1.497978047601835,-2.1581997384394125,1.1712548485165173
17.35,-0.8588958538070005,-0.4928989084251317,1.8954588794624245
17.36,-0.7890868457332194,1.526998493621108,1.4511127021946346
17.37,0.05905144480665847,2.7787943050033728,0.7461308825979848
17.38,0.7771941778336084,0.55381910122279,0.2568477298855257
17.39,-0.09093030498235806,-3.3725535027748146,-0.12693085480915145
17.4,0.4129360856465039,-3.4296771777799737,-0.3545718106652434
17.41,0.8860860309537192,-0.47291417050705026,0.9432963288571182
17.42,1.5928669356620258,2.7605040896557473,1.0821178472902548
17.43,0.567885667128838,1.4213511725714576,-1.458600123791991
17.44,-1.4290207688657317,-4.252304506091692,-2.699008654299269
17.45,0.01276295517055876,-3.007320564556541,-1.3784851357014387
17.46,0.9210979234809101,0.5735744897680431,0.5885123807715189
17.47,1.8880177757837866,1.3886681480800802,0.055649454475044234
17.48,1.2613344585992692,0.9311239708242766,-1.0732515419742774
17.49,1.0111591289780493,-0.6616515157721797,-1.9613708452955665
17.5,0.730091015272921,1.1870823080896205,-2.157143505833701
17.51,0.04380671381369589,-1.814051738549791,-1.383033768077316
17.52,-0.8733619052912542,-2.7839039262532412,0.06778901298143217
17.53,-0.42692914630621903,-0.35651008908398213,1.929433923294345
17.54,-1.0661654880693348,0.8595439775299434,1.506338362421037
17.55,0.2500468273119893,3.7298987062967273,-0.431757968202539
17.56,-0.7104720519325115,-0.5449353075713205,-1.8916502054719717
17.57,-0.8636445311984842,-1.8012623948732265,-1.548048307135236
17.58,0.7612984134746371,-2.302860773666431,-0.41584124040248777
17.59,1.121669092065072,-1.7898991575806946,-0.3236474345398967
17.6,3.4366546249788077,5.99210834940775,1.3002514215588228
17.61,2.2223659061165293,1.2360432424758432,-0.037552652221994574
17.62,-1.42924089279044,0.188934466593751,-1.8108160100993325
17.63,-2.81391511882794,-1.130612487265772,-1.0519880788052236
17.64,-4.165745707080703,-0.5460417651729416,0.5165822798432657
17.65,-3.6019295682290493,3.214176540247683,1.3647119849265463
17.66,-2.3496280683737085,3.0043966091768604,1.559066657831557
17.67,0.842745764489321,0.3128358212001494,1.3835782144010789
17.68,2.8486101664104684,-1.1918890188219466,0.7619070445341841
17.69,2.6157437146705624,0.42945053192125904,0.35535969521561295
17.7,2.3506319776162417,0.051819269843937206,-0.23348024443066545
17.71,-0.11001121389000221,-0.44848289084929677,-0.30241742026502766
17.72,-1.8312577013331477,0.570258480141771,0.9921355358221725
17.73,-2.6453667773695857,-1.234677287749742,1.8428683406647368
17.74,-0.9544079127566495,-1.0500999451730486,1.7127230694149358
17.75,-1.5798691807465377,1.2455528553217847,-0.14864325325805955
17.76,-1.1597491480081028,2.3823196038994485,-1.8255676418160132
17.77,1.4825773232652573,1.9093602931004705,-2.32466850011562
17.78,1.5627391965240778,-0.6794131332205782,-2.6323035174043703
17.79,1.30725083730386,-2.408399430807812,-1.5204077877220723
17.8,1.0697577167122012,-1.3781003754348504,0.08168747947155654
17.81,1.3770969262375705,0.6373865501955411,1.0361570200669095
17.82,0.11999684493180529,1.2009476933511125,0.05465630216004514
17.83,-1.7494339434415165,1.6321184460849836,-1.825064455650107
17.84,-2.723994144150255,-0.0982242120483949,-2.8972657867080818
17.85,-3.342400448400511,-2.225582086013318,-1.4420122337110854
17.86,0.8115999379156575,0.2217220764617954,1.4644146075794933
17.87,1.6381284644028424,-1.3967997983066476,1.809501833302625
17.88,3.3665110534772276,2.3722602248626927,2.1557792429451044
17.89,3.4989749465631976,0.3155163061711316,0.8611248716728647
17.9,1.4714337243405355,0.8948516851629129,-1.67167278395739
17.91,-0.18951826554246307,-2.630447780796932,-2.3836868677298204
17.92,-1.3548171281918309,-4.623031457242682,-0.5031433583885169
17.93,-1.0302289287871633,0.9449268914129094,1.767076999871855
17.94,-4.08190636496064,0.2517914828897116,1.8279500476334896
17.95,-3.2447139737537523,4.9000643748040975,1.482336673966911
17.96,-3.7768828697785275,-1.2808283138507734,0.7201809888807406
17.97,2.476704527760141,-3.975336500954633,0.3979788752271296
17.98,5.977378010336315,-4.166191137646092,-0.32490761919711547
17.99,8.443941812278451,0.7146770950266715,0.518959020500888
18.0,5.905498766240659,7.700552303298973,0.6276484166112312
18.01,-2.776183549740296,-4.031464021706407,-2.5847161566046384
18.02,-8.24560212186499,-4.569303044017152,0.566815862375896
18.03,-0.28474719048147906,-2.8163050963924614,3.3848371052240633
18.04,-3.8897288421924996,1.2906167142331644,0.7833413775907833
18.05,-4.3904321710503655,4.985653022625944,-0.17950468976733172
18.06,0.34475611773419496,4.786964640966258,0.9174283782791269
18.07,-2.3147004571122243,2.0149448011805635,0.2420423637195129
18.08,-0.3590395800376405,-3.079875850219408,-0.7687551821543124
18.09,3.63757397885314,-1.3842595332197074,-0.2169424251112569
18.1,2.9961643050462046,-0.8158581352983454,-0.7539203373955403
18.11,3.0520564242413215,0.9816829457231336,-0.20816522324769016
18.12,2.920576240243992,3.4790813355363133,-0.2959191496803585
18.13,-1.5459497659259156,0.681875875019165,-2.3101005776457666
18.14,-6.182947261299452,-1.9057501923381908,-2.2058673536704876
18.15,-4.484423197707824,-1.838016930197308,-0.45165596572087896
18.16,-3.537215718958316,-0.5076721301252349,-0.3742821823300155
18.17,1.0023787336361871,1.4162837713579788,0.33017337323042706
18.18,5.479534936458956,3.392373784884063,1.171653157158566
18.19,5.126391038443616,3.7632052065722075,-0.8343515529414618
18.2,0.2142433652489429,1.1339906281716792,-3.2881772737106614
18.21,-2.884870844783987,-4.8930468608553905,-3.4730511070557046
18.22,-1.7796785062333196,-4.963456844915604,-0.49042374310513365
18.23,-2.193847424352969,1.363528441000365,2.061908852205815
18.24,-0.8684221875216391,3.70472311865529,1.3104377228885797
18.25,-0.8414819253511208,2.539428261844359,-0.01244848080114352
18.26,0.34312060454481097,-1.3280023501359035,-1.0397500273354574
18.27,1.2058277797079924,-2.859941420915983,-1.5888149478764397
18.28,2.5224365505952013,-0.315418993911161,-1.5316653083501492
18.29,0.9351129508861946,2.571403512494257,-1.2656444841299888
18.3,0.23260078617185254,1.6333737965513417,-1.6706140990751728
18.31,-1.900585520034461,-2.2146726632712204,-1.0880712867881437
18.32,-0.8496333212703008,-3.4711260235116432,0.4440947769628336
18.33,0.33308105466287363,-0.5038346849826363,0.9276639286280218
18.34,-2.349443327525634,2.081375979908102,-0.40640218582869075
18.35,-1.3077631857542251,1.5503239041095844,-1.4738826051121108
18.36,-0.23777884983745803,-1.6713516545642693,-0.9089190026543387
18.37,0.8728083210026694,-2.4057085716660276,-0.48198600581567863
18.38,2.655489247509478,-0.9300553379681303,0.013579437636769448
18.39,3.0813401146760784,0.14198113644881313,0.10019050460641388
18.4,3.4461185684777806,0.9292443242789066,-0.05370948560788681
18.41,1.962496087653888,-3.6425868199857336,-0.9292378795141117
18.42,0.54254430574268,-1.3157640662321584,-1.552274583039706
18.43,-2.652368600805778,0.5506661999173345,-1.2464348986219627
18.44,-3.764070437071515,-0.8414149499711479,0.4989289151347862
18.45,-2.4570182438700625,-1.2409321290101198,1.5188066782697585
18.46,-1.912221276360756,-1.377657739926115,1.0565638768688363
18.47,1.9712505123635584,2.6177494356284323,0.9890511889146211
18.48,3.2310311022451472,1.9675082121814034,-0.6022072462088931
18.49,1.8328505360688307,0.6302604595196221,-3.1413122414354757
18.5,0.4721814894843034,-1.0389720922157406,-3.944846488465518
18.51,-1.5144420080946022,-1.8369278928488335,-2.2639484796037106
18.52,-1.826665400878113,1.4045547394965716,0.6134210075583553
18.53,-1.6529928147299175,0.3098927283776625,2.1988558299847023
18.54,-1.5762395866465575,1.0440813130155657,2.1094304547614593
18.55,-2.0175474471738526,1.1956238483665322,0.5458532665751353
18.56,-1.7877055467525715,2.0543766762499587,-0.9194415444779369
18.57,0.15602467093627076,2.319486633811777,-1.5572321730504761
18.58,0.45489996595992144,-1.5322153550662665,-1.6511591629749371
18.59,0.9257600459724643,-1.5840088414030553,0.321521180186209
18.6,1.8585680265570783,-0.7296676946179005,2.138222233746394
18.61,2.2071499545960696,0.30080511861340836,2.0040582979745944
18.62,1.562087456437563,1.8597943302301494,1.507237669904544
18.63,-0.5005960305134953,0.5572924986692893,0.27112510299002845
18.64,-2.9783892668577203,-1.2677804303532156,-0.9634602165899229
18.65,-2.555384428983962,-0.5042521484206218,-0.2815586480133116
18.66,-0.8589004268854916,0.9334486138231817,1.0541856784824821
18.67,0.9083932304428777,0.7550794185174272,1.3168035901344497
18.68,3.0329979068872617,0.18668883718097104,0.8967495282460755
18.69,3.0991304076559434,1.1935755214812978,-0.5795857640190129
18.7,1.1864873584201494,2.295621447614002,-2.833510796247962
18.71,-1.7260753838246898,-0.5573970987142811,-3.8955973672852386
18.72,-3.098181050901915,-3.147867461250942,-2.3901189349249248
18.73,-3.4782777023996796,-1.9489642552306017,0.1268082626956957
18.74,-3.6799672043478444,2.533722385368255,1.2794731084871265
18.75,-2.1883135816787975,3.6470916383863625,0.6811797456126895
18.76,0.705456008254612,0.29139773078056114,-0.10685438415028278
18.77,3.5964010674386477,-2.329064708257678,-0.4266010638744996
18.78,5.697765929048059,-1.656041081302191,-1.167558319256639
18.79,5.076997292519044,2.0188660623274375,-1.3871506832860527
18.8,2.3394737524077294,-0.9990963780343535,-1.174470736325346
18.81,-0.8217568865578075,-3.2371605067519944,0.0937919986147663
18.82,-1.6392276641891723,-2.0313967251290252,1.885027612288684
18.83,-1.1191094005064044,-0.24589836308051716,2.0816478586622233
18.84,-3.127965911859596,3.1995064147433747,0.40789513965876434
18.85,-4.012772055345353,1.6111904227756972,-1.7130859416471262
18.86,-2.4397944117191748,0.9901660603730918,-1.4044964676152258
18.87,-0.4426636963577247,-1.6911358058074348,-0.15457484388432932
18.88,2.500570410434215,-2.460810385006584,0.8912890556255361
18.89,4.9019665175285185,-0.16505805245719077,1.2445379615174261
