seconds_elapsed,z,y,x
0.0,-8.30974087843895,-5.126370369797945,-0.9159238815680144
0.01,-8.301661491776537,-5.139453728586877,-0.9158696148453143
0.02,-8.306199297136724,-5.129723612327182,-0.9291707418404068
0.03,-8.326720450702119,-5.093751340476256,-0.94326592314622
0.04,-8.361167248213956,-5.035817388181134,-0.9496214681649244
0.05,-8.381168701007288,-5.003293195755934,-0.9452266718927418
0.06,-8.373874924442124,-5.01531104160094,-0.9461328945420571
0.07,-8.345492063140677,-5.055653030537283,-0.9814977074119798
0.08,-8.311721935437424,-5.101098900905109,-1.0317149776122922
0.09,-8.306845687661605,-5.105513004268973,-1.0489806386142566
0.1,-8.329646267146051,-5.07028816823725,-1.0389541243325824
0.11,-8.357462168247602,-5.024232207949867,-1.0392855116657798
0.12,-8.353748607175591,-5.0169837738799155,-1.1021558718829514
0.13,-8.319768202942809,-5.058000277317968,-1.1697502078992037
0.14,-8.292789339382557,-5.098372685874149,-1.185982546751705
0.15,-8.291010714333686,-5.1084680377109555,-1.1544721115704453
0.16,-8.322731295452684,-5.065452093412812,-1.1149862921167855
0.17,-8.367553672479074,-4.9911070058703375,-1.1148277532376907
0.18,-8.388855940377347,-4.942636420002232,-1.1693987482510204
0.19,-8.376784069588707,-4.947276015019015,-1.234432413404022
0.2,-8.338012882463627,-5.0001155657813845,-1.2829930265836502
0.21,-8.29105201152373,-5.0716710498288045,-1.3063984733067273
0.22,-8.265291481568028,-5.117333213728239,-1.2915764849859803
0.23,-8.276595893314772,-5.106533591605148,-1.2613267862478252
0.24,-8.323088953009247,-5.041334882945747,-1.2166058827644297
0.25,-8.38322442837946,-4.953225122953976,-1.1646564560055592
0.26,-8.430551029750937,-4.882214642432071,-1.12251865455827
0.27,-8.442394339278257,-4.859814237875968,-1.1305559672725605
0.28,-8.41225051357408,-4.900450197496688,-1.178279556341617
0.29,-8.352243235618893,-4.989060614552871,-1.2322761575542183
0.3,-8.30214118920086,-5.07162199276661,-1.2339603932417005
0.31,-8.280477662686158,-5.120641515611183,-1.1757516451746055
0.32,-8.295247145279683,-5.11256791460802,-1.1046629895733302
0.33,-8.328553522806407,-5.064929521754833,-1.0731021243027765
0.34,-8.354907493144266,-5.015553181890802,-1.099898214840105
0.35,-8.368727808319113,-4.986837346489615,-1.1252265373098789
0.36,-8.368233104060701,-4.996615878635561,-1.083924779719318
0.37,-8.37416244220865,-5.009177758389871,-0.9754994332673593
0.38,-8.368042797976628,-5.026046911646393,-0.940739229725312
0.39,-8.356696107792859,-5.040356488070761,-0.9645636223308989
0.4,-8.34701185157896,-5.047722092332632,-1.0090662924628921
0.41,-8.340151944780795,-5.06139651001334,-0.9969029811887401
0.42,-8.353632402592869,-5.052451351235967,-0.9266864214239852
0.43,-8.373915472716426,-5.030906623239867,-0.8589129783089477
0.44,-8.386229023773435,-5.006384857366339,-0.8806270006251401
0.45,-8.372041247873172,-5.010118559718734,-0.9881001560897084
0.46,-8.330426110803867,-5.06907005814859,-1.0381646537582851
0.47,-8.30036984167887,-5.128563932137134,-0.9847199343797903
0.48,-8.298386728767428,-5.1525562442757,-0.8692476916340789
0.49,-8.331700748431434,-5.113285502260265,-0.7783019492789847
0.5,-8.379959539421694,-5.029451133682462,-0.8056902785894028
0.51,-8.420608680700882,-4.951801816847284,-0.8615315617452031
0.52,-8.449086485961674,-4.899852097961847,-0.8801800028613125
0.53,-8.447056426530445,-4.907593230960366,-0.8556555946510288
0.54,-8.421291584449149,-4.959622357064626,-0.8081853518917361
0.55,-8.384175138912422,-5.023880151401366,-0.7970861727348577
0.56,-8.348381468732565,-5.0754304525861365,-0.8449865138277707
0.57,-8.322962401918355,-5.108630930169383,-0.8944843570280252
0.58,-8.30785641815431,-5.130052684670042,-0.9123232832148181
0.59,-8.319135645395443,-5.11803635654016,-0.8756749434234294
0.6,-8.352648222290059,-5.073060894724933,-0.8161100666630289
0.61,-8.39757582303331,-5.002824656974066,-0.788292295362668
0.62,-8.432465370032165,-4.942514166136988,-0.7970397808916664
0.63,-8.435958882107737,-4.93499917016638,-0.8064394829598853
0.64,-8.407004097823602,-4.984362643226431,-0.8044864550193278
0.65,-8.36461819273902,-5.057471537341114,-0.7900851909009179
0.66,-8.32799998507816,-5.116540309067653,-0.7969112823602751
0.67,-8.306253552610722,-5.144448344223472,-0.8427783354311592
0.68,-8.303786325880193,-5.139089642510342,-0.8982501746370551
0.69,-8.32500669544698,-5.103553027397899,-0.9037619575625593
0.7,-8.364436441094732,-5.050145500555426,-0.836588898494306
0.71,-8.400755556027471,-5.0022817017655505,-0.7574923089523643
0.72,-8.417368231370162,-4.976480259835141,-0.7430185348614647
0.73,-8.399658365620983,-4.9951319239071275,-0.8137470593203071
0.74,-8.362025241768533,-5.046000075227206,-0.8852342192759455
0.75,-8.333170634941801,-5.089679736142377,-0.9074856898670335
0.76,-8.321934609405423,-5.110689190449083,-0.8924772058335679
0.77,-8.323574457742314,-5.110365948129059,-0.8789911850981821
0.78,-8.327646799778718,-5.103023788693912,-0.8830747661743229
0.79,-8.339034454934033,-5.087292759210235,-0.8657056896075914
0.8,-8.368555786062515,-5.046906700030381,-0.8152942992814627
0.81,-8.401084276458882,-4.999408262871891,-0.7729599410379845
0.82,-8.415233360787015,-4.9719211780685875,-0.7954005719273288
0.83,-8.391919949319227,-4.996855028624557,-0.8797595731924706
0.84,-8.341279786275019,-5.069011495222127,-0.946760722106192
0.85,-8.298546991818489,-5.138852974603964,-0.9460399317734445
0.86,-8.278680167364504,-5.181919696513488,-0.8832032111362773
0.87,-8.284787216893967,-5.181112772033604,-0.8296830594226334
0.88,-8.309106815656325,-5.1426948564352,-0.8251986900079062
0.89,-8.348795834642814,-5.07692570295654,-0.8308123083764748
0.9,-8.400597523399194,-4.992722750043109,-0.8191213499623277
0.91,-8.433339951389273,-4.939988594124,-0.8034681981441162
0.92,-8.424526234479496,-4.95317258844706,-0.81389104961489
0.93,-8.377420304255004,-5.026173780673057,-0.8504386994567366
0.94,-8.332381304557932,-5.101561144574101,-0.8452799268688924
0.95,-8.330203177515257,-5.114278932470578,-0.7881169510751754
0.96,-8.355123887230421,-5.079583311918679,-0.7479583689700988
0.97,-8.372166745482183,-5.048647416602926,-0.7663142515798124
0.98,-8.363353660739325,-5.050755045890856,-0.8438945225113111
0.99,-8.342732016718342,-5.077010030403575,-0.8904628102794256
1.0,-8.33914856237862,-5.089775299667939,-0.8494979315841339
1.01,-8.35847318299367,-5.0728071292254535,-0.7544290213129261
1.02,-8.388688955090485,-5.032720284499488,-0.6864249429847388
1.03,-8.407324087813134,-4.998956032499293,-0.7049347170355819
1.04,-8.408956618598351,-4.990535883087049,-0.7444748673336146
1.05,-8.402216746507731,-4.999671969506343,-0.7591402414006398
1.06,-8.388027098056273,-5.024936024469334,-0.7489122410349004
1.07,-8.373119007832607,-5.052626727361229,-0.7294095921653954
1.08,-8.365302250066911,-5.064545777486255,-0.7364120627332958
1.09,-8.362813651733978,-5.063937375348689,-0.7680655336487088
1.1,-8.359716619031243,-5.065505873110821,-0.7912850084834755
1.11,-8.35716729151027,-5.0721822680575555,-0.7750219810700241
1.12,-8.361794602706558,-5.0705610712158595,-0.7346843497122378
1.13,-8.378799054795673,-5.045210709292673,-0.7151424082463512
1.14,-8.406242819152169,-4.996383900584007,-0.7349680721810014
1.15,-8.426186126387265,-4.956189559691345,-0.7779796193269214
1.16,-8.419745978298561,-4.962453884968914,-0.8073799587566023
1.17,-8.387531355574,-5.016041428903333,-0.8107610296930252
1.18,-8.351531544833252,-5.0770232305277165,-0.8032565194462383
1.19,-8.336064362437947,-5.104223778717853,-0.7920013050345643
1.2,-8.346053285577282,-5.0894709602503125,-0.7814657624125394
1.21,-8.36590694861134,-5.05935448759729,-0.764511647061562
1.22,-8.38457288155993,-5.0322270820993635,-0.7386398360343026
1.23,-8.396343071929698,-5.016187218960037,-0.7138049424693889
1.24,-8.400446587002852,-5.0106757353221845,-0.7042736503720137
1.25,-8.398812092491712,-5.012422323292427,-0.7112747745924105
1.26,-8.390403746700521,-5.027016173149661,-0.7073985913808837
1.27,-8.384085261160374,-5.040093840966444,-0.6890876754520705
1.28,-8.375240272513919,-5.057862751965748,-0.6658841115071479
1.29,-8.361050854774808,-5.081936216583446,-0.6610114724646863
1.3,-8.340917347554115,-5.112229442073009,-0.6811554756477595
1.31,-8.32764321565248,-5.135883095121026,-0.6654948567969682
1.32,-8.348274043446805,-5.110303614136248,-0.5990892494750445
1.33,-8.38997777574624,-5.0489277726108694,-0.5336218758739186
1.34,-8.420395591763437,-4.9982855392027465,-0.5326211033307164
1.35,-8.414856010716758,-5.001611408190887,-0.5857545228844578
1.36,-8.377911947716546,-5.059978814789734,-0.6129936127957266
1.37,-8.34258013640317,-5.121787686817164,-0.580940198856049
1.38,-8.324341749042436,-5.157409377794635,-0.5252892541617147
1.39,-8.325293315662528,-5.157860460541321,-0.5062532917781389
1.4,-8.335735457217007,-5.13570694886514,-0.5557602643040186
1.41,-8.342450087344114,-5.11825063769536,-0.6138959679659124
1.42,-8.351234213064517,-5.106324291190371,-0.5931764924122609
1.43,-8.36504096925214,-5.092493291320549,-0.5107120717121724
1.44,-8.387417167979258,-5.062530779402488,-0.43709571721284396
1.45,-8.408322876397959,-5.025832828334238,-0.45844316412786695
1.46,-8.417740279427267,-5.00584108776939,-0.5032889371812043
1.47,-8.419062460711674,-5.003079287343966,-0.5088744791449974
1.48,-8.407183082108762,-5.024605955052907,-0.4925645272332046
1.49,-8.386182739649684,-5.061026729877554,-0.4773404755414458
1.5,-8.364823074939519,-5.094285375339357,-0.49778523742550324
1.51,-8.353423546711785,-5.108237952754759,-0.5440881162444404
1.52,-8.350682994644934,-5.106500585234286,-0.5995164365915241
1.53,-8.348967311983172,-5.107142402823649,-0.6182407627232549
1.54,-8.346387658861534,-5.114184995906668,-0.5941622451290863
1.55,-8.356866898090699,-5.102977648095142,-0.5402230926561343
1.56,-8.392839921074906,-5.048259526085024,-0.49393627500828596
1.57,-8.435913912984963,-4.976464410284028,-0.48895000890117585
1.58,-8.454238971017428,-4.943748297868003,-0.5054031021528168
1.59,-8.435614755324032,-4.972933042904585,-0.5291233104582435
1.6,-8.396293720291768,-5.0374360379695915,-0.543579934954947
1.61,-8.372961835445553,-5.0791893693802015,-0.514901622578786
1.62,-8.376021391982219,-5.07799027227943,-0.4757447109708032
1.63,-8.37192111970781,-5.08064248517492,-0.5171262695073323
1.64,-8.329781226392543,-5.138644356539685,-0.6129669607897736
1.65,-8.262259174422008,-5.236750103707496,-0.6913140173223873
1.66,-8.23972389074044,-5.2780922356108775,-0.6462904884430436
1.67,-8.307383949506974,-5.189980775374806,-0.4562624253218912
1.68,-8.416340014534423,-5.012839845513644,-0.44410672490768843
1.69,-8.488049743900744,-4.882240227619264,-0.5316448301845287
1.7,-8.477764772257277,-4.888867345662318,-0.6282729532437231
1.71,-8.413323047630678,-4.998619874713643,-0.6294017877413287
1.72,-8.33445181817632,-5.136984203506489,-0.5594802632761284
1.73,-8.27227561927644,-5.24564500696253,-0.4683385126382347
1.74,-8.252718143521479,-5.278128396704654,-0.4520411980966714
1.75,-8.274835425810252,-5.235371751521362,-0.5346980709541869
1.76,-8.322534827906344,-5.1545960829638835,-0.5780703530827862
1.77,-8.373568409276942,-5.077040213384207,-0.5246099837483399
1.78,-8.401063997567936,-5.038077752104412,-0.45760798611207926
1.79,-8.418817066801527,-5.014004837376914,-0.39094746929163443
1.8,-8.424046463797788,-5.002573768857199,-0.4237773297086201
1.81,-8.403643273310777,-5.033005360554893,-0.46633098589725097
1.82,-8.357840174299358,-5.1065276905303705,-0.48876825046062455
1.83,-8.297014306135397,-5.206552424326238,-0.4685317728717454
1.84,-8.248258015062751,-5.285252920078025,-0.4490368386916906
1.85,-8.244805057631918,-5.291158404645969,-0.4440737070363323
1.86,-8.289583419254098,-5.2184758531646,-0.46823915583022474
1.87,-8.371730364877564,-5.084751097063556,-0.4755690888202229
1.88,-8.43679315566775,-4.981598886401005,-0.4150688178393769
1.89,-8.450467978245825,-4.963394703917364,-0.35244917301235473
1.9,-8.426897540616773,-5.006566174379397,-0.30229962149991096
1.91,-8.389948147194083,-5.0661813313165425,-0.33482643348947
1.92,-8.370263753454356,-5.094166549887761,-0.3974445944631599
1.93,-8.345075614760585,-5.127374632432846,-0.48878789490570435
1.94,-8.31503007703451,-5.170491508465593,-0.5441551944779778
1.95,-8.286937793185437,-5.214867790289278,-0.5494683571419349
1.96,-8.286201917526647,-5.222420750600585,-0.4847845503236379
1.97,-8.326424509669769,-5.166541117512135,-0.382372471348342
1.98,-8.385265616132125,-5.074389276797559,-0.3268739845121739
1.99,-8.434294631602755,-4.992409928313047,-0.328809577902686
2.0,-8.452074118137732,-4.958727198186617,-0.37881958775663094
2.01,-8.436778281782134,-4.9835751219963935,-0.39372085843709964
2.02,-8.401786163404793,-5.042779759187406,-0.3877247412547406
2.03,-8.367588722248266,-5.098964700653533,-0.3925233920629324
2.04,-8.328189191962943,-5.158832806580278,-0.44440287638728276
2.05,-8.273385766841796,-5.239664940517094,-0.5160866975771523
2.06,-8.23191290378785,-5.302676727007649,-0.5359593081242268
2.07,-8.259533182635451,-5.269319441968871,-0.42870788835185025
2.08,-8.33979022113016,-5.1469255922152914,-0.35474096563911645
2.09,-8.436329344652153,-4.987828443785078,-0.3441622832767715
2.1,-8.486366727124219,-4.897535665521284,-0.40673162035994653
2.11,-8.474327290784291,-4.9147207134708,-0.44897102293535596
2.12,-8.417315321472026,-5.014030932072606,-0.42199507443414386
2.13,-8.348685462638286,-5.13151274178452,-0.3696422990145892
2.14,-8.297063330737503,-5.215284356465098,-0.3600349325842588
2.15,-8.268357924914989,-5.256047613459671,-0.4224013469354948
2.16,-8.267986596902542,-5.250737596807981,-0.4903298762054205
2.17,-8.30929095327537,-5.185466320474075,-0.4867108650669119
2.18,-8.3718575911738,-5.093721781598301,-0.368761684673111
2.19,-8.422550843670734,-5.015495122078059,-0.275041449305041
2.2,-8.44878153537207,-4.972354311579518,-0.2532800421007336
2.21,-8.45443607297123,-4.961429411976487,-0.2776956369689623
2.22,-8.459723686591813,-4.9529319420430005,-0.26817819233607243
2.23,-8.430122073050551,-5.002349333583834,-0.28250977010079187
2.24,-8.366098682901017,-5.105894794428302,-0.3288467117573081
2.25,-8.264469731448997,-5.263809397507894,-0.400982060795591
2.26,-8.17759688871256,-5.3938833044814665,-0.45087169801910915
2.27,-8.17968938715334,-5.394022164348901,-0.40814947219414754
2.28,-8.261410075681031,-5.277147643316631,-0.2634163629483421
2.29,-8.387018197779044,-5.078599857540731,-0.18656931228570092
2.3,-8.478679092980531,-4.9209739829164265,-0.2573206537823702
2.31,-8.509450136217366,-4.866203649848908,-0.2822844029440283
2.32,-8.497771493111173,-4.8873801806560655,-0.26652746325064824
2.33,-8.440102998898773,-4.988830618857402,-0.2139439629445669
2.34,-8.374309712122448,-5.099036076488893,-0.19955406014045102
2.35,-8.307434632271496,-5.202774932173201,-0.29496776419610593
2.36,-8.26013746291605,-5.271079353619609,-0.39494499060925875
2.37,-8.24506631473355,-5.2906180923417665,-0.4454768352317569
2.38,-8.268184624833651,-5.2580232873521595,-0.3978403320360355
2.39,-8.335559987265377,-5.159559543193823,-0.2558083553930357
2.4,-8.419321412418482,-5.024976539444664,-0.18158688404746703
2.41,-8.49614757417877,-4.892979933260284,-0.21018547559126383
2.42,-8.522016262292244,-4.846439476944295,-0.23939715556229468
2.43,-8.488273536088135,-4.906163203117139,-0.21730579388983717
2.44,-8.41612862758573,-5.030199645218427,-0.18568812820674266
2.45,-8.347732840228103,-5.141911861517631,-0.2129761065209115
2.46,-8.310102066190689,-5.198408851701323,-0.2966596212918754
2.47,-8.294109600873217,-5.217542783008216,-0.39388642622605985
2.48,-8.294493979894673,-5.214381021836695,-0.42549141269588886
2.49,-8.318667245518302,-5.182390446404173,-0.3325451418803975
2.5,-8.365500467322763,-5.112729420646638,-0.21683182940013265
2.51,-8.425021925495681,-5.015192803351944,-0.18888805311064896
2.52,-8.463364366723841,-4.946888734682492,-0.2634126477697765
2.53,-8.457707122202553,-4.952167723314231,-0.3356604740782472
2.54,-8.411552198255986,-5.028623533792402,-0.35670376243701324
2.55,-8.351896608663068,-5.1285549072192795,-0.3360007669559089
2.56,-8.312681628020213,-5.194248183241357,-0.2989252033134638
2.57,-8.30380915838732,-5.206981428556602,-0.32260032404285277
2.58,-8.324526983382807,-5.170987074470465,-0.36422370587822045
2.59,-8.360476810712923,-5.1107988878415656,-0.3897456346868701
2.6,-8.390991918203998,-5.062585793231603,-0.3626602901084763
2.61,-8.403059996499305,-5.045200562323229,-0.3237265387554011
2.62,-8.402984574162527,-5.046883819113084,-0.29863166112743633
2.63,-8.406638074234257,-5.0411987363067485,-0.2914954905877962
2.64,-8.419859849931633,-5.018425654467266,-0.30280802617415686
2.65,-8.414800168124787,-5.02516970747782,-0.32903851470321294
2.66,-8.380213315940171,-5.078664453216836,-0.3840328865499555
2.67,-8.328674441555972,-5.15815825965724,-0.4420233834879984
2.68,-8.290876672087508,-5.216504786678947,-0.46872619144418964
2.69,-8.30367031565974,-5.198483546643088,-0.4405367001274924
2.7,-8.347185963124314,-5.131183448267729,-0.40470413670474004
2.71,-8.399542269980321,-5.046882785978959,-0.3821433556425067
2.72,-8.432516126372963,-4.9923443610055624,-0.3733080216339162
2.73,-8.443858216875553,-4.975116341142292,-0.34581910415318196
2.74,-8.451255248695514,-4.9635045854601145,-0.331503550998111
2.75,-8.439389100109596,-4.979285610738048,-0.38939429374515133
2.76,-8.400228451443265,-5.035903868093171,-0.4911090801482405
2.77,-8.332642759303193,-5.134522919507329,-0.6069239003146178
2.78,-8.255485557240318,-5.249704226020208,-0.6751903780107611
2.79,-8.21261300850607,-5.318890594833374,-0.6570732221041619
2.8,-8.226634473600058,-5.306202194147824,-0.5766814029755126
2.81,-8.302318202049978,-5.195888954763818,-0.48659021936534913
2.82,-8.40354544229423,-5.0324594019862,-0.46652729328674963
2.83,-8.48273582720005,-4.891984350063305,-0.5284269577012118
2.84,-8.507638688252861,-4.8416013611583715,-0.5904172367400313
2.85,-8.469158513952372,-4.905654426597439,-0.6114181688168123
2.86,-8.397229114180988,-5.0309976296684775,-0.5845789074112301
2.87,-8.33461251194495,-5.134692681321713,-0.5815181477101767
2.88,-8.305173942386329,-5.17603314431003,-0.6339743224033255
2.89,-8.301481997567752,-5.172737448151788,-0.7055071674569786
2.9,-8.30809723961039,-5.157403664253352,-0.7394935302098294
2.91,-8.325661344406162,-5.133990518864721,-0.7033527195524565
2.92,-8.359196067719846,-5.08571907158082,-0.6541388058244023
2.93,-8.4047055716297,-5.0105955946900576,-0.650302622607546
2.94,-8.438412554433393,-4.947444906806579,-0.696998147779181
2.95,-8.438952644037094,-4.942127326795218,-0.7275390350300815
2.96,-8.400910873951162,-5.0031975860252444,-0.7480391170081387
2.97,-8.3333510944875,-5.109161954971604,-0.7859259224849857
2.98,-8.272118245576543,-5.202968912201271,-0.8187989227709674
2.99,-8.255366347802534,-5.226588569126626,-0.8376841140777135
3.0,-8.292161525984785,-5.167337766231624,-0.8399897256118806
3.01,-8.356493928200972,-5.062085130581524,-0.843332653180481
3.02,-8.404529213006834,-4.979394567900327,-0.8598115346376206
3.03,-8.412285276836926,-4.962920993260262,-0.8791617079793383
3.04,-8.387915578602016,-5.001524075872526,-0.8927505576787061
3.05,-8.359851806570312,-5.048420549377584,-0.8923999091203967
3.06,-8.349586595844782,-5.066413026383891,-0.8867022176861403
3.07,-8.346679920336772,-5.066361748235202,-0.9134086969788346
3.08,-8.335195354891143,-5.0735078883158655,-0.9764458450880831
3.09,-8.322580716406724,-5.085029175994984,-1.023372197024635
3.1,-8.314844374966851,-5.098100017958483,-1.0211361968683998
3.11,-8.32537024337758,-5.09036027314928,-0.972377463557311
3.12,-8.35448608091657,-5.05038249475132,-0.9303941802502427
3.13,-8.381875938802562,-5.001662235525454,-0.9468311726584132
3.14,-8.383291690326505,-4.98516706558542,-1.0182314145581377
3.15,-8.352184926110017,-5.0231682709685925,-1.0851501524779779
3.16,-8.313843139285492,-5.082086325146843,-1.1052906735543373
3.17,-8.284649023664615,-5.13273249260032,-1.090560457914933
3.18,-8.282813475417475,-5.140950013970782,-1.06559566447872
3.19,-8.31378989160126,-5.091128658645422,-1.063010636746865
3.2,-8.355283674924339,-5.019110481594772,-1.07995691415011
3.21,-8.384278463076212,-4.9685468307248986,-1.0897923132259941
3.22,-8.388058089314516,-4.9680977247526465,-1.0618466791142889
3.23,-8.383333561652412,-4.987005285451381,-1.009757952313066
3.24,-8.381041225130575,-4.991649536923642,-1.0058723808060483
3.25,-8.382671047604465,-4.981311757209702,-1.0426495747605868
3.26,-8.37739844927184,-4.977462541366585,-1.1013994689712534
3.27,-8.34749876290938,-5.0130986451354405,-1.164613942053768
3.28,-8.305386053300973,-5.076171347649588,-1.192492433133634
3.29,-8.287257369787424,-5.114408034296798,-1.1545739340735068
3.3,-8.31388800756188,-5.0882137634569835,-1.0753927256987286
3.31,-8.368616097263919,-5.008791058012676,-1.0224591340793514
3.32,-8.419793112514718,-4.924817172431158,-1.010869351527345
3.33,-8.45327168531216,-4.867479180048201,-1.00977591375678
3.34,-8.463111987743655,-4.851459780780716,-1.0046994531889992
3.35,-8.448973254298075,-4.877834673538479,-0.9956556246499606
3.36,-8.420566613282306,-4.9274907151715235,-0.9915848327834674
3.37,-8.386444762223299,-4.981591020591553,-1.0101582358966152
3.38,-8.358519226621148,-5.0209451965888965,-1.0464090699526445
3.39,-8.346949650439846,-5.036506499652729,-1.0641470405240547
3.4,-8.356857430974776,-5.025831031701958,-1.0360655195849147
3.41,-8.373671562164834,-5.006410039918621,-0.9937163979471854
3.42,-8.379065140854312,-5.000992065224126,-0.9755620247342158
3.43,-8.372977632565815,-5.009440572075209,-0.9843639560656232
3.44,-8.365817974482892,-5.0213598123379075,-0.9845450358418195
3.45,-8.365129905653331,-5.028167423839013,-0.9550472417747592
3.46,-8.369483232562942,-5.0284659797846025,-0.9144698861412328
3.47,-8.383065061860789,-5.011630248429511,-0.8818775288757624
3.48,-8.40514707764439,-4.978516097684579,-0.8588887833175468
3.49,-8.420102330873071,-4.955475765946273,-0.8458440391183863
3.5,-8.410824408492855,-4.970979217533664,-0.84695861152737
3.51,-8.370886728331518,-5.0345926617440275,-0.8654554092432515
3.52,-8.314173363578082,-5.124168461289162,-0.8858764739680428
3.53,-8.273848430381445,-5.191476941539046,-0.872564927967699
3.54,-8.277515469827057,-5.192578906987745,-0.8302547019398031
3.55,-8.316614112863018,-5.135729098381671,-0.791515491583964
3.56,-8.361294368619529,-5.065502030756358,-0.7735079449197113
3.57,-8.392258469951278,-5.015550016047309,-0.7642879506223526
3.58,-8.411376181330503,-4.988270206796886,-0.7318677936314233
3.59,-8.412777696645714,-4.991364850782982,-0.6939019611139449
3.6,-8.397252296159152,-5.01727818838455,-0.6950052055023092
3.61,-8.372684589213225,-5.051449366768534,-0.7416550247760276
3.62,-8.337050928231365,-5.099764273414659,-0.808794648997136
3.63,-8.296606378800691,-5.156964686131806,-0.8607448907793253
3.64,-8.272087543624455,-5.1982278857909625,-0.8489404754100796
3.65,-8.283522035767616,-5.189655234026262,-0.7871181359747405
3.66,-8.325048198609075,-5.129475809871559,-0.7418727053188564
3.67,-8.372781920975608,-5.05158289902245,-0.7392636745717565
3.68,-8.404007261470388,-4.99391111530914,-0.7763613559706599
3.69,-8.402562182360466,-4.991324207203087,-0.8085617512532902
3.7,-8.383909821111557,-5.02297470399939,-0.8060486110633773
3.71,-8.368725183212275,-5.052155938796147,-0.7811440763848272
3.72,-8.366127754532636,-5.058174116851672,-0.7701673504220973
3.73,-8.368316790634193,-5.048204734913423,-0.8102379722521454
3.74,-8.346235101652503,-5.070718890962317,-0.8922993606897902
3.75,-8.307646745400135,-5.124962424966363,-0.9417098228141394
3.76,-8.290485440942781,-5.157687138425965,-0.914232860380868
3.77,-8.315433454782655,-5.131059272228782,-0.8328297138768053
3.78,-8.376225979718177,-5.038526082128292,-0.786617307600932
3.79,-8.433806582753007,-4.936808455904849,-0.8161871470329036
3.8,-8.457339212619946,-4.8902418336572415,-0.8537964630901462
3.81,-8.433226435107187,-4.927108123881527,-0.879502716352526
3.82,-8.384426894422669,-5.012452858048669,-0.8628865532572835
3.83,-8.339119525051377,-5.090437499578255,-0.8458936037923127
3.84,-8.305760134713315,-5.1391390698004455,-0.879216087795586
3.85,-8.301925000069325,-5.136353444782792,-0.9304427927682797
3.86,-8.324528156353498,-5.094037373030144,-0.9605545405035883
3.87,-8.358981323148434,-5.0423410921991145,-0.9335419607331576
3.88,-8.393270480515271,-4.996729024971784,-0.8686684720620199
3.89,-8.421097594888703,-4.959368289336857,-0.8119911515715802
3.9,-8.439797454659587,-4.925268842512586,-0.8255122878656219
3.91,-8.440935972866997,-4.917963796308704,-0.8570007404218297
3.92,-8.41454528301669,-4.958680498577438,-0.8812133002155407
3.93,-8.360526586304633,-5.045109140920718,-0.903629160679626
3.94,-8.301986123444701,-5.137048499493118,-0.9252538071669187
3.95,-8.267066275967604,-5.189969590815438,-0.9432555275591608
3.96,-8.27838529712739,-5.173046727406655,-0.9370274487598181
3.97,-8.331474408467589,-5.091491607024161,-0.9118361881889507
3.98,-8.39824084123898,-4.9896581807085285,-0.8603886584786214
3.99,-8.441858579545645,-4.926122440200914,-0.798395983671111
4.0,-8.457770184117317,-4.909803361869245,-0.7276741520596118
4.01,-8.444973728085545,-4.932244557011262,-0.7249509088192005
4.02,-8.410076872558221,-4.985619752672084,-0.7639087754241991
4.03,-8.36497458090604,-5.0544760783420575,-0.8053343455138441
4.04,-8.319052032703008,-5.126464781127938,-0.8258554286141427
4.05,-8.291043506146075,-5.170886169058658,-0.8310430268017502
4.06,-8.282310410444493,-5.1869073330467375,-0.8183238150277427
4.07,-8.30317707661949,-5.1620697444237615,-0.7614981501705155
4.08,-8.354305156189128,-5.092942001730323,-0.6596922627791265
4.09,-8.419483315865122,-4.995516194899533,-0.5697907956492189
4.1,-8.471872050173141,-4.907489221344462,-0.5595476912615702
4.11,-8.474344752308932,-4.900634736038829,-0.5827062044880345
4.12,-8.423556369372355,-4.983725522807176,-0.612351327053786
4.13,-8.353413363907615,-5.098026797500846,-0.6314945947738688
4.14,-8.297553233002954,-5.1889050959558025,-0.6285696921381653
4.15,-8.285481194955025,-5.211144359012847,-0.60420147349694
4.16,-8.296540041701427,-5.194953162950283,-0.5917693414949639
4.17,-8.321222007351636,-5.156157045660569,-0.5843276982806606
4.18,-8.362442147538532,-5.089339586701275,-0.5812963776736058
4.19,-8.403515983789523,-5.024545837572871,-0.5519027469269536
4.2,-8.43910685063778,-4.970845973908908,-0.4917528545487808
4.21,-8.446725739263362,-4.960052131614505,-0.4701723104330744
4.22,-8.426998205131419,-4.990199317057289,-0.5037208307247922
4.23,-8.386006296651315,-5.05107517268685,-0.5753306340628362
4.24,-8.33192679586507,-5.13325838806004,-0.630909273326512
4.25,-8.291943048887163,-5.194766000698846,-0.6542781275417677
4.26,-8.277950455532752,-5.217618419056793,-0.6498765730081697
4.27,-8.305480872943876,-5.177480054687369,-0.6187192933052784
4.28,-8.372416386455987,-5.073350332544871,-0.5770782751690584
4.29,-8.45499154920044,-4.944381238514313,-0.4844488207239211
4.3,-8.532602595518803,-4.8115915658339325,-0.4608477468128111
4.31,-8.546841240066778,-4.7806902628783,-0.5164042951808308
4.32,-8.449800708054301,-4.934728099006153,-0.6459138960822735
4.33,-8.240501701750846,-5.252060552827201,-0.8202634009761377
4.34,-8.025398735904274,-5.566083801045041,-0.8812402505203176
4.35,-8.05677432597217,-5.561698036965835,-0.56804324191519
4.36,-8.295630189888046,-5.1998040811481,-0.5560258817173288
4.37,-8.513781153745265,-4.821294657542946,-0.6603516094452349
4.38,-8.59460748153685,-4.6722388558361665,-0.6875632005335399
4.39,-8.543862944712213,-4.749436744801493,-0.784433670216299
4.4,-8.472358695609872,-4.900150923231144,-0.6142970052981249
4.41,-8.399485030331496,-5.044884231705921,-0.40949873439352485
4.42,-8.34956729625754,-5.1197307045171785,-0.4933830143295045
4.43,-8.316673651510104,-5.156541369053902,-0.642939467112586
4.44,-8.282933724717108,-5.1935155201290755,-0.7686205336432327
4.45,-8.282536718021257,-5.200238515029941,-0.7261687301009859
4.46,-8.30435878809315,-5.181033272250138,-0.6035434869731235
4.47,-8.358400987841735,-5.112021251226478,-0.4177622989577935
4.48,-8.411249342340541,-5.027789014802988,-0.37674684990271173
4.49,-8.441474819213562,-4.963406002141329,-0.525761958212682
4.5,-8.458504778959513,-4.931523806875021,-0.5514475856230642
4.51,-8.437849524252286,-4.965052256630269,-0.5663655074179482
4.52,-8.38551015213189,-5.059286665121692,-0.5066507962939782
4.53,-8.32850796667219,-5.152294564921404,-0.510099449568546
4.54,-8.33526698915636,-5.141184037309675,-0.5107086980239235
4.55,-8.412902839272611,-5.0112490125477,-0.5285606050307986
4.56,-8.484733737662339,-4.8833621665868945,-0.5762913743958076
4.57,-8.443431689867335,-4.947785124120539,-0.6261162677429897
4.58,-8.278910611105742,-5.211316178784597,-0.6829233792710302
4.59,-8.15448918241185,-5.420556374009765,-0.5399722118465763
4.6,-8.173343726048747,-5.399486941180881,-0.45569765621321134
4.61,-8.2951892698303,-5.200114032662457,-0.5605413839922353
4.62,-8.410371784333968,-5.002312283135567,-0.6412203657304278
4.63,-8.452037200992311,-4.918750905759363,-0.7341823014438948
4.64,-8.41866513017391,-4.975290739498129,-0.7349061806926693
4.65,-8.368272153948912,-5.077556434142005,-0.5993166565151542
4.66,-8.331262415569848,-5.1472586402141385,-0.514905228510296
4.67,-8.30659707613676,-5.17582739527116,-0.6165462832511551
4.68,-8.276287116408186,-5.208992534776474,-0.7335423986571901
4.69,-8.240729449441108,-5.250577118521552,-0.8318589608485677
4.7,-8.242516509034406,-5.25606230378663,-0.7766460249216148
4.71,-8.273823412173712,-5.223505521948947,-0.6538971569006387
4.72,-8.326273809050148,-5.147361395393771,-0.588455224378605
4.73,-8.384864216796768,-5.044124500931613,-0.6469219383889869
4.74,-8.433419520981609,-4.950585446548405,-0.7341381893752033
4.75,-8.460548527302963,-4.906977653141426,-0.7145755073618553
4.76,-8.438444599421434,-4.951218476711518,-0.6683433542276117
4.77,-8.38444494957792,-5.046424043162592,-0.6351541791173344
4.78,-8.33070691462215,-5.129525822663099,-0.6755625636962099
4.79,-8.304367516109728,-5.161297720757278,-0.7539136167753225
4.8,-8.315024784728163,-5.136961814521122,-0.8011033659118261
4.81,-8.350900669587475,-5.0793521400337065,-0.7949358275315636
4.82,-8.390892623041916,-5.01931710027766,-0.7545021841486182
4.83,-8.415029678627075,-4.982194154145648,-0.7316877295571657
4.84,-8.419365978046384,-4.974238852220061,-0.7358458974341696
4.85,-8.40819805510858,-4.989131955008176,-0.7621066667138254
4.86,-8.38612721952054,-5.02397202396311,-0.7763807966276037
4.87,-8.37207970648147,-5.0483932152509245,-0.7696506315897021
4.88,-8.365581076612708,-5.055308068671117,-0.7939088570469381
4.89,-8.351109280584623,-5.066258210265645,-0.8724177306507128
4.9,-8.3302738837616,-5.087511242985596,-0.9454029183133675
4.91,-8.316023149410103,-5.106683002709793,-0.9673449998887725
4.92,-8.319275707818392,-5.107974106001545,-0.9317292489705286
4.93,-8.338909260704387,-5.085138654131131,-0.8792634687233956
4.94,-8.374361351469753,-5.034939327079014,-0.830031315552266
4.95,-8.405747554576259,-4.983219904448826,-0.8252591770952434
4.96,-8.41562835247935,-4.962854174478182,-0.8471036796604035
4.97,-8.40931485630689,-4.970737468512024,-0.8633585253620392
4.98,-8.389029210635151,-5.003824689523061,-0.8692729229453653
4.99,-8.352102741534255,-5.06181417188988,-0.8881494319371658
5.0,-8.298151870115767,-5.144788102445726,-0.9165909524400817
5.01,-8.254719872599859,-5.213702821502065,-0.9203345223518196
5.02,-8.255865922818662,-5.217689973131334,-0.8865822488407479
5.03,-8.29133342323301,-5.167386757038728,-0.848588045490494
5.04,-8.345633156677573,-5.083166404377227,-0.8247735553750775
5.05,-8.392388770738206,-5.006921781613464,-0.817332392206027
5.06,-8.419907747304222,-4.9642501431089086,-0.7946253689387056
5.07,-8.42014957460555,-4.969156303680461,-0.7603792405234668
5.08,-8.390054450568188,-5.02259609810909,-0.7413731619932793
5.09,-8.346058819025371,-5.092526363995187,-0.7599516619636493
5.1,-8.29843588628589,-5.161994465842712,-0.8116024765279043
5.11,-8.27196516767262,-5.198410700338706,-0.8494125018230668
5.12,-8.280750674947878,-5.187230417619589,-0.831110610081508
5.13,-8.320603808180604,-5.134274636719088,-0.7570104025563382
5.14,-8.380564466666083,-5.0466976051982995,-0.681381397968608
5.15,-8.43264329008128,-4.962060315173135,-0.661412134601317
5.16,-8.460698281018544,-4.910808892326645,-0.6860908271239874
5.17,-8.458263416751704,-4.914086491809777,-0.6921081162771799
5.18,-8.416941106236,-4.98507165933594,-0.6864456339306287
5.19,-8.349227770333131,-5.0932596465194395,-0.7171188917527379
5.2,-8.281077481944893,-5.193882670247248,-0.7840340385790832
5.21,-8.251454827518046,-5.233461368058831,-0.8334499623393534
5.22,-8.28389723160578,-5.185538222353254,-0.8080019909973785
5.23,-8.359016757688625,-5.0753153535087,-0.7289957372930725
5.24,-8.429075131073633,-4.966243883688667,-0.6751213604606968
5.25,-8.460538658920791,-4.911904404635652,-0.680095135712149
5.26,-8.467549231625847,-4.898673828115974,-0.6883404068607881
5.27,-8.460838403528657,-4.9132779291743525,-0.666213937259907
5.28,-8.431711333698122,-4.962093745659885,-0.6725970198330392
5.29,-8.38170342656942,-5.0386581535124995,-0.7247611067744485
5.3,-8.32227247256125,-5.123655531963701,-0.8085819962546976
5.31,-8.275304850729743,-5.186273879915428,-0.8893704069227694
5.32,-8.257947437188689,-5.210654592185536,-0.9085877579627177
5.33,-8.274060129599706,-5.194106746705061,-0.8537938680862656
5.34,-8.315374309656578,-5.140550033938738,-0.7724352469074931
5.35,-8.368198856876516,-5.0628144684395515,-0.7131057019202888
5.36,-8.417134890161076,-4.985015238346835,-0.6858626687158506
5.37,-8.440680467549063,-4.944585653284782,-0.6901492945984338
5.38,-8.427893456598477,-4.963836525641469,-0.7073175879325054
5.39,-8.388650329401825,-5.026566941879673,-0.7296701498524824
5.4,-8.343329542477202,-5.097933947985389,-0.7541315282463801
5.41,-8.305393070421788,-5.155856543671507,-0.7790686507768533
5.42,-8.277898461209672,-5.196691157241092,-0.8004915527184043
5.43,-8.26842401455796,-5.210935433337538,-0.8060269275488539
5.44,-8.281443728340268,-5.193523960027192,-0.7839794537338683
5.45,-8.318386137751483,-5.141877917672131,-0.7298053218864972
5.46,-8.3782212409597,-5.052532578011881,-0.6655872773288551
5.47,-8.434067855528518,-4.960817574267657,-0.6519660970771564
5.48,-8.449981617645895,-4.925760733451194,-0.7094205133728227
5.49,-8.406612931063016,-4.988786785048271,-0.7781237122135395
5.5,-8.328422475645398,-5.114884901613932,-0.7999050156216737
5.51,-8.264376814513057,-5.221776328556552,-0.7751993441659505
5.52,-8.239760425121743,-5.265595755104399,-0.7416461364570577
5.53,-8.264035671702699,-5.229066632572882,-0.7285672435064277
5.54,-8.31537234801912,-5.144207012084871,-0.7476839922684867
5.55,-8.362011467946553,-5.063656187120011,-0.7776617514949434
5.56,-8.388159151551212,-5.018889129766421,-0.7872606082548155
5.57,-8.391134649916056,-5.018028220125233,-0.7602367291085733
5.58,-8.389607222379317,-5.027899220502522,-0.7102473920615012
5.59,-8.39197551797657,-5.027910829374456,-0.6820752277362965
5.6,-8.392935757506367,-5.024273029682801,-0.6967065583213234
5.61,-8.377633254395024,-5.042984248241149,-0.74334697186742
5.62,-8.334246240322136,-5.104754223767403,-0.8054366777001504
5.63,-8.290185740362856,-5.170396430661392,-0.8421490624031127
5.64,-8.278373419126524,-5.190721063696739,-0.8337582923858726
5.65,-8.305306002587372,-5.152036698579321,-0.8043767599788398
5.66,-8.355311712278827,-5.075385592638339,-0.7725439034000259
5.67,-8.405255335096722,-4.997626544277643,-0.7373429181030103
5.68,-8.445358039910845,-4.9357919890386786,-0.6947871892519439
5.69,-8.461194050896413,-4.910988111318152,-0.6787978000219497
5.7,-8.448469874256027,-4.928481839600353,-0.7091348083360254
5.71,-8.415258263239057,-4.9753164333323845,-0.7729590663078688
5.72,-8.368818600342216,-5.042167550243853,-0.8408054098046869
5.73,-8.324755993483832,-5.108729513444815,-0.8765563554557341
5.74,-8.302610367153106,-5.148092104335708,-0.8564641332148651
5.75,-8.314072818614356,-5.13827362100704,-0.8021518104163561
5.76,-8.355877829155796,-5.076815313673727,-0.7570761398872313
5.77,-8.411448416391606,-4.985245110524965,-0.749755973396844
5.78,-8.450487340334016,-4.914660966982336,-0.7775519550818734
5.79,-8.44670163683028,-4.91307227724962,-0.8271944306505666
5.8,-8.404902217402414,-4.977923484776839,-0.8635705214686694
5.81,-8.353999891449245,-5.063610227838622,-0.8593913016921382
5.82,-8.310751913668227,-5.134722768816289,-0.8573929712946394
5.83,-8.278516937420438,-5.182532532325027,-0.881543561729637
5.84,-8.26294044852954,-5.2008911525006924,-0.9189860787357371
5.85,-8.278710724407198,-5.173014813821416,-0.934102347252873
5.86,-8.328164299076848,-5.098896914047797,-0.900032557168979
5.87,-8.38521714840731,-5.012591182008783,-0.8542601857442321
5.88,-8.426855347901304,-4.949254578128993,-0.8137235888240301
5.89,-8.435344022261896,-4.935869191420387,-0.8077745915891806
5.9,-8.408230224010953,-4.978715915677943,-0.8265439090683003
5.91,-8.353420343634054,-5.063451237453912,-0.8653506674066053
5.92,-8.294453902457521,-5.153942557610055,-0.8982076087961055
5.93,-8.254716195451854,-5.215067729341907,-0.9123467756701987
5.94,-8.243267524578936,-5.235582532657802,-0.8985885131571442
5.95,-8.26866731599514,-5.203832276265004,-0.8473302512451444
5.96,-8.316551350560086,-5.137309365095021,-0.7814991540694584
5.97,-8.36611542522783,-5.064537895744244,-0.7258391912891441
5.98,-8.39557260856093,-5.020153442041514,-0.6945369814430223
5.99,-8.398696105980939,-5.0156900862752165,-0.6892909957348262
6.0,-8.391945207918523,-5.027398226376095,-0.6861859330267227
6.01,-8.378993582378948,-5.051580168650387,-0.6663698707608225
6.02,-8.355439954139436,-5.0906354743004085,-0.6647625433558366
6.03,-8.31668476159758,-5.149489054024147,-0.6959763653249733
6.04,-8.280778456251502,-5.202402143160241,-0.7302306244472431
6.05,-8.278819217461463,-5.206702557945169,-0.7222498254540987
6.06,-8.307330245454741,-5.167910907305466,-0.670768295406096
6.07,-8.348668669148775,-5.108150565048746,-0.6125147151959597
6.08,-8.374011519141172,-5.067680959724756,-0.6038630204885732
6.09,-8.382063032782893,-5.051901733585827,-0.6241468414597486
6.1,-8.39199634162623,-5.037095629927561,-0.6101178385966742
6.11,-8.395244215947983,-5.038272973369905,-0.5524791446314582
6.12,-8.394003545471751,-5.045017616121754,-0.5085627364388203
6.13,-8.387915283388068,-5.052218453036067,-0.5365962717526109
6.14,-8.374093826205664,-5.06870051118252,-0.5937066050226457
6.15,-8.341441253967641,-5.114772493803489,-0.6545785384589361
6.16,-8.302408000013711,-5.176150702160966,-0.6685304649922996
6.17,-8.28523061091783,-5.207311973793005,-0.63945920033785
6.18,-8.30690672808913,-5.178447437339653,-0.5903173452657882
6.19,-8.37041495707205,-5.080253225896779,-0.5425447031897028
6.2,-8.437786405506943,-4.9672580179286765,-0.5456681336000931
6.21,-8.465385866820437,-4.914819394886048,-0.5928264983888301
6.22,-8.44172471554751,-4.94911547405609,-0.6426461272293043
6.23,-8.392908705102215,-5.030417202447077,-0.650235858168563
6.24,-8.349681662804738,-5.1042704478707845,-0.6313236760416917
6.25,-8.319181049278253,-5.153980268267253,-0.6306265175739819
6.26,-8.306675303760892,-5.169981220161508,-0.6637623968403357
6.27,-8.319216158848125,-5.14536242726963,-0.6971040504384068
6.28,-8.354766353392714,-5.088644893394725,-0.6878954220736714
6.29,-8.38963662046984,-5.036854097894261,-0.6431748089329319
6.3,-8.410145660255356,-5.009158949285405,-0.5896376276044645
6.31,-8.413503663753012,-5.004001320109159,-0.5859259652837118
6.32,-8.39925177921189,-5.024541029353205,-0.6137694852449925
6.33,-8.372167302121916,-5.0667759358769295,-0.6360716110460848
6.34,-8.340949846647211,-5.118189319993041,-0.6345425499533424
6.35,-8.318780772515721,-5.155804012415663,-0.6210843464607612
6.36,-8.308750351589568,-5.170383428940742,-0.6341431340818882
6.37,-8.330132827885306,-5.136112350483642,-0.6319617389984956
6.38,-8.363720386199743,-5.082083507082747,-0.6249343543792449
6.39,-8.391394385301611,-5.037650116351494,-0.6137585512958794
6.4,-8.401644460299787,-5.021497424076006,-0.6060495038050818
6.41,-8.392328189250113,-5.038083499515903,-0.5973916083988291
6.42,-8.384067042976557,-5.054053710121242,-0.578176933276893
6.43,-8.380917949746044,-5.063444187414079,-0.5403632824099205
6.44,-8.384333928976803,-5.058348318724433,-0.5351997629738575
6.45,-8.367664950482586,-5.079906849346185,-0.5888747852715664
6.46,-8.319405495241334,-5.146662186387347,-0.6844473149235301
6.47,-8.273645572130631,-5.21557100575668,-0.7172666001771612
6.48,-8.264365458282898,-5.238122952133226,-0.6575708029845844
6.49,-8.294932768862568,-5.197893879209043,-0.5881216513217364
6.5,-8.342776092997997,-5.1255680889551565,-0.5444878496305006
6.51,-8.380882762788717,-5.061978742611642,-0.5543073470150384
6.52,-8.410898248494734,-5.009550126472061,-0.5756537857886221
6.53,-8.409284347992593,-5.010961794815345,-0.5870035331182915
6.54,-8.376847378806552,-5.062229300429171,-0.6102896068718139
6.55,-8.32539661525467,-5.141091443153239,-0.6533878873848092
6.56,-8.274438480056919,-5.218003996593322,-0.6900397902438193
6.57,-8.26324728949309,-5.236243949217887,-0.6862019872931403
6.58,-8.285010867069412,-5.206492944146646,-0.6491073553482777
6.59,-8.329354907095434,-5.14159131298194,-0.5967198711047765
6.6,-8.377889439623473,-5.062667384240472,-0.592117901725501
6.61,-8.41669789817976,-4.997286501209242,-0.5971897664580982
6.62,-8.439645998696191,-4.958789862299035,-0.5942602505205056
6.63,-8.424380583511121,-4.985107675518066,-0.5906707049341914
6.64,-8.391284535192518,-5.039519432526776,-0.5999681968594827
6.65,-8.354309148298025,-5.094447917752908,-0.6499763190081763
6.66,-8.325768425763986,-5.1332831317446095,-0.7080471457639036
6.67,-8.303355795626503,-5.162688627118963,-0.7558516879160774
6.68,-8.29323089474805,-5.178436103262348,-0.7592492301943132
6.69,-8.313289678593145,-5.151766969035985,-0.7201883533110691
6.7,-8.361891667658956,-5.079197369391897,-0.6712702475566873
6.71,-8.416259683626237,-4.991760724566827,-0.6474138479218556
6.72,-8.448376217782688,-4.937353031000159,-0.6464128086543798
6.73,-8.44781213773129,-4.934939118670131,-0.6716168811347696
6.74,-8.417405483881742,-4.981420282399869,-0.7089955527641589
6.75,-8.369469022155752,-5.054169043164196,-0.7598324053316425
6.76,-8.323447696868312,-5.124768192546005,-0.7919958333161173
6.77,-8.302638693836483,-5.155768038408393,-0.8090843713752365
6.78,-8.310151211085314,-5.142707969918731,-0.8149017153562506
6.79,-8.3385450505278,-5.1034800820448725,-0.7702083687703069
6.8,-8.370898370608396,-5.056196263257693,-0.730193849339138
6.81,-8.391901659883752,-5.023914107539338,-0.7117462929746018
6.82,-8.402340753820145,-5.003332155174589,-0.7332208042627307
6.83,-8.39343142949151,-5.013289775590092,-0.766541296124951
6.84,-8.382620865076763,-5.030905149479634,-0.7693253066212214
6.85,-8.37029988387864,-5.057043979869437,-0.7310992791743934
6.86,-8.362327304935228,-5.076786888650177,-0.6841511639452906
6.87,-8.35546673059179,-5.089609300365901,-0.6726020766745222
6.88,-8.34896215882959,-5.097996207345151,-0.6896158950502789
6.89,-8.353391647564983,-5.087573868267379,-0.7125868798885427
6.9,-8.364590924040348,-5.070001233600471,-0.7062955772435462
6.91,-8.377786920773163,-5.053773932528656,-0.6649873277240262
6.92,-8.373544327894388,-5.066179092745521,-0.6227165300110183
6.93,-8.35722348759675,-5.094965192975959,-0.6070618311383419
6.94,-8.357164191935874,-5.095511736080147,-0.6032703319326177
6.95,-8.361158079914645,-5.090530245218514,-0.5896961741385317
6.96,-8.37318411077433,-5.074471977785956,-0.5565088843100989
6.97,-8.386254215785101,-5.056110422313352,-0.5261325660536128
6.98,-8.393401929231354,-5.044317729662055,-0.5249405951134336
6.99,-8.378331895923365,-5.061944262431115,-0.590291240546349
7.0,-8.324513229148131,-5.140074928749156,-0.6714115175342811
7.01,-8.271106896972466,-5.223202482363109,-0.6902255397427566
7.02,-8.253658485804166,-5.259331050006279,-0.61960673202165
7.03,-8.295921715466857,-5.205682665334105,-0.49486932906538955
7.04,-8.376655079794741,-5.078818783906988,-0.45219360305098844
7.05,-8.435813073956641,-4.974814811987933,-0.5078599032604306
7.06,-8.454892948259072,-4.938673488913547,-0.5427631784676851
7.07,-8.437712870557451,-4.968798171410376,-0.5337971145823036
7.08,-8.39616238479589,-5.044164469699813,-0.47847721055405046
7.09,-8.343524517032531,-5.134651993233919,-0.43552066594226957
7.1,-8.297559702744634,-5.206418226791294,-0.4617272133541383
7.11,-8.289404567200993,-5.213449188933618,-0.5246539522464313
7.12,-8.322662815090066,-5.157576111162973,-0.5489085946259704
7.13,-8.37254300302006,-5.081433696365204,-0.4975061429863049
7.14,-8.413049914697348,-5.021254502524865,-0.4211762230518415
7.15,-8.429996587235799,-4.994758704781132,-0.39722089078176176
7.16,-8.420116814547397,-5.008622036747905,-0.42992699634022885
7.17,-8.39051449219613,-5.054985871206041,-0.46451628059445205
7.18,-8.352679895260986,-5.1189578526257185,-0.4450076395500782
7.19,-8.316915320311402,-5.179055037658742,-0.41999467868586254
7.2,-8.304531324839308,-5.19907669837263,-0.41787719288595165
7.21,-8.327594124147398,-5.161881920104174,-0.41809265141218654
7.22,-8.37406427405451,-5.085709863483305,-0.42423331797328634
7.23,-8.401038388662577,-5.040354127835706,-0.43331581262045654
7.24,-8.395485214109472,-5.0503320891714525,-0.4237336091366468
7.25,-8.37798905103542,-5.083705858323887,-0.366082736139982
7.26,-8.376299394444803,-5.090890293041469,-0.30108735729144603
7.27,-8.388258461210663,-5.0706204353736615,-0.30953550494251736
7.28,-8.381740378481068,-5.077339106632813,-0.3678931805080038
7.29,-8.341260570517646,-5.137398987036421,-0.44475772080646647
7.3,-8.290300517180222,-5.215683633504116,-0.4867951291643948
7.31,-8.270384174850935,-5.249863391310766,-0.4567918094917054
7.32,-8.299222711457299,-5.210146524125487,-0.379863532750977
7.33,-8.356301116050812,-5.121268354871531,-0.33513303232137304
7.34,-8.407367211922628,-5.035401655101157,-0.36065922320235844
7.35,-8.4339345186054,-4.98921793210021,-0.38305291788361956
7.36,-8.435835621792576,-4.987011791259458,-0.36879843052303685
7.37,-8.415982350443763,-5.022909913048876,-0.3338764589644468
7.38,-8.392751044162708,-5.060995114118357,-0.3427018286205148
7.39,-8.368318572335266,-5.096342308098526,-0.40824086926963254
7.4,-8.331422985682615,-5.147429621986516,-0.50675990722331
7.41,-8.271516231265437,-5.233140455080499,-0.601723298911416
7.42,-8.211361354273118,-5.325398984670818,-0.6185325581023328
7.43,-8.203249425280895,-5.345194039020621,-0.549748293705313
7.44,-8.26827620534023,-5.2538731486381405,-0.43661109701865375
7.45,-8.383726275155354,-5.070755592055144,-0.3943560031624972
7.46,-8.475642746208678,-4.908773777099664,-0.48355453115868224
7.47,-8.479065272904943,-4.89169985512326,-0.5849806705567356
7.48,-8.410094828289814,-5.00189836887428,-0.6434798058502151
7.49,-8.330623299407335,-5.140491274552418,-0.5819369528785453
7.5,-8.292013195814407,-5.213250601311936,-0.4841184148572767
7.51,-8.294590953689765,-5.207974769164332,-0.49455076535806497
7.52,-8.305874642130055,-5.178094588478409,-0.6050078728208541
7.53,-8.31668038847072,-5.149655977707012,-0.695535546457467
7.54,-8.332537366999924,-5.125338676965334,-0.6844298978944393
7.55,-8.355357168202133,-5.099777296081105,-0.5888529110646282
7.56,-8.380218229099032,-5.067470898572463,-0.5124647622498998
7.57,-8.395374132052313,-5.038105118757886,-0.5500947659982487
7.58,-8.394631209715278,-5.030523762213936,-0.6277039941633383
7.59,-8.378711480841984,-5.055921210544963,-0.6359676074306635
7.6,-8.350216890507584,-5.107436512018814,-0.5970232532486616
7.61,-8.320048132566587,-5.159245012933529,-0.5734384175233644
7.62,-8.309723851185568,-5.170778624576511,-0.6166229824722612
7.63,-8.333768111909812,-5.1229013637083485,-0.6868010396856129
7.64,-8.380912773766497,-5.04368963229121,-0.6995126315305552
7.65,-8.420116825859987,-4.987444527729322,-0.6278775693962101
7.66,-8.431923761389836,-4.977579628335945,-0.543957968929518
7.67,-8.420848780736272,-4.996533368875392,-0.5414804420942749
7.68,-8.406007547564863,-5.015458277067021,-0.5950001658219526
7.69,-8.397935368115471,-5.025526159681447,-0.6237835651504484
7.7,-8.38982102756092,-5.039515588464613,-0.6199532672688177
7.71,-8.370125310969858,-5.073408971523328,-0.6092152769468921
7.72,-8.339102899901315,-5.122468096444348,-0.6236333429647156
7.73,-8.311852675994365,-5.160933636208018,-0.6686622097876929
7.74,-8.297171436914214,-5.179046197981871,-0.7103734323023088
7.75,-8.295553231319385,-5.182287882411923,-0.7055414787145015
7.76,-8.31665982355094,-5.158958672236702,-0.6189943576994997
7.77,-8.367124966193483,-5.088815692654828,-0.5105777947337816
7.78,-8.429551496889578,-4.987863730934952,-0.4801425121225498
7.79,-8.47049545003192,-4.916991390560596,-0.49372046831079636
7.8,-8.464682625053953,-4.9255050886972125,-0.5078984804723514
7.81,-8.409824224198381,-5.016913135886355,-0.5200157325203231
7.82,-8.323637839418135,-5.157551487230451,-0.5282945099906711
7.83,-8.238313887373458,-5.292610368373224,-0.5327848047423257
7.84,-8.193172182151034,-5.363007934538427,-0.5293074385223476
7.85,-8.207977134526526,-5.341672581778624,-0.5143043022278196
7.86,-8.27327155047149,-5.243595203192013,-0.47059180884403873
7.87,-8.361070771223911,-5.108242477951393,-0.4004292365372567
7.88,-8.431626465439544,-4.99622043546439,-0.3353397488398541
7.89,-8.464218529228562,-4.942738692238308,-0.31062948023402315
7.9,-8.458385417796784,-4.951952996325348,-0.3220558805093218
7.91,-8.418820203051407,-5.017627279060137,-0.3386682410111073
7.92,-8.356819039558237,-5.118536334853288,-0.36088978259078097
7.93,-8.288548172737705,-5.226523606321209,-0.38709789125387345
7.94,-8.249859790102937,-5.286206537290661,-0.40730455580271613
7.95,-8.271886177209618,-5.2507095786703255,-0.4174267105578662
7.96,-8.340189302520873,-5.143064086176023,-0.39323227719363735
7.97,-8.41252189663332,-5.027175569300973,-0.3508948676555309
7.98,-8.44534458171333,-4.97418375810763,-0.322250736079815
7.99,-8.424189464434734,-5.008867285739373,-0.33596963120576534
8.0,-8.371242913755774,-5.093218728386658,-0.384815339893812
8.01,-8.325323428071039,-5.16643121859521,-0.40768731823385806
8.02,-8.30818889253178,-5.193811409107402,-0.41070911928538556
8.03,-8.31540965616005,-5.181424777317935,-0.4206580657328973
8.04,-8.338678679261637,-5.141867737936372,-0.4439567851903563
8.05,-8.370961672998764,-5.088625416825215,-0.44974932572911086
8.06,-8.402177381691697,-5.040714762881613,-0.40417003228282744
8.07,-8.421368318631366,-5.012392129756466,-0.3555209967156352
8.08,-8.420706918347216,-5.011679031916828,-0.37991830089129286
8.09,-8.399243461862612,-5.042091748896386,-0.44581163947632874
8.1,-8.367767180515532,-5.090714961977063,-0.4842684120458333
8.11,-8.336292168416428,-5.142140737611992,-0.4839335018104538
8.12,-8.30757873988189,-5.1891480537780055,-0.47606661798203764
8.13,-8.27903921355617,-5.233024715503096,-0.4925406212041528
8.14,-8.26205025877852,-5.2555319888337015,-0.536335933471945
8.15,-8.286026518168871,-5.2165542336469874,-0.546333872707088
8.16,-8.34323492914547,-5.130241914719289,-0.48691947426661664
8.17,-8.398760504862597,-5.042864307561373,-0.44564905854336995
8.18,-8.437486768843673,-4.980050884878051,-0.4210983733901501
8.19,-8.448586221405817,-4.95999761431176,-0.43586513468707766
8.2,-8.433107299498172,-4.985053517221797,-0.44935256735447954
8.21,-8.39909458832615,-5.040898649755442,-0.4623455432969441
8.22,-8.356426604009036,-5.107424718710909,-0.5028866729170208
8.23,-8.315956924261053,-5.165946373690903,-0.571144990152358
8.24,-8.28343798107871,-5.209812044744326,-0.6414718302620199
8.25,-8.26616002524507,-5.234168327082681,-0.6665959909127888
8.26,-8.277359396934882,-5.220047731007066,-0.6373660214678416
8.27,-8.317020846273694,-5.1636620259529495,-0.5761785559835817
8.28,-8.370113218833554,-5.081807639628291,-0.5334703389573275
8.29,-8.4137175280021,-5.008764405959014,-0.5392429926855146
8.3,-8.425605190958525,-4.98537074766796,-0.5704361440584257
8.31,-8.40692984364621,-5.0134418546207185,-0.5989792747114567
8.32,-8.383093868958943,-5.0543890186223885,-0.5888809978845239
8.33,-8.368619300293647,-5.080606435963715,-0.5690881668932405
8.34,-8.356235351514481,-5.0973283913227165,-0.6004247959801068
8.35,-8.330267368844503,-5.12830858483676,-0.6894325953526614
8.36,-8.29703828233462,-5.170486268361586,-0.7707832438878028
8.37,-8.279865879822841,-5.1978946882735775,-0.7719539366916646
8.38,-8.28713932064971,-5.194994588914329,-0.7104990363478161
8.39,-8.32046017554441,-5.150101216886295,-0.6445063428725617
8.4,-8.359477160492107,-5.088797919117368,-0.6267169199818536
8.41,-8.394290751066515,-5.028062618497948,-0.6511057750265591
8.42,-8.408682298702562,-5.001676652585267,-0.6690188008276686
8.43,-8.393636629573498,-5.027964896244425,-0.6606903379881056
8.44,-8.359479105902397,-5.084513077921633,-0.6606440779888233
8.45,-8.312826266001975,-5.154079530276486,-0.7079392894012877
8.46,-8.276995954108143,-5.203288746968817,-0.7658860197659697
8.47,-8.271079235967912,-5.210775919462392,-0.7793882880653407
8.48,-8.289153335912314,-5.190009013107638,-0.7234138025513633
8.49,-8.330159165608727,-5.135566638754804,-0.6347122805364667
8.5,-8.37787419614483,-5.062511263028432,-0.5927827238595285
8.51,-8.416972317714771,-4.992410196609345,-0.6321729129090456
8.52,-8.431441524616003,-4.961834700532529,-0.6789899450986314
8.53,-8.405083490899289,-5.005864425572006,-0.6824676103849888
8.54,-8.339615566668213,-5.113408607615608,-0.6870440088737321
8.55,-8.272194247498142,-5.222464728621053,-0.6820379494278819
8.56,-8.246137996526882,-5.263492303055393,-0.6834383804252488
8.57,-8.277935385214967,-5.2117510122961495,-0.6951086774092531
8.58,-8.339690286809153,-5.110708838136364,-0.7063567709861824
8.59,-8.386596784647637,-5.031626740684479,-0.7192395323510032
8.6,-8.40049764650096,-5.007299498409603,-0.7272803847124959
8.61,-8.397862779099752,-5.015658572154627,-0.6995229234977939
8.62,-8.391903593414787,-5.030474853393081,-0.663713236833168
8.63,-8.369132382946079,-5.064068616969444,-0.6949192054615337
8.64,-8.324879225294024,-5.125777722558001,-0.7694854397132993
8.65,-8.278495930669258,-5.188218609830303,-0.8475173503788849
8.66,-8.257070181848308,-5.218516293163569,-0.8707196240788954
8.67,-8.274904371702322,-5.198769925110303,-0.8177963730912208
8.68,-8.322392962255964,-5.13482416596207,-0.7353531661774053
8.69,-8.372976681805659,-5.056178791208806,-0.7057409778542448
8.7,-8.400645914304901,-5.00565170980102,-0.736692303841029
8.71,-8.402038416504343,-4.999629845952845,-0.7614474697730771
8.72,-8.382198800620968,-5.036880567871465,-0.7340263768216053
8.73,-8.355803772275157,-5.086619290564448,-0.6906256403996951
8.74,-8.336947415333197,-5.117442146444261,-0.6909573621585984
8.75,-8.328301964506787,-5.12759258826872,-0.7193914110691639
8.76,-8.330385947051118,-5.120670034890427,-0.7441587330943921
8.77,-8.322156889445463,-5.133883190268944,-0.7452025461853252
8.78,-8.312402884734098,-5.154805943059431,-0.7087035988796723
8.79,-8.31229938958074,-5.162403080287735,-0.6523617119451459
8.8,-8.334730643668324,-5.131408528792456,-0.6092761990483867
8.81,-8.369752888310622,-5.073099032298309,-0.6174172172301909
8.82,-8.387812993261507,-5.040777758240384,-0.636798253895888
8.83,-8.388162845069775,-5.040291236239474,-0.6360639969155806
8.84,-8.36192945721154,-5.0869963717504225,-0.6090756591453834
8.85,-8.330288538696596,-5.142373475864132,-0.5767792613589806
8.86,-8.315092373071874,-5.1666777523708385,-0.5788401692124621
8.87,-8.313228756593656,-5.165840639540596,-0.6120813935491959
8.88,-8.308222815286012,-5.164082156142015,-0.6899452718834788
8.89,-8.28498494858609,-5.19504692880342,-0.7354039119846046
8.9,-8.267794321660709,-5.230022665255402,-0.6786588213392153
8.91,-8.285377473936105,-5.214625490860329,-0.5745841077460762
8.92,-8.340187176473588,-5.135191081892516,-0.49083991008652994
8.93,-8.404841186270069,-5.024966616842167,-0.5277186511424142
8.94,-8.427865809428722,-4.9790525926313585,-0.5919603499705102
8.95,-8.403624003050545,-5.019044598297148,-0.5983990779679347
8.96,-8.34681950772196,-5.117051376559764,-0.5622443231276671
8.97,-8.293036898558947,-5.208322345674117,-0.5187296431638375
8.98,-8.262117512467904,-5.254129280951487,-0.5492767452743242
8.99,-8.26601810360147,-5.241146221537795,-0.6110245090934434
9.0,-8.296236722332505,-5.187758631040289,-0.6556071044592492
9.01,-8.324062085606366,-5.146043652942565,-0.6307232482925735
9.02,-8.352948265650161,-5.110497243133176,-0.5294717853976202
9.03,-8.385579883288257,-5.066571197439847,-0.4266203723673401
9.04,-8.411623676613319,-5.020749160788023,-0.4547589496986378
9.05,-8.410968789618458,-5.016796171244285,-0.5072251574498062
9.06,-8.372970771418485,-5.076834165956113,-0.5373375863205477
9.07,-8.323865500460162,-5.1564264974786695,-0.5424908948442664
9.08,-8.282434887745538,-5.223402737054325,-0.5362468272483675
9.09,-8.265349729383267,-5.251656493523774,-0.5238328626087467
9.1,-8.284334515047656,-5.22255252358118,-0.5141513031018523
9.11,-8.33263493591096,-5.146066981810221,-0.5043684107516485
9.12,-8.384956648234004,-5.061843393884576,-0.4903032376445449
9.13,-8.403287580351508,-5.032381263214652,-0.4796827486494002
9.14,-8.381421175239097,-5.069607051768693,-0.4698191573511378
9.15,-8.34994924352552,-5.122442028296303,-0.45733267988959325
9.16,-8.342864550505766,-5.136606790253908,-0.4262346043883002
9.17,-8.36995391171097,-5.095796546511171,-0.3830718225504213
9.18,-8.391448118780989,-5.0588269716258445,-0.4014810026441694
9.19,-8.368749814989135,-5.087895361026341,-0.49455410628282914
9.2,-8.310276667702972,-5.171847674954384,-0.6001391768489
9.21,-8.264980677821281,-5.241945624087036,-0.6171303906063516
9.22,-8.277124762084553,-5.234930349463729,-0.5005946405248969
9.23,-8.338424293439958,-5.147451069264145,-0.37689317501569164
9.24,-8.40560791167629,-5.0358089559565125,-0.39373880003706635
9.25,-8.436964537554976,-4.977595020917727,-0.45949680868771464
9.26,-8.419227695958671,-5.004448975759139,-0.4910391534407483
9.27,-8.378788106162718,-5.076432963878571,-0.4410793944213527
9.28,-8.34050441213609,-5.1432800415457045,-0.3906590039272066
9.29,-8.31856228216123,-5.178578265480558,-0.3909448736972635
9.3,-8.307366445705892,-5.187932409486968,-0.49069854958281495
9.31,-8.300276543586575,-5.188978191287615,-0.5918508685806568
9.32,-8.298992140630473,-5.1930415355931245,-0.5727691326757277
9.33,-8.309970605174684,-5.184980571521444,-0.47794159078441395
9.34,-8.339873096893081,-5.144060861713986,-0.3928793774067899
9.35,-8.38156335186185,-5.073389979342516,-0.4209098507676086
9.36,-8.410750560033149,-5.016270654233498,-0.5162062186763333
9.37,-8.412329477477401,-5.01219236333698,-0.5295334427898282
9.38,-8.384772213424046,-5.0621783796488735,-0.4877851079817513
9.39,-8.328787753329873,-5.155837613521275,-0.46528600013704213
9.4,-8.275594027495927,-5.236535512112186,-0.5116610388389621
9.41,-8.25922773573228,-5.253295183912064,-0.5972922391975382
9.42,-8.289087964833504,-5.198163654181305,-0.6621412348916832
9.43,-8.337069730540897,-5.120729887322907,-0.6638878625936008
9.44,-8.362683682505459,-5.085428186391381,-0.6109713791105564
9.45,-8.370520612701164,-5.0803968345150485,-0.5418516131814549
9.46,-8.384537612528126,-5.060640366113708,-0.5091844467439675
9.47,-8.399338110400624,-5.031515392853855,-0.5518741963777127
9.48,-8.394214248942445,-5.032333001329845,-0.6176644762473665
9.49,-8.359222712533855,-5.08090625022301,-0.6897929969898062
9.5,-8.306374275286315,-5.159796716957896,-0.7405836556625185
9.51,-8.256379982199824,-5.2377947334991015,-0.7531302881994087
9.52,-8.24246593818564,-5.265072602182143,-0.7142725126510236
9.53,-8.274583206496413,-5.221118106448181,-0.6626036835557683
9.54,-8.336541631968961,-5.12467904361146,-0.6372634053842422
9.55,-8.402208562810037,-5.016870971238707,-0.6340565064842107
9.56,-8.439350875549374,-4.95294800027457,-0.6448987560117099
9.57,-8.429990868640614,-4.963977678268324,-0.6801712136515895
9.58,-8.383575328684305,-5.033182774882544,-0.7414788477977604
9.59,-8.325019591599919,-5.121116535307386,-0.7973700667171879
9.6,-8.275795420919447,-5.196388576413555,-0.8235809515700714
9.61,-8.252842685381035,-5.234856361185798,-0.810601298263396
9.62,-8.257391707807358,-5.230063168214913,-0.7949338221492176
9.63,-8.282720400003718,-5.1872480741813485,-0.8111968562334869
9.64,-8.316278872808487,-5.1277449433433615,-0.8454442437644465
9.65,-8.354435916434218,-5.0654458081537115,-0.8446644743875924
9.66,-8.384205119756322,-5.023110799521555,-0.8020811063057685
9.67,-8.39046401282111,-5.02099439883902,-0.747573776899034
9.68,-8.381490777438277,-5.04238074859931,-0.7035976343905344
9.69,-8.357105251526221,-5.079201318368605,-0.7276020640830743
9.7,-8.314896261006128,-5.136853690504462,-0.8007014959995026
9.71,-8.252134170946173,-5.223882258226663,-0.8828944770311181
9.72,-8.205318853471265,-5.2934921070003975,-0.9064322747805469
9.73,-8.223511383751331,-5.2786985376210405,-0.8186730283979987
9.74,-8.303275265454428,-5.170891232602286,-0.6920116934873407
9.75,-8.391121659162785,-5.028484029564268,-0.6840263954015952
9.76,-8.433186502511488,-4.949760858217281,-0.7423677890495427
9.77,-8.41920591609622,-4.967530550084267,-0.7806910059289557
9.78,-8.373299686394269,-5.046611433495328,-0.764928450614282
9.79,-8.32612873029765,-5.135711510733364,-0.6835487530710372
9.8,-8.292536408445068,-5.192632764796812,-0.6627554710047974
9.81,-8.264980439729893,-5.2251716159349035,-0.744951706029968
9.82,-8.25040906392932,-5.234118595764543,-0.8388662752172316
9.83,-8.261827450849037,-5.2131303943910545,-0.8571134906157006
9.84,-8.298524215089339,-5.1672045456424485,-0.7746642477460279
9.85,-8.346696277879879,-5.102524085338525,-0.6815271118892783
9.86,-8.385718993104618,-5.041005263747069,-0.6612617114609782
9.87,-8.412057017942649,-4.992637736531195,-0.6930888066901161
9.88,-8.426191989203037,-4.965181769392456,-0.7187006628644893
9.89,-8.421125600819225,-4.974594016699645,-0.7126648851292404
9.9,-8.392499936706855,-5.023114272220336,-0.7089506210372246
9.91,-8.3469883725781,-5.091899876785329,-0.7538478263606612
9.92,-8.318272503144353,-5.12941142585898,-0.8153535004462588
9.93,-8.313889952886175,-5.126933161395437,-0.8737621538164557
9.94,-8.318106284277544,-5.11595780935575,-0.8980161203152766
9.95,-8.317621585220586,-5.1206764470538015,-0.8750439531096658
9.96,-8.316801572990512,-5.129509780473761,-0.8298979523803669
9.97,-8.335333539357858,-5.101539015555289,-0.8159807083750673
9.98,-8.370988166020496,-5.03848338046479,-0.841856623471952
9.99,-8.402654427788809,-4.981130280755778,-0.8679819085912465
10.0,-8.409400403712281,-4.968270641351044,-0.8766794368994743
10.01,-8.397375003424878,-4.990876191240975,-0.8632784123470613
10.02,-8.385470280127924,-5.014979864357011,-0.8390277446744265
10.03,-8.376893975658382,-5.030391715221934,-0.8325345456676209
10.04,-8.364607950513655,-5.04566409064742,-0.8627184556959515
10.05,-8.346538573608925,-5.067419595526723,-0.9089522818079163
10.06,-8.344940585387052,-5.06944350147393,-0.9125473849568446
10.07,-8.36943894479464,-5.037014398185459,-0.8658602053798358
10.08,-8.396934944336957,-4.996848584575132,-0.8323995197174812
10.09,-8.39981410561894,-4.98525708055729,-0.8712724679660246
10.1,-8.368998767366119,-5.0202557555322125,-0.9610859028100347
10.11,-8.330128866625984,-5.079303930950654,-0.989273919421595
10.12,-8.314601312700216,-5.117334227441864,-0.9209277421568881
10.13,-8.331495778225491,-5.106884066454136,-0.8206036333939866
10.14,-8.366990669985798,-5.053401963631886,-0.7908145047576132
10.15,-8.398391178316574,-4.989241055274481,-0.8609115554697797
10.16,-8.412243699618559,-4.954148951380439,-0.9276261840003176
10.17,-8.407008493917667,-4.964742802582838,-0.9182804776385508
10.18,-8.389949874391242,-5.0070532837572035,-0.8398537228392144
10.19,-8.374593004258038,-5.045053448090786,-0.7635044508744729
10.2,-8.376915358179078,-5.040805460996528,-0.7663716105712876
10.21,-8.390200897291773,-5.010096062764778,-0.8201675771596364
10.22,-8.402607178929001,-4.985821750686857,-0.8414549670571935
10.23,-8.401288498788153,-4.995189594377805,-0.7971973262482401
10.24,-8.382279443526675,-5.037034101981415,-0.7310009331120209
10.25,-8.365193460248916,-5.068390771099192,-0.7107809171013642
10.26,-8.359372868188851,-5.073355392738944,-0.742844473737432
10.27,-8.362577131952504,-5.061093904610763,-0.7889671816362487
10.28,-8.3628278897362,-5.060232454739554,-0.7921074749182362
10.29,-8.35336088624196,-5.08719449883787,-0.7135237656194395
10.3,-8.362557219933942,-5.086144145228176,-0.6053033822712537
10.31,-8.39765870092909,-5.033072464084253,-0.5624935521040006
10.32,-8.440367296223311,-4.95639035883227,-0.6017029344492149
10.33,-8.459780667562352,-4.913680968227225,-0.6758107371552468
10.34,-8.43698815962523,-4.9506679969753185,-0.6907647985025677
10.35,-8.395779907687102,-5.028771365513226,-0.623708035180542
10.36,-8.354874628923051,-5.1054717683031825,-0.5459035970017558
10.37,-8.339706665936486,-5.133495093177762,-0.5165897499070365
10.38,-8.354525790057806,-5.105036003512008,-0.5563601312694645
10.39,-8.386017251752454,-5.047684578962862,-0.603769961787275
10.4,-8.424823683615164,-4.984219742644664,-0.5906138626836649
10.41,-8.459094692606794,-4.935387779300992,-0.5030036530841623
10.42,-8.477779743473782,-4.910201039820531,-0.43225954429134567
10.43,-8.47633695091084,-4.910801150411267,-0.4533877650068314
10.44,-8.459856465795834,-4.935114351672929,-0.4952776477838238
10.45,-8.431209347267645,-4.981733204964239,-0.5163549358683159
10.46,-8.393783820497559,-5.04446813621135,-0.5166555700214939
10.47,-8.361982923020186,-5.098562271633269,-0.501576768845117
10.48,-8.360538603261254,-5.101939022365018,-0.491872277256659
10.49,-8.398938194030096,-5.038841655599669,-0.48640799984473454
10.5,-8.463254548214117,-4.932172771991292,-0.46236035514118917
10.51,-8.511437175325273,-4.852884998922368,-0.41678147041696034
10.52,-8.516818261020829,-4.845430124019798,-0.3948818580848173
10.53,-8.484678526828226,-4.898751899264675,-0.4258865975657818
10.54,-8.442898243971857,-4.966695933732243,-0.4672751794951336
10.55,-8.413966572429407,-5.013362032636199,-0.49122660848349636
10.56,-8.396214500637617,-5.0410925688631165,-0.5110151130159812
10.57,-8.377885070145709,-5.065989482066334,-0.5624708439050338
10.58,-8.358772865371087,-5.091325493331498,-0.6157016615695796
10.59,-8.354811860583842,-5.097966240843582,-0.6149824386237503
10.6,-8.38679537886614,-5.054890918781066,-0.52673672376529
10.61,-8.444274974531185,-4.967979137377533,-0.42434394799036396
10.62,-8.507562104372726,-4.859013786233628,-0.4231059846922616
10.63,-8.541662592587205,-4.79493275683,-0.4670144626247709
10.64,-8.523736006884851,-4.823648724348402,-0.49812527264281375
10.65,-8.480260269610456,-4.900918034228685,-0.484875470635139
10.66,-8.423634475008294,-4.998682282412988,-0.4731986351179089
10.67,-8.374769403488715,-5.077146947511307,-0.5048427059555696
10.68,-8.344083841207395,-5.11887839649071,-0.5851018613941861
10.69,-8.331082639816758,-5.130374669938596,-0.6647159038312416
10.7,-8.350650885216414,-5.096891527718802,-0.6770445150631665
10.71,-8.381089500695392,-5.057143301219669,-0.5927495646019303
10.72,-8.41854967682825,-5.004350936217408,-0.5032930614457813
10.73,-8.458381858959283,-4.938812103858795,-0.48323319499664424
10.74,-8.491471003363978,-4.880712936986962,-0.4933609598624926
10.75,-8.526328847539666,-4.8190071176674785,-0.49865216341244667
10.76,-8.527571833594095,-4.815258461167028,-0.5139561674081626
10.77,-8.489578835319696,-4.876742539051398,-0.5601389102866124
10.78,-8.418721044666876,-4.987620950993027,-0.6450902299336274
10.79,-8.352231266180409,-5.09240985609327,-0.690094982858858
10.8,-8.340266558691875,-5.1142116915242415,-0.6746145916258983
10.81,-8.37273437522683,-5.063406846188752,-0.6550510142834534
10.82,-8.429501585076258,-4.971535973030526,-0.6296170780471444
10.83,-8.477060910607015,-4.88832966367299,-0.6428098027353083
10.84,-8.499526873812233,-4.847147994946174,-0.6583372481622155
10.85,-8.503853735659256,-4.839927959137856,-0.6557032343468889
10.86,-8.499205080441863,-4.8536971269198,-0.6126324190894695
10.87,-8.496331538229601,-4.86311301940987,-0.5768604701511971
10.88,-8.477954619103908,-4.889827200919836,-0.6196601653991066
10.89,-8.44174405378016,-4.940510557611416,-0.7055755169915647
10.9,-8.411632725994398,-4.982967839389699,-0.7645017231631192
10.91,-8.408588712997059,-4.989612320778794,-0.7548336763719246
10.92,-8.442799566269809,-4.943598602349969,-0.6705556848409667
10.93,-8.485373625207364,-4.879914215298328,-0.5954982150933077
10.94,-8.51745594451365,-4.822744802014612,-0.603517430828671
10.95,-8.521483776440268,-4.8111608373787895,-0.6382513954399096
10.96,-8.497371278703758,-4.851100285454407,-0.6570906688067224
10.97,-8.450778602462595,-4.929874742605725,-0.6713469925982567
10.98,-8.394204233942435,-5.020029466591364,-0.711729193320703
10.99,-8.361133554004466,-5.068438099969848,-0.7567060548065481
11.0,-8.36657515297707,-5.056278486258841,-0.7777099277662826
11.01,-8.402667406971458,-4.999601852583766,-0.754607509193289
11.02,-8.44050452024503,-4.944112783429518,-0.6956109291473602
11.03,-8.466303970510824,-4.906358861823515,-0.6478195899680869
11.04,-8.48441341046352,-4.8782401609054915,-0.6227982795029259
11.05,-8.498855815362393,-4.850727365119508,-0.640524504343839
11.06,-8.500340601134821,-4.843839741312517,-0.6721634021276776
11.07,-8.480503896736531,-4.876976986136755,-0.6830091433941622
11.08,-8.4354956052591,-4.951451228013993,-0.7041430592703295
11.09,-8.376767214657715,-5.044183045984644,-0.7458447242108464
11.1,-8.338212162444636,-5.099398277672603,-0.8004571772627864
11.11,-8.337946148734487,-5.096710318957625,-0.820039818350967
11.12,-8.374324760689031,-5.042933637097824,-0.780854052449602
11.13,-8.41457297769058,-4.977984220265013,-0.7648368611554552
11.14,-8.428912462266153,-4.9496757992722795,-0.7902582018629332
11.15,-8.428744558837543,-4.946375210824734,-0.8123801513058309
11.16,-8.420445532035117,-4.966005440004816,-0.7778357166856337
11.17,-8.427353395686277,-4.96516850806562,-0.7050971270199073
11.18,-8.441439674972347,-4.942498097648015,-0.6957096504074095
11.19,-8.447020360643952,-4.924367238068389,-0.7539339465229321
11.2,-8.434611576537147,-4.9314861357688295,-0.8411144071433195
11.21,-8.39318673521958,-4.987614252256922,-0.9208843376221426
11.22,-8.349089877711645,-5.0580074663172025,-0.9376707806570005
11.23,-8.326181844942871,-5.105517835136321,-0.8821947700247835
11.24,-8.345010770474408,-5.087726776303789,-0.8033089368554006
11.25,-8.401349728894454,-4.999775290364302,-0.767478920169876
11.26,-8.45416773852541,-4.908649984473508,-0.7760075173779852
11.27,-8.480738613749685,-4.857721797099351,-0.8062183715608914
11.28,-8.482057486447053,-4.8545766356719495,-0.8111660960477876
11.29,-8.464456241543752,-4.889247719980028,-0.7863021367767589
11.3,-8.43123249448488,-4.94490577395094,-0.7948095186984822
11.31,-8.38562168752661,-5.014297110950031,-0.841343754815225
11.32,-8.354506690687515,-5.056679704288467,-0.8958676911392189
11.33,-8.356615815830512,-5.052669274505302,-0.8983483967438932
11.34,-8.39310910888922,-5.004242356603197,-0.8257907612538198
11.35,-8.442420050965977,-4.934075613754362,-0.7415942477109542
11.36,-8.482650877943218,-4.867894115289139,-0.719543854617371
11.37,-8.502482116999502,-4.823270855572389,-0.7834289966756239
11.38,-8.486048896955431,-4.843405453695276,-0.8353815640377253
11.39,-8.441801743775828,-4.921673840303757,-0.8257475532024291
11.4,-8.390336415756643,-5.0134345245657,-0.7982957827126494
11.41,-8.352183147540275,-5.075080101510135,-0.8089485791054956
11.42,-8.339385320608296,-5.088069477990531,-0.8581181068384087
11.43,-8.371644566212577,-5.040271885035328,-0.8210498154709166
11.44,-8.46028382090939,-4.911836329424503,-0.6803774548821848
11.45,-8.532701852427454,-4.7774323193886215,-0.7333890588908178
11.46,-8.503806378065292,-4.806610925569226,-0.8576190978788291
11.47,-8.32778815936267,-5.0625992228660746,-1.069033867592176
11.48,-8.045072797258793,-5.458014777780578,-1.2751587052587086
11.49,-7.831908410917269,-5.771139398042681,-1.227793533519949
11.5,-7.87115034821317,-5.774507191899664,-0.9168049963077453
11.51,-8.120573613297953,-5.44084951754441,-0.7544587327789095
11.52,-8.416001525611613,-4.9656054827885185,-0.8039481881298255
11.53,-8.624861012997126,-4.598597209892878,-0.7924597802512179
11.54,-8.687446605373813,-4.473372108721732,-0.8283918347224285
11.55,-8.631547583093546,-4.57883981230206,-0.8317796313072912
11.56,-8.519429363049026,-4.791491141084957,-0.7852834579905026
11.57,-8.387900926477684,-5.024954390736014,-0.7449870501848722
11.58,-8.289492379623876,-5.179313599823588,-0.7920959230407184
11.59,-8.24379782384943,-5.242189896610423,-0.8535369229050975
11.6,-8.220929654349613,-5.2767928850788,-0.8604086381939892
11.61,-8.283516806310438,-5.196096083724264,-0.725203205262887
11.62,-8.453808519342779,-4.939582267535003,-0.5268602547575367
11.63,-8.616942917368718,-4.646217805899868,-0.5654631109220274
11.64,-8.670005082296393,-4.5284717866105195,-0.6967635510025006
11.65,-8.57044510915998,-4.68754899428753,-0.8476803228183007
11.66,-8.387759267532568,-5.000924195427853,-0.881169059203595
11.67,-8.23877744154351,-5.267943495602908,-0.7234185083977708
11.68,-8.232382150297466,-5.301855443126038,-0.5304852022497798
11.69,-8.343637576153984,-5.117496119951657,-0.5881959757488382
11.7,-8.477000390279919,-4.8802388301211,-0.6939985676478954
11.71,-8.55494843501946,-4.732133105456846,-0.7680820031077116
11.72,-8.543882015226249,-4.756454928029008,-0.7337376313723507
11.73,-8.483657660516219,-4.882922195885384,-0.59051416989623
11.74,-8.413383764942301,-5.005556231678553,-0.5718894847605938
11.75,-8.382110476958104,-5.049309169769594,-0.6431693417590204
11.76,-8.395253648758814,-5.016474401003704,-0.7231040409482802
11.77,-8.417794689333787,-4.971693259998469,-0.7697964709569591
11.78,-8.439305819943856,-4.943186114215708,-0.7153712180040555
11.79,-8.445351159949857,-4.94458853615775,-0.6290724274139075
11.8,-8.436042789769147,-4.965601934673564,-0.5879228506191222
11.81,-8.423141843901877,-4.977864195206782,-0.662286746049905
11.82,-8.406233616161435,-4.989700066992347,-0.7780533856735654
11.83,-8.33336777968684,-5.093373183224819,-0.8754404784961255
11.84,-8.196353984249248,-5.3103718320178634,-0.8775904626549067
11.85,-8.12559181491896,-5.44502307934038,-0.6955094816650854
11.86,-8.216139168849224,-5.322016314893265,-0.5584151911997619
11.87,-8.409346431051569,-5.006793901590451,-0.5918870925693958
11.88,-8.5620215595422,-4.735558735856541,-0.6523149028751992
11.89,-8.5963558763769,-4.659993129859277,-0.7456067966506933
11.9,-8.538146288607416,-4.771552444017151,-0.696206226191232
11.91,-8.446550560206008,-4.950463453513832,-0.5564126087504191
11.92,-8.357981116881954,-5.09874463419162,-0.5563614112263646
11.93,-8.2677687225497,-5.229748334570243,-0.6727704833175879
11.94,-8.172321445070764,-5.3625744456021005,-0.7871894005628091
11.95,-8.122333599748245,-5.434947147258091,-0.8111571808814341
11.96,-8.147641660826022,-5.41061385620868,-0.7105586571656725
11.97,-8.226752974948697,-5.303925094917239,-0.5907769655854354
11.98,-8.32165561484967,-5.159074614344167,-0.5458986740999827
11.99,-8.39573871891356,-5.031846986849487,-0.597355607294653
12.0,-8.45385472043847,-4.931760818517041,-0.6139507918161775
12.01,-8.491740500367237,-4.876083126726339,-0.5310681156294509
12.02,-8.479612424960436,-4.899964577248467,-0.5035271577840208
12.03,-8.388553443962824,-5.0430720387963115,-0.5914528199808166
12.04,-8.226860754128024,-5.281521534940743,-0.7477661689919128
12.05,-8.065313271742125,-5.503058476405937,-0.9074631085670979
12.06,-7.993870368466847,-5.607343403716722,-0.9066702977754155
12.07,-8.044027461681086,-5.55763181339322,-0.7482173329887283
12.08,-8.185657502870587,-5.366479104749921,-0.5811321303385407
12.09,-8.361384983818692,-5.093607942522827,-0.5330019560067644
12.1,-8.504010360249996,-4.849518892574918,-0.5677152505861485
12.11,-8.559610587746961,-4.7496904022298,-0.586331439916596
12.12,-8.504073116401084,-4.844361139247972,-0.6087393287826087
12.13,-8.358499592973066,-5.089015512078305,-0.6145286851375392
12.14,-8.194028035128277,-5.353095868771011,-0.5952195291995549
12.15,-8.088549446297604,-5.512838539301468,-0.5927570115459282
12.16,-8.075351449121106,-5.531351337929067,-0.6018250675480138
12.17,-8.132236170738453,-5.447197954643191,-0.6003344179266296
12.18,-8.218503331537285,-5.316657543266684,-0.5934549579502763
12.19,-8.325562391494666,-5.15377144103796,-0.5284675118473272
12.2,-8.427435417986514,-4.993464151959076,-0.45488807644312607
12.21,-8.483129046249967,-4.896538046757003,-0.47797606954117067
12.22,-8.46424881686641,-4.920527387524886,-0.5571459126414424
12.23,-8.396435809375104,-5.033744749378331,-0.5706806185110758
12.24,-8.343277460102938,-5.13000339043082,-0.4884932992178312
12.25,-8.346516704783784,-5.130896792918779,-0.4226705294739762
12.26,-8.389982465640248,-5.055026481857475,-0.4688124096208269
12.27,-8.413117272186826,-5.002944246115902,-0.5960016493145055
12.28,-8.392884582127653,-5.018779315454366,-0.732613511076826
12.29,-8.347261349948832,-5.084451261804507,-0.7997315636380876
12.3,-8.30794662551079,-5.1589357715532485,-0.726194892479943
12.31,-8.302923869767316,-5.187100971594571,-0.5641354323236943
12.32,-8.341949441765301,-5.133270796148098,-0.4783327781913418
12.33,-8.406097421987726,-5.023923700034533,-0.5119818430194725
12.34,-8.466589756919944,-4.915216213988557,-0.5694413969117372
12.35,-8.492836339360558,-4.865883006030041,-0.604224955088729
12.36,-8.467834127229583,-4.907219807055878,-0.619095473884004
12.37,-8.418299237128304,-4.993183887695612,-0.6066351501640979
12.38,-8.385575725009762,-5.051753613661273,-0.5758435607455112
12.39,-8.373566701784936,-5.0746697686145685,-0.548928968144499
12.4,-8.378417323584042,-5.071077525628163,-0.5057891427127117
12.41,-8.39562743824686,-5.046174992180717,-0.46847887541869443
12.42,-8.417011097180628,-5.011747226265322,-0.45415628860790364
12.43,-8.443171447218178,-4.96681957957193,-0.46162072472174626
12.44,-8.462589765831959,-4.930970515744173,-0.48988862002241695
12.45,-8.452375733793764,-4.9453468282793285,-0.5201987696609048
12.46,-8.4028062056243,-5.029668189460406,-0.5115476258608119
12.47,-8.347120622673074,-5.128950275124679,-0.429398659389815
12.48,-8.332604025650172,-5.161129743865862,-0.3123328847803626
12.49,-8.373363860429768,-5.098507673080041,-0.24304758649273137
12.5,-8.443091282997663,-4.980622136187542,-0.26847811382822756
12.51,-8.48455106192815,-4.903166382258171,-0.3709499244733029
12.52,-8.478750414011541,-4.906246671145655,-0.4567837458109242
12.53,-8.437284986492399,-4.980140129359574,-0.4200050080701794
12.54,-8.38763369330745,-5.072073043526333,-0.29143713399323623
12.55,-8.363407245502248,-5.117819333389374,-0.17041505569944213
12.56,-8.369192814003114,-5.109088859916475,-0.15445156732308457
12.57,-8.39988357134713,-5.054774466223138,-0.23990175780525116
12.58,-8.445204138689348,-4.976919385990418,-0.27790631045710107
12.59,-8.49565317331154,-4.8938532268726895,-0.19889142237328442
12.6,-8.535262234838001,-4.826919129780574,-0.13887772326194733
12.61,-8.540516698619756,-4.817327703187912,-0.15177395340528996
12.62,-8.51308402385456,-4.86328624481708,-0.21029334058455693
12.63,-8.475970978129729,-4.927971686696171,-0.20475992597837697
12.64,-8.456365123576665,-4.963216281172987,-0.16190725919301996
12.65,-8.468811830065597,-4.942762519357472,-0.13512622255098666
12.66,-8.486083637887562,-4.911946686605605,-0.1695114580148427
12.67,-8.48278078819591,-4.912272011370199,-0.2808705968652933
12.68,-8.470897074871594,-4.928199104392465,-0.3556704420228594
12.69,-8.478891519100923,-4.918655717054137,-0.28827394850373356
12.7,-8.520316040137287,-4.85134003916511,-0.18843727570310798
12.71,-8.576677476273767,-4.750820160650771,-0.19395144249769367
12.72,-8.609516045543034,-4.689953996255441,-0.22431302070883108
12.73,-8.588761916812759,-4.724715569695357,-0.2808508051943684
12.74,-8.512390034193958,-4.852880462351733,-0.38854040041229165
12.75,-8.406408597485697,-5.0284553208611,-0.4567036274988162
12.76,-8.305012171970079,-5.190847919353807,-0.49601745577105694
12.77,-8.244576483985169,-5.281737253019408,-0.5465939215802638
12.78,-8.235482571066955,-5.293568677791103,-0.5703512507196257
12.79,-8.274605568504846,-5.230395533677962,-0.5854261695176002
12.8,-8.394645257558809,-5.0486077121253325,-0.44200659766467265
12.81,-8.574740629147458,-4.748318361922531,-0.26314368627401236
12.82,-8.717566847406134,-4.4763098202738805,-0.3461853264053715
12.83,-8.738465445813564,-4.43538692956548,-0.3699938080586282
12.84,-8.60235237398679,-4.677459691107458,-0.5171896371277113
12.85,-8.38836719709201,-5.036209117145801,-0.6413031217479639
12.86,-8.215726308820663,-5.319386116782178,-0.6010708703927984
12.87,-8.155315858635499,-5.424126902062213,-0.4867194929158484
12.88,-8.207571961214748,-5.346506842615837,-0.46743195867563686
12.89,-8.293962963016114,-5.205939014443419,-0.5233636880231692
12.9,-8.32863271120865,-5.137114638245842,-0.641519769566725
12.91,-8.321112289328674,-5.144864905405267,-0.6780255688175012
12.92,-8.337645611564046,-5.140796627548438,-0.4662539942278217
12.93,-8.364785037860884,-5.101879745871828,-0.4137583147027038
12.94,-8.382694892430681,-5.059624205426293,-0.5454952876660242
12.95,-8.376344383460134,-5.056388136753787,-0.6623263335453557
12.96,-8.384672880646233,-5.044011603848954,-0.6522538865840039
12.97,-8.395676669282274,-5.039381925331611,-0.5343743612431529
12.98,-8.405967220213197,-5.032686014810794,-0.4253089476329717
12.99,-8.399474030647774,-5.039591714042652,-0.47032670429772105
13.0,-8.366842660756657,-5.077427957854062,-0.6188386936203504
13.01,-8.306573236000972,-5.160925837028161,-0.7305283257626467
13.02,-8.20446351842293,-5.318224264163141,-0.7547720716834444
13.03,-8.110701151703154,-5.463845083187229,-0.7282826404236473
13.04,-8.087170295050322,-5.50986654091841,-0.6390923066830089
13.05,-8.181626510142564,-5.375756135033134,-0.573671389517787
13.06,-8.333466755829766,-5.133566983349494,-0.6020295876266027
13.07,-8.439982808585421,-4.950203739649902,-0.6549033490957341
13.08,-8.46237530215979,-4.906518498159449,-0.6960267112749253
13.09,-8.429490562976813,-4.969677006006177,-0.6446772742728955
13.1,-8.408317594400279,-5.016848259518547,-0.5485719549007473
13.11,-8.393309563856457,-5.0339413618475914,-0.6177990857409845
13.12,-8.363865443484231,-5.071632682575033,-0.7028899993696817
13.13,-8.313287602266422,-5.144220168784808,-0.7719133649098975
13.14,-8.255992268157037,-5.2337910241016585,-0.7846988317295475
13.15,-8.258496475596425,-5.239123352413786,-0.7203873294280627
13.16,-8.30343051989799,-5.174085297260439,-0.6721824084731014
13.17,-8.348974531686029,-5.099725461535445,-0.676358992279217
13.18,-8.370246942031397,-5.061769477995274,-0.6983940307330899
13.19,-8.384099778725362,-5.0383304903251735,-0.7017570947224506
13.2,-8.415070345552099,-4.996742985138444,-0.6238883835969127
13.21,-8.42236893150219,-4.986772233738507,-0.6051265357548197
13.22,-8.404779408271228,-5.010192667595962,-0.6541824495865733
13.23,-8.360619016879138,-5.072636892529009,-0.7338568603593993
13.24,-8.315571228925787,-5.13830947357632,-0.7869555170215241
13.25,-8.288811594225454,-5.177812373350955,-0.8100706558903469
13.26,-8.276003904121936,-5.200322336753064,-0.7967335284769002
13.27,-8.279979020680502,-5.200439848733265,-0.7534898320218647
13.28,-8.308562783422326,-5.158968653076143,-0.7233136390613406
13.29,-8.366680591401488,-5.067518099363143,-0.6994342861111376
13.3,-8.426354717675233,-4.970397165601166,-0.6797360413033469
13.31,-8.457338626165916,-4.917063274603858,-0.6828492207102235
13.32,-8.4509742880359,-4.923148267070791,-0.7168415140828758
13.33,-8.407086352575373,-4.991538964987212,-0.758598948943637
13.34,-8.345397350898322,-5.090980630577164,-0.7786290411564385
13.35,-8.2874773269729,-5.186731673415736,-0.7654009137676944
13.36,-8.264578933930343,-5.225205100473847,-0.7512044003291006
13.37,-8.282098528640764,-5.195929371579755,-0.7610585029471878
13.38,-8.329450369026885,-5.119237981519483,-0.7638466856401098
13.39,-8.385990726613828,-5.03202298455416,-0.723837410201079
13.4,-8.417992064320618,-4.986658541779923,-0.6639788943501005
13.41,-8.42757442531689,-4.9768054744400825,-0.6145923237952994
13.42,-8.41171344766084,-5.002854922670774,-0.6203147546608027
13.43,-8.3894044863675,-5.037904208465569,-0.6382171429185498
13.44,-8.349935870050018,-5.096471733079904,-0.6886381853222008
13.45,-8.304950534739914,-5.161322907774951,-0.7474030347823111
13.46,-8.276980210420437,-5.2010642150148705,-0.7815816385517347
13.47,-8.280595586769783,-5.199381375021137,-0.753449197506155
13.48,-8.32263884691155,-5.142209118644506,-0.6789895209403667
13.49,-8.367695617591236,-5.0738926515108345,-0.6379998634045434
13.5,-8.407861065086534,-5.00834606695727,-0.6281250181979389
13.51,-8.415904215102374,-4.990468845869008,-0.6619032776541015
13.52,-8.404216408058526,-5.010963274784454,-0.6553720860307634
13.53,-8.389607708033063,-5.040160504357679,-0.617542066989372
13.54,-8.362550675384497,-5.084337478092527,-0.6221835846094004
13.55,-8.337302101638127,-5.118070259354508,-0.6814068004368209
13.56,-8.314738104522972,-5.145028652446743,-0.7510951906166244
13.57,-8.312526372656263,-5.1462358903152845,-0.7671518918002795
13.58,-8.318046165564716,-5.140181069490229,-0.7473126343421896
13.59,-8.329557063423309,-5.130174975615936,-0.6855064270974319
13.6,-8.34973493448146,-5.09981470099704,-0.6663579037530041
13.61,-8.366522536874601,-5.070152739091131,-0.6819174861789831
13.62,-8.38632275177942,-5.037584906243112,-0.6801503358232743
13.63,-8.3938948412295,-5.0281637020359575,-0.656010939728954
13.64,-8.38682094846979,-5.042830513351256,-0.6335045119646143
13.65,-8.367346072525894,-5.072473565708148,-0.6533843015420695
13.66,-8.333921325384024,-5.117718001455425,-0.7233650086290668
13.67,-8.295381565877408,-5.167665304703403,-0.8071709317640638
13.68,-8.263558001585093,-5.214928743272927,-0.8295006618320858
13.69,-8.253225202233892,-5.238378462798095,-0.7828584632879511
13.7,-8.282837223024073,-5.20285794804309,-0.7019144346473242
13.71,-8.34469155587741,-5.111285248901426,-0.6390600835215072
13.72,-8.410383706676889,-5.002273312309892,-0.6412778545699418
13.73,-8.445364934726884,-4.936540132260288,-0.6901194037381394
13.74,-8.42457899557953,-4.964874190289929,-0.7378549759431582
13.75,-8.362493274621109,-5.06708388563745,-0.7490439342907802
13.76,-8.311741113377577,-5.155531410849181,-0.7108846019298493
13.77,-8.302469255086633,-5.173731840775733,-0.68670921092853
13.78,-8.317790446916952,-5.1434259910798295,-0.7270574020430455
13.79,-8.33529515046064,-5.104509256556479,-0.7976578185763612
13.8,-8.338532519054757,-5.090555741325072,-0.8517632471657041
13.81,-8.338679843514383,-5.09246752599565,-0.8385014066347862
13.82,-8.346215548630235,-5.088841415868837,-0.7834415057822061
13.83,-8.3674024216488,-5.060109286360916,-0.7426607723808655
13.84,-8.386161041711473,-5.022114013265081,-0.7873888331320998
13.85,-8.384978601903283,-5.0127146609222875,-0.8570159981264085
13.86,-8.364922834498412,-5.037084928163664,-0.9084304110008363
13.87,-8.330128048619756,-5.090518317512681,-0.930160510861816
13.88,-8.302768763396285,-5.135674114045309,-0.9268953333469588
13.89,-8.298077111927354,-5.142748139398229,-0.9295898653479191
13.9,-8.32433821466451,-5.098482746163771,-0.9379405967026707
13.91,-8.366154923337378,-5.030527402636911,-0.9331644620300853
13.92,-8.39175868784,-4.990133213466201,-0.9204907843963068
13.93,-8.386050124843258,-4.999065152128131,-0.9235104873594051
13.94,-8.343962999422278,-5.062850583764214,-0.9557339362988481
13.95,-8.293659408310184,-5.133652690577445,-1.0147926223166401
13.96,-8.261693604463758,-5.1757453837188505,-1.0611420925185127
13.97,-8.2467377523248,-5.193937653321161,-1.088417885486653
13.98,-8.240451700252757,-5.20295337309079,-1.0929505259778005
13.99,-8.249521662738758,-5.19470475208319,-1.0624662514093315
14.0,-8.299759969613124,-5.12754602029305,-0.9942293070906025
14.01,-8.368353639262043,-5.026400881898687,-0.9340193550045041
14.02,-8.426806737400401,-4.931478815281981,-0.9153421173928581
14.03,-8.444679869071216,-4.8928812180383865,-0.9574107176880445
14.04,-8.40444668993947,-4.952073371563017,-1.004154019195389
14.05,-8.32665553803322,-5.071915810666402,-1.0516892834083436
14.06,-8.244738412394847,-5.198770359020084,-1.0789709223544246
14.07,-8.201813821492195,-5.269663876918434,-1.063445960323752
14.08,-8.217895904147614,-5.252820841919183,-1.0207033727494084
14.09,-8.281728187406403,-5.160399923083692,-0.9738047043889526
14.1,-8.357391326511406,-5.042230500785438,-0.9468457312077676
14.11,-8.414851623073567,-4.950071774002124,-0.9250842664330924
14.12,-8.44534146324547,-4.902631171943543,-0.9003612390555227
14.13,-8.441541886443039,-4.90873693593945,-0.9023581965552852
14.14,-8.402273939375146,-4.970325550166396,-0.9301367153451652
14.15,-8.342022440602033,-5.064779695646461,-0.9619239465722004
14.16,-8.283388823269355,-5.15290611538654,-1.0006686727998668
14.17,-8.248599822034203,-5.202459004069511,-1.0320680824714654
14.18,-8.246611266694233,-5.203166424147565,-1.0443245374890378
14.19,-8.274670890405977,-5.161460459638619,-1.0284603589579249
14.2,-8.322475483773337,-5.090451710047258,-0.9958319096058474
14.21,-8.369130333743232,-5.0176367271892355,-0.9746976186712587
14.22,-8.400318770885667,-4.970540522146242,-0.9476570694156108
14.23,-8.413758471369407,-4.956685946987473,-0.8997105590851436
14.24,-8.407517974561872,-4.974130071457855,-0.8612013852753694
14.25,-8.384547859429802,-5.010453323288123,-0.8740553657073716
14.26,-8.346481868907606,-5.061818412913288,-0.9386640166052652
14.27,-8.297701331764241,-5.12750061873221,-1.0123483571221292
14.28,-8.260692091295212,-5.185764251126341,-1.0187344467580766
14.29,-8.25828226991114,-5.206348549736924,-0.9275498425376755
14.3,-8.303813565538452,-5.155957676490578,-0.7905407236032598
14.31,-8.374297752483553,-5.052006205348318,-0.7172298357663026
14.32,-8.429991562211129,-4.956121558452966,-0.7350364428588597
14.33,-8.446811697582271,-4.924911110700925,-0.7529227331901064
14.34,-8.420995320772532,-4.971190615032353,-0.7364516424097136
14.35,-8.375678514879338,-5.050277872041421,-0.7147125673453499
14.36,-8.33014879963796,-5.122958426053472,-0.7296451508892839
14.37,-8.295365027381303,-5.173002979968782,-0.7722748834519384
14.38,-8.275126982851749,-5.2011353471545085,-0.8004072840419547
14.39,-8.276945273300553,-5.199338230367393,-0.7931103117051495
14.4,-8.295592111618364,-5.174549974545097,-0.7595610075310345
14.41,-8.323580365180206,-5.135536311999606,-0.7163244474039687
14.42,-8.363317184658253,-5.076136251543674,-0.6754851502398151
14.43,-8.39544509856789,-5.023814897681897,-0.6690337695363543
14.44,-8.4010822425693,-5.0121306940127015,-0.6860312310257143
14.45,-8.379846933764195,-5.048364654460199,-0.6792080856483308
14.46,-8.35029570299524,-5.100008420545762,-0.6573101469727454
14.47,-8.327279347061566,-5.137827203476518,-0.6551218887531948
14.48,-8.316390480593826,-5.15210185368257,-0.6808257511035171
14.49,-8.320518004306445,-5.140387154697989,-0.7178544448344076
14.5,-8.332440194779945,-5.119935563685409,-0.7258790198507051
14.51,-8.352677625223095,-5.091847800549438,-0.6892494605318712
14.52,-8.37608928072491,-5.059872552042597,-0.6390097221167583
14.53,-8.393110811698772,-5.035997938613875,-0.6037354731845207
14.54,-8.397413321374788,-5.030292116229712,-0.5915977682673818
14.55,-8.388837494056336,-5.044388766008811,-0.5931164567215003
14.56,-8.369178835448013,-5.071919855030457,-0.6335503568759712
14.57,-8.33460842162803,-5.11820983835182,-0.7111250423838992
14.58,-8.301383748734535,-5.164841687072502,-0.7622888010109499
14.59,-8.29463869143596,-5.179604513365287,-0.7348628460014461
14.6,-8.322074210922437,-5.14655735778693,-0.6504374358310571
14.61,-8.372953758682309,-5.071284765006451,-0.5856414450834765
14.62,-8.418894674364152,-4.99413532479368,-0.5911077276333168
14.63,-8.432759162675945,-4.965799429437206,-0.6319433780244949
14.64,-8.409897735576308,-5.000171802635926,-0.6641247050058294
14.65,-8.368354694641225,-5.068367345927523,-0.6714876315054971
14.66,-8.323649941040774,-5.140314998369225,-0.6802417436501706
14.67,-8.282888824426134,-5.200760859908767,-0.7173729905989096
14.68,-8.26326013366821,-5.225457258101639,-0.763563450988533
14.69,-8.284634575886999,-5.193121656492726,-0.7518248077736779
14.7,-8.34140200954785,-5.112205999121306,-0.6718502604047398
14.71,-8.400720698073036,-5.024874296249533,-0.5877086671989222
14.72,-8.437678717641901,-4.96480411770545,-0.5709293446478535
14.73,-8.446887570404296,-4.947796007552649,-0.5828952047935179
14.74,-8.42745455432663,-4.979702798007262,-0.5917958470804174
14.75,-8.389968155067844,-5.042173447141519,-0.5948652827351467
14.76,-8.340668210379686,-5.11986235674823,-0.6230488865132364
14.77,-8.296271404753055,-5.184771757971456,-0.6771791065239509
14.78,-8.270615625905902,-5.219512618949381,-0.7234935358591049
14.79,-8.275090419728842,-5.213432555596282,-0.7162869861642248
14.8,-8.302344118262047,-5.178912702264842,-0.6466061477825361
14.81,-8.332045163272728,-5.137941128497952,-0.589972580573387
14.82,-8.35725511798433,-5.0978440328252885,-0.5815508812488549
14.83,-8.374494107844534,-5.067394157012521,-0.5995401335267634
14.84,-8.387240803305188,-5.046204854383077,-0.600227708601204
14.85,-8.379440241865224,-5.060095746700341,-0.5920983899118402
14.86,-8.347023466154345,-5.110385226121665,-0.6166385332889567
14.87,-8.29858297053416,-5.1820330941901265,-0.6693672097545682
14.88,-8.264453101675082,-5.234419212924004,-0.6852302278181216
14.89,-8.272795289339768,-5.226975532795407,-0.639513691414801
14.9,-8.30518518368318,-5.183434748878894,-0.5696795937799842
14.91,-8.345864415296054,-5.121902129053667,-0.5307960324672183
14.92,-8.379829076402569,-5.062747849249137,-0.5622625775405015
14.93,-8.400556234507482,-5.025503759852687,-0.5874316270661547
14.94,-8.400464840950612,-5.027085453531395,-0.5752160614328334
14.95,-8.373036106724053,-5.078337670843262,-0.5209752664869127
14.96,-8.349766681410378,-5.121032625821716,-0.47563862623894265
14.97,-8.338016337729842,-5.1374498851813035,-0.5039965139272068
14.98,-8.345211905021445,-5.121320160189759,-0.5472399274119902
14.99,-8.367663605828547,-5.085640392649465,-0.536994144728988
15.0,-8.385699762117303,-5.061833074851323,-0.47679153477926794
15.01,-8.389391172546969,-5.059057427809806,-0.4408233308203431
15.02,-8.379341021639718,-5.073129366240649,-0.4690519799182731
15.03,-8.372573358421839,-5.080840476831089,-0.5052256105296127
15.04,-8.36833049215373,-5.086357466959974,-0.5199727006172937
15.05,-8.360113919495836,-5.101989624621112,-0.49838004590982943
15.06,-8.345228502828414,-5.1281468883583505,-0.47901205195055024
15.07,-8.328928791555862,-5.15248303361805,-0.5009721723079668
15.08,-8.320264988166432,-5.1633684360642365,-0.5320147893219184
15.09,-8.330500189793758,-5.148408172358966,-0.5165886039880816
15.1,-8.353570367412008,-5.116696105686189,-0.45466022061359784
15.11,-8.375022268584292,-5.086141109515984,-0.4000004038165625
15.12,-8.392646700468658,-5.058658254204669,-0.37904251582195125
15.13,-8.4075419168372,-5.036005516884622,-0.34934480327389505
15.14,-8.411026775375472,-5.032508060297656,-0.3141794675120329
15.15,-8.406410583270056,-5.042257340262309,-0.27949342402275357
15.16,-8.391665610764061,-5.0661770135611865,-0.2898702195074658
15.17,-8.357272364208157,-5.120112136271725,-0.33165452603296397
15.18,-8.298943025897723,-5.2098704873717425,-0.3914222928135982
15.19,-8.237660774564485,-5.304328234389291,-0.4170598080812661
15.2,-8.201552035590586,-5.363011119950143,-0.3772940961401434
15.21,-8.208999570247135,-5.3578628469516625,-0.27315530830967927
15.22,-8.281658173278112,-5.249237478066506,-0.16282881539046842
15.23,-8.383614176139073,-5.083735246833365,-0.19164699637652852
15.24,-8.4525456094591,-4.965908889221073,-0.25029877687921376
15.25,-8.445103123398498,-4.975796302753227,-0.30287800872971044
15.26,-8.380183852118329,-5.084416973368677,-0.29980458461467563
15.27,-8.299840217370095,-5.217283668024582,-0.2460504506148769
15.28,-8.252789450568862,-5.29383065406279,-0.19074215829571856
15.29,-8.26803438005069,-5.2702463129938835,-0.185393556877526
15.3,-8.30495704570252,-5.209827877967957,-0.23480329544139494
15.31,-8.344015048749144,-5.14500516919098,-0.2760249988931241
15.32,-8.371951533410524,-5.099292944752386,-0.27900079555255186
15.33,-8.389536589568966,-5.073994445664259,-0.20028846260939287
15.34,-8.390162747544128,-5.075118354982379,-0.13594965703378106
15.35,-8.364251866103388,-5.116415860900329,-0.1779577755786721
15.36,-8.340323276314203,-5.151975566405863,-0.25707917983845907
15.37,-8.326542616340138,-5.172236420888364,-0.29486719017819907
15.38,-8.340955203187688,-5.151287331841324,-0.2509010286291867
15.39,-8.378745383168928,-5.092361863629366,-0.18566746244847968
15.4,-8.415275692501753,-5.03253929881303,-0.16393209307608408
15.41,-8.434142493699616,-4.998025840448255,-0.23479601005949002
15.42,-8.42212832902051,-5.015360874146597,-0.29016240445535535
15.43,-8.397055714896794,-5.058322673244037,-0.2704485397591966
15.44,-8.372853991642984,-5.100405483075824,-0.22690330085419513
15.45,-8.36204377615547,-5.118587146987385,-0.2160277295236596
15.46,-8.366089726339775,-5.108890328710898,-0.27948261971975963
15.47,-8.368101360445904,-5.101504099386006,-0.34624553805383873
15.48,-8.365713052314607,-5.104339716093741,-0.36186698462518396
15.49,-8.35345953396925,-5.126057253183755,-0.3370874297584989
15.5,-8.346741522540508,-5.138740914055917,-0.309240019007468
15.51,-8.352087190712833,-5.129014670844203,-0.32589769280872394
15.52,-8.36617525805059,-5.10368802745599,-0.3603436278746487
15.53,-8.382443465520485,-5.077061020047337,-0.35842151245314025
15.54,-8.382176010230756,-5.079068169124735,-0.33550146817944454
15.55,-8.377564494526556,-5.088071158612089,-0.31355229346359736
15.56,-8.374132738820327,-5.092290369717741,-0.3356410794355004
15.57,-8.361330069767565,-5.107560221369805,-0.4134943701761355
15.58,-8.328124287331415,-5.154021378985521,-0.49857318511422594
15.59,-8.29285117336798,-5.207963399241663,-0.5252879861413847
15.6,-8.290450909687152,-5.217819535900176,-0.4614159190980068
15.61,-8.3178963273339,-5.178377390874087,-0.4085845848270618
15.62,-8.362413626295515,-5.103622063621748,-0.4390224649484719
15.63,-8.385274382465509,-5.0566203705675985,-0.5363283574173807
15.64,-8.373614539887043,-5.066288585922729,-0.6208401017626116
15.65,-8.341587090272572,-5.118090611037834,-0.6269112851877846
15.66,-8.310464239221988,-5.173561629334643,-0.583704449084011
15.67,-8.290879772282661,-5.205411736291638,-0.5788246218883522
15.68,-8.279571479174583,-5.215117913072737,-0.6486282614471187
15.69,-8.277601454165678,-5.204678053066254,-0.7501584318988537
15.7,-8.283216365642978,-5.188638414741137,-0.7978213995266769
15.71,-8.305562808517907,-5.158258816305423,-0.7615402223935553
15.72,-8.332082759544058,-5.121761015383422,-0.7171392214720158
15.73,-8.343650113635102,-5.102473641135283,-0.7200078488254656
15.74,-8.341287561852507,-5.099503872908062,-0.7669267121460325
15.75,-8.3265280281073,-5.1193860397171544,-0.7944599332833552
15.76,-8.32308941461361,-5.127293121135683,-0.7793619309127489
15.77,-8.325373288205736,-5.125098514388138,-0.7692521432813709
15.78,-8.332356396752225,-5.107632543897943,-0.8084473267282836
15.79,-8.339328260977807,-5.084460194057682,-0.87972886276625
15.8,-8.334987064225244,-5.083992649198311,-0.9226770400094865
15.81,-8.329669714378118,-5.097344319945793,-0.8962251678120791
15.82,-8.33552509261344,-5.10154206379166,-0.8138755072185407
15.83,-8.369505960967574,-5.055983726971031,-0.746693813818475
15.84,-8.410008452002469,-4.981582138725934,-0.7903493200935424
15.85,-8.426554600093125,-4.940045233576854,-0.8710467239487932
15.86,-8.405629821953637,-4.9629394278902765,-0.9399298028714994
15.87,-8.355117627874849,-5.042361542060927,-0.9672440003376995
15.88,-8.320404353476661,-5.109362371571074,-0.9136310704721734
15.89,-8.324709512172102,-5.1143065623575685,-0.8441867089814563
15.9,-8.363790050577386,-5.052529776875642,-0.829353403960929
15.91,-8.401442264514145,-4.981779006988555,-0.8758462044576236
15.92,-8.406668390544631,-4.961858414890783,-0.9370258435342755
15.93,-8.38550719258127,-4.995104107593577,-0.9495388316271326
15.94,-8.357046016363313,-5.050917134000079,-0.9039639246906387
15.95,-8.346701683119722,-5.078970290988068,-0.8408129314653443
15.96,-8.35344176130034,-5.066718174247659,-0.847348332884216
15.97,-8.348333342967964,-5.063588472604288,-0.9137127729895294
15.98,-8.325514494574008,-5.090960158151148,-0.9684778383732676
15.99,-8.310922823543615,-5.1170493274647795,-0.9550694657770382
16.0,-8.332363532632609,-5.103338286489768,-0.8334758745788327
16.01,-8.371615186183146,-5.053255988162109,-0.7415100245503926
16.02,-8.406504390009832,-4.990441444900251,-0.7713903590945802
16.03,-8.412414246712265,-4.968588393648707,-0.8449578198609367
16.04,-8.381637336898402,-5.014968467454048,-0.8756600683136928
16.05,-8.33934058473616,-5.0931851878372125,-0.8261354555881598
16.06,-8.312399610226352,-5.150533944248562,-0.7384737908386847
16.07,-8.304718832705513,-5.16820382215197,-0.7008743442330099
16.08,-8.304291267443283,-5.1596732900406685,-0.7647076637097207
16.09,-8.303583123187714,-5.148658353472184,-0.8438814310687588
16.1,-8.317497323861463,-5.130289487674704,-0.8158941358482762
16.11,-8.353231543256873,-5.0904882613739,-0.6913271474891203
16.12,-8.391559252453105,-5.036674534214249,-0.6191444050095578
16.13,-8.411283274235776,-5.000796194097734,-0.6410555443979549
16.14,-8.39540342828549,-5.017045686794597,-0.7179045569238425
16.15,-8.353542717875259,-5.083801744254515,-0.7361245009855072
16.16,-8.3145975281016,-5.15311855838797,-0.6937768649115905
16.17,-8.295411482747026,-5.192306328992324,-0.6293553296444463
16.18,-8.302169541846066,-5.183423470804056,-0.6128014204896868
16.19,-8.326320085728675,-5.137071265831507,-0.6713578645068536
16.2,-8.346090257948624,-5.0955962665091,-0.7401009232632928
16.21,-8.361975590437648,-5.07137798533301,-0.7266532793074776
16.22,-8.377477800575852,-5.057410832112173,-0.637008954581027
16.23,-8.405829076515085,-5.021351728658579,-0.5453524138512992
16.24,-8.43123098332915,-4.974497533975894,-0.5812467348082928
16.25,-8.42815980555878,-4.970338226981181,-0.6558224864774969
16.26,-8.380979941829017,-5.037552571106277,-0.7392091701364963
16.27,-8.304227629787116,-5.157279686549279,-0.7797833754591567
16.28,-8.25905636509576,-5.238088617730404,-0.7198058877357874
16.29,-8.288103228090918,-5.20420253729535,-0.622980255725487
16.3,-8.373207211430326,-5.069711626671142,-0.590596099219538
16.31,-8.451454612963373,-4.933012839726463,-0.6370993839554993
16.32,-8.480319693533769,-4.879711298723372,-0.6655640876165839
16.33,-8.468764583365536,-4.903339987098237,-0.636802796613302
16.34,-8.434764602868738,-4.968225500767908,-0.5830042911956762
16.35,-8.392459025839747,-5.036665235970782,-0.604698397735642
16.36,-8.346690627999115,-5.096824377532771,-0.7203312428270764
16.37,-8.290066215397669,-5.16849586023748,-0.8522712076979674
16.38,-8.237948511134766,-5.2395629488871736,-0.9232527355888519
16.39,-8.22327450604535,-5.270739185061675,-0.8735237417943341
16.4,-8.264483969178594,-5.228709193326684,-0.7197908440150372
16.41,-8.347411578897619,-5.109849372579919,-0.6100472500831056
16.42,-8.434381737842466,-4.960124741773342,-0.6483682918764967
16.43,-8.479121098293211,-4.872955271150979,-0.7270322226343618
16.44,-8.457201447572768,-4.906320489522724,-0.7554065302834289
16.45,-8.387094095484343,-5.026086387217675,-0.7475645584942711
16.46,-8.309069693255662,-5.155928427504305,-0.7359212909373117
16.47,-8.250896180347835,-5.245508253942013,-0.7589637428012137
16.48,-8.22944733780223,-5.271257753381557,-0.8120721239419387
16.49,-8.242069509678347,-5.2446102253889535,-0.8555613699896832
16.5,-8.277189368283292,-5.191789605155914,-0.8374118488819338
16.51,-8.327655006093337,-5.11936524196241,-0.7808105523079533
16.52,-8.381941207952526,-5.03619564890339,-0.7399020041025491
16.53,-8.420691393757414,-4.970974068737397,-0.7420605214885334
16.54,-8.418120138492556,-4.966612074716815,-0.7978730202298531
16.55,-8.375729867882422,-5.028894527392251,-0.8513631725661223
16.56,-8.323952269348792,-5.112609755529471,-0.860890022037703
16.57,-8.291767805164975,-5.1690491841969495,-0.8350731352836431
16.58,-8.295446611349558,-5.164559739550441,-0.8262355351189948
16.59,-8.322543362856116,-5.1147878207537945,-0.8618172867712575
16.6,-8.349825919520326,-5.0608928989184445,-0.9147700410091995
16.61,-8.365751793995397,-5.032164185303014,-0.9283025248982157
16.62,-8.372233956222376,-5.032024582320433,-0.86740858448295
16.63,-8.375535604392764,-5.039494196712376,-0.7895704276894681
16.64,-8.367864924312869,-5.051298413948885,-0.7952495496229166
16.65,-8.347055236076631,-5.070281431428206,-0.8864396449234037
16.66,-8.314105887336517,-5.105109118175124,-0.990331431185871
16.67,-8.279276695261549,-5.153458454082405,-1.0319882365121864
16.68,-8.266798467404739,-5.183789323010941,-0.9779597768209094
16.69,-8.291796889099766,-5.1640263142612755,-0.8625927671329725
16.7,-8.347818198357437,-5.085641507407765,-0.7852435951924388
16.71,-8.40311610544486,-4.991228218763207,-0.801563119998783
16.72,-8.428932976167593,-4.938361987159412,-0.8573952751300963
16.73,-8.42243107376512,-4.946652350179928,-0.873636775659401
16.74,-8.397702437575933,-4.994773202048207,-0.8363344047184958
16.75,-8.375082705214638,-5.038809413227219,-0.7989326219043568
16.76,-8.356222834226198,-5.065794940056615,-0.8249066141670522
16.77,-8.329389805299959,-5.096841046713457,-0.900848197318406
16.78,-8.296230380651306,-5.140528832219136,-0.9574732500318297
16.79,-8.28042969150747,-5.169536238012332,-0.9380189709175785
16.8,-8.301084768273318,-5.151597463823324,-0.8483758268112792
16.81,-8.352139967103799,-5.079539186651366,-0.7791623777661472
16.82,-8.405141404576943,-4.985153242877693,-0.8170716494269187
16.83,-8.429519652057845,-4.930623843846799,-0.8950786425105545
16.84,-8.415141418078788,-4.948936677206576,-0.9289945759315519
16.85,-8.383121972096504,-5.008219071778065,-0.8996628183536894
16.86,-8.357293920169306,-5.060498968971244,-0.8462741847869423
16.87,-8.343909739234348,-5.084216038507473,-0.8367703816894957
16.88,-8.343537739957698,-5.075747724492861,-0.8894801247762486
16.89,-8.348125916797379,-5.055310406945027,-0.9601219839840266
16.9,-8.353623369111558,-5.042798435707411,-0.978518597012525
16.91,-8.369025647910135,-5.028502086884076,-0.9175999517561424
16.92,-8.395622366717872,-4.99717405489546,-0.8429858843160838
16.93,-8.41583347359301,-4.962012936932354,-0.849582056614196
16.94,-8.403501636598236,-4.968787553255463,-0.9275559184507088
16.95,-8.365794587424515,-5.021498609608611,-0.9832458872829366
16.96,-8.33313746938825,-5.08058630525116,-0.9566931562614012
16.97,-8.326323336339932,-5.105353996524865,-0.881201712943783
16.98,-8.346971984061387,-5.081395976268575,-0.8227188789723272
16.99,-8.373970325571658,-5.036700822131557,-0.8233585206340079
17.0,-8.3907622887782,-5.001808114703476,-0.8641037246760387
17.01,-8.389717383009405,-5.0008232016008005,-0.8801997401493862
17.02,-8.378018876015416,-5.027410469491183,-0.8386221932017314
17.03,-8.369827645199868,-5.053182443853042,-0.7616663479139231
17.04,-8.366961855571613,-5.063395173713084,-0.7254752898255495
17.05,-8.376426911397017,-5.042970705341303,-0.7573093015950803
17.06,-8.371352325494374,-5.040439171556178,-0.8267856826839003
17.07,-8.340631223501372,-5.0824345194294,-0.8785603279098377
17.08,-8.304936246619572,-5.144138344116564,-0.8571897934417403
17.09,-8.29412489469056,-5.176159447542934,-0.763345693274161
17.1,-8.336118639771605,-5.119941779662977,-0.6801659267836955
17.11,-8.397688121290802,-5.016673058027129,-0.6919263657532112
17.12,-8.437874355068177,-4.940144966073025,-0.7521924081809259
17.13,-8.436090152231062,-4.938196136961204,-0.785358109139245
17.14,-8.404542512408325,-4.996415739115037,-0.7537945537638442
17.15,-8.374945632669924,-5.05189417023724,-0.7128615862742851
17.16,-8.35144639670372,-5.08989993336224,-0.7185204964019909
17.17,-8.336176502879129,-5.105495478113193,-0.7818897589085732
17.18,-8.32975015593296,-5.106290361872499,-0.8431377244249278
17.19,-8.339189952205967,-5.09196594441734,-0.8366449512781443
17.2,-8.364676548669443,-5.062101398653568,-0.7588589363617111
17.21,-8.396121684067241,-5.021822453821525,-0.6746976136041871
17.22,-8.428291144159859,-4.96456741382042,-0.6972188565584148
17.23,-8.445061881223776,-4.927475855059396,-0.7553305138747624
17.24,-8.42790996879714,-4.950986281853673,-0.7924358040093515
17.25,-8.384676886942257,-5.022316875321003,-0.8015716855683996
17.26,-8.334249189755539,-5.106019415160535,-0.7985607696392916
17.27,-8.301435672764361,-5.155954281214855,-0.8198656412385958
17.28,-8.2958927754333,-5.155445716868195,-0.8770915435694951
17.29,-8.309720548911832,-5.126530202998982,-0.915021152645806
17.3,-8.332733840270988,-5.0932955654816965,-0.8909748010045756
17.31,-8.361269343353246,-5.058443130195018,-0.8188439972949937
17.32,-8.393966271478732,-5.013726122485239,-0.7571907928765168
17.33,-8.408651826626354,-4.988315162540402,-0.7625940094130953
17.34,-8.391391026667163,-5.008672292034483,-0.8169846653234536
17.35,-8.354393432317892,-5.062691763717295,-0.8618335967888386
17.36,-8.33000338185376,-5.106067354264021,-0.8420865507532884
17.37,-8.335963746587383,-5.103576640227303,-0.7970494335214544
17.38,-8.357466316013856,-5.069444460775119,-0.7897001836201805
17.39,-8.362365024810112,-5.049975165006467,-0.8591704246211544
17.4,-8.33894342543667,-5.071493599753874,-0.9545111316920032
17.41,-8.308649964557556,-5.119107921205964,-0.9649200816408691
17.42,-8.302997582298161,-5.141109089146045,-0.8937931153241393
17.43,-8.322875083938387,-5.120003145129796,-0.8277323228546324
17.44,-8.345533943218706,-5.079498804329017,-0.84899649298365
17.45,-8.357134628726383,-5.044910407086394,-0.9362550317742351
17.46,-8.353033141843834,-5.037483677184529,-1.0101972878040704
17.47,-8.334193588204652,-5.063976800958971,-1.033247442045651
17.48,-8.31599355923781,-5.105806564536804,-0.9719864549721924
17.49,-8.315914317328774,-5.1212306640913985,-0.8878750170830825
17.5,-8.346695248783991,-5.077900990474221,-0.8471124400094877
17.51,-8.379839772556572,-5.0163245984577465,-0.885782078653638
17.52,-8.391483874287164,-4.983990959564282,-0.9553940259123745
17.53,-8.379581870031123,-5.000411191464346,-0.9740773705243723
17.54,-8.366186255149897,-5.034137270334219,-0.9134531706929367
17.55,-8.371497857365611,-5.035481764083891,-0.8556487707757574
17.56,-8.383009726854306,-5.013573688985051,-0.8715192824343094
17.57,-8.388207557970699,-4.992929564409248,-0.9374119879721932
17.58,-8.363341912904392,-5.0188756771906595,-1.0175430946306692
17.59,-8.334739114311567,-5.0648240047377495,-1.0246596050674757
17.6,-8.338117990064504,-5.076375639763102,-0.936066500709783
17.61,-8.371315515381976,-5.041289972833323,-0.8223606378666944
17.62,-8.423099752233316,-4.957270439259045,-0.8043041496662324
17.63,-8.462066740256112,-4.88386903971795,-0.843445226695286
17.64,-8.475667736556435,-4.859613750820072,-0.8470977980414869
17.65,-8.465323865770069,-4.882355132342112,-0.8193022449225178
17.66,-8.435479990738441,-4.937970456578934,-0.7933738795151083
17.67,-8.387369509669705,-5.012542717232109,-0.8347011688575797
17.68,-8.337854336201506,-5.08088475854686,-0.9138300372843002
17.69,-8.315342530641042,-5.115200789948639,-0.9274609784480564
17.7,-8.329988824897896,-5.102406332793476,-0.8643343589604819
17.71,-8.382808962357274,-5.033526830415972,-0.7499238419545985
17.72,-8.449752185206668,-4.928068175382778,-0.6972033626441098
17.73,-8.486216562904414,-4.854466859304511,-0.7671464465978733
17.74,-8.468979548131946,-4.868090655370258,-0.8649955194899973
17.75,-8.413314203558123,-4.956530134723871,-0.904932211692984
17.76,-8.354183557121582,-5.064359867873776,-0.8543515058233163
17.77,-8.321812951322816,-5.129832573062113,-0.7762820174747934
17.78,-8.324077859802841,-5.130055751929225,-0.7500063038285644
17.79,-8.350757593210279,-5.082330554431552,-0.7777759273656942
17.8,-8.381388271484727,-5.026594365808645,-0.8099329847107049
17.81,-8.400652107452052,-4.995451057014793,-0.8029051074809564
17.82,-8.40587819459808,-4.997695364544573,-0.7308337618556051
17.83,-8.407465346920805,-5.0080188827785985,-0.6360767095018105
17.84,-8.402469869951402,-5.019766134527229,-0.6089280823744125
17.85,-8.390519826546113,-5.03725783923878,-0.6287762158161804
17.86,-8.365144464341112,-5.07390654366802,-0.6707219347660385
17.87,-8.330301177943248,-5.1278998169708485,-0.6934167014107423
17.88,-8.312228175707062,-5.163353406394283,-0.6453754396638564
17.89,-8.31936857731832,-5.161301729974167,-0.5644866030605201
17.9,-8.361421739459946,-5.099493230484093,-0.5017020043085086
17.91,-8.398347191367199,-5.039826062251333,-0.4880558837597513
17.92,-8.41368191775197,-5.014139938065536,-0.4885244367129456
17.93,-8.408465917443154,-5.02614431658391,-0.452668149818377
17.94,-8.40324360831491,-5.042655251136695,-0.3568228486945765
17.95,-8.4161209714757,-5.022588730461477,-0.33491648927167983
17.96,-8.413743944796853,-5.019663564174229,-0.42415105945938464
17.97,-8.362642660982827,-5.091847673104566,-0.5519700903292822
17.98,-8.26140115804291,-5.244929170802561,-0.6381354750487341
17.99,-8.192995800291207,-5.359765895760963,-0.5570655659115414
18.0,-8.232843875359906,-5.318156167484818,-0.31796170907875093
18.01,-8.352460348875587,-5.132478345289388,-0.2308868249276001
18.02,-8.488918320914566,-4.899117817065725,-0.32142120709286315
18.03,-8.553791234560114,-4.780190413684737,-0.3908624577062083
18.04,-8.53985492500556,-4.80416485673467,-0.3980289878610679
18.05,-8.471066808703663,-4.928827714144701,-0.335517883642547
18.06,-8.394467894527455,-5.063764229441424,-0.24505945662374823
18.07,-8.346768421020311,-5.138832839163885,-0.3019523616821179
18.08,-8.323128140989303,-5.168081160526099,-0.431396543105419
18.09,-8.319339958911558,-5.1688952925770915,-0.49138559734895104
18.1,-8.330817535007961,-5.151577761972262,-0.477100589248778
18.11,-8.366046383251113,-5.101771629385321,-0.3844216697232737
18.12,-8.423964339676425,-5.012486801129875,-0.2825584609468982
18.13,-8.479828871655844,-4.917977346706179,-0.27460527526608647
18.14,-8.498349177245302,-4.883401056394352,-0.3168866380682736
18.15,-8.46475231326286,-4.940432372519007,-0.32832674459603517
18.16,-8.398663067120712,-5.051159338678012,-0.3400761491827742
18.17,-8.337565336893656,-5.149764737037085,-0.36695872646923056
18.18,-8.31678923338917,-5.182331159708183,-0.38018396318037323
18.19,-8.347414278569955,-5.133003640659232,-0.3745683617175858
18.2,-8.40527527730638,-5.041702035233326,-0.3189904837210659
18.21,-8.435172144632354,-4.9935133809517955,-0.2880752471983266
18.22,-8.427150294728802,-5.008311384398581,-0.26424514375590746
18.23,-8.408411490898002,-5.041168878127011,-0.23549683149851075
18.24,-8.401483900306461,-5.053211087031146,-0.22459771554190228
18.25,-8.403972728612711,-5.047781267278798,-0.25082396245474414
18.26,-8.392515415886061,-5.063228455300002,-0.3131733552410401
18.27,-8.359260143244972,-5.113894194342234,-0.37431554788504234
18.28,-8.327343401039291,-5.166864650799347,-0.35600608954287094
18.29,-8.329464223521661,-5.169936467408712,-0.2421669624074814
18.3,-8.368425662394653,-5.110405473425858,-0.14607660327005093
18.31,-8.415641438567796,-5.0322734335843,-0.14664880822730558
18.32,-8.434616203527847,-4.99748482887716,-0.22695835964092292
18.33,-8.417281401627784,-5.024368647350937,-0.2725834713643938
18.34,-8.383619541710575,-5.0827346449574415,-0.219647889099213
18.35,-8.355381827124456,-5.132194377241771,-0.13241896450581742
18.36,-8.343768601347008,-5.151546196852821,-0.11148179518712326
18.37,-8.349645329815132,-5.139419375626995,-0.19379189603006725
18.38,-8.355097404067706,-5.126188708732655,-0.2898719689827757
18.39,-8.350955465790989,-5.130922801906627,-0.3243768711047133
18.4,-8.334018693082298,-5.1613771610941,-0.2670023745245582
18.41,-8.313812874915953,-5.198400561754566,-0.15875374972878598
18.42,-8.331067143185395,-5.172445706684326,-0.08485982987108452
18.43,-8.391060625100819,-5.07424443384597,-0.08863266082089223
18.44,-8.450977875731166,-4.973371388220648,-0.12478279365182526
18.45,-8.464869565506978,-4.94857081317822,-0.16403167884996075
18.46,-8.426443836520722,-5.011807709057208,-0.20942039143800742
18.47,-8.365777733019756,-5.110740839921394,-0.24723602266095923
18.48,-8.31623116368632,-5.190371384153452,-0.2649206267343518
18.49,-8.306209172181306,-5.207099606422764,-0.2507978668902411
18.5,-8.336595027534372,-5.1600305763776815,-0.20626078946525336
18.51,-8.395820663633064,-5.064902977313567,-0.1498200222604326
18.52,-8.458385466291912,-4.960377429471085,-0.13649071012775746
18.53,-8.486573557641643,-4.910654911950843,-0.18121201843587376
18.54,-8.467432601446623,-4.940624800555447,-0.2454911876313459
18.55,-8.413226524626195,-5.030493171939304,-0.2806751396143356
18.56,-8.362967989366211,-5.1143054079463335,-0.27200732420648693
18.57,-8.341813335558843,-5.148910558121501,-0.2703174167178545
18.58,-8.346806970126883,-5.138817363096104,-0.3048511917006308
18.59,-8.365121172708466,-5.106644204667988,-0.34181339462954113
18.6,-8.379509592314026,-5.081521512708555,-0.36358536692804905
18.61,-8.385747770437563,-5.071066848237499,-0.365747720774291
18.62,-8.3903569692235,-5.065444089235611,-0.33639857490506353
18.63,-8.396156885236973,-5.057870112016072,-0.30453848933039634
18.64,-8.402764954356755,-5.04664329142089,-0.30813134263045616
18.65,-8.407331701128372,-5.036541329909605,-0.3463897031013165
18.66,-8.402967395732773,-5.040180824721605,-0.3951685501111676
18.67,-8.381907716374657,-5.070246330655819,-0.45280853599075205
18.68,-8.349527969324226,-5.120190154532315,-0.4882969416482645
18.69,-8.332540793811209,-5.149354528986988,-0.4719347051078599
18.7,-8.350611968745298,-5.125191238482441,-0.40922919114636874
18.71,-8.390469598011993,-5.064397168977781,-0.34667822342287896
18.72,-8.424213405548807,-5.009192532434504,-0.33235858064667506
18.73,-8.4384036175746,-4.98507201460822,-0.33574187580776776
18.74,-8.439328416869742,-4.984108870298674,-0.32672893180395246
18.75,-8.423843151430203,-5.008820959949547,-0.34605974520518246
18.76,-8.379695352318823,-5.076925171670444,-0.4132698655524586
18.77,-8.304790284672173,-5.191111660355447,-0.49533462343243956
18.78,-8.235163498162064,-5.29944233169399,-0.5156172000932404
18.79,-8.222939548525252,-5.326910501452425,-0.4122491899864199
18.8,-8.275373037151992,-5.254857341240346,-0.2551668660633731
18.81,-8.371219700364643,-5.103248541250013,-0.19543119507368553
18.82,-8.461876893152459,-4.949146641002344,-0.2560144393828585
18.83,-8.50456472404415,-4.872618223129625,-0.3160895244138438
18.84,-8.488822296321946,-4.900566848292429,-0.30321041723579545
18.85,-8.426709152295341,-5.010220985219466,-0.2229437908734308
18.86,-8.355681531581514,-5.130538869097181,-0.1628654407430706
18.87,-8.300659254256308,-5.217696545132149,-0.20361134340603956
18.88,-8.2749476693228,-5.25430716457019,-0.2930148492747295
18.89,-8.276729111099252,-5.247818170627774,-0.35503881167181683
18.9,-8.298363772101192,-5.214871512253253,-0.3325724458940652
18.91,-8.341535801555203,-5.150148941392416,-0.24589123774337013
18.92,-8.397766418582789,-5.061518521532311,-0.1554196174805141
18.93,-8.448216781503778,-4.977750783911609,-0.13396983115758415
18.94,-8.464963583980786,-4.948905658369005,-0.15190637425334816
18.95,-8.445543578905017,-4.982487043367335,-0.1284511479653959
18.96,-8.416550689574937,-5.032110406535895,-0.09538884466478083
18.97,-8.400786428717609,-5.058036928954912,-0.11337790073559759
