seconds_elapsed,z,y,x
0.0,0.4740013778209686,0.1318760067224502,0.3115086257457733
0.01,0.547136702146513,0.36676836519594114,0.2606709666798807
0.02,0.40948147626515796,0.10000431837143563,-0.05223182722052553
0.03,0.23621958618728214,-0.04545856214589077,-0.35390983219359606
0.04,0.23939085275092686,0.0570210608061183,-0.7057629497537211
0.05,0.2744836361940999,0.2032316234244124,-0.45275239293426645
0.06,0.29022357445126273,0.2271388687376606,0.13444276878491876
0.07,0.3442252965948397,-0.16890808591585682,0.4891884647272134
0.08,0.41956285463581905,-0.4138969773255076,0.6612215096630354
0.09,0.5619746018928318,0.0828666389309709,0.1968439117751324
0.1,0.5731505847167697,0.45903980077227985,-0.3416710558162221
0.11,0.36784131066702935,0.34822629967918933,-0.5583146078812691
0.12,0.15420912404346554,-0.6267958101381198,-0.1918838892611444
0.13,0.11838295028884291,-0.8476010420419456,0.5167739780456448
0.14,0.486543158973712,0.02235143489612944,0.5858971076003961
0.15,0.8424434915626412,0.8679548498752561,0.3276994148638586
0.16,0.7617900375937102,0.992321791068536,-0.34840646819406873
0.17,0.3658667761470735,0.35451262860766025,-0.8924036180483134
0.18,0.04900081541402735,-0.5872034402233256,-0.6654131121728234
0.19,0.1238073718949401,-0.7647384605784463,-0.009793057205124536
0.2,0.49062121037249784,-0.29846088890829237,0.6583826554325867
0.21,0.7706900140936082,0.09620465082339172,1.0101065650942271
0.22,0.734397925239156,0.6140756635501478,0.7554989436457418
0.23,0.4816763425530941,0.6261131446666066,0.03453876981247293
0.24,0.09061869050174075,0.6004792672860161,-0.7390311901418083
0.25,-0.21223835058931179,0.4789087232154717,-1.1146404430173835
0.26,-0.18733972151141678,0.4818792426955278,-0.950192460965353
0.27,0.09064548380750719,0.022949604534208405,-0.35713744434748546
0.28,0.27278044172857624,-0.3902395932796814,0.42132505868351894
0.29,0.2543661259750604,-0.5699303305678799,1.1018942307555866
0.3,0.17035422636111897,-0.05096502427375947,1.0604208667697685
0.31,-0.009131502369156087,0.6844785249004975,0.6743705256957166
0.32,-0.21472903044770517,0.7604727305304204,-0.048808279295927647
0.33,-0.44964722827925785,0.23518643612082651,-0.6499467106306901
0.34,-0.5113447630887412,-0.642908024213725,-0.6778310449340533
0.35,-0.2775741276969797,-0.5353850822473776,-0.46996733216343695
0.36,0.11775012104862266,0.3180490780346584,0.12926658431067903
0.37,0.40182542828238527,1.7425225182512727,0.19834585302701804
0.38,0.10001062330256341,0.5916527341127069,0.19483460033762523
0.39,-0.6123049475828384,-0.6171068420835492,0.1377070845146082
0.4,-0.8200044999306758,-1.0926303976726606,-0.05684496569859614
0.41,-0.418344149096467,-0.2533821467239135,0.15674646190202918
0.42,0.1882176012104271,0.9593599571369222,-0.06282705867793395
0.43,0.3335749886994933,1.0949923300241926,-0.22913113411800803
0.44,0.010581450446652133,-0.020339772636828634,-0.3119598589887798
0.45,-0.4068962180285698,-1.6234535941323007,-0.1306355311167305
0.46,-0.5609156266751991,-1.141545058382127,0.6326843084534726
0.47,-0.1122052779449025,0.4885832524188316,0.7474898872793883
0.48,0.21378814434855606,1.5115035325708888,0.40481846505423297
0.49,0.005752779486421942,1.3209102093963163,-0.3795281483777689
0.5,-0.38512735159716344,-0.5443019371815884,-1.0762418178113933
0.51,-0.5181268656531886,-1.039956540976662,-1.0031165710188519
0.52,0.03543475048373881,-0.279901717214123,-0.7166690931882155
0.53,0.5692092459097094,0.5749679485068592,0.05983219229968555
0.54,0.4621369214101507,0.8564184103751755,0.6449629675808454
0.55,-0.16103275246647433,0.2081188198866746,0.7564252287344564
0.56,-0.6479181904488759,-0.9764887859001342,0.5936704720023896
0.57,-0.5873778157926182,-0.996463274976843,0.33043541085673717
0.58,-0.15318111448749433,-0.40655418625883916,0.29260825475452074
0.59,0.3300999852282157,0.5843117687878837,-0.06282883797883629
0.6,0.45911595424134505,1.0601239250189298,-0.45770461898098264
0.61,0.23542841616588045,0.5390210158938917,-0.817585203217815
0.62,-0.22686176131385366,-0.26414339963421957,-0.8345780879493975
0.63,-0.5893053473116511,-0.4596322444273167,-0.246304036286802
0.64,-0.43857283225841404,-0.27825623443926106,0.4925712506278748
0.65,0.02855850643027722,0.21878382209260622,0.8947346058573846
0.66,0.32333390613701835,0.18478353663432678,0.7789375519401877
0.67,0.1720382537382526,-0.40735337842450997,0.40178894270332033
0.68,-0.1528492673929154,-0.8498944643287857,-0.04191883553963454
0.69,-0.2515436391904784,-0.36230174904192847,-0.4226434227420334
0.7,-0.10424345450193569,0.7096619267115392,-0.672230014170996
0.71,-0.03301922546831825,1.0154092625025162,-0.603916755369818
0.72,-0.14225190590092382,0.29703595139776395,-0.3956678551698053
0.73,-0.25502690175133624,-0.9994908943752343,0.12462268169073777
0.74,-0.08847208637783216,-0.9882060166353869,0.6101819760710087
0.75,0.36200747557813723,-0.1272386211250577,0.5958592170578624
0.76,0.49429981394828376,0.4790432455362737,0.33490001160592686
0.77,0.08887158592987925,0.26696093335723653,0.011868027377094139
0.78,-0.3699306132795039,-0.3122011189814492,-0.13477768925724484
0.79,-0.44690468861164434,-0.1324585934748922,-0.19179554927669815
0.8,-0.11146194024000021,0.5240031584679004,-0.4801654386154998
0.81,0.1925228295797734,0.7141089407423377,-0.5807119031422647
0.82,0.1926874104183416,-0.007960386657583933,-0.3883736661551481
0.83,-0.027403723804707965,-1.0557722308195427,0.18877137017123838
0.84,-0.1325441223371798,-0.9829511358378675,0.8531797189285042
0.85,0.04948704944464281,-0.09185941354820318,0.8844031577885155
0.86,0.09071171678272,0.8221745642757884,0.5909790065061793
0.87,-0.07541668969594822,0.703425282330531,0.04328091936925988
0.88,-0.26882027278747544,-0.10233903119086726,-0.46823714548977574
0.89,-0.24773479512963645,-0.27263095631473433,-0.7673936955994717
0.9,0.1182242745869917,0.20814023367799125,-1.042537778454425
0.91,0.3559243297734473,0.4221833747996751,-0.7064490904214761
0.92,0.19739052477869626,0.056157326493593666,0.06644427396714851
0.93,-0.1704958878560798,-0.5947835199244458,0.8281888044217939
0.94,-0.3008879769302822,-0.24104789618792896,0.9836587628954949
0.95,-0.007746292395510467,0.7100635111033505,0.23850247077980902
0.96,0.17996211156245945,0.6793012654393593,-0.4165510945496978
0.97,-0.01663354817685298,-0.1049687081212176,-0.43142425637537024
0.98,-0.20233139529461122,-1.0864428786750195,-0.05382050225318154
0.99,-0.05926325398383913,-0.7595296517756102,0.32861363194164556
1.0,0.34318029974953296,0.6131725371767756,0.23308155711803769
1.01,0.4840824943680174,1.4511242383604068,-0.11946959558221455
1.02,0.06768941450963731,1.0047830590091522,-0.48168010624694957
1.03,-0.49718901298085066,-0.47092436311041685,-0.5031697080840014
1.04,-0.524226689652979,-0.8430788168799138,-0.1713371642176082
1.05,0.1297375166208375,-0.1354442876579402,0.08958488103466461
1.06,0.6929826614013401,0.5103489283325543,0.3450803857984528
1.07,0.6187464922896619,0.6555447582932363,0.40877372408117246
1.08,0.17967045247101096,0.06994392981296145,0.17795504011943108
1.09,-0.21002155846154072,-0.5147964535828238,-0.03661103184369131
1.1,-0.3032560338643912,-0.5297148274263357,-0.029099229830658564
1.11,-0.007381077196608237,0.13379856690461434,0.08595885056946702
1.12,0.40737255572393294,0.7670800246204057,0.046438228990929156
1.13,0.5302791725833259,0.6240870013544025,-0.21710554498384071
1.14,0.35679762175473506,0.021440898840166277,-0.5608479565852182
1.15,0.09482593675287525,-0.4792661227586028,-0.5503424154945136
1.16,-0.0543212394363623,-0.43213489913482245,-0.022419909372357844
1.17,0.06234874720555996,-0.014831367341863692,0.6195641908435501
1.18,0.30873489306321916,0.2666800963346433,0.8098398118383113
1.19,0.3548487896863721,0.35361903538958195,0.42986145632316125
1.2,0.15755898397788803,0.21951302700071362,-0.1427400302473439
1.21,-0.1087602107002666,0.1127059808520269,-0.3837787772724103
1.22,-0.25624418131856513,0.1520331181312626,-0.364988333898991
1.23,-0.21706935974656574,0.18619164797808566,-0.23967899202026635
1.24,-0.049042658038468856,0.1279160960688686,-0.07379344491441754
1.25,0.1083655277600885,-0.05319801597839269,-0.005022294701638961
1.26,0.07111588793311932,0.06317654651166132,0.1825593960424991
1.27,-0.04315679253453796,0.1878689780607691,0.14294101800768835
1.28,-0.24860385813424624,0.14007273392943156,0.16905301904985962
1.29,-0.41426200656346857,-0.13068660766707235,0.2506284539254454
1.3,-0.38021395268781283,-0.520684350520935,0.30776551862703283
1.31,-0.19286646371187907,-0.03887843719080691,0.3531983688938534
1.32,0.14684802554703366,0.8554383099009366,-0.2302521188978341
1.33,0.1685642378780514,1.028564269962234,-0.7393409760724791
1.34,-0.27518593929693075,-0.025081885993553866,-0.7025234801791602
1.35,-0.6832858035996999,-1.074336233109775,-0.11998287816863577
1.36,-0.5349316946273488,-0.7634023896768497,0.6515557204550959
1.37,0.09069915489011249,0.39229961934292173,0.7852668852368548
1.38,0.4224647394589144,0.9729240057993106,0.501340924470049
1.39,0.12312658379666067,0.4334428794782158,0.05701667839208462
1.4,-0.3933613695162578,-0.7667963512948405,-0.3145425614825772
1.41,-0.580931041364123,-1.2475067375365585,-0.26285237282382207
1.42,-0.21643408975412912,0.028553268840270218,-0.16836796672669394
1.43,0.24772456664604167,1.1070549563993304,-0.13086613152982313
1.44,0.24871072688243817,1.254474501271149,-0.31791793997639134
1.45,-0.1368324473333733,-0.2798165742477325,-0.48755069411173035
1.46,-0.44100408396677976,-0.9152691676051754,-0.2868549167840449
1.47,-0.17688378549284797,-0.19095299257081969,-0.0885833714104795
1.48,0.25283441944769214,0.3182891620323354,0.2356656547751708
1.49,0.2584044952409609,0.41210197492241163,0.448320120024887
1.5,-0.03138992272400635,-0.23563440019982218,0.41862876000031135
1.51,-0.22345469122354183,-0.6642498345262304,0.1814687637950542
1.52,-0.13753809198933015,-0.8073166626469328,-0.04343746056249496
1.53,0.09705081667306355,-0.2468586006641944,-0.009387637992768531
1.54,0.24552556045577145,0.4033232665151431,0.11196205449462335
1.55,0.20425631094644844,0.7579761004012766,-0.04928989687811242
1.56,0.05316705517801351,0.6815197788279637,-0.6077929734175543
1.57,-0.21259559219693555,-0.05005119954824757,-0.9369527063617913
1.58,-0.43486954875463935,-0.4371491363572463,-0.5209145097371287
1.59,-0.2870373540451479,-0.4659993085764383,0.2538445699467621
1.6,0.09914147267597752,-0.16422978490866227,0.7999915243422918
1.61,0.33204896243149473,0.4583969748602623,0.599606397223485
1.62,0.1547362784817423,0.7514228558028749,-0.0016075218337955823
1.63,-0.34449320259671007,-0.5737573233738595,-0.08871119436623313
1.64,-0.8073592076388133,-1.660883336460332,0.5460636865492585
1.65,-0.6555849061810797,-1.4795108721492187,1.1833122720021936
1.66,0.08603239555200227,0.11344855204612006,0.7608263102251268
1.67,0.7607694169886927,3.1288671097628145,-0.8555453606308243
1.68,0.5435395010315968,0.5039624765018743,-2.1700821024442924
1.69,-0.6455629901386126,-1.3837034166261268,-1.8313374800918838
1.7,-1.0837263992372153,-1.924294323839348,-0.17643308888321316
1.71,-0.23693169457797608,-0.23404668521946378,1.2414753286924727
1.72,0.6008118820732,1.1364999811507226,1.7320580009709465
1.73,0.4251485787542711,1.4719817601823988,1.449381612815755
1.74,-0.2170667740837494,0.2649538723250316,0.5067792224050983
1.75,-0.6601507490123627,-1.420939283514345,-0.5108087541761773
1.76,-0.6734481247495344,-1.293215163290354,-1.0164407524544248
1.77,-0.10165947060599662,0.6764375618906218,-1.0270495654380365
1.78,0.3869875023246377,0.9195315280724793,-0.47152294284868024
1.79,0.2556982297366893,1.1966704721862746,-0.26991098957512605
1.8,-0.10643429374688183,-0.4993163287910718,-0.2264906546542802
1.81,-0.500961236133139,-0.8227799704273878,0.26615192521161846
1.82,-0.5641217357713266,-0.7071796500660911,0.7857772604765706
1.83,-0.3311371907962864,0.05828511920606002,1.192256710938614
1.84,0.03815707230141007,0.2605913280443081,1.0771007404266362
1.85,0.20056766623053132,0.2452359990481174,0.19083383183337924
1.86,0.12827494644557302,-0.20877416673641197,-0.7621134658738612
1.87,-0.04111214059323181,-0.31986954963181613,-1.643315032060229
1.88,-0.269338914273777,0.6456429496968077,-1.41832795307081
1.89,-0.2273021199877274,0.5246841077129609,-0.3101408796455082
1.9,-0.12613195646262668,0.7483513068940338,0.44710541160087547
1.91,-0.046248647394488536,-0.4342624679242491,0.7932179857652693
1.92,0.11738155335610387,-0.579111066084644,0.3135162650598075
1.93,0.22593372273964046,-1.0492255769427892,0.3811272872144788
1.94,0.15967031322859299,-0.6205579301048708,0.511391728847481
1.95,0.005287257172266487,-0.14943044663373387,0.565341393410139
1.96,-0.07202809315733648,0.5909502071126675,0.20395266856397748
1.97,-0.05673209317450801,1.3406807143011834,-0.6273134205641699
1.98,-0.03922679528469081,0.693738078289611,-1.119082391954916
1.99,-0.10916780857427955,0.024327267243166542,-1.069459043506056
2.0,-0.021865069065979802,-0.6806077556026779,-0.4945022213248085
2.01,0.2368182208854885,-0.0868876368448375,0.23289168496996723
2.02,0.42177499031286025,0.3347368258617165,0.7396386750122472
2.03,0.28227719076055074,0.19597017324825514,0.6796962727979943
2.04,-0.1685265200502828,-0.6999751351296615,0.6625269131948024
2.05,-0.48923705833983944,-1.2086724234221735,0.9274872588262201
2.06,-0.27280312905339754,-0.7201368557613932,0.9249696182704166
2.07,0.3585334373868354,1.7110402713967616,-0.2675925093789754
2.08,0.6882993736433581,1.3996121753439112,-1.3639643095541893
2.09,0.23427266715622957,0.4038130716279129,-2.006604197175778
2.1,-0.41324532129806746,-0.9683752688127495,-1.271186047288978
2.11,-0.4266987175403567,-0.9220652530472766,0.045518100650820195
2.12,0.06454276768991592,0.35094278154043923,1.1381409200881252
2.13,0.48781538414866327,0.9366134661424564,1.4879878502862547
2.14,0.36783149572366486,0.5165093781063267,1.0817023955957854
2.15,-0.13559981523857068,-0.8372112870046904,0.5396573150009641
2.16,-0.48665127596381713,-1.2012167372358744,-0.001913647092849329
2.17,-0.25745437107651553,-0.44520876994505143,-0.7429028846430001
2.18,0.10612450761151919,1.6061942079632494,-1.1494069818690638
2.19,0.1977047956356161,1.307057782911171,-0.9607276756923934
2.2,-0.11091555579447808,0.34768771136950055,-0.6194727834206687
2.21,-0.34308181180205566,-0.6289631037825515,-0.08647814937583302
2.22,-0.030606494256059245,0.17859654899559546,-0.2227663348901737
2.23,0.1858401901825115,-0.05009647862750147,0.5125301840382962
2.24,-0.04975870749713473,-0.499417724818366,1.129851560633531
2.25,-0.43637295502767737,-1.1563624762859555,1.8595476931003758
2.26,-0.3657920156781967,-0.9761918535443135,1.8023860783982706
2.27,0.09973373125258328,0.3766459614363322,0.18656633091151897
2.28,0.2507114385820744,1.9273955213665335,-1.2705797147162534
2.29,0.03024382569511866,1.3811674302574655,-2.415282798229727
2.3,-0.5097725314557964,-1.2847248245062033,-2.122609317899089
2.31,-0.7617478322924959,-0.8281967191898751,-0.7318974697031412
2.32,-0.03393419703602195,0.14680008724649812,0.06705119728770856
2.33,0.3681965636011808,0.7840725673585285,1.207583221014341
2.34,0.08317815145493183,0.5188749539319678,1.3195981022187517
2.35,-0.455766726997809,-1.4265376709186481,1.2582074019262237
2.36,-0.654910322070512,-1.7017559916256129,0.8932662881665041
2.37,-0.27074491559335173,-0.9107201286515059,0.26347473704751695
2.38,0.22127598857161626,0.4428216168039448,-0.2500316554946498
2.39,0.3432979668305533,2.0780781008506013,-1.1396556393771062
2.4,-0.03478254074841963,1.123646276401852,-1.5797457410578213
2.41,-0.5235256567840367,-0.7033687239757381,-1.7198055204301592
2.42,-0.718912355584389,-0.8385658298598326,-0.7513591322162261
2.43,-0.23583618700778486,0.07146616483477608,0.5769428078074971
2.44,0.33001204776528614,0.6705239765352543,1.4787942690313216
2.45,0.31831141374900374,-0.05108348826682618,1.4435366073201468
2.46,-0.1011991342803471,-1.0078613310964144,0.7313344354548159
2.47,-0.4240851731119801,-1.5303773390959843,0.23131246896427857
2.48,-0.38340217141304317,-0.833278535510119,-0.02168134073542368
2.49,-0.05598721259818769,1.0045058424980264,-0.3386945140573153
2.5,0.24047009909615932,1.6647702864210656,-0.7702611848314439
2.51,0.06019411340093117,0.6490603420817246,-1.1970028451799142
2.52,-0.4168543298254704,-1.140915995968549,-0.9526845270062756
2.53,-0.4476334791391135,-1.2423128386922435,-0.07364564593774985
2.54,0.01595152044339451,-0.26255396703119055,0.8459189570672785
2.55,0.32786294496329693,0.35076183840806807,1.2651317028236229
2.56,0.1702617721988646,0.7025856732186082,0.8717150896042728
2.57,-0.1842434236767553,-0.3683903643334033,0.2205422667108706
2.58,-0.495760842487902,-0.8372180435615135,-0.4130729505388322
2.59,-0.4213624126045896,-0.6432388550056302,-0.7625808805307009
2.6,-0.0459147831708103,0.25487206453636135,-0.6392167986309121
2.61,0.18964355621010606,0.6223449571950581,-0.23897743581845007
2.62,0.09288103635473953,0.37130388778677204,0.024445592289064327
2.63,-0.13984613688215525,0.027499132583554495,-0.02223181937172986
2.64,-0.20979916978108393,-0.2590294716016082,-0.32500588291705373
2.65,-0.3155513207902181,-0.43240039933901026,-0.028774027558401017
2.66,-0.3215857371024542,-0.8470739578988519,0.5818873313131487
2.67,-0.16005103049066022,-0.8217674281990288,0.9376143246819728
2.68,0.05971174159654666,-0.3999625590224787,0.8470865753074336
2.69,0.28715958784698326,0.5140516573958931,-0.12233566609878581
2.7,0.1242131517437309,0.5256336787384788,-0.7795527495994962
2.71,-0.2577173183813578,0.1599881188347714,-1.0598230991343087
2.72,-0.46303476266961113,-0.22056043049665386,-0.769490415162013
2.73,-0.2907317967055483,0.1402955689550814,-0.20101433394687482
2.74,0.18339560433517024,0.42927141520093604,-0.17169543407571322
2.75,0.3142863958083921,-0.4652571285722782,0.129080923642243
2.76,0.09910117840673133,-1.09098298137256,0.610126209340561
2.77,-0.04761863698135719,-1.493749623851199,1.11736359442765
2.78,-0.05062091642175033,-0.9950824429780717,1.4540307495858993
2.79,0.11337351811436297,0.1772495180599468,0.9676832664192936
2.8,0.25528474779182264,1.134690332698049,0.02264909859333902
2.81,0.23540179798459557,1.3285878479517552,-1.2207340556678667
2.82,-0.02890968156040434,0.4220498812994985,-1.9960773360946729
2.83,-0.17467732870707672,-0.8764245625477876,-1.8130304703665914
2.84,0.06519087743420522,-0.747403992026393,-0.7873901554882652
2.85,0.47551163323681395,-0.08436421403620409,0.6722793027082137
2.86,0.6463012186153106,0.7346418045836816,1.562089958447241
2.87,0.4314701767992414,0.4063847731504285,1.3755048754339392
2.88,-0.03608225745244572,-0.6328687084517365,0.5631195559092771
2.89,-0.3809769040542607,-1.1476062334809372,-0.06425512629546111
2.9,-0.22922116765134776,-0.69607757958099,-0.2089521004673149
2.91,0.3052252289563428,0.5952834195699139,-0.22469746635268936
2.92,0.7489102873786897,1.1272161103052492,-0.4652050777244139
2.93,0.6985637245924688,0.5603088307477129,-0.8546140815186685
2.94,0.2081630985898246,-0.4828005141432543,-0.8369839531734159
2.95,-0.23057148394284926,-0.5474822581853827,-0.19125494899618722
2.96,-0.16147439012166845,-0.2819360235119669,0.6249223179759008
2.97,0.12811397795743779,-0.3864533151622136,1.2791199608929846
2.98,0.3174758230743816,-0.22047445959965728,1.269990007811128
2.99,0.5059053361187883,0.05704676000739083,0.4761116359110611
3.0,0.5621579931111567,0.3191970178449247,-0.5765046104733946
3.01,0.3624524284476406,0.21961509757966438,-1.2635228006770969
3.02,0.08929670769540964,-0.15002722569112142,-1.0977800779164373
3.03,0.025134646923251885,-0.21363063822744088,-0.29735368540866075
3.04,0.2579204583647309,-0.03854341469503217,0.4648292163335898
3.05,0.5995155449471959,0.35158229010445485,0.6708997411029182
3.06,0.725607117022468,0.5392400709712174,0.3340534010423022
3.07,0.4512074194335911,0.04411853557709777,0.019078428963627003
3.08,0.04990813906155703,-0.7543803910332455,0.08224485115120152
3.09,-0.035565184177004425,-0.6658672451432502,0.12054641324799947
3.1,0.2012435383060458,0.05863842298763596,0.1999570929187862
3.11,0.49727344443430527,0.8830659371866513,0.024224745879344985
3.12,0.5586045718573238,0.9555067577295192,-0.39948712737919706
3.13,0.2836625199854411,0.09434149544162516,-0.5937763593995335
3.14,-0.042010873339965595,-0.8751194472578742,-0.3138601645226426
3.15,-0.04507919347999068,-0.9242479420279267,0.40840260012094
3.16,0.34909791615051516,-0.08917578107859228,0.7590776729625257
3.17,0.6236877237471409,0.5420461778886123,0.7419680669584011
3.18,0.46596511915162003,0.6194063446595851,0.26782373469188364
3.19,0.10847806781625025,0.13660960717855689,-0.555593597932756
3.2,-0.15628290856567206,-0.31692586024179803,-0.9152138304385266
3.21,-0.15197592753576192,-0.2590525898178432,-0.7254771802819587
3.22,0.04534307014715526,0.2772485617828219,-0.04710467853479089
3.23,0.354016366465647,0.9324381444758005,0.2990830599491314
3.24,0.49877774563982546,0.39875590210753975,0.13545141626198678
3.25,0.22884291913907337,-0.2887062378869073,-0.09609885741704431
3.26,-0.1089404713443733,-0.7446262973448223,-0.1338616118552272
3.27,-0.19471990439507408,-0.9225253452150187,0.3323132766487074
3.28,-0.011646239905574176,-0.44810786106562583,0.7840465089632938
3.29,0.2795859322680879,0.5405073111719205,0.5994436786943793
3.3,0.4176185540523303,1.2576150485876814,-0.16283715671911686
3.31,0.21550687539346292,0.859998698971959,-0.9244416141422717
3.32,-0.182833764897982,0.05053970843332861,-1.0759085772059345
3.33,-0.3135822595615917,-0.18504704186232862,-0.7819242474610569
3.34,-0.06819596864709955,0.013298422236105674,-0.2763626088071712
3.35,0.19124823517852826,0.2140123142742185,0.2965447710117346
3.36,0.22493884733343358,0.2174460665606707,0.6002480396794613
3.37,0.08380942652575837,-0.14087360171555538,0.6722873729186896
3.38,-0.06703968084323939,-0.4880525321714622,0.4924911668475053
3.39,-0.12420557065409357,-0.38128381996274785,0.20877777005949485
3.4,-0.07014941504583519,0.2607866198339981,-0.11782248698834681
3.41,-0.05920878617101343,0.5182794051108812,-0.2762367580837407
3.42,-0.20568864752276222,0.14765986747883666,-0.11706948775229924
3.43,-0.29777556359811785,-0.29926440754454053,0.05421765935829824
3.44,-0.1840595793516641,-0.15604493758072183,0.12537943872325014
3.45,0.017783581471438468,0.3283949414635964,0.0851984715176599
3.46,0.03297567404170043,0.5216755148755003,0.026435302320043118
3.47,-0.16694429772862057,0.3032171566803564,-0.18559669932246622
3.48,-0.3866739179779496,0.043683060121111714,-0.4493435849622923
3.49,-0.497764968868556,-0.12264432725516185,-0.3874806146444149
3.5,-0.50556574471124,-0.28434665331041203,0.047309355698787296
3.51,-0.4377604824773582,-0.4655278943038925,0.6620715601226397
3.52,-0.2987832115925898,-0.478527685878178,1.0603486254433012
3.53,-0.16271350515467245,-0.006159707735069294,0.9045238121306405
3.54,-0.11731082822232897,0.4469559851391252,0.09799250795908358
3.55,-0.2833440541168651,0.3192822113368099,-0.6936454634663682
3.56,-0.539486868862861,-0.08004414620406314,-0.9430514678595859
3.57,-0.5201595776369126,-0.27061909668137635,-0.6777563454918886
3.58,-0.14342147855053097,0.278166135695906,-0.3872302768392854
3.59,0.1629440088640399,0.6101572044212943,0.00034132877131145677
3.6,0.11568834964884324,0.12034335004105569,0.3126381668292255
3.61,-0.12184383000342121,-0.597459749631604,0.36843117798134456
3.62,-0.273796460935481,-0.9823671980067771,0.528732099645623
3.63,-0.19188028502951573,-0.8453017423316997,0.6785992012436347
3.64,-0.0015170973434879141,0.03222484904459692,0.5676623123936025
3.65,0.14559398867752418,0.87436795002836,0.0023474471258372554
3.66,0.0946742631801075,0.673897127847894,-0.6980772292796643
3.67,-0.12739364958046906,0.026064296544140837,-0.968193816791062
3.68,-0.18399322002122193,-0.5510680523655211,-0.8091525758598689
3.69,-0.009196288334437083,-0.46118473059340787,-0.10070244488440389
3.7,0.35762763376693657,0.19661021170556095,0.42077751628091953
3.71,0.5239017278149701,0.6349433984265344,0.42544189973450325
3.72,0.22969528588330151,0.344516193728415,0.1359392847313433
3.73,-0.20646355068453726,-0.5155208015592752,-0.19636081505101569
3.74,-0.40713539583636815,-1.2664982779734544,0.14676184765876307
3.75,-0.12703949976126713,-0.8126623590764219,0.6696370850830994
3.76,0.4857014126958855,0.5323466553006628,0.5344915501724995
3.77,0.8085453575053275,1.492569976733249,-0.12168228154623928
3.78,0.5271081645090113,1.1067204771124532,-1.0338696440803092
3.79,-0.11513814022032136,-0.4316937229899447,-1.3129544239436413
3.8,-0.45356766705861795,-0.7086134197271783,-0.7384885638875133
3.81,-0.10520258573494663,-0.4537398029664422,0.3316204340548031
3.82,0.4655286700048252,0.44100764498473366,1.0847186117002234
3.83,0.7285379008776136,0.7715834519177549,1.0384540608614796
3.84,0.473059429821992,-0.10834704464892125,0.7171163828779017
3.85,0.018964374986342524,-0.6080494021470313,0.029699276452581434
3.86,-0.15316713043036892,-0.582739600807812,-0.5229577413955987
3.87,0.046485855131760685,0.30107491719830126,-0.6319114463411811
3.88,0.3643455500447957,0.9844847771522671,-0.5334670060094839
3.89,0.4362041334109462,1.0758540790490867,-0.39888757085022364
3.9,0.2970516302467306,0.02189858672964931,-0.4205236489307902
3.91,0.03848750874283214,-0.3845988479062691,-0.1582971719242745
3.92,-0.008796488011976482,-0.28119815822982447,0.39708143697416287
3.93,0.11091892693459394,-0.2179699059646593,1.0230306083479395
3.94,0.17966974365689872,-0.1333260225263615,1.175708011460374
3.95,0.20127856362567842,-0.1567640345181445,0.7649361742163407
3.96,0.16075327849332974,0.15838831171836246,-0.08394308525056882
3.97,0.07092185697576263,0.2918568441835475,-0.9359041077175116
3.98,-0.048279801525051416,0.584359967994541,-1.2934013383749388
3.99,-0.16445064897964165,0.5987216990528689,-0.8599534598762046
4.0,-0.2086351174214785,0.8426875264800792,-0.2628629703985567
4.01,-0.11172271304351507,0.019233260208018188,0.1929145830978707
4.02,-0.04522975065038034,-0.48662836313904734,0.6156803983541212
4.03,0.002574793241619739,-0.5372766643581337,0.7887132140978246
4.04,-0.07689225440186696,-0.32060665100059615,0.9127401476172249
4.05,-0.1645185903834885,-0.17858246626515473,0.5446452141575229
4.06,-0.29502949334354145,-0.09469943402123421,0.22274824540179217
4.07,-0.32609002385966745,0.3856553366715787,-0.26548315961395313
4.08,-0.2879619752574959,1.0516269209324163,-0.8141750758968165
4.09,-0.2044966128056081,1.1001038751123713,-1.1750378591220716
4.1,-0.19034287584953558,0.03999585740352626,-1.1869911557191195
4.11,-0.37718941044403154,-0.5015653488787994,-0.2743878707104314
4.12,-0.3285403415130963,-0.5403821340259416,0.9129674367209073
4.13,-0.013613458494511045,-0.285688029157056,1.384088401516593
4.14,0.056296417538297755,0.02856233426593625,1.2113427862106587
4.15,-0.06602182121329214,0.27893775094599305,0.3281244592957754
4.16,-0.26363072513202823,-0.008315102695541015,-0.21690440198386687
4.17,-0.3514021732191681,-0.13465320535336786,-0.42480310065111854
4.18,-0.22313252552520738,-0.10082282709100397,-0.8446635406230778
4.19,-0.0456851723397202,0.20601453899198638,-0.7844806164108391
4.2,0.12118241651803502,0.8599894019792449,-0.700357581027782
4.21,0.060501325010517644,0.3905363938299213,-0.20198783806254467
4.22,-0.15637671842945433,-0.4204355504423032,0.3141196740680508
4.23,-0.19764026555464523,-1.0028926944741896,0.6503613988412204
4.24,-0.1005112730269144,-0.7915111444977544,1.0113127643457998
4.25,0.13146330515326363,-0.23451162521761107,0.8009418432186384
4.26,0.22596369330033295,0.14414586019144401,0.37323276709042685
4.27,0.14231806051747026,0.47013600371457454,-0.3562962810731906
4.28,-0.001855749772396713,0.4192999542854444,-1.2315534391906526
4.29,-0.20518696757947827,0.9594802746747462,-1.5280905801226115
4.3,-0.13837969798374802,0.4153838506568203,-1.6967211750580635
4.31,-0.20830172435150848,-0.7005308867389901,-0.6851323255685282
4.32,-0.3351723290960613,-1.5920353747397202,1.521714983591609
4.33,-0.21917991723517063,-2.3551712168862955,3.6657003551226124
4.34,0.08393716174366446,-1.2479814370287006,4.378655040231338
4.35,0.9944765189988684,4.498411802820865,0.6465898633695283
4.36,0.9847795351877836,1.3051994846385495,-4.401111516336219
4.37,-0.836670292041852,-2.126618556048319,-4.95558108286178
4.38,-2.151895940314206,-1.0720303794226638,-2.317290197415349
4.39,-1.0323231675426892,-2.338823926981626,0.730668588854502
4.4,0.7253748781397561,2.3980789036048296,1.8459708796476344
4.41,1.4234903215754764,3.703639771766813,1.8992696250446317
4.42,0.6579431454585083,-0.6082990082105197,0.9931974755088762
4.43,-0.8964316890078977,-2.367089406758011,0.34427001663187823
4.44,-1.253842806349024,-2.5405244820377164,0.39115384598035924
4.45,-0.24132160133461533,0.3839605177804674,0.055748414708790495
4.46,0.48055221287481464,1.579551489494898,-0.0972884281656015
4.47,0.038440718466265344,2.4055446965280667,-0.7946270833371966
4.48,-0.6315097207675283,0.6896109158751373,-1.0846750096015878
4.49,-0.6387153762327495,-2.6001362688131984,-0.8339591148878117
4.5,-0.23629290241242826,-0.263277011983975,-0.5051359289514636
4.51,0.4530637197087941,-0.16263097089277836,0.3188759854595158
4.52,0.43800652985941607,1.1471724791583948,1.1075867973394098
4.53,-0.010919712996049085,0.0022570363115396175,1.2675852115653392
4.54,-0.34252798538789636,-0.2761655547493144,0.07154913441384506
4.55,-0.3867494598187136,-0.32923616718307414,-1.528189403428322
4.56,-0.3373432473197722,-0.8705048878905173,-1.8425017387622626
4.57,-0.4266563044012684,-0.6772910080863638,0.3201835027515223
4.58,-0.207134535649145,-1.1524296514495673,3.142901262863717
4.59,0.3895636840920449,2.000253071995659,3.01339098634299
4.6,0.9614450356890014,2.187976865564573,0.1669215431649018
4.61,0.25659074779816543,-1.3222166257106334,-2.4508675650334086
4.62,-0.9672510747827502,-1.508877317828927,-2.6149451631541485
4.63,-0.9242232786892455,-1.7093338454741285,-1.3269740008181443
4.64,-0.03656819713616027,-0.3745898526862042,0.5785680110720497
4.65,0.7852032057252324,2.1573405201256675,1.3468248089879757
4.66,0.9624732870586458,2.1130575759981376,0.9835758195954905
4.67,0.1362811220394171,-1.2847216165321407,0.3281580877808417
4.68,-0.8984004083343449,-1.9559913878847053,0.28000048712158576
4.69,-0.724386032860151,-1.8343420815941631,0.4912511434099273
4.7,0.274594374409076,0.7417713378091811,0.13963625164757024
4.71,0.8429098984576545,2.1126251184452465,-0.2552455054821356
4.72,0.6288258367859775,1.3421436585335198,-0.8157953880178421
4.73,-0.0034157023626719654,-0.6028730078973943,-1.267384422800426
4.74,-0.32833627906639123,-1.5114718638723719,-1.1936712992005671
4.75,-0.0427151641916324,0.1998948913428326,-0.687668746175463
4.76,0.40627357165998,0.7671286402212054,0.46062464897762256
4.77,0.3982388671573013,0.7539513328253091,1.1721996138945159
4.78,0.13692025005817093,-0.2989224249124757,1.0837008905410623
4.79,0.04887679838236267,-1.0018615727772484,0.4757124065372872
4.8,0.1803943615848409,-0.517809346074698,-0.22614198935169016
4.81,0.38481283419844825,0.19759272646244352,-0.6544689421024839
4.82,0.44991433518129087,0.8172420944644918,-0.7181571272949268
4.83,0.22447580057558153,0.43447019818411103,-0.4821969001121766
4.84,-0.036548563780452833,-0.02300627941159101,-0.12906317733901418
4.85,0.07913059254265217,-0.28959490660494425,0.1398024171068602
4.86,0.31283427979960476,-0.023089350788635304,0.4479679674549668
4.87,0.44913435546625424,0.36253122923711617,0.3730468287232439
4.88,0.42997169689333087,0.10287127188765631,0.10605027682586533
4.89,0.23390398045689637,-0.8211470515863083,0.1283629017587639
4.9,0.014456749395995156,-0.9395202931549596,0.25119551867158774
4.91,0.12334254588740358,-0.3096018873862123,0.26863940866133856
4.92,0.386070268644145,0.6647081382182162,0.08959115591952556
4.93,0.4337556637678968,0.8727868612119585,-0.18541304636448153
4.94,0.26770881103965083,0.834441044096714,-0.5597795748330548
4.95,0.09682288324532562,0.17461863939115596,-0.6758889751339618
4.96,-0.027375043661614695,-0.300930225926044,-0.28974501636260624
4.97,0.03609275762374713,-0.1940001836030579,0.05386293579953349
4.98,0.17655478848371503,0.056132991541068426,0.3696678352019661
4.99,0.16735786653433185,-0.09877608250495958,0.6615720665922987
5.0,-0.03183099751181643,-0.3985519292575241,0.9789674742206067
5.01,-0.13112632731648188,-0.20775671869095044,0.9369625376733985
5.02,0.013399606924479215,0.41729522926555945,0.12738023793522057
5.03,0.07665614967219118,0.5208768122566043,-0.5436805798114133
5.04,-0.004875733119670292,0.3322312837378387,-1.0277458897943863
5.05,-0.1327192273237128,-0.020727747774052663,-0.9920909723908314
5.06,-0.1436719482506952,0.15283133879077693,-0.5871451792536502
5.07,-0.0368141829768796,0.4079367474659954,-0.04706086986657584
5.08,0.029724920962685537,0.2960883309044685,0.6168398195581999
5.09,-0.015538843525148963,-0.16133240481440947,0.8202684199620713
5.1,-0.21035554248466704,-0.768692488000967,0.8534264950184534
5.11,-0.25966122469318503,-0.7117872016790647,0.4933307010250047
5.12,-0.08232329021414156,0.07385988611963973,-0.09624880503223507
5.13,0.08648682836789895,0.919984471255288,-0.5708962375564688
5.14,0.05845941803208935,1.0508081679522876,-1.0483037961088726
5.15,-0.20985512763243994,0.21262731036839697,-1.0850733455889447
5.16,-0.3443819696216437,-0.5377722170035185,-0.7089261234929538
5.17,-0.1420982364890295,-0.20728239235094725,-0.09712444729375094
5.18,0.0822421718150872,0.18325900352663343,0.783954224286288
5.19,0.08230593116462884,-0.24930665485475006,1.2897845522572302
5.2,-0.12078037335539353,-0.8800680353734408,1.282614698495083
5.21,-0.1370188936300665,-0.8126649542856292,0.608570768380085
5.22,0.0913907600718662,0.24790255831182653,-0.46665934995229097
5.23,0.221843237156492,1.1219542866688537,-1.2975525953661595
5.24,0.01777660447276033,0.7768813014195151,-1.4103330674572114
5.25,-0.34828090073958473,-0.2416364227790483,-0.7456979364484166
5.26,-0.3261237880754319,-0.3831506768931818,-0.21395275229550875
5.27,0.10518926349003853,0.3692417476031234,0.11731988138882918
5.28,0.39205652490998477,0.24831489028415063,0.5611731167529356
5.29,0.19553875669976087,-0.47927649237052955,0.8975926959931091
5.3,-0.13366347568483464,-1.0646832738683643,1.0333687322979492
5.31,-0.16949642484172892,-1.1820703581548473,0.7933070578450141
5.32,-0.015243913976595023,-0.3738923205647683,0.3489802615573647
5.33,0.11359010937940044,0.6776996452985141,-0.13417812279633493
5.34,0.1028806585338394,1.0960216255483188,-0.6001893007382619
5.35,-0.07554900263519503,0.7156553400108083,-0.935312196229361
5.36,-0.24870045594135495,0.23283136221911982,-1.0064755562490542
5.37,-0.20821005249275562,-0.16132943597534724,-0.6024238660247707
5.38,-0.060051836679683786,-0.233010484834599,0.14384420834126913
5.39,0.047991685948159724,-0.22952613319742102,0.7304845134002653
5.4,0.05462949640006844,-0.2621660580506908,0.8825328644838019
5.41,-0.06052183645029273,-0.3387458525348577,0.7060807876730241
5.42,-0.23999263462184517,-0.4307098819641976,0.502436612242121
5.43,-0.3020475376646324,-0.29838997598954026,0.19012061600356342
5.44,-0.2020982437346148,0.08520286192176331,-0.18871359275784963
5.45,-0.04738827913252314,0.5919777817713789,-0.5641117524778577
5.46,0.07454017241661287,0.8921513965216094,-1.0506116619437142
5.47,0.01234642030071262,0.29451776170912025,-1.1764662503804604
5.48,-0.1914846105344721,-0.7797678473301817,-0.5951012347136467
5.49,-0.3072407204940658,-1.0748791410942973,0.59050115392318
5.5,-0.12320277907721536,-0.41622642073637367,1.5270068309390121
5.51,0.19955596687565094,0.40825330853497177,1.398399591255905
5.52,0.16760606248396476,0.5447076232890546,0.6750192123574008
5.53,-0.16586667900420268,0.109787235402778,-0.3705529385182834
5.54,-0.42193439842714814,-0.48341774132252313,-1.0801012085043546
5.55,-0.32659488535957454,-0.5975654288770639,-1.0539849618186883
5.56,0.05720282441750883,-0.13797850106303955,-0.6201313056398803
5.57,0.3375077895500034,0.4706672503957825,-0.0011208717387223685
5.58,0.3781974336715029,0.8431204135662109,0.17074447991891872
5.59,0.12435563325247441,0.4765294189046359,0.01698222642587438
5.6,-0.289011942228164,-0.29207590579605874,-0.09261258990769992
5.61,-0.4842780415850912,-0.8071611194557397,0.09167077376701005
5.62,-0.30042721123142313,-0.9585883311345348,0.684839937584604
5.63,0.1560914317316911,-0.43497939016064024,0.8770747840352076
5.64,0.5602069585120754,0.4213188923549633,0.3914558007905711
5.65,0.6042864508178745,0.7345226621423182,-0.3417229373976287
5.66,0.21090623465655536,0.5159027047451554,-0.9074320476358968
5.67,-0.2591532611519449,0.22985552968115172,-0.9785149081451269
5.68,-0.2913075722038019,0.3664268958185405,-0.8179451935965495
5.69,0.04351610085883315,0.28993033874884866,-0.3677912296476612
5.7,0.36424461205331143,-0.0932816115598983,0.1930664158907427
5.71,0.4990544992665132,-0.45034967393028363,0.5573409603335198
5.72,0.43460558621229217,-0.5991734359675132,0.8290609272954644
5.73,0.24229181450013673,-0.3737753046924994,0.852218206803036
5.74,0.045333554555281146,0.19981410772735045,0.5517389204616707
5.75,-0.005205106954837433,0.6613144175151027,-0.04234407316809515
5.76,0.06746510687091285,0.6502361125159698,-0.6797983657567968
5.77,0.22331676128569622,0.2694012955617785,-1.0963428538436253
5.78,0.3416078530116031,-0.09095655558022184,-0.9254934961889508
5.79,0.3384445747106124,-0.3933981948765639,-0.10545865291628223
5.8,0.3126624488561024,-0.34508506560175917,0.7620032706749033
5.81,0.300757420917856,0.23458532230913787,1.0772249950002784
5.82,0.2461044326119803,0.22076447764843504,0.9112688487438333
5.83,0.07919941164564565,-0.2167678476761796,0.6173825060144189
5.84,0.00396277572071336,-0.45920520815659294,0.2833987974713384
5.85,0.1858992577834045,-0.19955713403603384,-0.23591688558912582
5.86,0.44183784778026536,0.6891019576650675,-0.8290761779306391
5.87,0.460234841376283,0.812687102799422,-1.0233315361350934
5.88,0.14312834973528166,0.639235132826685,-0.8193835937341082
5.89,-0.15255571117441347,-0.005471781352214729,-0.2661444105429119
5.9,-0.18938661529563827,-0.30039579521652626,0.41778076682344795
5.91,-0.017696049407033974,-0.4812411583165855,0.9860029669281474
5.92,0.14622195825627246,-0.3452059914816498,1.1520254579284086
5.93,0.17206231751630632,-0.08585987436688271,0.8056711477037807
5.94,0.027181003636681796,0.0929037738025523,0.33643967088487453
5.95,-0.17473840364359103,0.49902545704492673,-0.35153504286268233
5.96,-0.3279813267213824,0.5956065725094453,-0.8303998161837384
5.97,-0.3766068265337225,0.4776173967696692,-0.9498730884718078
5.98,-0.34355333020330836,0.2048170495035126,-0.6468250343665018
5.99,-0.18931928460176148,-0.033270287260388366,-0.08740802519344433
6.0,0.07393609712819196,0.02701656318657104,0.12156512579491716
6.01,0.14041717276666038,0.3460587401422647,0.27800323780770986
6.02,-0.08563466298844466,0.023071659590676356,0.4191741180449203
6.03,-0.4498922543025728,-0.6186202436119058,0.6511285099568042
6.04,-0.5218798829279233,-0.8287855368477048,0.6797881586173977
6.05,-0.183996521342139,-0.0872962389093813,0.0964312013137119
6.06,0.11523092452527513,0.6539569864751137,-0.4254116310581256
6.07,0.09723330157562736,0.8451714837280724,-0.7406871845574867
6.08,-0.19652466729447834,0.06313438124137674,-0.5681735845069276
6.09,-0.3998473583160766,-0.5643459693541596,-0.19635500375242376
6.1,-0.2105321385089573,-0.026777274946221993,-0.23349014975856106
6.11,0.048586086535772545,0.6731712762364932,-0.0004136121992886522
6.12,0.05993711894764722,0.7549244519379225,0.08739096647241536
6.13,-0.18993545583168361,-0.43139094147170937,0.06150907191552742
6.14,-0.38625428342583235,-0.883048252376712,0.12042583182937219
6.15,-0.27396046476116054,-0.9774018864012766,0.4818741395547776
6.16,-0.0011184653565742583,-0.2521911973000368,0.783543067161183
6.17,0.2662477302735177,0.5057838009215854,0.4769357554767734
6.18,0.2901069202071303,0.7494434497743364,-0.2092810044113668
6.19,0.068456790987551,0.7088463944353846,-1.1361466113947989
6.2,-0.2529697243361416,-0.13858266763805785,-1.468830025681959
6.21,-0.39497367859910687,-0.7699106922331321,-0.7958959698895668
6.22,-0.18625186691744353,-0.7749215621850779,0.3003213671350735
6.23,0.2153339163325586,-0.02138138559432234,1.0027151355590964
6.24,0.5007852582702552,0.5629312519560276,0.9506651661707035
6.25,0.3370239160237391,0.2671692848347659,0.6640674751226551
6.26,-0.13649826657255257,-0.4523272298104067,0.23740229972075022
6.27,-0.3583675945882742,-0.726564226806915,-0.27249701319302233
6.28,-0.13000503329905547,-0.01551230432471018,-0.6990848788112292
6.29,0.13104916991812932,0.5689192003952989,-0.667599232513264
6.3,0.1392117254379348,0.8061880297893541,-0.34718457084725735
6.31,-0.003207387650455877,0.11650935527796083,-0.11188915421963587
6.32,-0.17799869203440113,-0.47424524669140705,0.19995110259883386
6.33,-0.16898882845002178,-0.3841936333935254,0.4563057459299688
6.34,-0.06074215443641959,-0.09755540795405016,0.6382986232082931
6.35,-0.08280185130745689,0.20516043564491518,0.45657820999621146
6.36,-0.20712180210951023,-0.3449678285896724,0.2417530178254505
6.37,-0.22538801327101068,-0.1064029338875613,-0.3880675986593491
6.38,-0.15678336258231731,-0.04146456298436157,-0.6984150783966904
6.39,-0.06476654533837063,0.1289801395616776,-0.5670204520260631
6.4,-0.017944432444428088,0.04974500464999857,-0.2742720586935299
6.41,-0.14697124499506625,0.021905837120110107,0.20199119605589613
6.42,-0.20333565203247747,0.058160635511692815,0.16348588920082663
6.43,-0.2704853254418027,0.325204791612601,0.13616751310829942
6.44,-0.24861399431596615,0.004347156396009166,-0.12149593946434402
6.45,-0.3325292867481896,-0.7503073372495598,0.14375197444038004
6.46,-0.35322701517395133,-1.4317880306850232,0.7498813647949909
6.47,-0.12997722920687194,-0.7117269061783077,0.8962362920178089
6.48,0.18504243851373856,0.8664041078802798,0.38416700834162965
6.49,0.23377436083939632,1.0106896351126127,-0.40618361630487526
6.5,-0.24076000907566922,0.47458433046587695,-0.9316971623991954
6.51,-0.6654541903581135,-0.4992747631683723,-0.8030936515563
6.52,-0.4209917752353476,-0.5439928049550177,-0.7407632159025009
6.53,0.09564119658610211,-0.06208581191472986,-0.07849185262540057
6.54,0.4371793504325106,0.022396909421224027,0.615462378131945
6.55,0.3415095717302364,-0.30259656118697414,0.9306831728106155
6.56,-0.0111719407588264,-0.5326777541121872,1.0291432616986849
6.57,-0.10145849121149866,-0.050467958032440516,0.2896313129465675
6.58,-0.11105720344028128,0.2979190458718634,-0.3370921318526985
6.59,-0.10098079170455199,0.692357290004759,-0.754894142847961
6.6,0.05489438759811268,0.10386322756875682,-0.990422444388445
6.61,0.21335995930478568,0.025026859380047124,-0.7778670538765258
6.62,0.4059183973585467,0.3004048919327617,-0.5588155072281481
6.63,0.35219440389382317,0.2262216976520855,0.29054726853811946
6.64,0.19477175054200788,0.10489585367943537,0.6587639070993753
6.65,0.04491241775110384,-0.5772502639979193,0.6784041796338821
6.66,0.060501519365879455,-0.6646638694980234,0.4873365118400827
6.67,0.21468198450339424,-0.5059008565378322,0.3646717684207508
6.68,0.37118383064610266,0.1012309152724775,0.2957344835967278
6.69,0.4620850026594395,0.7486524327037014,-0.21160800944904215
6.7,0.35139817667109874,0.8407650254980201,-0.8037473358719117
6.71,0.14326042182514037,0.394161895724043,-1.0991821526942778
6.72,-0.09370998583464092,0.01787652274047776,-0.7368568540825196
6.73,0.031493845167670786,-0.2832085371298256,-0.1114050120785417
6.74,0.4155299944354157,-0.152633817532826,0.5357799355169249
6.75,0.6108820415954244,-0.28419921232164985,0.912444668046713
6.76,0.426370109207231,-0.16051844565559845,0.9344985487883142
6.77,0.20520225642977785,-0.06095405473328494,0.48107077315763896
6.78,0.09368016493025352,-0.11635143431176001,-0.1320156932092955
6.79,-0.04445495231948438,0.5070729847000959,-0.440550774075635
6.8,0.054995997694591056,0.5440213507553205,-0.6198221134364807
6.81,0.15804873898657731,0.3804105028886836,-0.36778481718031336
6.82,0.2041438309496636,-0.09221294901909904,-0.3037715793961047
6.83,0.13998385267366964,-0.37822176184145023,0.1241217056457063
6.84,0.16713257879183177,0.01510923119145129,0.20246725797397655
6.85,0.12362820634377066,0.463920320821506,0.3255777596626497
6.86,-0.044629070428824816,0.6241730737000158,0.24342380228547666
6.87,-0.2865765983235455,-0.007990080661492977,0.12053245402490992
6.88,-0.3929085276698665,-0.41811422396166775,0.10267214855310908
6.89,-0.13548191356593964,-0.4176210615277454,-0.12815589436133862
6.9,0.1838949393200911,0.12875169664737532,-0.20049558077076293
6.91,0.2583899697012758,0.6328835687334259,-0.21092479153761542
6.92,-0.06147046525520052,0.5211611405572459,0.07166531442465167
6.93,-0.426882813142749,-0.057359380850125805,0.38780664808908727
6.94,-0.43463913712203495,-0.2252805035022895,-0.029678866337645934
6.95,-0.22699660610653571,-0.034941785044010985,-0.0707262881045731
6.96,0.08456893877901063,0.4560039127128709,-0.17091070162671315
6.97,0.21611557426053823,0.5069428877223513,-0.23615369713199083
6.98,0.07930958763563614,0.19401968353850751,-0.1497439598729991
6.99,-0.19744173797611075,-0.8475152571774738,0.058373745994694394
7.0,-0.4569032943811414,-1.3623737311377122,0.8822836898646689
7.01,-0.2796445158034767,-0.5446244754432671,1.043443723773048
7.02,0.1310699384851507,0.8045032776074357,0.5747566017173128
7.03,0.3221720176083691,1.8416328300748517,-0.4706732388905191
7.04,0.054601699874080936,0.8617507390520125,-1.5610921047752209
7.05,-0.5454468042306924,-1.1068172549088306,-1.3958655442120669
7.06,-0.7007955788660336,-0.8822398180497562,-0.5754411473441835
7.07,-0.13742333937600187,-0.0722785195539822,0.2654460923590037
7.08,0.33227424427528374,0.8634909947396555,0.8882871890199767
7.09,0.15754462815191572,0.7177063635094517,1.0983910328597695
7.1,-0.28887056766087604,-0.3953103961344208,0.9400854759475911
7.11,-0.43644846155025907,-1.112665614755282,0.17550232347807443
7.12,-0.2125584214942252,-0.5506787725185043,-0.6643599682596795
7.13,0.0747743382174074,0.5814466313840226,-0.938805157318367
7.14,0.06104437333103157,1.048931686270263,-0.7721353491349654
7.15,-0.221026671385918,0.24742887984166506,-0.39252313150083795
7.16,-0.464377319658411,-0.6280970976461595,0.07828986523495707
7.17,-0.37763270424821865,-0.7631305411852712,0.5061913164855703
7.18,-0.11090962260438708,0.1460043616907002,0.7390566149107906
7.19,0.05881772641816627,0.39893021885421337,0.7855509857266383
7.2,-0.03419418709982677,0.0033993632955620903,0.3173661563952493
7.21,-0.32465523725921575,-0.21353065402042448,-0.3771226767868247
7.22,-0.4133358912223836,-0.3022242360214449,-0.9913202939334642
7.23,-0.4106047153611821,-0.38775495872639326,-0.6678363707633712
7.24,-0.31515753250815975,-0.1506609455850012,0.05114650740710087
7.25,-0.08779306185873023,0.5808151058950396,0.4313797726876423
7.26,0.10876276045288717,0.9369209625369348,0.1547356268469811
7.27,-0.1004298812543222,-0.052429607067243,-0.2904368972989491
7.28,-0.6673882816798486,-1.0579237815036473,-0.052582712558689945
7.29,-0.7818723322130693,-1.4325142869914465,0.6304680487482122
7.3,-0.2807217542383797,-0.8020228224904847,0.9830266819696718
7.31,0.3075250915600996,0.46130632264419025,0.5561638376986576
7.32,0.4696089338510478,1.25705063111208,-0.3758296634541786
7.33,0.07380240479400275,0.7377429806433821,-1.0661509465761867
7.34,-0.4585234686829027,-0.5999201251603803,-1.1279432291501974
7.35,-0.6344142018468271,-0.7114598467911109,-0.6406689325568008
7.36,-0.23100306984187596,-0.021979534904594363,-0.11368529393665697
7.37,0.23123468006357403,0.6248686279951078,0.43274331349365813
7.38,0.3556622840794058,0.22324711561356728,0.4793447582156098
7.39,0.0754388754361529,-0.7275440258690046,0.3964522996276191
7.4,-0.2682254732420286,-1.3039117608597666,0.5397017688223394
7.41,-0.3696113203852399,-1.5199665714376782,0.9582088784248168
7.42,-0.18615242581008837,-0.4744595881243403,1.2133762943281896
7.43,0.3182422277029835,0.9427170344600595,0.44093180447835706
7.44,0.5604070302380217,1.8519432764025967,-0.9068593637337861
7.45,0.25152677852415534,0.9879119549346917,-2.184236060659416
7.46,-0.329597138322412,-1.33720945150699,-2.207546471839152
7.47,-0.590851794284167,-1.5540281480491225,-0.46362460408864237
7.48,-0.0021964183560761316,-0.8981478100491546,1.2487474402849805
7.49,0.7302565361259198,1.0512138874288621,1.810080915321063
7.5,0.8676782329543844,1.9487215700174125,1.0795304690981973
7.51,0.21148399852288058,0.2912672624444105,-0.020331278533857428
7.52,-0.632757866157432,-1.7522731664967945,-0.42177075479163423
7.53,-0.6623056723419772,-1.6592996528820054,-0.4049179021198302
7.54,0.15947593978529093,0.045571661867709085,-0.28723259573974635
7.55,0.8899808736113571,1.687066739168302,-0.22869348553629096
7.56,0.7945041788403876,1.5955593092012028,-0.3371985154758039
7.57,0.10061285410156924,-0.19683471850048628,-0.3769258827830565
7.58,-0.4464723758672395,-1.353979402458085,-0.18191726132187333
7.59,-0.28155103337216464,-0.3466862307455982,0.23347749871306925
7.6,0.3580158662505281,0.6922202915994449,0.6231499196341265
7.61,0.6523283111443042,0.7960823218151738,0.7228403046672516
7.62,0.508450285599043,-0.13476330807421374,0.27065287200754845
7.63,0.26887647382887486,-0.764768026172748,-0.49425552628755326
7.64,0.13542683387648688,-0.23146181423743484,-0.9773290736144947
7.65,0.09076078700734208,0.850517175055821,-0.7515360657953811
7.66,0.05111161562625744,1.1837687027414385,-0.16772326902616622
7.67,0.00024805042543109095,0.17595829400272325,0.2252630408219544
7.68,0.06030299173281302,-0.6679642503756226,0.24559487246180361
7.69,0.3045255445330215,-0.2206382928349467,0.13519086132051297
7.7,0.42003554374137053,0.2735731571517123,0.15964930901080968
7.71,0.1479350912647736,0.25848926104685466,0.3759222870891231
7.72,-0.1866068748123777,-0.23381933354031012,0.5877605116666966
7.73,-0.22712419308578244,-0.6845058875415099,0.48018604709352297
7.74,-0.022894247931125714,-0.5975507213797316,0.22925157833180645
7.75,0.20279551899780043,0.05637861418447673,0.08412529149737608
7.76,0.3146058012282871,1.1770898361572764,-0.18802134445643795
7.77,0.21434731095795,1.6370237386149455,-0.7592276607868633
7.78,-0.17359438529793797,0.34620872520591817,-1.2542912088756721
7.79,-0.5934552784846002,-0.5427178340817755,-1.007359006732334
7.8,-0.49420665520554663,-0.45158426939259805,-0.0661111182562047
7.81,-0.04739901418188577,-0.18264162144880358,0.9924680516782358
7.82,0.09606086876121238,-0.04181990810052991,1.680616887195313
7.83,-0.0951350896745761,-0.129561696476203,1.7125935782900763
7.84,-0.2549157344807661,-0.14169662281555043,0.9874419867158306
7.85,-0.2722469593511766,-0.026553225742474408,-0.1631654477411355
7.86,-0.22092088395361337,0.3395940817397891,-1.141337521058598
7.87,-0.164514521483317,0.732878292116469,-1.6762624605130672
7.88,-0.23148523716079794,0.7000436769520244,-1.4495533516044614
7.89,-0.3259783970834904,0.16770866911907018,-0.7426963605195364
7.9,-0.28621163757391044,-0.30870441302209806,0.006669002423479647
7.91,-0.1672470011964625,-0.2915574180549723,0.7153642957955426
7.92,-0.07659437667563392,-0.2963027901434332,1.1762902900497516
7.93,-0.08604313311905598,-0.3841515480982318,1.342979317968571
7.94,-0.08693009399595668,-0.30250216537118096,0.8782588134877396
7.95,-0.014819817535540947,-0.19626070868925344,-0.3106154152690234
7.96,-0.107785886778776,0.18248956073131253,-1.2822226021238583
7.97,-0.2812290719854643,0.35966871416622187,-1.4980301054967
7.98,-0.3322229525734001,0.20441350652494447,-0.7998494332096368
7.99,-0.18495175477917966,-0.1883358269130723,0.31326508309325435
8.0,0.10953574083389896,-0.5788356991898503,1.020837136573494
8.01,0.3616781051755297,-0.09074683479569418,0.9708434208362984
8.02,0.3233416866079532,0.18285007376491982,0.4018362206780184
8.03,-0.08905643129044233,-0.14635792766014968,-0.12140711805896033
8.04,-0.42503327181044837,-0.5596271070633738,-0.4746051740872734
8.05,-0.3046720832802399,-0.3567427924252522,-0.6691693593810867
8.06,0.09546540374957822,0.5677312030781673,-0.602971668837021
8.07,0.35887196188614695,0.9663341393812817,-0.36389984146790516
8.08,0.21821838648462807,-0.08975351918880825,-0.05642375310177425
8.09,-0.1701711527216075,-0.9497728977284691,0.3191191446102774
8.1,-0.2473319899494991,-0.67712587034534,0.5606641088432512
8.11,-0.010794665455932483,-0.025796319891003987,0.6174770026510318
8.12,0.032995655860583895,0.16095022943799012,0.5650716379170962
8.13,-0.12855275246503836,-0.21623709242607111,0.5266127717659862
8.14,-0.14068568649155083,-0.6270804581460993,0.360236000747925
8.15,0.10567917803636691,-0.3050616472975043,-0.3750675738776646
8.16,0.28935320228515,0.9819455380431457,-1.030121094734558
8.17,0.16927332653435975,0.5950586637685148,-1.0749730332887435
8.18,-0.2482701694084042,0.22914014479091355,-0.8304796890696313
8.19,-0.42316891573996374,-0.4297782348247911,-0.3347523272697876
8.2,-0.17599925107371728,-0.28619844807131145,0.23451515802172612
8.21,0.11664834762846968,-0.030662201173343825,0.6492765334951963
8.22,0.11264303844274316,-0.3754249419385225,0.8101068374910586
8.23,-0.036674863276020694,-0.8238421911670113,0.7218938008106047
8.24,-0.08934879268571588,-0.9835026037232592,0.5347875174125268
8.25,-0.03456530743670556,-0.4155242472256884,0.3451695616002534
8.26,0.09322743666254497,0.35272327180900714,-0.09414184545042249
8.27,0.11381103561550983,0.8292791105079609,-0.6370632836218816
8.28,-0.03404345156423216,0.5873903291054846,-0.9898548801276835
8.29,-0.16820819428738598,-0.13544858824578648,-0.9653408853638715
8.3,-0.14799206209387505,-0.4585758968267081,-0.3873986316727081
8.31,0.06135301777075162,-0.3604443127300625,0.3120146049640356
8.32,0.3238302721392055,0.25845209514539214,0.5406739310830448
8.33,0.3333853902848886,0.5378571174218743,0.35458387078837383
8.34,-0.015033629201048719,-0.2887185899307348,0.17344401411789526
8.35,-0.3670457298942696,-1.2729194314054297,0.301667639949206
8.36,-0.32009339098993284,-1.3346978422763953,0.5090585037720717
8.37,0.1271444959768399,-0.03409800493226474,0.3701774512032444
8.38,0.5372193791089789,1.0615998593931297,0.09134405199045503
8.39,0.4297774009415284,1.1404866975113206,-0.4890130353959663
8.4,-0.15926141686996037,0.2073417540347595,-0.7528950842080226
8.41,-0.4379425053271775,-0.5729299939670394,-0.8008532355538942
8.42,-0.1952961009970892,-0.3897793964766441,-0.43631760540947684
8.43,0.17153588081926419,0.19686372807572963,0.2826561859641682
8.44,0.3332114739287423,0.29158923908489764,0.6726472023205267
8.45,0.14417874206164624,-0.4399956756905807,0.8639985059873013
8.46,-0.12246969872782479,-0.8689268641156532,0.6615124587968567
8.47,-0.1386893481399951,-0.33415641461442513,0.09829528562926046
8.48,0.005166271641123004,0.5706567689094737,-0.19707767469483037
8.49,0.12707819951462618,1.2209257693535915,-0.6167119297210728
8.5,0.032995639391879356,0.6963603434367359,-0.8808856524184295
8.51,-0.10008369224762793,-0.47935857123013087,-0.8912100193034287
8.52,-0.03359486744624722,-0.7179797089852749,-0.4923662643363569
8.53,0.1413812695774757,0.08377788043450556,0.4191375333361838
8.54,0.21619768451501456,0.049810707446336526,1.2863746243846423
8.55,0.1131395369896017,0.13010127926799525,1.422401295272505
8.56,0.0699861259942749,0.05707851581674,0.6588442406907365
8.57,0.1248128900646446,-0.07385281515472189,-0.5320351154845286
8.58,0.16961056890492857,-0.033883932085931996,-1.2451732201854917
8.59,0.20108202578318096,-0.016998031803714158,-1.0318701205438046
8.6,0.26043226903034955,-0.007122456507474514,-0.33023531639319426
8.61,0.359851446692529,0.4796678789651303,0.13522584354592984
8.62,0.4812689644474538,0.9006926542348251,0.18708233258499016
8.63,0.3055543394869314,-0.1597209835506981,0.3666400970673576
8.64,-0.08474275645746285,-0.921343443382063,0.7202187239517365
8.65,-0.023423767606325824,-1.0554523019374886,0.7961031079923825
8.66,0.361837886178445,-0.18052583387408627,0.47994308521550166
8.67,0.5488220535880618,0.9050915238411139,-0.11384827138000599
8.68,0.38356452894680154,1.3315665116637265,-0.7075293470086346
8.69,0.009338593791978912,0.47961757154451307,-0.9931579041173291
8.7,-0.312457976018769,-0.566287110875998,-0.7002762064762119
8.71,-0.2126627771676138,-0.5171562208170473,-0.16824925357110213
8.72,0.2594263045731323,0.42713039310500595,0.4322724382865831
8.73,0.5429755839847493,0.9250103338868678,0.6851165753770743
8.74,0.2741188261758623,0.228124656262024,0.4007600411997179
8.75,-0.3159390052319728,-0.5568063535186065,0.14224359789179888
8.76,-0.5533187662356679,-0.6709723487022613,-0.18186978936154186
8.77,-0.3251096280509542,-0.2722903235260908,0.09920178091505204
8.78,0.08128353748634987,0.44015237945047425,0.2830597351483129
8.79,0.23731660224863843,0.8391717004616863,0.14995907201752365
8.8,0.1355406644094115,0.698221132045188,-0.27904238160842654
8.81,-0.1165230988801896,-0.14115393492865697,-0.7871146415216692
8.82,-0.3975283426152344,-0.527770698334363,-0.4493585649394773
8.83,-0.2942197897535623,-0.19701153425726742,-0.11408139201919343
8.84,-0.06562720751142566,0.23977384880538585,0.5150088332588129
8.85,0.09762119894207782,0.52956107387794,0.7399623297855188
8.86,0.05447116864215935,0.025881106299496987,0.3245361501183234
8.87,-0.2056751947633859,-0.42024889686364714,-0.010110902480459073
8.88,-0.2981456398484502,-1.1511866202220429,-0.11240577433253532
8.89,-0.2666231831008777,-0.9083726872862079,0.3105274463065314
8.9,7.158703533235055e-05,0.5791400641886437,0.5116427847744994
8.91,0.3707458568562242,1.5139136033727696,-0.06652571555797804
8.92,0.1643997284793191,1.364915232905714,-0.8593877875541762
8.93,-0.4048166469058516,-0.6311296205489731,-1.4590177787257008
8.94,-0.7143742393176399,-1.339320233273335,-0.7498499646151161
8.95,-0.3075213813275974,-0.2861502565647478,0.35188621463242675
8.96,0.3007298027323787,0.533751203496059,1.1851762985748198
8.97,0.4181797864314213,0.9467233042557619,1.204849377710228
8.98,0.060138049357105657,-0.2626379594144139,0.6319062175676903
8.99,-0.4258095252135518,-1.0555870196215114,-0.09757459265043135
9.0,-0.4989070531418715,-0.9396599325497405,-0.7281950217106612
9.01,-0.2585109382637608,-0.024620777188023142,-0.5514437231076134
9.02,0.12595126785105937,1.2662764414526044,-0.39828134789429187
9.03,0.2249472325036226,1.5837713655023806,-0.504855804883358
9.04,-0.09301441011215264,-0.3717263507352888,-0.6091205723584068
9.05,-0.5278131338879043,-0.9871022356718555,-0.20630690472976423
9.06,-0.4239044064070111,-0.6537624058620286,0.6479215795664061
9.07,0.08092623951501572,-0.020106854922095997,0.9775670246004097
9.08,0.18902889395218786,0.1731864757887904,0.8632367239708582
9.09,-0.08379664687050244,0.1030346854999991,0.42844163638027244
9.1,-0.31987797595765727,-0.07667886819596306,-0.29947164595524917
9.11,-0.3575483955209527,-0.12627935162935863,-0.9174233507482342
9.12,-0.22300595691810235,0.03962184618248193,-1.1115351707147971
9.13,-0.1387659196160015,0.04874909292292145,-0.4931541867924307
9.14,-0.1397111230615276,0.021709243588568666,0.4074862779406184
9.15,-0.0720015566746863,0.0884901890913397,0.6738249128519576
9.16,-0.011304942177103781,0.31913035802515266,0.2758332442827881
9.17,-0.1143948596579291,0.5234515119065564,-0.4864830383167229
9.18,-0.38971115815239576,-0.33261099375510716,-0.5815724779415262
9.19,-0.5506503518715051,-1.3834834595891514,0.20268019969711565
9.2,-0.36232135416698275,-1.6431866740741619,0.9894716454983462
9.21,0.12928977467184366,-0.3252695414892019,0.970458116439783
9.22,0.5157158702074006,1.633176699067314,0.09470368002458188
9.23,0.28566445772473775,1.936084882705355,-0.9928012870388192
9.24,-0.5212455607089137,-0.4850939638361757,-1.4466453686468006
9.25,-1.1200230256793047,-1.4428107026694739,-0.9047172533960446
9.26,-0.6712813414246254,-0.9917321266124091,0.19790503280489305
9.27,0.3305910013751168,0.8357318598240764,0.8766511288946988
9.28,0.7539086569234883,1.0981503902787437,0.8885728811309523
9.29,0.2037002526047843,0.37866986937217195,0.47509865459493583
9.3,-0.5306075702719748,-1.4985555025886335,0.09387897423356176
9.31,-0.7232514463502366,-1.8678842896698409,-0.04811800501576774
9.32,-0.2915889684504783,-0.10246962181569097,0.0240309548579302
9.33,0.33887873912250804,1.3611251174154768,-0.01953936589233971
9.34,0.42194086160209976,1.4244368880717924,-0.42285223963883684
9.35,-0.01060139978388684,-0.11346344750177943,-0.8474753970330833
9.36,-0.374886797369065,-1.5493843737474255,-0.8074019590190924
9.37,-0.30837470076377055,-0.44557917521374146,-0.14343449158007965
9.38,0.16621248674931866,0.6147160088625304,0.5117658067862264
9.39,0.30646110297216356,0.5800382355681782,1.142351676605268
9.4,0.12831515367164617,-0.39954088821788586,1.0766665189417386
9.41,0.010918596246362024,-1.0648409376571004,0.3254939124751137
9.42,0.15179581430606065,-0.7890826334567358,-0.6012462258970631
9.43,0.3297148204178698,0.07650798853118268,-0.9935562170509366
9.44,0.27412670128684413,0.7755438185188547,-0.47903015740949423
9.45,0.16053076042931666,0.9643139592076713,-0.019331665187817277
9.46,0.1606296524482262,0.6362308071088981,-0.19890897710036023
9.47,0.1974053486843618,-0.39548442237294135,-0.38374456187685985
9.48,0.19893789303074585,-0.6376848522466099,-0.06565377756111923
9.49,0.35331551398126326,-0.6896280732529413,0.5554845998109598
9.5,0.4787629093442707,-0.3712032061570587,0.9713625359739687
9.51,0.35624121500798817,-0.013021726808419657,1.0419770335701384
9.52,0.19328410796526826,0.545627177359512,0.4715743174639609
9.53,0.09917378155958911,0.75103342643841,-0.44642747780431924
9.54,0.018508782325852208,0.3490374793658437,-1.1326210710915088
9.55,0.05616936108720193,0.09285300474212188,-1.358455519279063
9.56,0.2506177212406567,0.04294482909643171,-0.8681071670365275
9.57,0.4531099494157017,-0.09376471917225326,0.060865191871024106
9.58,0.49912797521624985,-0.4508499274481815,0.8349279799189107
9.59,0.3508507400387154,-0.4954866413388834,1.0944301333056958
9.6,0.16200534658233906,-0.29289887056684366,0.9775342274050534
9.61,0.08803681497026535,0.198513271945579,0.5373012111913399
9.62,0.0830007679628908,0.2988053319390888,0.009492594480248216
9.63,0.08590815263864852,-0.08207511120564946,-0.48858132678705335
9.64,0.14592237394987062,-0.38535552011977026,-0.7042439359276674
9.65,0.305250774073318,0.08900390896381628,-0.7372874240203878
9.66,0.3946781996106448,0.7628411800491846,-0.5509890757775101
9.67,0.172619512264737,0.7296545444346497,-0.04569605709556863
9.68,-0.1977369041681431,0.5087785016824433,0.21273820467836732
9.69,-0.37059577398787086,-0.4442305962343414,0.37955570796076077
9.7,-0.28143546410592646,-1.0108764558776389,0.6042479366073013
9.71,-0.031844205065811364,-1.1136237913080658,1.0447530948334354
9.72,0.3192047599600559,-0.24411289963867494,1.0153649664528779
9.73,0.5547021180555767,1.2892360989732405,0.027270811149186905
9.74,0.3607222837636435,1.9291552966272185,-1.1939376537119109
9.75,-0.30284560417270523,0.15765395911437766,-1.8302224653741896
9.76,-0.9655088198469304,-1.340758670679155,-1.1963974915173543
9.77,-0.7085069111210238,-0.9144359193940075,0.05082565744092721
9.78,0.24441354012426786,0.16965148897704999,0.9318992901988229
9.79,0.7834078007431737,1.5455774152413642,1.1976893367167936
9.8,0.5737860980385684,0.7730113987038143,0.7590343492122251
9.81,-0.17339610666872018,-1.1182366429482113,0.3925075269081362
9.82,-0.6790721824834706,-1.6747425046550526,0.09152140641591798
9.83,-0.4090244879154648,-0.6434935018228234,-0.2702150522639326
9.84,0.202286640640073,1.0679968347291764,-0.5043558967690832
9.85,0.4385449008661136,1.5104353029987279,-0.7485709465989602
9.86,0.12339235470029247,0.40517831732331394,-0.7578308033971325
9.87,-0.2394045603190955,-0.520224568427299,-0.6179335041840286
9.88,-0.17243599331823528,-0.46437503404810837,-0.405103923024288
9.89,0.1732952510808324,0.1508720829715318,0.06424881141555794
9.9,0.29873329846863994,0.3336764133550802,0.5432070718434024
9.91,0.04201342482085913,-0.5088989181315946,0.8700111571166591
9.92,-0.15748877943216857,-0.8325469138132506,0.5087138302251042
9.93,-0.023170375178239527,-0.7621963710276248,-0.026485538117389986
9.94,0.18208567961596345,-0.2692937733190693,-0.14392976051209658
9.95,0.22325618312483858,0.3619244254615131,0.04879180146246979
9.96,0.16850806006617167,0.6899211297375822,0.18355390960734325
9.97,0.1735753520948615,0.36563424293356905,-0.25458010473475845
9.98,0.12312845889939471,-0.24287136977841317,-0.7486444868882344
9.99,0.025773643381124103,-0.3291366781646122,-0.7638937328404188
10.0,0.01649118609874611,-0.12947248120623506,-0.22550246219993514
10.01,0.18201960005574763,0.2391949882147126,0.29016871730072835
10.02,0.3525858622848959,0.5261552703290975,0.33610177605582287
10.03,0.23381246647341716,0.27564916717656573,0.2095392776625353
10.04,-0.06593817709263516,-0.3589392305908638,0.14732103470203517
10.05,-0.21551479720250852,-0.7577365738128131,0.25682430300592624
10.06,0.020663992169838247,-0.13243536815394727,0.08924538846724582
10.07,0.37773602766577796,0.7920977633325577,-0.33415420748828956
10.08,0.35529635504002804,0.7289627006197724,-0.489838172949431
10.09,-0.03045735302096564,-0.3603371078649793,-0.22571719467821014
10.1,-0.2948105307330526,-1.344347711296513,0.33006808945906957
10.11,-0.13015939448160038,-0.594746866100533,0.7190246845314886
10.12,0.29278020911400715,0.9342485690277613,0.5650829582293886
10.13,0.4191097895014325,1.5726437321036786,-0.011756066078856006
10.14,-0.005577739958210697,0.5238982261208872,-0.6241886752745526
10.15,-0.4979966115761498,-1.1360628506363983,-0.8652286137341721
10.16,-0.47422229732364424,-1.2139658818286956,-0.5502921584435279
10.17,0.06723826834049221,0.015428658849978339,0.07867684807008808
10.18,0.4433548263937479,1.1817705372838425,0.5378038445664535
10.19,0.17301026444463907,1.1724322680834172,0.5466482547222207
10.2,-0.3881490538840912,-0.15230401856482162,-0.04087406063942973
10.21,-0.7230643815218113,-1.1340464555240726,-0.45261504360557914
10.22,-0.478007092061482,-0.6610353912772369,-0.3898048236390586
10.23,0.024310179269460854,0.48268581250576337,0.036529261427914426
10.24,0.1799542840518411,0.9810284981428999,0.529091581705069
10.25,-0.042262962190459,0.30699047748766567,0.4169789907012711
10.26,-0.4326963803143093,-0.6153668373699968,0.042934007858414176
10.27,-0.5825539791022124,-0.9594679347087499,-0.20336420352540854
10.28,-0.3936330910954699,-0.42653700302737285,-0.13145028382271515
10.29,-0.1622670273571081,0.7605998380932046,0.34179287031371075
10.3,0.07244340105999995,1.4476473897239377,0.08575844566826081
10.31,-0.002296892570676381,0.650054060101933,-0.5962971474145705
10.32,-0.34442391874670414,-0.5823327703361529,-0.9674289502109285
10.33,-0.45852444015263466,-1.2349542381075007,-0.7016496481569294
10.34,-0.2645736271191933,-0.5105252407442318,0.35438584493783615
10.35,0.10751068649521896,0.8610967151253145,0.9262252116533244
10.36,0.1420418508468813,1.0782516083141653,0.9946423870898841
10.37,-0.20655169282143052,0.34846550614082433,0.42280135126216
10.38,-0.5119089557215163,-0.7420530058296434,-0.3437627795035436
10.39,-0.4415873221683199,-0.9614251281731424,-0.7032619943946063
10.4,0.01331120286599467,0.0514243203155959,-0.7884180870200173
10.41,0.41711813733942943,1.2304687795434768,-0.5907576288666453
10.42,0.3058519750557466,1.2706176514354086,-0.3257742007167269
10.43,-0.24703970466305908,-0.3703288461386185,-0.04134941623555366
10.44,-0.5835921438606538,-0.884831860915843,0.21430686768072993
10.45,-0.26736809280141866,-0.433865700200019,0.5062338498204727
10.46,0.21757613708095178,0.09690185349533696,0.7504233481458658
10.47,0.3094314034763007,0.3780153802632965,0.7402540598823203
10.48,0.14382165536730618,0.22405168917007512,0.1492648120429486
10.49,-0.05906618755018718,-0.003154070068915493,-0.6759038547722638
10.5,-0.1190986133345348,0.16914275234083012,-1.3145380631492782
10.51,-0.12432332074900737,0.4780002927700812,-1.0702770924846927
10.52,-0.1247058819803287,0.30117939338192246,-0.20232489365707593
10.53,-0.036696487426305116,-0.36853960165141714,0.5975071622322873
10.54,0.1704712334287116,-0.43349690952807507,0.851092308014944
10.55,0.34825015026977973,-0.09485711669246044,0.6037710062344598
10.56,0.24770270872254121,-0.031547774831896434,0.3389179758889656
10.57,-0.002326874580822554,-0.5937730073811078,0.2861356548244129
10.58,-0.13816643866649722,-0.821758468934139,0.3032824795971653
10.59,-0.0644944591372114,-0.13684202341795193,0.1519952320952649
10.6,0.2279040171937756,1.0919394699604046,-0.4285820195255986
10.61,0.34564126593381633,1.6530610425565009,-0.9809165031553
10.62,0.07769371855526216,0.07321057765637902,-1.3273257390835336
10.63,-0.34433027159683555,-0.7046101645507542,-0.9579465710736534
10.64,-0.29139377782126474,-0.6481394998519954,0.25579629473424464
10.65,0.29404849882091,0.3401776807417007,0.8829841500676088
10.66,0.5156527391216886,0.49430659018871953,1.201654448468311
10.67,0.18477739288100112,-0.16786154585620558,1.0195751797853498
10.68,-0.17955161865743935,-1.054332513151791,0.49964763816169255
10.69,-0.2423295112305953,-1.2115350907861928,0.2056963498091199
10.7,0.07316777508500075,-0.2755073205282857,-0.39514142506286093
10.71,0.26779905349471983,1.1498908029918724,-0.4656132366136888
10.72,0.2500191062946749,1.3536850100574824,-0.5560407544977826
10.73,0.011024604831499503,0.3078849616224823,-0.8369177595637861
10.74,-0.2017851073310802,-0.28307897420113753,-0.6532707307971496
10.75,0.04219198394218048,-0.019864493584620696,-0.8234312657230811
10.76,0.2209145447486059,-0.03278423669671415,-0.14861467664018904
10.77,0.1739602017813782,-0.3528045321384382,0.6631027071198483
10.78,-0.005136936088967276,-1.0507338339100833,1.2742616586095785
10.79,-0.11449796567613586,-0.7857836267627908,1.4002697996359397
10.8,0.12785370608291574,0.3256192349959306,0.3736349820652267
10.81,0.30741323059428144,0.35947361329009697,-0.524064488574669
10.82,0.1093601979465041,0.45566052112825606,-1.09517305329157
10.83,-0.15679748529895224,-0.2292679384002191,-1.087499831092639
10.84,-0.1740074150932275,-0.33671279847680646,-0.5400235622635413
10.85,0.1261110447312867,0.050528432395420465,-0.12950852005652658
10.86,0.2809955514123998,0.6349138738677423,0.20482311590743577
10.87,0.14223476067626878,0.6754322277434288,0.10120245651028088
10.88,-0.19832851195510687,-0.5438644748976358,0.23094264426569275
10.89,-0.3278054707696188,-1.2662520953634482,0.5935518342411914
10.9,-0.007952224475401384,-0.7983127491668979,0.5362643845193955
10.91,0.3582036730672139,0.17182395942407697,0.21096892964425246
10.92,0.3841343743279678,1.2403912947899947,-0.5006569018625566
10.93,-0.05771255852074682,1.028945414825547,-0.7660893812609515
10.94,-0.5186893703445653,-0.38339660289556793,-0.7802646338314033
10.95,-0.644200282382935,-0.8214570209624336,-0.27761965816201956
10.96,-0.16538640761144494,-0.33080092695781144,0.406373469716294
10.97,0.44420264449541164,0.13860575234872943,0.9174171384985005
10.98,0.48947165492167344,-0.16880281557959814,1.1779951871388996
10.99,0.11687803185690779,-0.5233929749196568,0.6812836416905346
11.0,-0.2740347226739605,-0.47054073408223196,-0.09679331993771756
11.01,-0.36359675074231684,-0.026929910449427424,-0.7212023266883653
11.02,-0.23239683834493238,0.5842276066836284,-0.7174072737246593
11.03,-0.021185059686149862,0.6067796888592545,-0.47776055719423655
11.04,0.05412734276175014,0.35562196468155455,-0.31582985446252004
11.05,0.05281415908332994,-0.09986336055228491,-0.35421328973745303
11.06,0.04377716208746085,-0.4374568728169112,-0.142136813283357
11.07,-0.06888855295682715,-0.1416308715024147,0.31874234770315524
11.08,-0.2306621174105431,-0.35060506193158325,0.8067594672597309
11.09,-0.28769728951774903,-0.6330464677515277,1.1329805645074742
11.1,-0.07102490488982843,-0.7366415727814029,0.7539920778277998
11.11,0.23196454002155514,-0.23878899992621985,0.05933939727385567
11.12,0.29490008420662833,0.6957248483867873,-0.5709859691464374
11.13,0.07242780876008784,0.33114514160059777,-0.8638081003668306
11.14,-0.2903244805050679,-0.48331933973764124,-0.38863921950502206
11.15,-0.3097248081057762,-0.5141247336368351,-0.12748776376902682
11.16,-0.022030028205931425,0.2549851380011073,0.254135034925988
11.17,0.37354098984356776,1.1926515072641315,0.08187930539983049
11.18,0.3720354639826993,0.50609012282336,-0.2725748029375035
11.19,-0.10418216987699838,-0.7311550940830382,-0.24049306880082388
11.2,-0.3239412969906446,-1.2114222842005435,-0.05041504029922393
11.21,-0.08546642988650621,-1.1086575783204238,0.62707235229837
11.22,0.2992105995155627,-0.14300919758786512,0.898694011869041
11.23,0.43965038471472123,0.8721629000454074,0.7058061125849783
11.24,0.30006645723105946,1.1943604077770773,-0.040743889609811054
11.25,-0.02653789215557731,0.5081217479047913,-1.0566928211682292
11.26,-0.3776240316071686,-0.29812018561410214,-1.1903681538983075
11.27,-0.2882924132005988,-0.5414234606973243,-0.7038012594887958
11.28,0.18697572856788597,-0.06167365520528262,-0.08891546446812446
11.29,0.5754487932704884,0.6960642912093439,0.44286782364244276
11.3,0.5388334286927886,0.27432075846110343,0.6674506646823001
11.31,0.02546295665317961,-0.5066542049025794,0.8599518991199597
11.32,-0.32771647255754816,-0.920355438956656,0.5517797290705079
11.33,-0.19033823369799366,-0.3027441948816296,-0.010076425605082042
11.34,0.1957585768347707,0.9499895354397322,-0.511797871028483
11.35,0.35802363384286967,1.295824622336032,-0.8298257907294951
11.36,0.1251402939146553,0.5541366562775336,-0.7812732190349838
11.37,-0.06011254774782533,-0.8051978678866942,-0.6423548984037724
11.38,0.011135865115938458,-0.7447552430062481,0.1274422784524949
11.39,0.30021174892849484,0.2654516614485265,0.9215810663637619
11.4,0.4698872312773436,0.6317437104738568,1.1818500900542486
11.41,0.27422028402914983,0.1670671432366548,0.8346651911648014
11.42,-0.09809888103896777,-0.7851535134221925,0.2148116898057388
11.43,-0.24957569285512968,-0.005935855171178673,-0.4649733721700959
11.44,0.17523132302281563,2.1235171055361137,-1.439691367128724
11.45,0.47623578580957565,-0.36667193934973424,-1.8161081695995862
11.46,-0.06907861202243315,-1.3113519623029912,-0.03319129025834315
11.47,-0.24067432698781094,-2.536426895362329,2.736142920072862
11.48,0.0875190146730295,-2.8569630410462117,4.89056008311614
11.49,0.43165224764104304,0.3580787887702207,4.502616393009727
11.5,0.9779471786864838,4.858886328331947,0.7636403479408062
11.51,0.6185146097889646,3.8198099524911173,-3.6879746633646024
11.52,-1.2367588441278026,-1.777787177773489,-6.103797431328703
11.53,-2.1636174038539253,-0.889096358244784,-4.886755385127563
11.54,-0.7499795591591681,-0.9026445197445669,-1.9265914167514768
11.55,1.2684393166321426,0.5549895133614509,1.2030048815336625
11.56,1.877338950746574,1.4974980258093789,2.6058938095424784
11.57,0.9943693457171697,1.1226886523488182,2.938535658967828
11.58,-0.21550415764541533,-0.7098889208453423,2.0296124115355805
11.59,-1.1712245874037839,-1.5508290641514137,0.6375799700515571
11.6,-1.4353897034354537,-1.2063134256423829,0.3888937999616037
11.61,-0.46718429793925514,0.8681198433385179,-0.6295523449243425
11.62,0.8239939255569504,3.299565316691663,-2.971968349636944
11.63,0.6924461142984769,0.0927768961013746,-3.6461269844565147
11.64,-0.4187148853301592,-1.665020534033279,-1.8793694848765148
11.65,-0.768626760417099,-2.256405659287086,1.5161874657128684
11.66,-0.140619122412784,-0.8464549555598606,3.7027107065206613
11.67,0.45939775018654627,2.012274605886717,3.6283904688410487
11.68,0.5411514812243566,3.167620705658396,0.8161198573212417
11.69,-0.21095003849572286,-0.8859828339166493,-2.206871919589695
11.7,-1.1998492221697845,-2.0366378842037407,-3.0305666657242534
11.71,-1.112791816942839,-1.6078297306631235,-2.145343240046483
11.72,0.0553642422086426,-0.061750995543532375,0.10171186175016352
11.73,1.124414292595908,2.692299282209363,1.5734768242304569
11.74,1.1446073882642247,0.9915199738056566,1.6413147376403399
11.75,0.1414318788012145,-0.7270010093573251,0.6811712212335435
11.76,-0.7183029094126812,-1.3690306528457015,-0.44896430797007436
11.77,-0.7327395528138861,-1.2081017439209822,-0.6335635023592722
11.78,-0.10339733644912438,0.5452998780359265,-0.4040500283462526
11.79,0.5213347749215506,1.3714162645437815,0.006406743888124769
11.8,0.563374970549747,1.012849377768753,0.2988854308015306
11.81,0.2165960359579125,-0.6733977119853727,0.19186828011918095
11.82,-0.05666094004329719,-1.4736147247530818,0.015699477059054084
11.83,-0.21371011497381548,-1.3330501188875805,0.9463964015721331
11.84,-0.32258167409370303,-0.6031980271984502,2.66208903585749
11.85,0.04096535985629012,2.198887562720016,2.126127495997427
11.86,0.516376017275887,2.3519709056892553,-1.1256414974832398
11.87,-0.17295417222041687,-0.6748795315640801,-3.9061960740453423
11.88,-1.1958006033497017,-1.2137334591183968,-3.623384601001165
11.89,-0.949723566685976,-1.7900699190306355,-1.26972371866346
11.9,0.14317379883973175,0.2655070560196604,1.1864338849328728
11.91,0.9121380207832451,2.5361325457869306,2.246881794757011
11.92,0.5816349055450497,0.6522982653713804,1.8462878354443069
11.93,-0.665360711414079,-1.872256369836457,1.470014804770547
11.94,-1.2924439797004226,-2.376534769996742,1.5968128762597174
11.95,-0.6228184975721026,-1.0315505720519882,1.0049861910317963
11.96,0.3360526469742021,1.4541648665737883,-0.15540681942674361
11.97,0.5816971984433379,1.9590309638005368,-1.1792670182617921
11.98,0.1478845554556865,0.8202102364065621,-1.795743399072752
11.99,-0.411408358230146,-0.8926649748509236,-1.5917663600763468
12.0,-0.5144794241757581,-0.7792249375217886,-1.2821709011201476
12.01,-0.1321928527068479,0.9549596134042561,-0.7855170699710744
12.02,0.1553900580477948,0.7467548007437017,0.1114257987347644
12.03,-0.2170298489276168,-1.1328832728308145,1.495013467809225
12.04,-0.5110461110516541,-2.1057548745983103,2.831056409374857
12.05,-0.03878065288103608,-2.270732312287241,2.9028365570807466
12.06,0.5546214009346017,0.08167172814869361,1.6058742451767811
12.07,0.7345214930964322,2.4403931320953207,-0.3202689373337793
12.08,0.24373947205984128,2.5086520413575517,-2.1825034566394304
12.09,-0.7299344371587294,0.4229037614408179,-3.3725170102334014
12.1,-1.302130545815535,-1.2935259724672328,-3.214093198343616
12.11,-0.7966781035898673,-0.6511894450284399,-1.5374929154003034
12.12,0.2954788723102914,-0.10824987727030241,0.8736570176039868
12.13,0.8410863692292821,0.35349919268966984,2.902897386339686
12.14,0.6460046903086759,0.6737764127244087,3.4028363762204403
12.15,0.10312605413494401,0.1257040178146187,2.192031324329143
12.16,-0.5967235934143321,-0.5728254852533532,0.35766694258173587
12.17,-0.9903678654308752,-0.630177645943491,-1.0663997406318941
12.18,-0.6403596411345642,-0.47595961508138623,-1.5925184081518289
12.19,0.18598070006873568,0.8033318907894423,-1.9469044804821207
12.2,0.8199744817218163,1.6139742331935576,-1.9585061330894173
12.21,0.7951951982029067,0.3184818495660067,-1.305824896071082
12.22,0.09295892526158066,-0.9996891164720703,0.10491911695445272
12.23,-0.455280042349193,-0.5967116003314608,1.3288744516661521
12.24,-0.2622429077132699,0.7655498601336214,1.2817394994359215
12.25,0.19806893482991017,1.1304106889681522,0.17089319211575144
12.26,0.283878499489609,-0.18925320678250893,-0.9387470971773826
12.27,0.0746399420329928,-1.4571469466047287,-0.7448042436321661
12.28,0.16982184080440255,-1.5981077390785512,0.11724711847583603
12.29,0.4897583327101888,-0.7534996998209795,0.8040923015668617
12.3,0.562536354294773,1.0482658396668505,1.004749809431577
12.31,0.3226597128284545,2.263335292980281,0.49768683904224914
12.32,-0.15937197567414169,1.115771809247515,-0.5653330822561695
12.33,-0.6521034733225592,-0.7581088015947473,-1.3488527995588993
12.34,-0.5236660506560228,-1.056498506821907,-1.408949472980093
12.35,0.29480239897357896,-0.267874149180133,-0.7219879298929242
12.36,0.8670195094802453,0.2881678001063307,0.45187506793142657
12.37,0.7343649090332095,0.5244386423141791,1.127403257844839
12.38,0.2626375179579396,0.5532166014267144,0.7749527552461389
12.39,-0.3789097069316318,0.05652476672125685,0.2735233138811805
12.4,-0.8269241583237552,0.00811079666043735,-0.05932361721552231
12.41,-0.5799912632229645,0.1420182486388596,-0.33127835727393007
12.42,0.023241141740578182,0.2007652586712868,-0.3935996106341983
12.43,0.4248715951652607,0.2118091648908572,-0.513024392781362
12.44,0.4632283762427569,-0.06532053109090764,-0.4754413233023744
12.45,0.11188198027445541,-0.3370139031724903,0.04819042894595297
12.46,-0.48384316837883873,-0.3137693575139108,0.9167467142991828
12.47,-0.7687953441563389,0.44699836865498865,1.2514746559760772
12.48,-0.4984768614594823,1.1407226990819035,0.5066265106398581
12.49,-0.19907633608508082,0.878182787833973,-0.6392950977478115
12.5,-0.20549771267019334,-0.2898700337495932,-1.476877832334306
12.51,-0.35605134874891087,-1.3928766605780218,-1.0676631843820599
12.52,-0.272623785324898,-1.41949772615806,-0.0912757433061195
12.53,-0.08438469503755433,0.245672093937463,0.8109114205549834
12.54,-0.020467791299499247,1.5070930228048427,1.1759511783341767
12.55,-0.26555438279228477,1.4495434687313926,0.6196031210539835
12.56,-0.7021239106565221,-0.04180361059973761,-0.050899780897625625
12.57,-0.8106980347062713,-1.5208327923498055,-0.6372055636058314
12.58,-0.4667224368435179,-1.1165480270299086,-0.9413746256356951
12.59,0.17872555265828044,1.111154518174142,-0.9882584308963992
12.6,0.529431291385008,1.1401477976887655,-0.8722126593899864
12.61,-0.03713607824634812,-0.06556175453589637,-0.21616880044340683
12.62,-0.7155677267197655,-1.2388931697982277,0.49260874555951883
12.63,-0.7181193219073463,-0.4159172327826989,0.7713153617687181
12.64,-0.09880394014904569,0.47245959159143724,0.5206302727766271
12.65,0.30171886566379374,0.5735616296652486,-0.21632231456870982
12.66,0.04907698026509628,-0.23074175084015783,-0.42979154527735863
12.67,-0.2962605524007467,-1.4671598220918838,-0.046180770425010294
12.68,-0.2787756846816929,-1.407589708294718,0.20951193564182302
12.69,0.15944029645638944,0.830243494462402,-0.013506556993462237
12.7,0.5648563272596361,1.7844951751216145,-0.6986466909066446
12.71,0.17195654168381513,0.015367141486481883,-1.2391860936628523
12.72,-0.590320812591378,-0.6877194641091036,-0.8739237115050698
12.73,-0.5036999567383771,-0.7990824211615888,0.23120328763015152
12.74,0.19367572758188245,-1.2183213212197175,1.4342259362981096
12.75,0.4563155907239403,-0.6209487754244722,2.0955557406171326
12.76,0.45688452344864144,-0.12080536219644761,2.083257871605728
12.77,0.4529593386573147,-0.39548187349690866,1.2438526597117578
12.78,0.12574557896157165,-0.22427529728508136,0.24948152398414192
12.79,-0.16859049630336714,-0.31210807422483716,-0.631325939776102
12.8,-0.16938161610643093,0.6278496657457704,-1.9546110160463959
12.81,-0.005886857696416102,3.4216600515771742,-3.5250018810451946
12.82,-0.05929075677915981,-1.4344710453789138,-3.4960927790301444
12.83,-0.5672213954108992,-0.25119743422496926,-0.9820133847269309
12.84,0.03540621962807173,-1.658980320286019,2.580466822895328
12.85,0.8024812519191525,-1.3035180921719245,4.403262707051167
12.86,0.7614467544768281,0.823481627075877,3.734849927634604
12.87,0.308103255895225,1.7813550003783767,1.6206364492314849
12.88,-0.33720587645553907,0.0638641361029106,-0.8610661891995144
12.89,-1.1007512498303775,-1.3162493531470776,-1.9090507643664922
12.9,-1.1976984002267128,-2.104549414303163,-1.0953567738696852
12.91,-0.30923186568147254,-1.6054634025175167,0.1438947959677338
12.92,0.868964963536394,3.4733717460956464,0.05371305783727891
12.93,1.3908631221345893,2.0594367755903855,-0.3517341027659404
12.94,0.3643925422201183,-1.4891904980119353,-0.6059124764659133
12.95,-0.8785856478641991,-2.0722356101906163,-0.07144589452223474
12.96,-0.663696863249779,-0.4955591428519045,-0.21753989350265449
12.97,-0.040675666311213464,1.361702676494536,-0.06946093688197824
12.98,0.12495474611015343,1.691127002088679,-0.068178329901733
12.99,-0.11922800148604219,-0.4617199111677223,-0.008260124656050933
13.0,-0.38564155014126195,-2.040196564341451,0.405025432980778
13.01,-0.23736003599952124,-1.745589585404383,0.8027817922899422
13.02,0.15455773205483667,-0.18389392135367955,1.9319755549186086
13.03,0.5958334267524659,0.5754413230838664,1.9661143807154013
13.04,0.3781104305987832,1.3843170053544855,0.8970888479029805
13.05,-0.005753336872333762,0.9796363755222913,-1.4215236966437943
13.06,-0.3689715729966738,-0.49509939678728265,-3.0949284144018834
13.07,-0.5375504146096555,-0.9847596443665032,-2.452295362830848
13.08,-0.10871468265254627,-0.64567277867741,-0.7503929374990956
13.09,0.4429886798766927,0.6276490181676648,0.8310860553094432
13.1,0.8154838570891996,2.0901454683478167,0.6993403633893692
13.11,0.4949517142583553,-0.648696320712513,0.1672992501349355
13.12,-0.3939409522943164,-1.2516307799178918,0.3810332352463414
13.13,-0.572532869595638,-1.2503180556820732,0.730473284965372
13.14,-0.11074030555585593,-0.3868346470277709,1.2225694702446568
13.15,0.5813636058890138,1.1694227825760761,0.2504126181175604
13.16,0.7678452078218991,1.2271667199658105,-0.7354205965174923
13.17,0.36109951124251455,0.09618151100896045,-0.9195962261765734
13.18,-0.2774171959973368,-0.3329294522240697,-0.554842784806773
13.19,-0.3587895885318492,-0.5506333534679062,-0.2178455228431987
13.2,0.14440381494220406,1.168945031882956,-0.574411246479965
13.21,0.4443449655207394,0.64537093533296,-0.12627228283548533
13.22,0.3098975585191619,-0.3718449229120039,0.21727618513150038
13.23,0.006184781289336685,-0.9801301258827936,0.7239441354387256
13.24,0.04061128825469947,-0.6693172100635337,0.8439336508521289
13.25,0.2499083959643643,-0.17693424853344888,0.5164146982300115
13.26,0.2055908408478534,0.22391778619647607,0.30667376383179584
13.27,0.03353520049887717,0.5822556086842722,0.06314145173127636
13.28,-0.013920737784705433,0.3689113162335164,-0.4199138120224353
13.29,0.09387288588310835,0.34729212710274077,-1.066368208954772
13.3,0.22120985875959587,0.3810131333422065,-1.2280083636174222
13.31,0.24155774621495277,0.18260635931119198,-0.6975674939774985
13.32,0.18272519087605857,-0.2967079845329249,-0.028376046624627366
13.33,0.04492089411923318,-0.4802106783720384,0.7621309757934391
13.34,0.06073636211057231,-0.2965199224414858,1.1793494705057534
13.35,0.08571739918144597,0.22210023324802314,1.2359037760069707
13.36,0.0517121615985217,0.23619775407291588,0.5980239155372942
13.37,-0.010986323878408848,-0.1068794165089409,-0.30114070931693465
13.38,-0.03473414975051449,-0.16697026421106934,-0.8799293778189663
13.39,0.044072805507902386,0.4904733076794377,-1.1452746335865556
13.4,0.06549867712706348,0.7343587986930241,-0.5787973226293992
13.41,0.025440961182538545,0.7299934316445715,-0.19100480829563074
13.42,-0.08014702759825666,-0.14271046684450853,0.30022822684439054
13.43,-0.10125980950693107,-0.21202145186032476,0.373218715337071
13.44,-0.0053035326107863335,-0.5807099516967461,0.6536425821408123
13.45,0.06284451750883126,-0.7153395878475696,0.8401920976026811
13.46,0.1419500739218474,-0.4023846804120481,0.5198389671389062
13.47,0.16976313428927098,0.2715779091525363,0.12269639620411119
13.48,0.1600107984964738,1.1310439576518603,-0.68437214464109
13.49,-0.07160126742134626,0.44549393599771814,-0.8159244920336847
13.5,-0.3346559936124467,0.02633789842665996,-0.878855948510479
13.51,-0.3507842051847276,-0.6713167789083392,-0.34148209407789476
13.52,-0.02809089738704442,-0.05595571097788475,0.26715793745200517
13.53,0.4295762233773788,0.7817914126010966,0.32524690230432257
13.54,0.3626809193425919,0.261252988944704,0.5831303936890272
13.55,-0.13527365050568413,-0.7338218543637424,0.3876296443104934
13.56,-0.47576906289693194,-1.2694039335068512,0.32153631744179717
13.57,-0.23510807189922497,-0.35410409270358106,0.017113659434288532
13.58,0.1270785020032234,0.19668802936719354,-0.09064912821439992
13.59,0.12870325913966452,0.8990951680489018,-0.04900249340167984
13.6,0.004410740043539969,0.3227177301510448,-0.3863299387158688
13.61,-0.2753926877621748,-0.41231267033727476,-0.3662636012113076
13.62,-0.30243496223889405,-0.20159858001094086,-0.4469019211864112
13.63,-0.08972009446599004,0.20702959206846033,-0.17559148610591005
13.64,0.087366321849574,0.4048018760882973,0.16907615603990603
13.65,0.03861637353110432,-0.14656181967678897,0.32052202036137584
13.66,-0.17833514987934332,-0.8835486523792817,0.5153167084157513
13.67,-0.2253906211498149,-1.2695387098555597,0.5800404840675021
13.68,-0.12181491737866072,-0.4573124917851112,0.5737729566014017
13.69,0.05076421008351924,0.5190803998398316,0.3815048915342413
13.7,0.15129651709698808,1.103282081482671,-0.3196797130585066
13.71,-0.06101478640138386,0.8131867656470817,-1.0773978144167955
13.72,-0.3818231585598737,-0.15871867586573307,-1.3861970763560973
13.73,-0.4033839203312111,-0.8223046522064478,-0.9737091900708276
13.74,-0.1313729676775297,-0.6962971715148374,0.18469800743524856
13.75,0.22340479071847918,-0.0942732726630087,1.2380635812222216
13.76,0.4263062891100845,0.7045809509407216,1.2336760492751613
13.77,0.260566823630368,0.6013157319311611,0.31151883859885654
13.78,-0.2875587796638381,-0.6504286331299707,-0.3709390820658544
13.79,-0.6113989703628326,-1.2184783509127168,-0.5798865846153389
13.8,-0.30566082835788794,-0.976285018954292,-0.23715999738244384
13.81,0.3149243312719184,0.2847301124794063,0.0572247478892786
13.82,0.6885969783976982,1.0793613900922572,0.05536236007502416
13.83,0.5337966916100911,0.9355366771872107,-0.2621128585206713
13.84,0.0220848297347272,-0.4735491071486647,-0.5206978749254166
13.85,-0.3955999906738569,-1.1134474073634928,-0.2007986477104644
13.86,-0.17268571697280477,-0.7571590892072126,0.20913760885165184
13.87,0.3122578660159564,-0.1326841096656423,0.6774457435385632
13.88,0.5440069106903529,0.39600558324621565,0.6589776827484345
13.89,0.4738247472882825,0.2708250483845603,0.21513225198267666
13.9,0.247202717564232,0.02960727545898775,-0.4481387162396204
13.91,-0.03376893335411175,0.00870164061949957,-0.8829071203738913
13.92,-0.18140681244163875,0.07932522902929116,-0.5743297276798153
13.93,-0.034484780856944154,-0.031923848399196784,-0.004304422466271136
13.94,0.1145883525645824,-0.24374163129044363,0.7475759841853552
13.95,0.30307246020840795,-0.5585304449280037,0.9448839491878744
13.96,0.4268931599576165,-0.3209115450696268,0.5897941164334501
13.97,0.3584054457302083,-0.14612982364920446,0.28368893172023124
13.98,0.11797851720811423,-0.03494429787409045,0.11384215956223057
13.99,-0.07160734022699568,0.24993971834198642,-0.005356576387978644
14.0,0.0368019921311571,0.8583776789458097,-0.7420494150526119
14.01,0.1860141490033446,0.8990127172724388,-1.2141743338466207
14.02,0.24772568355330196,0.5254344013755182,-1.1670388009195503
14.03,0.2089079689807353,-0.41140280690276326,-0.6209607759172416
14.04,0.09394059653573955,-0.4935269493928058,0.6123285152983912
14.05,0.22363453577973944,-0.4555543078577605,1.4341484892304854
14.06,0.2946949975076433,-0.22542772314487547,1.6446222439685827
14.07,0.19119994072493857,0.26993302853474077,1.0285799117724639
14.08,0.08840669981284585,0.5714978221765338,-0.07251331932020597
14.09,0.04604851344469042,0.6314930211291774,-1.0679162766727197
14.1,0.020458672775810153,0.354476875803755,-1.4732664999411096
14.11,0.07644870655850548,0.2687551615100919,-1.166657732826716
14.12,0.2523124378239643,0.4905338496409093,-0.6171562694697095
14.13,0.34298557547028974,0.23744952459959318,0.016302745204117113
14.14,0.2005593108334435,-0.23272612513865115,0.6898098304218507
14.15,-0.00020888011784198055,-0.36871199037396357,1.1271887439104702
14.16,-0.035887873154535184,-0.5006923083174388,1.1093259293634103
14.17,0.04055361608829068,-0.3762752323935499,0.6784250094239491
14.18,0.17521914471918318,-0.07474031075480837,0.09232708489376004
14.19,0.2878105856592625,0.3441307599736293,-0.42682173512486693
14.2,0.28228210348549265,0.5899083149100367,-0.8153263403141375
14.21,0.15945707972713108,0.3462453463518186,-0.9034805255182468
14.22,-0.0067027013001207236,0.2673044520752003,-0.6178667317219899
14.23,-0.07125688316485812,0.5338815567642474,-0.22559750846526322
14.24,-0.056504661306456413,0.4916390294998943,0.16656627612468622
14.25,-0.05100649687655038,-0.09911610377369336,0.4073831844790261
14.26,-0.07987629106269152,-0.7868437683563957,0.5680536055958113
14.27,-0.05668089332631552,-1.0208283959394062,0.785098722059982
14.28,0.05439723126777532,-0.22447871030048297,0.7528512022069673
14.29,0.09327836874222437,1.0672933684786066,0.36993721715902317
14.3,-0.04438810518191668,1.7251949715804618,-0.510701612134502
14.31,-0.3954126719259892,0.8108239189876294,-1.2960305891015145
14.32,-0.6694172278801325,-0.6397167559499539,-1.3016617474125853
14.33,-0.4604956638956653,-0.542287814318861,-0.5564742382396846
14.34,0.11727342728928118,0.23781347343848427,0.5031386950798233
14.35,0.4707926778104162,0.5956467337700263,0.9898074311700366
14.36,0.22065269643797236,0.016189262775348958,0.9231717589192533
14.37,-0.32095116321792866,-0.744171312634391,0.5965166052743814
14.38,-0.6171372353749978,-0.7964373438766797,0.31965711439341865
14.39,-0.37354102364126457,-0.1887838422001015,-0.018609865700738182
14.4,0.047448656288240805,0.43264856473007907,-0.2949453348996769
14.41,0.1893658251173316,0.6282161101470205,-0.4116793100560091
14.42,0.12419267694054187,0.6148338987721875,-0.7101735688872799
14.43,-0.048286224059247686,0.10710201726723535,-0.6956428145898308
14.44,-0.2890476269819927,-0.4285158017411109,-0.2518661859391208
14.45,-0.404676965501395,-0.20694938842396626,0.3623005465093125
14.46,-0.17863129034179753,0.19338579212489412,0.6295542299984257
14.47,0.0660227090407911,0.11532958099274339,0.4824404131291413
14.48,0.05288385255696093,-0.254639957091618,0.22055010295984756
14.49,0.009355236774254462,-0.4711272812062719,-0.1387013645098256
14.5,-0.007590522990493716,-0.19990051596585878,-0.24341806203745506
14.51,0.006480033140898221,0.42269242653867023,-0.32829832917885293
14.52,-0.024857039619682355,0.6076008124294876,-0.4036910701217844
14.53,-0.17365821886023444,0.36470380393439683,-0.32761155214026594
14.54,-0.26624113575430663,-0.0164911987598096,-0.12956448658689934
14.55,-0.12604347056184106,-0.04183635760915029,0.14201995281308805
14.56,0.15420689025983692,-0.3065205647312361,0.3018342373194341
14.57,0.1922370241375608,-0.8408032185380958,0.5512894178392468
14.58,0.06968593342750015,-0.7172480224233141,0.6144775677809118
14.59,0.09086965374857682,0.28342636565868623,0.25715982149295946
14.6,0.1207307169834434,1.094747443368201,-0.31813046838390263
14.61,-0.07738925981423371,0.8859533187012022,-0.8987487005981135
14.62,-0.35565232580165523,-0.19944640043978437,-1.0252702174400135
14.63,-0.4009876895714536,-0.7400177847113426,-0.4783885009454257
14.64,-0.03402808284486216,-0.4562069645975164,0.3446982888095342
14.65,0.4203535790186092,0.15778652333160048,0.8435008070744521
14.66,0.3986901107792305,0.1862215619930687,0.9009274661982559
14.67,-0.06362945515259179,-0.4438891438645416,0.7662766472846948
14.68,-0.35929528452355125,-0.8926341441394722,0.3542649012723345
14.69,-0.23492683659954633,-0.1262119733184182,-0.33115041141196877
14.7,0.014769227458842689,0.9341018186348397,-0.9633569585629845
14.71,-0.01533498410800475,1.1297926910459857,-1.0983151497795516
14.72,-0.19647786227740538,0.12088206199199171,-0.7872530279065036
14.73,-0.2574156992527548,-0.3043023378479213,-0.31017676880870604
14.74,-0.12331145303277305,-0.20380518106790424,0.324469145125056
14.75,0.04068316636125538,0.024720384602798327,0.7077898809739652
14.76,-0.019957867054034992,-0.2916068812609708,0.9421210414189025
14.77,-0.14508685328057447,-0.7564829307898889,0.8103901707653386
14.78,-0.19285150766299314,-0.743269557436896,0.4559655490629599
14.79,-0.13259742852755096,-0.14823083661164552,-0.03230050470073765
14.8,-0.04828447652098367,0.8319812373981254,-0.4310065499439737
14.81,-0.016074780784244447,0.7691880446196191,-0.4906354528596772
14.82,-0.08469512975282828,0.09347163357438046,-0.5161810212621974
14.83,-0.13845398872925976,-0.32442502591155487,-0.37596711588229664
14.84,0.05705193178385334,-0.014601748530332284,-0.30811369845409164
14.85,0.18311348979565584,0.26216331309771856,0.10749972541448576
14.86,0.06455686425230764,-0.18693122137764825,0.5668138795524352
14.87,-0.19164624436563185,-0.7898540961294659,0.8456029481720412
14.88,-0.22798189265275903,-0.4833836079358017,0.7289950397392424
14.89,0.11153439667015724,0.6050185176422093,-0.03513041018099087
14.9,0.2618689266744401,1.0151302248477103,-0.4912497288832972
14.91,0.07103994292395939,0.6736036455321879,-0.730507872350587
14.92,-0.1464317122540692,-0.48990026061257713,-0.7673144066539017
14.93,-0.14922339516246777,-0.44885518728488105,-0.4942140983775577
14.94,0.13609478497424352,0.1501307034485602,-0.09113916534536146
14.95,0.2519022383056161,0.772455667749149,0.6457269638504253
14.96,0.15262095081223176,0.7970134795840452,0.5655047822365583
14.97,-0.13261613990986412,-0.365960481982748,0.22244292900061574
14.98,-0.2766952911055222,-0.7983908949148251,-0.16579547970870248
14.99,-0.07091586021953118,-0.029008620220485597,-0.467287945053299
15.0,0.17154876344924058,0.8488922052281627,-0.3062531146076464
15.01,0.12525931493310516,0.6444603391915561,-0.06969281612350055
15.02,-0.1286551175119045,-0.4130172610970319,0.1736071640359124
15.03,-0.18363462928432342,-0.5835738725734588,0.08737656522103665
15.04,0.022739423764070104,-0.2293122932302731,0.04175816823548698
15.05,0.19442190857373406,0.36730187333999065,0.1733420283866871
15.06,0.09322797513386914,0.3641298398059274,0.3172147200708479
15.07,-0.11974110972645036,-0.30815563202961843,0.30153124991670543
15.08,-0.21603606962624033,-0.5968015389281374,0.15181063510873086
15.09,-0.05135190815732743,0.07615805819328195,-0.1504907449981812
15.1,0.18838869686996007,0.8413866221303155,-0.3848431588246888
15.11,0.11821679114032575,0.8225909793376355,-0.3704127638293986
15.12,-0.14103317632796641,0.11544373229063079,-0.33821826229375834
15.13,-0.2690395769847823,0.19720139986656765,-0.31885592433954574
15.14,-0.1832940200686017,0.26532892508878575,-0.08139119441851132
15.15,-0.10704389088143593,0.46016728576672455,0.09913031790261632
15.16,-0.12966173047327986,-0.17715482766225954,0.2220030591613616
15.17,-0.2945626546202032,-0.6379569299888659,0.5667383830671917
15.18,-0.4377896027514669,-1.0473818411095768,1.0295648007139975
15.19,-0.37696629057206377,-0.6596285758216596,1.1899036671458203
15.2,-0.1485638182927827,0.2961966483874824,0.7695115851405933
15.21,-0.06454821203897228,1.1007119036018085,0.11454102414790807
15.22,-0.07259146819189037,1.660052510635113,-1.2146283183112383
15.23,-0.25024503208547383,-0.554032668919157,-2.06402430216066
15.24,-0.5433424987148721,-1.0129604188044454,-1.6392317709325255
15.25,-0.40658441710076915,-0.949936495721886,-0.07194440716394666
15.26,0.04081029297572478,-0.05718536299828194,1.2577041168137957
15.27,0.24160639450527144,0.817160322136508,1.652698771001912
15.28,0.039036890857283506,0.7396087235682385,1.1326893797355302
15.29,-0.3204165270232493,-0.008233328297094715,-0.2547355552751325
15.3,-0.7135686315457586,-1.086663409492454,-0.7519525070696087
15.31,-0.6291911812192101,-0.9187280784606692,-0.8274976249673772
15.32,-0.06724348313743976,-0.24277572805213607,-0.6022196618916013
15.33,0.3372986020511477,1.1325877878769046,-0.30620035569337745
15.34,0.22497987183889767,1.1471773295077987,-0.08629519342736118
15.35,-0.3145271192273117,-0.6984740924258085,0.5025432406242418
15.36,-0.624321689087942,-1.3593438080987348,0.4306840771064705
15.37,-0.39229053107811823,-0.8919567497023695,0.2747424190892864
15.38,0.1977044474156591,0.64710548022685,-0.15862982532745104
15.39,0.41721597693491974,1.0471928021095807,-0.7166104259613413
15.4,-0.05859860872371955,0.46582999307352396,-0.7390464632515527
15.41,-0.46335032096254236,-1.134050837450395,-0.5190044728632317
15.42,-0.4497085913380307,-1.087752061658253,0.1410051635257369
15.43,0.05706144249565602,0.2408496440795035,0.5221465916256615
15.44,0.4507881293765347,0.8250543572877289,0.5338972492550248
15.45,0.17545583824458436,0.3853771216190623,0.28560180498861004
15.46,-0.3168905654522439,-0.919909034015631,-0.14773689005693358
15.47,-0.520533258091971,-1.2536157109940804,-0.11932087174501747
15.48,-0.18536153341341902,-0.3325072920094086,-0.021534406288590047
15.49,0.20329106385726767,0.37377583361785965,0.2744490826276016
15.5,0.3134337343810808,0.6141744247613451,0.21007463799280374
15.51,0.08230682977068637,-0.09389774662532453,-0.10447661988512318
15.52,-0.25391088532348877,-0.6533238451299134,-0.2919231164601532
15.53,-0.2708925525819459,-0.1873561062747332,-0.391095906255384
15.54,-0.127234331724903,0.19684978344442638,-0.005349933976798196
15.55,0.006326782122196819,0.31960730754393263,0.12964107058701713
15.56,0.028243917115586246,-0.1370046792602993,0.03008040663909111
15.57,-0.06582007949962977,-0.9540705931684413,0.12569483215440427
15.58,-0.15856064999027913,-1.1871441343916123,0.49995168090187625
15.59,-0.010124900204624428,-0.5461584193513962,0.732327287764349
15.6,0.3211381543440131,1.0070549593688414,0.20407369588617624
15.61,0.3044242673787396,0.9374089841349567,-0.3858829931262459
15.62,-0.03843224817970746,-0.25665359769794693,-0.9458595571744495
15.63,-0.29764279731062876,-1.3614486395077583,-0.6850883748130575
15.64,-0.07057407068601323,-1.181965441990859,0.033875738936200744
15.65,0.45273426650920545,0.07943279132786708,0.6361682104735835
15.66,0.7003230169242596,1.0127348946766206,0.7619395527279198
15.67,0.4054803541176838,0.4461546245075227,0.4380803855620198
15.68,-0.16246591409607736,-0.8646947944765087,0.13533462966088974
15.69,-0.34523445942240977,-1.5321765678822203,-0.14997331450762647
15.7,0.02642980677114595,-0.7290161028339368,-0.18879552187764156
15.71,0.6497243165864419,0.8201767485738305,-0.268670960562061
15.72,0.8249498083967016,1.1248400417030784,-0.42311847126458535
15.73,0.3027477198669336,0.2436764511977045,-0.21216589133482894
15.74,-0.20665995256912326,-0.7111445392749564,-0.12417472861611924
15.75,-0.23119454396518302,-0.5674899721921761,0.24544615652400165
15.76,0.30022400724164816,0.34704532661680015,0.13810308514529812
15.77,0.6489299339910072,0.6222785662833643,0.03923017801389305
15.78,0.5867262166545241,-0.04691148777901421,-0.12347253714153907
15.79,0.3189320403264716,-0.6927020436765655,-0.30982447353676085
15.8,0.09293007105442432,-0.5833104408818726,-0.01832833783652154
15.81,0.14030159514348198,0.3067697544056306,0.16604506899869767
15.82,0.3025192371274527,1.1483181824935955,0.16344294774663584
15.83,0.39398218866466767,1.2590708765698104,-0.4384902233069351
15.84,0.23242812180722516,-0.3409983958937441,-0.9325154893080948
15.85,0.039321424326786425,-0.9695283881011991,-0.5877344826158067
15.86,0.24408028049147815,-0.709236915314891,0.17883112825987693
15.87,0.5643284885303699,-0.15315004697050782,1.0201477924321913
15.88,0.5855383899363737,0.9559912190007784,0.9679226374048283
15.89,0.29913464995818334,1.0979269092031192,0.20847965306100633
15.9,-0.11216764953436893,0.23900118147592647,-0.7254148037825652
15.91,-0.41489119981565015,-0.7699748201986909,-0.9826995035565887
15.92,-0.22287588797071253,-0.9451090717332455,-0.3576716115805223
15.93,0.3681347013469705,-0.03387382344596859,0.393485878980762
15.94,0.7155940426590175,0.9263071674477266,0.7771314337809079
15.95,0.536220876468266,1.168796812772643,0.4848483032194375
15.96,0.017226719040936984,0.09545155309604167,-0.16512298815142631
15.97,-0.5655267475755257,-1.1847362994019355,-0.16456368047548328
15.98,-0.6578291619529075,-1.1240626235445295,0.23516210341750676
15.99,-0.03749210708640938,-0.10504239425267613,0.37426254857469926
16.0,0.6023779299088127,1.8795864592236788,-0.04595081873323849
16.01,0.5952384822757103,1.632697976767526,-0.518407592840596
16.02,-0.0427737003823825,-0.30581810603573656,-0.81397909555752
16.03,-0.6631158552063604,-1.3099250956321884,-0.4525288632476041
16.04,-0.5303127653757966,-0.836296233731796,0.42734251066265455
16.05,0.11823420788584912,0.5929773250875792,0.9808171234110311
16.06,0.4546930098422133,1.3788194498711217,0.7931469971765782
16.07,0.14577338348285185,0.7607016040200896,0.2714868178430772
16.08,-0.35473434328793957,-0.9359778326607293,-0.1449637081396728
16.09,-0.5917746966349966,-1.5058251868764703,-0.19139827053251537
16.1,-0.26104264908972563,-0.141640673369875,-0.21606276460797022
16.11,0.3131371992699618,1.8645235450009041,-0.4255226562301014
16.12,0.3606617086874517,1.1583031100909846,-0.6389371866817306
16.13,-0.2775242085845071,-0.2796325520612765,-0.5322566021282552
16.14,-0.7003627224940924,-1.442220353534225,0.035060235772435756
16.15,-0.48205209637875185,-0.6137004575527869,0.7445321875974631
16.16,0.11473342973216592,0.5273432626528239,0.8881324059078628
16.17,0.33793243826056657,1.0569742097772707,0.5637849668079425
16.18,0.02668608277240574,0.34182177699835414,-0.02617780876544833
16.19,-0.362365472427124,-0.879522114431619,-0.6095186016751106
16.2,-0.4705688732966825,-1.249159787318151,-0.5694409711178836
16.21,-0.17591814187770785,-0.069112697922146,-0.3382507101368835
16.22,0.2074364192086435,1.1250912916664793,-0.11928091833298644
16.23,0.24353961655626036,1.4448461951542235,-0.37585651980505574
16.24,-0.1552797127873737,-0.4618013571770457,-0.6406475111003352
16.25,-0.6220867354784575,-1.2345471387491085,-0.21066715900494862
16.26,-0.4284349962809972,-1.265075963992108,0.6526250462065682
16.27,0.1026999673293206,-0.6199101051855439,1.477403381489712
16.28,0.4508864561734155,0.9149136600395569,1.2058700987429545
16.29,0.4996818826218153,1.6217205071135254,-0.18517227714516046
16.3,0.04078139106584189,0.6446676266955045,-1.5899527939606197
16.31,-0.711906295382288,-1.0476971066361203,-1.8391895363242834
16.32,-0.8845127130815073,-0.9411014436321616,-0.8319411661966615
16.33,-0.09977913647813925,0.19290732982254002,0.20405931347905704
16.34,0.672606100758549,1.1714164849552764,0.8015115108645458
16.35,0.6315897656232603,0.3121233681862692,0.8842897028700791
16.36,0.007388150298119551,-1.3829117514071354,0.68276075190284
16.37,-0.4881272446275637,-1.9700243533045463,0.7983500711322379
16.38,-0.3679449117860717,-1.2901030076586495,0.8725058192952808
16.39,0.13290419609777693,0.4864029282811356,0.503920374003443
16.4,0.4057466290093768,2.141385901425753,-0.35105673385471625
16.41,0.1751551416962605,1.6908632758054623,-1.3506841277850026
16.42,-0.27902680129815915,-0.4769532512051611,-1.8940261210650764
16.43,-0.48680520998471827,-1.3304733969619467,-1.2815704852414023
16.44,-0.09967995054883612,-0.43731446830725335,0.2279312608446918
16.45,0.49287191685683773,0.3606227823784019,1.4497831180064211
16.46,0.5330315444270118,0.5212994969606616,1.6581165776115796
16.47,0.01879834111874472,-0.20774679440025096,1.179689383007843
16.48,-0.42672790883613876,-0.9177084368819652,0.3568705584091532
16.49,-0.43568940987865734,-0.9283328522665649,-0.33991873156177843
16.5,-0.06213022441146914,0.11181805757724204,-0.6248396235556782
16.51,0.44232685888717,1.000592542834656,-0.8117246013516289
16.52,0.5402652687106875,0.8668724783079229,-0.9653872321674989
16.53,0.12873715109645464,0.15803353160113398,-0.8630402066647713
16.54,-0.2783416107586455,-0.8300783735924342,-0.20356268288806825
16.55,-0.3226308316967903,-0.9104951117419751,0.6679438334817369
16.56,-0.0058580194099133905,-0.1843189085983956,1.0313441364676703
16.57,0.2946920168891427,0.5090488441798697,0.8055442796736051
16.58,0.30805755529101914,0.38407001923653417,0.05602370731627276
16.59,0.053119187321372906,-0.3555441182573972,-0.5928798744639726
16.6,-0.17712046811823218,-0.7954418733145944,-0.7071384158214206
16.61,-0.1401713890779656,-0.3859011803718145,-0.42178863925036064
16.62,0.10959423431530042,0.7290561364416833,0.0011895696281712656
16.63,0.29181513942782533,1.2801539912039273,0.11176006963039013
16.64,0.08206179857951794,0.15100386454201997,0.133456644724157
16.65,-0.26348840084114983,-1.244567938137124,0.17625874778818315
16.66,-0.24402883382479207,-1.4932642513287118,0.35115294487667176
16.67,0.15120625617604805,-0.5647939919705534,0.6211275063052192
16.68,0.49329755472245274,0.8334874657347436,0.5005573448745226
16.69,0.4064163973378066,1.6922186552215868,-0.09385417161486928
16.7,-0.050605891759520655,1.0802259347750607,-0.9073740372896731
16.71,-0.5141072463355201,-0.4034955440188663,-1.2515411980717794
16.72,-0.4970534293525988,-1.0275146527498098,-0.7789823807583314
16.73,0.10981723828638694,-0.22891905443047156,0.03351204305068377
16.74,0.7247420634174838,0.8366764183789487,0.6513996241391896
16.75,0.7227316537713626,1.006089354840508,0.6326271093747289
16.76,0.08656556374949659,-0.14646004900151818,0.3225049249945186
16.77,-0.5934760048844469,-1.300636085832248,0.27530120475381575
16.78,-0.647354523808098,-1.201807035468569,0.46324463615094047
16.79,0.003757591863069124,0.10704165204784333,0.42339686172711993
16.8,0.6957870244458777,1.4924612061778284,-0.055745616314112977
16.81,0.7722329162040195,1.574687106512047,-0.7386463358323273
16.82,0.24165300793688532,-0.20574286070493605,-1.1636396937389262
16.83,-0.30809070678993455,-1.203015828869374,-0.8130153167240787
16.84,-0.24159496933864325,-0.6511475407500906,0.11486049155193277
16.85,0.31666397235030724,0.48275220787910017,0.7533671728314385
16.86,0.6642047935975806,1.1081285124508304,0.7353380956349701
16.87,0.4739555872590841,0.5023801228155486,0.3831501321596072
16.88,0.047864174310529035,-0.5596645268838151,-0.07788051308426885
16.89,-0.16862699813267892,-1.0319268445921783,-0.29026013183856647
16.9,0.038276694110715805,-0.3528038056595209,-0.15308009262689704
16.91,0.48520221326138246,0.9854732842126805,-0.089754948668231
16.92,0.6720653332204218,1.4457237678419936,-0.27947790241443093
16.93,0.3277087271846907,0.2270993020105714,-0.4595822247107888
16.94,-0.24207051509905406,-1.110133732988938,-0.0401344815566131
16.95,-0.35603531703565167,-1.0308595385236812,0.5733661273371242
16.96,0.06389566121507409,0.25711182009806144,0.7646196531838991
16.97,0.41514986660491027,1.1900002481551697,0.42388804477067044
16.98,0.26188029260084505,0.9599473549119849,-0.22854005622538656
16.99,-0.2224052630549741,-0.0594714033495237,-0.5796601592840289
17.0,-0.4857678659019393,-0.8216106524415357,-0.5198184275132361
17.01,-0.31203090381775184,-0.4722632565014619,-0.11111079193172463
17.02,0.08424804361893028,0.4597749793158521,0.33902667646617174
17.03,0.28707026256542706,1.1456554459665704,0.33747184591148155
17.04,0.05901792166060249,0.6008439732124458,0.19375377231986537
17.05,-0.2830358811212568,-0.4889320816289597,-0.28854996779894415
17.06,-0.5257220527761405,-1.1540697992643814,-0.1820156346597535
17.07,-0.42139770256562575,-1.002300395921372,0.4323137735020493
17.08,0.012778890359454004,0.1485094807199357,0.7481067971877843
17.09,0.37908562526826417,1.3404673963071778,0.5873959385099091
17.1,0.37676021310032204,1.4680166460262551,-0.5570081305448014
17.11,-0.21132141478062424,-0.22625904352956783,-1.3038766872863141
17.12,-0.7372968431707337,-1.1817505646864337,-1.0953697132960647
17.13,-0.5150981799348646,-0.8474003812568438,-0.19964354452579028
17.14,0.1674678901642317,0.4678328348372706,0.7256576873076309
17.15,0.6017384406781001,0.9138591997592802,0.7377469514340984
17.16,0.25149737686200196,0.19515963351717155,0.5030606559447308
17.17,-0.3668621268483134,-0.9671925632969155,0.1741608666108183
17.18,-0.5675365714692894,-1.2213100930019887,-0.03671483454829106
17.19,-0.18335065080939053,-0.14406167499534453,-0.16211185631308178
17.2,0.2729112065972603,1.0524755377946442,-0.3368681046324434
17.21,0.26934373720447713,1.377035250663759,-0.4217757234560219
17.22,0.042727463173296946,-0.21429853268330204,-0.7018490557682885
17.23,-0.20290260668403068,-0.8680724516696483,-0.5714649583213135
17.24,-0.1676699056021428,-0.5739680580299757,0.17991761821269614
17.25,0.1365751331285334,-0.05983433867277229,0.8303222269088029
17.26,0.23612093619977534,0.21223309792089898,1.067999104749935
17.27,0.10514263457535991,-0.11680322521514022,0.6984868776426851
17.28,-0.0162851890126725,-0.7172875800549784,0.025505024268939573
17.29,-0.07825108849779576,-0.6272259989477429,-0.3552797315791237
17.3,0.008936404337829159,0.21990782262058658,-0.41959507988830863
17.31,0.1863701422195599,0.972256280123757,-0.3702556383049561
17.32,0.16947234521097213,0.952979915459293,-0.5462651498174141
17.33,-0.14412822213246054,-0.06644905574150223,-0.39788344910281787
17.34,-0.3697883646725758,-0.8730427139669641,0.13929757704054285
17.35,-0.16753122051096503,-0.7572764726024809,0.6336401295123947
17.36,0.26297098633462723,0.32994222387479627,0.6268021087302307
17.37,0.44146161207166046,0.8731188045623433,0.0685700801350021
17.38,0.09223692817515258,0.2769497860257726,-0.4304587722571491
17.39,-0.3630788515126686,-0.9665138576156391,-0.34341637899250194
17.4,-0.3837660458271404,-1.533915270575293,0.15571324896765618
17.41,-0.016350573126794648,-0.2997080343925939,0.6033241574650943
17.42,0.5050478745797807,1.1815768914841591,0.40330142179181694
17.43,0.6180850630861708,1.312050785297091,-0.16770716151843426
17.44,0.10225196091396978,-0.06184119944934142,-0.4895461218781988
17.45,-0.4083753070134969,-1.3489922439206783,-0.5013313852338367
17.46,-0.3634269584237677,-1.1575525386416246,-0.19645780915879246
17.47,0.19187729515840551,-0.336310413912204,0.3125808574138619
17.48,0.5800909356935244,1.0716184569306646,0.5895206678285607
17.49,0.4747454243689989,1.347149374065401,0.3566156462396839
17.5,0.010834591719348474,0.6547445736963764,-0.4958071266567734
17.51,-0.4686189665402844,-0.689453710302801,-0.8338760725711494
17.52,-0.4165207454297074,-1.1506314881677375,-0.5225154747076513
17.53,0.11329401209546466,-0.3269530482874326,0.1534590846781138
17.54,0.6590755469939646,1.1298945332605759,0.5473982306033457
17.55,0.7739328038407597,1.2707926321731404,0.12551007167746486
17.56,0.19170734450696986,-0.006110908740478039,-0.23654607684143178
17.57,-0.4446722186039562,-1.020372617840424,-0.3758090690322472
17.58,-0.5574406302671492,-1.3742507749213007,0.175373302350457
17.59,-0.017284934829716884,-0.3083122266163623,0.6283204983817541
17.6,0.5852634864726194,1.3873356077479746,0.2545084275257143
17.61,0.615601721340497,1.8278657558656253,-0.2611886759205152
17.62,0.14301540103969748,0.506664325830202,-1.0030155683797284
17.63,-0.49219924206325716,-0.8638311691535049,-1.009192928637117
17.64,-0.4786163556904738,-0.3456848308662495,-0.41096106154881457
17.65,0.17510390052437247,0.395571489544865,0.23549009463900777
17.66,0.5668973630678883,0.7369072880210942,0.6771190391634843
17.67,0.34218415903858856,-0.16637947271346915,0.9155657407885613
17.68,-0.07383576131371966,-1.1302325629531198,0.8631921916320401
17.69,-0.2692088427229064,-0.45827801147590597,0.44739429948263504
17.7,-0.07172627253355145,0.6188248121005321,-0.08106501946096813
17.71,0.2095071259861805,1.5348868719560727,-0.7337734325757562
17.72,0.179469773669698,1.0523675123732124,-1.275582065795498
17.73,-0.11821549943364013,-0.8736168104971929,-1.0335147377850868
17.74,-0.1740175636903339,-1.3281874203759139,0.008902549729620426
17.75,0.2464489148863153,-0.5068548932651875,1.0290895039402166
17.76,0.5449586931761017,0.8628400096783034,1.4056505078785955
17.77,0.3404072809345043,1.2303983963734206,0.9250015544237296
17.78,-0.15576063161290807,0.32863312231976655,0.06424380749390032
17.79,-0.5150066568250865,-0.6495126255708868,-0.6098630986046756
17.8,-0.3909504544919833,-0.6830092061679424,-0.74451981500856
17.81,0.10120903282292974,0.033667368702617904,-0.430730095513087
17.82,0.4600353429326171,1.0529401799202045,0.05145019358412652
17.83,0.3757785573536381,1.4538588897224207,0.1551471264987443
17.84,-0.16346603917801986,0.32485346042309193,0.10916264402709397
17.85,-0.7560664943258671,-0.6557316934363661,0.13042364900862013
17.86,-0.7818001702005657,-0.9750042584013969,0.31801970560664106
17.87,-0.26137103718777416,-0.5725460974613716,0.6638502885717888
17.88,0.24409524320164575,0.657007892578134,0.4825942071459235
17.89,0.2678844735262247,1.1617531962524632,0.11263895704640517
17.9,-0.024604704250730382,0.8535241260532369,-0.7448914824066499
17.91,-0.6471717703136108,-0.21688429349966432,-0.8269351430651533
17.92,-0.9423914705042897,-0.6026704481941909,-0.41586334546102566
17.93,-0.564292730768853,-0.06416513389630808,0.06097999589212794
17.94,0.07030631819781574,1.2512454359450509,0.29254966722121356
17.95,0.40889719590697116,0.8227637250855379,-0.23720817142250306
17.96,-0.09248514305989029,-1.0717410002972303,-0.16498604016769428
17.97,-0.7093144788276186,-1.9936173252844656,0.6562158087193187
17.98,-0.7719790132041181,-1.7585043879529598,1.7874041546962585
17.99,-0.25779145929514813,0.3676317033177924,1.6893474856368993
18.0,0.43478202494648777,3.4749904542172834,-0.29099883570368573
18.01,0.2489362619926659,1.9422371762438175,-2.0488547465215463
18.02,-0.7891580075882797,-1.733275772351406,-3.029901306487662
18.03,-1.2536657060719978,-1.5945351398158434,-1.6795710164924305
18.04,-0.23078245026318467,-0.3327865584452382,0.09831132558627893
18.05,0.8224863354477121,1.1163215863319789,1.4633923841766459
18.06,0.7119600662463079,1.6299548292839385,1.7345228367355388
18.07,-0.01949847852710089,-0.48548898499810816,0.9555301617937374
18.08,-0.7347670716928031,-2.164130428857078,0.3584510548296237
18.09,-0.7633060541340487,-1.3054036645615308,-0.017882045288387115
18.1,0.014788956401685037,0.050283741226806275,-0.17100675575262703
18.11,0.650944615121429,1.4557832981089966,-0.49469723692041473
18.12,0.503942244875447,1.6580906019156654,-1.0246531056021044
18.13,-0.1072620383771745,0.23271642347488902,-1.211022548788376
18.14,-0.6532147846296213,-0.9708118731612326,-0.5955985493455818
18.15,-0.6267907031580905,-0.5045760102680964,0.5494511588958128
18.16,0.033320675226350564,-0.06874694244244246,1.320849938768717
18.17,0.4794048374631696,-0.06093968489686982,1.2962957783753066
18.18,0.32702058615087093,0.02565042860917049,0.5370260133923188
18.19,0.024934407108444752,0.01819057322916312,-0.5052353988072377
18.2,-0.26230991912435025,0.5472364365377124,-1.1818462430770658
18.21,-0.5271920301414545,0.09423623322294057,-0.7219436140761376
18.22,-0.5824606467214333,-0.11363621715532636,0.12145976712417998
18.23,-0.2294394926715826,0.25160703453294003,0.41619427134418757
18.24,0.21449995143509165,0.29148613306278603,0.18961252016065297
18.25,0.23497147340061883,-0.09395460918066832,-0.09711785375390786
18.26,-0.18404108463104923,-0.8496137588809789,0.10756081017459902
18.27,-0.5408850095278851,-1.157984255858556,0.5562286357957607
18.28,-0.4804784588966923,-0.30285457545588496,0.6878881465234867
18.29,-0.11189088646951412,1.340836298250788,0.13705833172826581
18.3,0.0563238339609302,1.3035571231125194,-0.6722265727407384
18.31,-0.32542877120828406,-0.01795306285449606,-1.0124017134914898
18.32,-0.7419401687730866,-1.426162325822872,-0.5433597949037711
18.33,-0.5639611194477323,-1.082194140930367,0.2490372516949926
18.34,0.064738494909106,0.6031121946554713,0.7056602877461443
18.35,0.32929437506403764,1.3389424371185548,0.6413473524554774
18.36,-0.12602108213819646,0.41456448391612205,0.2828895662001635
18.37,-0.6694184972087532,-1.3871760814329148,-0.15679876580840696
18.38,-0.7428985680068444,-1.7014085309184337,-0.2173738874207512
18.39,-0.24231575257354074,-0.724238819605127,0.010599558791286408
18.4,0.2344802528301678,0.7312695984160944,0.3249870189311539
18.41,0.165877996556702,1.4391399142272956,0.5454725928638126
18.42,-0.14673734036057196,0.9088470765785431,-0.18102890191715104
18.43,-0.4644098752923398,-0.2456109036648572,-1.1673801672158928
18.44,-0.5993079193089736,-0.8057461889140908,-1.3300650996610233
18.45,-0.3329843223468098,-0.6448303546020272,-0.4627405261092947
18.46,0.16188927793501914,-0.44845239133256876,0.693260824784103
18.47,0.4385527646415031,-0.22102742860488916,1.2075912756903233
18.48,0.3631077390789973,-0.04242999460080478,1.061625429231566
