seconds_elapsed,z,y,x
0.0,-2.158304214477539,-6.109450340270996,-0.2168585360050201
0.01,-1.5531443494368808,0.4254150471603324,-2.374980936199365
0.02,-1.2996105656454933,1.2354014899568293,-3.159709249871245
0.03,-1.7226623717342038,1.3663744051081055,-3.653717543330332
0.04,-2.549407155476916,0.5618677081068062,-2.401439469858295
0.05,-2.902858989742781,-3.657741558092562,-0.46222092023760886
0.06,-3.136098049558986,-6.083350152699338,0.4596625508976265
0.07,-3.365445396799796,-0.22458938176180085,0.49351247139622473
0.08,-3.0747629039494733,2.342875715995266,1.4784050983401162
0.09,-2.9908278053608157,1.7808664938347218,2.4094794583463326
0.1,-2.7700078739672733,-0.4088246989804558,2.3849972925607315
0.11,-2.5136835901259427,-2.2571961596557992,1.3615499980897396
0.12,-1.9502371309243456,-2.476580174250766,-0.5107823671457232
0.13,-1.3257190701957788,-2.014065829279859,-2.0425446446065596
0.14,-1.1464270078532615,-1.8863043641588084,-1.6412470225761298
0.15,-1.0916924404402077,-1.567251673839153,-0.721818536312542
0.16,-0.8912742334722802,-1.356931193335714,-0.2487688155433661
0.17,-0.7248784062825973,-0.16484137539671223,-0.04228607591339347
0.18,-0.9229428954681763,1.1335361437751643,0.3819433818285653
0.19,-1.046898223722755,0.4415403225892997,1.4887099605318157
0.2,-0.8727258282927679,-1.138744797053219,1.9202295255936668
0.21,-0.3853153923521152,-1.657472199776082,1.3181614238164254
0.22,0.03619719798902552,-0.6041193709744287,0.4730048738382982
0.23,0.3261818957649789,-0.14424810248953596,0.1340111771532211
0.24,0.42791965272384197,-0.23567190335500912,0.1955950025231443
0.25,0.5012563206087818,-0.4262529437890466,-0.19919493944015365
0.26,1.1647641238354018,-1.1859809634244964,-2.5393555159443824
0.27,1.4654148525017279,-1.104776087308054,-3.3591293088011374
0.28,1.1841870462646005,0.4831678475156545,-2.411616363456724
0.29,0.8344803634953127,2.300788209690847,-0.1698984225082677
0.3,0.8912767541848224,1.855939595732642,1.0253569214540632
0.31,1.5561492654872329,-2.5927629678067516,1.7956528326380803
0.32,1.6798092948804069,-3.8481764470557502,2.6993305575794495
0.33,1.42903088333438,-1.8462041055894804,2.271003979810427
0.34,1.2475960375096113,0.596795244549884,0.9576218850125899
0.35,1.0823939170283177,3.307650742884994,-0.4587493688660021
0.36,0.8138724407186788,4.287571610970174,-1.3777383413914874
0.37,0.6293525344008417,3.047029972596044,-2.3854616834664344
0.38,0.8677824251377886,-0.7642522892262753,-2.4336326490003426
0.39,1.359673805543672,-3.597777438376517,-1.3022952471751357
0.4,1.7854985897547915,-2.7052745546531143,-0.5098134543567892
0.41,2.1744730728743393,-0.22387006213771893,0.1765705490424861
0.42,2.148656550830658,2.3721314619059757,0.9284145686846322
0.43,1.6755100969188,3.6788286331381657,1.4223622791941557
0.44,1.050160884635887,2.5830636213985185,1.7423298913404275
0.45,0.495772907979883,0.43704518272411896,1.5314793516141219
0.46,0.19572403695868404,-0.9054942791403536,0.5541066767084597
0.47,0.39462564915272785,-1.0833524026670436,-0.9986851296143655
0.48,1.055742351933933,-0.3540076570091135,-2.2705815944878402
0.49,1.891229133930881,0.5611921542857793,-2.35015620058889
0.5,2.4457241970567347,1.3891074334402167,-1.5617820694009747
0.51,2.5345860973885572,1.2857712257413372,-0.30095467296738965
0.52,2.183184109504519,0.30739396767526705,0.9120187853706992
0.53,1.4758239310262744,0.06979507337434282,1.2581056594974616
0.54,0.8122407122105829,0.4709328682470723,0.7569405824030482
0.55,0.3921305487188009,1.0902901462472951,0.347204967963727
0.56,0.4046483075775501,1.3746459084367435,0.3228230763526327
0.57,0.8147943157480967,1.689593459174534,0.12555240442556195
0.58,1.441491719690753,1.4588827359977556,-0.14057441086024858
0.59,1.9723604949878537,0.5799901798725978,-0.41106993483406107
0.6,2.1185684607261392,0.1280465366603721,-0.7648501429494757
0.61,1.772118564925923,0.30819226064067956,-0.3137467074345227
0.62,1.2534068366877091,0.560019092917481,0.09523361239490312
0.63,0.6994171832814406,1.1852591319749208,0.059663086571472554
0.64,0.324979021082909,1.7192199280923772,0.16354468348868814
0.65,0.06822534282430552,1.8220378468934184,0.6522967364596468
0.66,0.17847508233625367,1.0645609652330386,0.46786444660993637
0.67,0.6247980489362281,-0.20335015156154052,0.2652787953325578
0.68,0.9871606848186569,-0.4783705534655539,0.1895642390268805
0.69,1.053161826488116,0.009740267793771712,0.14279667708385238
0.7,0.8367270644373839,0.4222836354297187,0.3199783032726987
0.71,0.3538527078352676,1.2422509674029591,0.3440452314139133
0.72,-0.21519709618990365,2.13408582665058,-0.042119917049939476
0.73,-0.6504003178282117,1.955273105461202,-0.41333547205485893
0.74,-0.7969869533970977,0.5827134522982093,-0.4680806885982428
0.75,-0.6834014705768049,-0.9839098830785417,-0.26729102622145445
0.76,-0.4936707533032632,-1.8568932520259216,0.14821944175875107
0.77,-0.3882423587133304,-1.243046704077994,0.4819133525382952
0.78,-0.4874450294186074,1.0444264965978587,0.3267458808103284
0.79,-0.7352068882642881,3.3498712351276896,-0.14789447189288904
0.8,-1.051523886886454,1.7119669213963338,-0.10162361737126474
0.81,-1.5697917462880602,-0.8914302354245506,-0.12845330639673494
0.82,-1.9808780899684277,-2.06263318551871,0.15527287673948395
0.83,-2.056951583884988,-1.3190496263415064,0.42915770697967376
0.84,-1.4675125061003866,0.552913379913649,0.4649607588502548
0.85,-0.4330257060283982,1.546156760257538,-0.14346664802148823
0.86,-0.5341736581199075,-0.052079451431035644,-0.42322203037096306
0.87,-1.0708222897275395,-1.8010833164380295,0.019387525813337518
0.88,-1.685362938884068,-3.2911098018414138,0.6364713562107092
0.89,-2.082098719810651,-1.839882094928413,-0.004364568171222134
0.9,-1.6642945490801082,3.886083888840388,-1.5718287568055567
0.91,-1.3946043235471652,1.281908606620265,-1.6504939598668655
0.92,-1.8343643457139638,0.18400142023683655,-1.3261389006497257
0.93,-2.0569369551968752,-0.5868551733640094,0.6647536816667577
0.94,-1.8747675054892323,-2.1208745305086136,2.085568076582575
0.95,-1.3357095694621217,-3.3114242411135524,1.6930062659951413
0.96,-1.0767245580558635,-1.5204624597630196,0.7269840179391488
0.97,-1.1326383638370328,0.6324758634296587,0.006564810140606227
0.98,-1.1212466994499108,0.8071223707155247,-1.3509551890999396
0.99,-1.1374636484072382,-0.7162147435211341,-1.6572919628536993
1.0,-1.4763119570480325,-1.3282785599595508,-0.37940374079272987
1.01,-1.8694482085794124,-0.6262178981435518,0.2412119284169551
1.02,-1.884496922587473,-0.9545151469444052,1.0780469164183761
1.03,-1.6727039729678463,-1.3063131804026686,2.285062705328871
1.04,-1.3646873551090164,-0.1237855246263972,1.617762691525426
1.05,-0.9353749841562552,0.39442030078207213,-0.12633412755774998
1.06,-0.670327552592081,-0.49160700544884306,-0.5905645923546183
1.07,-0.6258001775641489,-1.4606392811432454,-0.14107297707650748
1.08,-0.8072329928958356,-1.2533105367989257,-0.21165261586795683
1.09,-1.06670266693576,-1.1294682033538856,0.18713414575869242
1.1,-1.1988590976965479,-1.3651183155563225,0.1126991121496366
1.11,-1.198324712376668,-1.9952543740280813,0.2751754415852828
1.12,-1.34618663755227,-1.4790347029724427,1.492250663590714
1.13,-1.267963847045834,0.09911394444296032,1.3351028637555835
1.14,-0.9296584824214135,0.7529414611994866,0.19413066698549433
1.15,-0.6397979933814579,0.02699033008960744,-0.014575921091606965
1.16,-0.5393507383355264,-0.39526938429610536,-0.3946148744211339
1.17,-0.4316271477638075,-1.6278124105651959,-0.3234751709005701
1.18,-0.3214932795227588,-2.2293277052090446,0.09565014119789325
1.19,-0.26045170495826125,-1.001881647123226,0.285268177437058
1.2,-0.15685948786549292,-0.12101103645102326,0.8957613384911269
1.21,-0.014667203341433668,0.29817395086511644,1.067882667399099
1.22,0.22300535788935857,0.4606970078912916,0.6137378205671011
1.23,0.5821090455498835,-0.09692330572982095,0.23845270693241363
1.24,0.7917630207617126,-0.08182952359810847,-0.21878861099655256
1.25,0.8494578604909219,0.0766704591874576,-0.23068576737328847
1.26,0.925382841528882,-0.2737984835118672,0.18719993612844016
1.27,1.038699499125348,-0.018041324251932812,0.15119012371828475
1.28,1.0989865595721644,0.8929310263448488,-0.13914029174940332
1.29,1.0132686222539762,1.3837937029493557,-0.30474486696475084
1.3,0.8390438503289851,0.8635210037998818,-0.21739029547904457
1.31,0.9040058939678629,-0.848343949651354,-0.15982760248419103
1.32,1.327018629070083,-2.1246674906740703,-0.2096709858583
1.33,1.8616013693138345,-0.45458680678895946,-0.5054756208332595
1.34,2.079703474134502,1.2115894001757135,-0.42893520467400004
1.35,1.9844651533169682,2.161783362564995,0.3991582085122109
1.36,1.6947643165582031,2.092895818298417,1.1060483796949183
1.37,1.2984162950297096,1.3508486929079242,0.7458112451110082
1.38,0.9513812093316264,-0.4334056932160013,0.3742404679812252
1.39,0.6994235572206897,-1.5684589819781865,-0.05660533367966365
1.4,0.619001817659551,-0.7494792392204083,-0.9453131564155018
1.41,0.7493331476750581,0.6316042428349803,-1.1453616718905424
1.42,1.047799646851413,1.0041625916769192,-0.5896456372161772
1.43,1.4071307487477058,0.6852690898835168,-0.33354150727362836
1.44,1.5124960332540283,0.46443902454508773,-0.33684274825724303
1.45,1.2590202561198578,0.06015645892002785,0.2501478665535014
1.46,0.718098138092852,0.024415235565585613,0.9103167967319812
1.47,0.23533194888920186,-0.05433267349324322,1.1809712809045674
1.48,0.022319800273158056,0.10382446103879078,0.7091717573674235
1.49,-0.05548051980490609,0.6885728409181936,0.43393820041478853
1.5,0.005555591053786374,0.8155116418772763,0.3634135715541429
1.51,0.1881760543597048,0.30369091744849475,-0.09799573482326203
1.52,0.4240146140374286,-0.052231302946027465,-0.7374728074543879
1.53,0.7580803412795302,0.524999307648076,-0.8796595632920271
1.54,0.7002447476585071,0.15688679685238435,-1.2534395259515054
1.55,0.2373221887168343,-0.659511992078651,-1.189219859112039
1.56,-0.2042997842214825,-0.6784987952280022,-0.15633722039557718
1.57,-0.268646873249805,0.34671614465992723,0.6716252007805757
1.58,-0.1444379466227205,1.638326211705898,1.380190561994997
1.59,-0.14631969156207086,1.6636506233836665,2.1920173046398133
1.6,-0.227240184739216,0.022627438664479867,2.6493905739566794
1.61,-0.48730572960715807,-1.2348061258587073,2.207607099791975
1.62,-0.7934348575591198,-1.536533181475415,0.9544566348318587
1.63,-0.9169846124575214,-1.5267762279316044,-0.9814410222993596
1.64,-0.8711354983652034,-1.1855863885987572,-2.620015591505267
1.65,-0.7283570315705739,0.7167098781556884,-3.525581987567852
1.66,-0.2967324682280076,1.0252242359605421,-3.306597419127132
1.67,-0.22835481068800043,0.0641055854125971,-2.1856481342227916
1.68,-0.6191762502745497,0.04336395232885326,-0.016426195951256304
1.69,-1.0344801554898584,-0.41738998410550127,2.395871795440328
1.7,-1.18403487861139,-1.0229612293917216,2.884307382813439
1.71,-1.1122344025229234,-0.9871812860190647,2.0663931708748993
1.72,-1.1555869969253456,-0.43793593278377857,1.2757455340553672
1.73,-1.148007491556561,-0.6674338491231774,0.6954194192562669
1.74,-1.0033786542393084,-1.0893447859838907,0.2041552632619437
1.75,-0.8347698004965322,-0.264231609111089,-0.385940064647752
1.76,-0.6279978632810637,0.7953835025642364,-1.2666311028298314
1.77,-0.35962144647421806,-0.23728234409635984,-1.768291641728516
1.78,-0.24663408868213615,-1.934353815150644,-1.4057807746870505
1.79,-0.3004587966086364,-2.480655093255418,-0.24594084216716489
1.8,-0.45320230922196875,-1.7977182259904498,1.151820060527299
1.81,-0.6982283073238147,-0.20938766583270763,1.6637915171544866
1.82,-1.0082300066058745,0.7944651578639036,1.7463686091568151
1.83,-1.3150174545430955,0.878870156311758,1.4730717177189312
1.84,-1.3625235771120874,0.08563578692885951,0.5224101330722732
1.85,-1.022471841859287,-1.247020659416544,-0.6815787893293194
1.86,-0.1900484866912415,-1.902700738381634,-2.0575072433886423
1.87,0.6775619077226294,-1.1700511504944695,-2.8934502217345646
1.88,0.9091959976269494,-0.29936822845223887,-2.233837281415472
1.89,0.7629486275007886,0.45216050430283233,-0.5991551335501474
1.9,0.5204432570241173,-0.16480812659524977,1.1576554728162425
1.91,-0.07422837497926273,-0.20797890800089988,2.3544599253886895
1.92,-0.8306980152115555,0.2685857956922575,2.5498024464550473
1.93,-1.1877263260378268,-0.8643650222222922,2.500763389504972
1.94,-1.0364525510596283,-1.9587059096188473,1.9285458918950784
1.95,-0.4637070495929333,-1.2359843706308222,0.5745876769602952
1.96,0.29052791793421606,0.7587746650150817,-1.1666934601662107
1.97,1.064654402088019,1.7523734569698102,-2.8493633080098997
1.98,1.5806079882477597,-0.27835806193841683,-3.216028145087665
1.99,1.4968737651326645,-0.6367178938805477,-2.827515588698978
2.0,1.1038969120163062,0.025635155765557402,-1.4088465569645756
2.01,0.8583722871608306,-0.1799570421635631,0.5504429289340025
2.02,0.789122407776567,-0.604850272746676,1.6808071448580122
2.03,0.7107033613757072,0.04275828506758643,1.4990182145217072
2.04,0.6167608269611817,0.9548163433294666,1.0413790783472714
2.05,0.7094729779272071,0.7979184642691513,0.5916351411900695
2.06,1.0188363469596924,0.33647330930520586,-0.11673806570332622
2.07,1.3759869253242527,0.5131520159285938,-0.920948507281345
2.08,1.7816123202386298,0.017588010574201136,-1.173084470007553
2.09,2.136941151440669,-0.5583122862455323,-1.4363921864877534
2.1,2.2981440319035515,-0.02938040253466914,-1.496134611570076
2.11,2.3084984558598305,0.9171262499710611,-0.7310273759912457
2.12,2.245126042255142,1.7943031915887588,0.1313291299735857
2.13,2.176720557591797,1.9036897235040076,0.8456535348893702
2.14,2.117362766783076,1.5564299229811334,1.33047531260025
2.15,2.0335969621771004,1.6931113124897574,1.3087064169143285
2.16,1.9735047988040901,1.998483702888485,0.9215853565322094
2.17,2.0160691388028655,1.5023319129719805,0.4777288677893226
2.18,2.0398038878020666,0.7582583375827061,0.2066669113801677
2.19,1.9149085399529981,0.6660851001017328,-0.05801152368473735
2.2,1.72442140611844,0.7350437298544524,-0.7903340937163257
2.21,1.528909340207093,0.594678875861883,-1.7141004749774775
2.22,1.413524475253037,0.2888964970599404,-1.9984705062308505
2.23,1.4584554352769237,0.061770899281861136,-1.60242483876026
2.24,1.4959383107984865,0.14850829158697446,-0.37202190015608005
2.25,1.4386511828615742,0.2394124773562933,1.3361699317995563
2.26,1.232165381931594,0.8383587943538403,2.2392598864044695
2.27,0.877647254801476,1.7270702864304976,1.880712280310018
2.28,0.3870194371715685,2.3400792029630466,0.9454376046935994
2.29,-0.05383114704853702,1.8945628789154068,0.35507204477673177
2.3,-0.1369235317853398,0.16986719198823902,0.18298191860049595
2.31,0.2242727762018446,-1.2251172864463873,-0.566899851328519
2.32,0.7337938974133735,-0.6720050192682271,-0.9492586741552738
2.33,1.1266693826826557,1.2644523522781745,-0.8491729684297712
2.34,1.2133362315902803,1.88040565120563,-0.8185912954461921
2.35,0.7898937188358323,0.7357049143427906,0.21525892778928077
2.36,0.0448998290891938,-0.40207601510909075,1.6430617914694559
2.37,-0.5638443336766988,-1.2230853348685347,2.0400323668844345
2.38,-0.8983111547379947,-0.41339595086563374,1.387279584596475
2.39,-0.9157796496027188,2.711578880619833,0.01199725316655666
2.4,-0.7424605050162357,4.420578774058391,-1.1688085615554675
2.41,-0.5369497224510575,2.0748531375495967,-1.3124858171322147
2.42,-0.4533304085939161,-0.57745631270771,-1.369596114178751
2.43,-0.5683447331361108,-2.1840567669296527,-0.8062364207979863
2.44,-0.6192057006930172,-3.024785590960987,-0.008612505738854163
2.45,-0.6622685493851432,-1.5360784224630708,0.30213985972161966
2.46,-1.1308041319081485,0.7839075184208603,0.7345116225560806
2.47,-1.9751300053323764,1.9979015628919483,1.152198025905639
2.48,-2.598275273624774,1.3989556306930975,1.2092603771382089
2.49,-2.744261455362367,-0.17261117504228923,0.9589155339231046
2.5,-2.445687218660134,-0.690018468324773,0.5316160181970201
2.51,-1.7802929585861367,0.3027696354543264,-0.22110467682665824
2.52,-1.0249409921986203,1.0029419936634787,-0.8374608906846543
2.53,-0.49006111971209165,-0.4630748277353036,-0.6250396344169863
2.54,-0.5334710538277655,-2.3328365160516595,0.20994896478223024
2.55,-1.150897711786073,-2.4640089684862407,0.5638585934817213
2.56,-1.9950307385289632,-0.4015368048670243,-0.3029135426674234
2.57,-2.6181457532169996,1.0327930608891422,-1.0805950899402421
2.58,-2.6127691388200156,-0.9090705479940518,-0.4375204031463345
2.59,-2.347489536511976,-1.8579735104439783,-0.1920501030352054
2.6,-2.061944360262476,-0.09235053931292957,-0.24905601282540898
2.61,-1.6480269886470913,0.3526441793391102,0.7632667575061522
2.62,-1.221727999636799,-1.4254598894613528,1.5486484923438621
2.63,-1.097561791561026,-2.121762307064417,1.1267892736991492
2.64,-1.2309624387971083,-0.19251388452632373,0.11621783013403217
2.65,-1.458757972498811,0.0319568930160979,-0.7901171404012514
2.66,-1.7619135937790018,-2.2551105439158348,-1.0089749418322915
2.67,-2.0081385141952786,-3.472475883531811,-0.1863289114307594
2.68,-2.0996940683487764,-1.2972311107233296,0.5066690230091574
2.69,-1.6948231839460135,1.1681735360434784,0.7479024629227579
2.7,-1.0139994064417572,0.8710936994575015,0.7084479791714478
2.71,-0.654615752959551,-0.5708977111223295,0.38762157771626216
2.72,-0.540220082010044,-2.1267282037021853,0.6805880870023531
2.73,-0.46766938729881763,-2.5385703314440464,0.4930298404780204
2.74,-0.2800518553313792,-1.3152412009793129,-0.4744771052663687
2.75,-0.07041725479242412,0.16970718143528482,-1.2243275656518864
2.76,-0.11549622968094808,0.3377576649557943,-1.3152247434267499
2.77,-0.23714921007428225,-0.14673129427506973,-0.5666137073794953
2.78,-0.2667434488874631,-0.5699549050496286,0.5007789289668577
2.79,-0.06446203378166467,-0.5669710122753711,0.8791560357854806
2.8,0.4601013231843015,-1.0316389414270462,1.0587822918007628
2.81,0.936875933989876,-0.9337920865469724,1.3249727681882186
2.82,1.047691224205885,0.658947900389464,1.274592557791773
2.83,0.8647824312226486,2.6193024590932503,0.32757590158662975
2.84,0.5907558792849472,3.0321102128128183,-1.3207620966822275
2.85,0.5981639951924501,0.1476522291453696,-1.6859684608484806
2.86,0.9798402643526012,-3.3029776408255405,-0.7952491041250118
2.87,1.2443900696346095,-2.8465390349777975,0.2678466200696657
2.88,1.388114328667552,0.5678239125778681,1.0682089461079296
2.89,1.5910293689160868,3.4786735783803397,0.659034479864514
2.9,1.8419200289591793,2.4958414344110107,0.03836032854811454
2.91,1.8400016120433682,-0.14447916789045107,-0.4670811462637713
2.92,1.5492780851917798,-0.950150470924301,-0.7515439134579247
2.93,1.4769878138024224,-0.8195418362523802,-0.3653884143315737
2.94,1.6737328192929573,-0.23645074038913777,0.203305155272545
2.95,1.794034712206448,1.3620101321010047,0.07915617410942363
2.96,1.7223681816691152,2.102469903326632,-0.3358139672893357
2.97,1.6419487568650657,0.5046386005479891,-0.5616731613788294
2.98,1.4343000671432884,-1.0505658482444495,-0.18553285147072043
2.99,1.09114272753008,-0.053895042495536956,-0.1568354272084427
3.0,1.0476485027495979,1.487719730478714,-0.6434270608305938
3.01,1.374401655368349,0.9212618095244918,0.22111283959886574
3.02,1.6065343243277308,0.29316771153683185,1.0531815308769066
3.03,1.6867436672725162,0.41927141841211285,0.8396424853958822
3.04,1.5088619350510892,1.0931858885085444,0.9206707475283732
3.05,1.218197934616042,1.758600875664618,0.6313413701312344
3.06,1.0129270507295351,1.7617493711799477,-0.5614841962267849
3.07,1.133295673776734,0.5550220790191454,-1.3449884009768884
3.08,1.4219653283019151,-0.5086782316964349,-1.0110405878342261
3.09,1.551833564288383,-0.1543439721812739,-0.19287745813853086
3.1,1.6309132901308874,0.3986774634163537,0.5426991308088724
3.11,1.6119412152223969,1.373069060828201,0.5100307059593793
3.12,1.36523389951858,2.3231888350074885,0.38531861562526004
3.13,0.7373355937647529,2.29308979802377,0.45335652810385096
3.14,0.03183436968934538,1.4296965828824768,0.7324376959695751
3.15,-0.33947091619160746,0.34912750496194916,0.770126935372752
3.16,-0.23785986158609504,0.021415883529828716,0.26842300169596717
3.17,0.362619526252636,0.09335641281450052,-0.42370657223550606
3.18,0.8176264827848462,0.12450411340443461,-0.5616783084901729
3.19,0.8948146551807801,-0.10775258080543018,0.09041816763086627
3.2,0.7041835984752179,-0.4919839555176308,0.5669147091222576
3.21,0.2936285987442879,0.3030198065391655,0.18277514012189247
3.22,-0.23168625942925233,1.7174601074957834,-0.38316875032224174
3.23,-0.6992327065783903,1.7826755151214364,-0.46134159315464307
3.24,-1.0404797975463775,0.9594461474174328,-0.31766080422781995
3.25,-1.1772122058292809,-0.02233247718782522,0.2211315113603436
3.26,-1.0795019587113812,-0.5276953684982573,0.5466220570681586
3.27,-0.8080218942999037,-0.4802812619815052,1.0342338167051464
3.28,-0.5472775934584835,0.24365505989865918,1.2338304411180352
3.29,-0.40319338364015567,1.3812847365059704,0.42922414782487206
3.3,-0.5131216934410912,1.6621911135740581,-0.3667608570523242
3.31,-0.8505863417151014,0.47937857822971264,-0.7063090938401679
3.32,-1.3153703916692898,-1.0165041613236834,-0.6783611775755612
3.33,-1.6047082520338447,-2.016034744975532,-0.3256939244488422
3.34,-1.5507884601439967,-1.4088269081285607,-0.40139934311596914
3.35,-1.1073943585990322,0.08145959885468107,-0.5566750489744895
3.36,-0.666580271623043,0.9884538738166206,-0.2711354798794278
3.37,-0.7242963737120164,1.205513537083013,0.07860126274158166
3.38,-1.1267389849174516,0.6139654790736268,0.7198110654562554
3.39,-1.5381891022111316,-0.4301741914976003,0.9085921268804292
3.4,-1.7245165653655132,-0.9780624786023103,0.33954101527044794
3.41,-1.6643599844145736,-0.6211421477569432,-0.3757326862970209
3.42,-1.413289580350816,-0.03262298712275661,-0.7326578214249199
3.43,-1.0310927482261845,-0.011148139008279752,-0.6486896572691934
3.44,-0.7057079172725004,-0.5282062858207691,-0.3477928851386083
3.45,-0.7393163366476495,-0.73151291135986,0.06890344601174861
3.46,-1.1187167563551625,-0.8001200385255312,0.8750909681454234
3.47,-1.5234162227973245,-1.0023026352620952,1.03832586859135
3.48,-1.7790427793756816,-0.7510152636874543,0.22828376909185955
3.49,-1.8556694756716248,-0.2657007685997746,-0.29587728569533644
3.5,-1.781458567311887,-0.2384932735571661,-0.447774773707268
3.51,-1.6092637860674792,-1.2331293496685685,-0.16626574500402325
3.52,-1.3547199444599416,-2.273211959343979,0.26171914984663264
3.53,-1.0841197005397907,-1.7408478738386979,0.07212847801582724
3.54,-0.9417241806597672,-0.11205178816143395,-0.2972764652676951
3.55,-1.141037641967034,0.378965989321686,-0.20958711567920016
3.56,-1.477717106885575,-0.030116515996631923,0.25519981641934675
3.57,-1.6357034541007045,-0.9660454109780218,0.65418845033585
3.58,-1.4560984049705483,-1.4859984678660454,0.5640424499530673
3.59,-1.0607930453310042,-1.0021676363040026,0.11176504044218347
3.6,-0.7927020447303732,-0.1455445447826694,-0.12631694936998014
3.61,-0.6497024766920828,-0.09678517485331695,-0.028585776717613098
3.62,-0.5470516740029504,-0.45147123890318425,0.019452677697121407
3.63,-0.3902009729545786,-0.9936490675345037,0.1494542838828364
3.64,-0.2212964445942339,-1.3412899463818568,-0.05043618279841265
3.65,-0.24503189002925185,-0.9638727998439547,-0.1195412859589321
3.66,-0.4642828571897801,-0.08068414645934348,0.40415923110437946
3.67,-0.6078106239803919,0.7647449945957503,0.44020192860448804
3.68,-0.5343930254732384,0.6585790084523839,0.22791329928268558
3.69,-0.2582569775174912,-0.5647721255000474,0.3203040705749045
3.7,0.03337377977220956,-1.2006484315496413,-0.054148148499949235
3.71,0.3323805689613393,-1.202062906686931,-0.12376263307811275
3.72,0.5319239518824158,-0.29565994048743505,0.08226700592586389
3.73,0.5853039782417371,0.6435873315668552,0.18027432733867704
3.74,0.6531378343083707,0.09442283220957517,-0.04974365757666368
3.75,0.7686980996522362,-1.3067120610268574,-0.3802200928817622
3.76,0.626711834515238,-1.220846008331468,0.25591955438581054
3.77,0.2339247696379545,0.9341728002561517,0.5171172770826733
3.78,0.08075543062660342,1.928054529445066,-0.047587057904412915
3.79,0.17809435615924274,0.5668354825148847,0.6592934735342194
3.8,0.34492464007159307,-0.47173089171713295,1.1755087027114566
3.81,0.6598205903363306,-0.8831275263659568,0.42243464586174534
3.82,1.0797269034009822,-1.4736758814578148,-0.18599948323918666
3.83,1.2622474730255102,-0.8940898690676474,-0.528368810978155
3.84,1.1327848316348854,0.4303363186777334,-0.6035875809164445
3.85,0.8916310033766922,0.9661864410835367,-0.7285875805789919
3.86,0.7907193812686663,-0.2507319810553557,-0.4894140878057211
3.87,0.590131100947991,-0.9752995665636427,0.28079524646147225
3.88,0.22477902640857822,-0.11268000505402584,1.017675999008092
3.89,0.08019254691473982,0.33843761042677456,1.5049246515067114
3.9,0.20275929117284477,0.138061283632798,1.4462666719946118
3.91,0.42552334098596006,0.3645526383563537,0.5843262181134532
3.92,0.6050046665801891,0.7372114014084384,-0.46869288694280997
3.93,0.7069922927230505,0.4002210096081318,-0.9982386382228452
3.94,0.7376446084628198,-0.21564317736499775,-1.0195212920824377
3.95,0.7798652518359028,-0.6576238942958678,-0.7621642840459387
3.96,0.7735223604862222,-0.5507401654176403,-0.2689753617890051
3.97,0.5955673779181206,0.2402463163790764,0.4039071971474759
3.98,0.3954154082659227,0.6999481072556475,0.9685049328420227
3.99,0.349474089944606,0.47237335482164267,0.8951727303711168
4.0,0.40625353866445707,0.10995535269798941,0.5926499088672366
4.01,0.5743603852167609,0.023010364475828944,-0.1450140809222877
4.02,0.8141057172813663,0.1733661176368373,-0.9855318512397337
4.03,1.024871944685186,0.3731697145600349,-1.0964105763114664
4.04,1.1576974738047419,0.6618256912398178,-0.9415696546273894
4.05,1.2273778330192886,0.44717932408682914,-0.3328547523616279
4.06,1.165004434276342,0.2253734752547715,0.5867495349172518
4.07,0.9445183573500681,0.6379791599134278,1.051862588373751
4.08,0.7012163086790628,0.9426229631334888,0.9840252068402355
4.09,0.5522341457153223,0.8389081954694784,0.3200295585022782
4.1,0.5545739299336009,0.4889409735563149,-0.29355417562467034
4.11,0.669925252628522,0.496385169837272,-0.6691535863520626
4.12,0.8673959634508874,0.8121166779656236,-0.9125950171233712
4.13,0.9781248061853106,0.8995989188508215,-0.5395064285679823
4.14,0.8567226918564816,0.7187695239160412,-0.04824435560230333
4.15,0.5817193305003414,0.3460971146060621,-0.00900636665132771
4.16,0.27750971669362046,0.03604409041043059,-0.008860277338210007
4.17,0.0009817825125306406,0.15546774378411912,-0.06385081718915388
4.18,-0.241837177063849,0.316167416839413,-0.001640230035116272
4.19,-0.3569729928607034,0.10193241947850858,0.3824415861743373
4.2,-0.30768943597716997,0.2342850668121678,0.4110759669215234
4.21,-0.16233297058250593,0.5781819105512622,0.3286049025750692
4.22,-0.06926097716529307,0.4075888914302469,0.6167526473424815
4.23,-0.14172591425633593,0.23837055838503624,0.6567319478072535
4.24,-0.38821315170509213,0.31360545976986554,0.4914379046692679
4.25,-0.7192028082740523,0.39867908363161336,0.1222816037581531
4.26,-1.0258197672646738,0.05468199333003522,-0.3753679152878127
4.27,-1.2431042303251798,-0.6768536800892451,-0.6988335975523745
4.28,-1.3781486001544054,-1.014036871662717,-0.612718041867495
4.29,-1.4091068797158741,-0.5952456526485114,-0.3599292963775403
4.3,-1.2316073958441476,-0.40595483392061793,-0.23980931040337428
4.31,-1.0082923589779844,-0.8682516280875142,-0.029462617532518113
4.32,-1.1093240273063858,-0.8736865808090022,0.4000816224086254
4.33,-1.4188983709657228,-0.4854679666506373,0.6387851207498474
4.34,-1.7103451263633551,-0.1011651981541167,0.3319077347707703
4.35,-1.8599974863960667,-0.13828277681028053,-0.19069860948843698
4.36,-1.8338499834219963,-0.937659886445403,-0.2712875959380288
4.37,-1.7688786698041263,-1.4780884434285637,-0.2178702598792921
4.38,-1.7445095529570294,-1.4270804690895418,-0.060968657700132316
4.39,-1.6814625549996711,-1.135125940610708,0.08463538010441002
4.4,-1.624726459309356,-0.2925762246349193,0.06299308177823651
4.41,-1.5312986613566597,0.35065488007468953,-0.03612112771119993
4.42,-1.5272565761976375,-0.5221575891586927,0.19817227443633934
4.43,-1.7996177001636275,-1.9134326764721927,0.7306269250279621
4.44,-2.0786729469453,-2.7550226190521885,1.2346804956209194
4.45,-2.0791666648745153,-2.141201025854335,1.036852207388223
4.46,-1.9082854354515923,0.0359727161756036,0.1875128338867981
4.47,-1.791448434150261,0.5791817933362498,-0.5067117003617136
4.48,-1.612482500118291,-0.4881468932934271,-0.4851924073752534
4.49,-1.1891835525310415,-1.9983371275461443,-0.31894740240902164
4.5,-0.5308766011966087,-2.4543855709679967,-0.7368707295643063
4.51,0.09805933819918665,-1.3834336428268144,-1.0905765548736661
4.52,0.2914441583898624,-0.039094062926233075,-0.6394925073313449
4.53,-0.14839974140947434,0.7703486864989167,0.23526432782992746
4.54,-0.6486561955613891,0.4434737324067736,1.1414200061490734
4.55,-0.763702347852851,-0.9954011031766403,1.7802752483885351
4.56,-0.4084497159994431,-1.899781889214201,1.7832011977298277
4.57,0.15602920704814857,-0.9935016709444664,1.1131696434645888
4.58,0.6942618199868308,0.350680204134923,0.6478156534319711
4.59,1.1110484158947718,1.0478174358460928,0.5567570141100581
4.6,1.391418472407443,1.3857128874291598,-0.014308509571560156
4.61,1.5288708020588784,0.9845085310363063,-0.8103739318523108
4.62,1.7498903587592955,-0.9783421244986815,-0.9668789147690354
4.63,1.8536263625343805,-1.7345917069639223,-0.8872646160995279
4.64,1.6856780427795797,0.41278821148205713,-0.9410229115196936
4.65,1.5527511690574867,2.4517536812068625,-0.5886870243762645
4.66,1.559383139511844,2.289069796593081,0.3360883136379382
4.67,1.6516218888273153,0.5892448873910243,1.1618598857369924
4.68,1.6430818194264276,-0.4127721771457904,0.8861688190703239
4.69,1.4820722583182955,-0.2546330992186442,0.17136500007683905
4.7,1.3066385287094084,0.3165788067517196,-0.36358846321086874
4.71,1.3513164844145984,0.5795227523928547,-0.8701322581666103
4.72,1.5692387278851019,0.7747703449825071,-0.7469914439119181
4.73,1.792561926401403,0.8775663794943643,-0.0225415243699648
4.74,1.904933131439233,0.4749883671720093,0.18745319576553832
4.75,1.8058186709147876,-0.28202602993461834,-0.056460027255133896
4.76,1.4352238257406555,-0.10759245849408963,-0.3205130983988403
4.77,1.042962358523368,0.7708494432926385,-0.6463072983072653
4.78,0.9149425768164863,0.9115381025085777,-0.6387258769691168
4.79,0.9506953313045728,0.6193109371671512,0.049873168044020685
4.8,0.9746870121436152,0.9087962017135145,0.6593896822451031
4.81,0.9616072061217269,1.045099777822965,0.8718645322606089
4.82,0.908838064006313,0.2736123395080617,0.6936747547746615
4.83,0.7057911562369722,-0.466693051073662,0.33657336196507837
4.84,0.43925476109676936,-0.1681047293199049,-0.4175621794010137
4.85,0.3334347409857638,0.4774172147740118,-1.1550029950319787
4.86,0.4337522488891419,0.4897934960637683,-1.1710518972041355
4.87,0.3817583183538661,0.37075970829326077,-0.7677750003485198
4.88,0.1534289950908053,0.23163393956539308,-0.01707866473302838
4.89,-0.05307012662107681,-0.12514062968366743,0.6895755597205975
4.9,-0.2549396725783728,0.19058421280426632,1.0240094048470267
4.91,-0.622551801464642,1.5702761899033995,0.426105396431561
4.92,-1.0939991048245492,1.2133395852209758,0.07973088662553729
4.93,-1.4813450612528851,-0.4134645945188813,0.615214942752189
4.94,-1.5593824353107721,-1.4491791812550523,0.5739315293350407
4.95,-1.2681669889112082,-1.2697556085358137,-0.27220003674849097
4.96,-0.7537195389316241,-0.7759941591068324,-0.6041464800869784
4.97,-0.3639455558504912,-0.08777276731242913,-0.8289220929320257
4.98,-0.32553702059266687,0.18012911047940403,-0.7331412348524391
4.99,-0.5633659733589107,-0.5329026839075874,-0.23108506229999745
5.0,-0.9308430917382768,-1.3079481620401299,-0.1817176311227729
5.01,-1.4093990025537626,-1.3269684700385769,-0.1869321611039179
5.02,-1.825960887286502,-0.9231765100455194,0.34152933481335984
5.03,-1.8928674208090694,-0.4831616887531208,0.6751171428763778
5.04,-1.6214991609212344,0.09275392268582311,0.6413835774051089
5.05,-1.2277594075326308,0.7879067685892797,0.4751507642681111
5.06,-0.8037507238166702,0.7229612217698137,0.01963761324808521
5.07,-0.40590046293078946,-0.6959935067060116,-0.28367463965331774
5.08,-0.11840713048526098,-2.220729127832364,-0.23779936196151993
5.09,-0.10494163601495643,-2.0180799486789995,-0.22937336919714255
5.1,-0.3906637532732187,-0.6377947405826493,0.03565871959784456
5.11,-0.7045458161997589,0.004447959989287182,0.5348561110187138
5.12,-0.8699372678343551,0.009434879727643087,0.6783179112547685
5.13,-0.8612068601044546,0.36169657963896956,0.3525027882738501
5.14,-0.5677866479947856,0.3281912284141925,-0.08631474813711501
5.15,-0.058933914075819584,-0.544521746643149,-0.4488654805094556
5.16,0.3348725836280472,-1.09758729575023,-0.4900773020451532
5.17,0.35201761091575107,-0.6797119031583925,0.31503770842496515
5.18,0.142413640336012,-0.07428621716610248,1.1016311672767654
5.19,-0.016771786635023413,-0.14844177300289435,0.9544050497639809
5.2,-0.0672416854615623,-0.08482625039882657,-0.1581647256298862
5.21,0.1094618316746882,0.0417797708127772,-1.1384592553816741
5.22,0.3464355687212518,-0.46010748647068783,-1.5107191733967587
5.23,0.3227361081845557,-0.4337899587478848,-1.7302382711248496
5.24,0.3177770184657982,-0.11138475501157352,-0.7553615488012929
5.25,0.538171362092888,0.032852407910713415,0.6182026742671584
5.26,0.9844112377427803,-0.24538177662710225,1.1572122530287507
5.27,1.180826721522502,-0.07145380620288118,1.2840567254214053
5.28,0.9701752046736984,0.4999814676280336,1.0490371560416094
5.29,0.662620147215219,0.6134597875378047,0.15210889083326504
5.3,0.41355722698158526,0.9337575468093475,-0.8429063673418689
5.31,0.4169976520773997,1.031240762730359,-1.0556949513960674
5.32,0.8269975660938177,0.26746047421995217,-1.1395948733089527
5.33,1.5167357326324362,-0.8347493990180449,-1.2201953469428075
5.34,2.0786209197828587,-1.1721178628622806,-0.371641824489373
5.35,2.1214523249265946,0.15768484466421367,0.5906464323799527
5.36,1.6831065742578208,2.0000479365403865,0.7073428230329589
5.37,1.0516926576030199,2.187046990863095,0.5113162053891842
5.38,0.45588439252816343,0.9242138279531247,0.40774843515297027
5.39,0.12152941221560776,-0.060083796149779385,-0.0245936541273527
5.4,0.32614007644653736,-0.7499396379544493,-0.4254201985389592
5.41,0.9121517777048679,-0.8898006561499514,-0.30271385337969503
5.42,1.4193539810652562,0.2072464790214618,0.0959222226196551
5.43,1.643441276575338,1.4009225977809692,0.4097062580136992
5.44,1.495222339398654,1.6871679089361866,0.37393740800620806
5.45,0.9748851758604352,1.4256022550735232,0.01919976645747934
5.46,0.32070866631260625,0.7531033374885677,-0.25294149258903353
5.47,-0.12814674901390072,-0.501233409789856,-0.03974378995371712
5.48,-0.22223180762335823,-1.3380995261534394,0.6777820805306567
5.49,-0.05558955495589581,-0.34693302190928677,1.1980617888203857
5.5,0.27372099038544273,1.4438642119172664,0.7613045636763816
5.51,0.5578628014833092,1.7681115516922512,0.03232075936267019
5.52,0.5236443826200944,0.7480517761921827,-0.019279881417875882
5.53,0.20290016280700632,-0.1982426611300761,0.15092461976185462
5.54,-0.10105812176247791,-0.9434874257629876,-0.023757516390562464
5.55,-0.24340253051371968,-1.164617392586096,-0.2239029879108864
5.56,-0.29689915943117906,-0.21787764041681904,-0.207664624698409
5.57,-0.32332951596503745,1.0973307535763162,0.031934358170990516
5.58,-0.2009537032259265,1.1449203824938365,0.29337300921940035
5.59,0.025308587915182888,-0.06003257945035137,0.6249467770625213
5.6,0.036633348010836495,-0.6249420329642889,0.8281195182598269
5.61,-0.13490498636494894,-0.21407118038841133,0.5950982138742944
5.62,-0.19521570320694623,0.6662741677083198,0.10608853047879618
5.63,-0.017915316429916076,1.5120499020315075,-0.25060561240097123
5.64,-0.01130483107231548,0.9625106395722941,-0.34668018125169303
5.65,-0.4039562643797275,-0.35212069281999947,-0.13069338026356253
5.66,-0.652325470642785,-1.7730459537434045,0.8377830110271983
5.67,-0.5652765243667545,-2.1001872228474947,1.296985585909268
5.68,-0.15203051103955137,-0.2369670479049182,0.34499763947725776
5.69,0.2780315552485186,2.235729297656387,-0.8317281423401282
5.7,0.27335988541974515,2.814637746380163,-1.1915747087542579
5.71,-0.2117039106443249,2.263148556717166,-1.1530936763669672
5.72,-0.8161977801104963,0.09823623167308956,-0.46873026345445173
5.73,-1.1332135823224205,-3.068941428556555,0.31800223477956757
5.74,-1.0920473636987897,-4.294893941674196,0.45361079537113763
5.75,-0.8385314913566405,-2.3418499496316194,0.4896419026977623
5.76,-0.49508519315953103,0.8885752696334563,0.4578352537641445
5.77,-0.2804276950174836,3.170410224039939,0.25947242649260366
5.78,-0.34709364450987923,3.119618576789603,0.12053595880804663
5.79,-0.563194381360708,0.9212468008022568,-0.21967516583847088
5.8,-0.7834043929494798,-1.6994939231462303,-0.4282706706929374
5.81,-0.936309071482242,-2.7799415722506846,-0.30241029736096264
5.82,-0.866191504446334,-2.300281539859798,-0.3936657203762144
5.83,-0.5890453583801357,-1.0085388443947618,-0.5416644812314856
5.84,-0.35393668673762635,0.5395910215451818,-0.35183402259430246
5.85,-0.31818128201161494,1.4200108564060616,-0.25510191285493783
5.86,-0.506020178898371,0.7131709897593774,-0.17999791048221983
5.87,-0.7820831058251496,-1.3835432053525345,0.2549620714127224
5.88,-1.0245876686854334,-2.820051077502522,0.39502274439632107
5.89,-1.0929080497305705,-2.2631243042305256,0.3017096267422656
5.9,-0.9940405184385419,-0.039445419056276666,0.39390971575374834
5.91,-0.7746651861058574,2.1565327215559575,0.12405833862969148
5.92,-0.38329739473289726,2.332021270715929,-0.8723891893754061
5.93,0.10392010465191803,-0.21947163073022963,-1.1591786774666677
5.94,0.35143954096164937,-2.545800205387715,-0.7330048366112393
5.95,0.16913605721322766,-2.2839254727451186,-0.568852751323021
5.96,-0.2203899579024409,-1.0787236803693365,0.20832863280522265
5.97,-0.5848520193230724,0.2509285994339695,0.8779432881410186
5.98,-0.7741702570399221,1.1746619700919692,0.8495055041252539
5.99,-0.7691558054685905,1.0785614633979699,0.7287585718865339
6.0,-0.5198742126931281,0.06240113114482594,0.5561598708774282
6.01,-0.08465650574567564,-1.0711415220268663,0.16742319479658735
6.02,0.36835479268879884,-1.4098440921189637,-0.48156424330633896
6.03,0.7084668690935936,-1.0108191409044731,-1.2289350640196253
6.04,0.8122847269167166,-0.8020587117731958,-1.3816295659050943
6.05,0.61097264478423,-0.7008192852345703,-0.843848003199068
6.06,0.22732763189758023,-0.12420207525840225,-0.03779965734649953
6.07,-0.08576495119950801,0.5801183966066149,0.731296937896405
6.08,-0.18203794329729073,0.898896909606063,1.1470321999665325
6.09,-0.06470930436069067,0.6030603215264382,1.2294586651197466
6.1,0.2246040303676122,0.2508692962171841,0.8124011438612043
6.11,0.5887944313733572,0.31154138346609467,-0.04576877997738003
6.12,0.9330641297654932,0.19237772618604626,-0.6619133330227085
6.13,1.1671895850867906,-0.22823581209864754,-0.8545556974647732
6.14,1.275320239435908,-0.4106480860771537,-0.8969709787719399
6.15,1.2356805579630774,0.09410507864329264,-0.8546516928871413
6.16,1.2064697575773988,0.3242899808329364,-0.7278923336253227
6.17,1.331227362457322,-0.5758527683209651,-0.29464185028018053
6.18,1.4198390332278286,-0.7317628476616206,0.10381477769403012
6.19,1.3364026701514273,0.7367246430733702,0.1183002299425372
6.2,1.1783164334731318,1.8404605555479114,0.16023137544634766
6.21,1.1278549612951825,1.1357255534545985,0.38314843702409807
6.22,1.209319376208153,-0.000949183164987755,0.5375196943021355
6.23,1.2186505254740254,0.44686502329599126,0.407709704592271
6.24,1.1797351439211468,1.1173917814417669,0.48353551727548055
6.25,1.2849882311918772,0.23650357377892817,0.9189695837993657
6.26,1.4795960852841759,-0.48393262450549207,0.602251365598717
6.27,1.673416278187165,0.7802344007439882,-0.8214432736274575
6.28,1.7910465273878293,2.2194434128711555,-2.0003234804548304
6.29,1.699846870444513,1.432413992637988,-2.098216501630855
6.3,1.3183738613196163,0.49436866479405006,-1.4196084124626263
6.31,0.9771298900809523,-0.42111914576973214,0.12195629229556683
6.32,0.877804053164679,-0.9650744201092712,1.4594273195911394
6.33,0.8503533331460768,-0.22306467837337177,2.025382552117548
6.34,0.7043842507866084,1.1891158876449313,2.167819105847318
6.35,0.5299158808290405,1.7482589850592358,1.5849068450241302
6.36,0.3775159893813991,1.4244398202423747,0.15273579258819955
6.37,0.20505624528812286,0.8590603938903154,-1.0040858242004027
6.38,0.10757765487406043,0.21145278532842443,-1.3616988520053033
6.39,0.14078626006753234,-0.12427225710349286,-1.480971193527336
6.4,0.1865655800620456,0.2620941025905634,-1.3265765051390535
6.41,0.13007951892012748,0.8099515435545735,-0.44868008538648757
6.42,-0.07613886941076427,0.820393386802411,0.8012417520534582
6.43,-0.37660395645900474,0.5213699690133192,1.4401129212264048
6.44,-0.6706659456668979,0.5053970717554874,1.322257237514806
6.45,-0.864159434859794,0.7055061076217924,0.6942713264372073
6.46,-0.7990754405992951,-0.09964706569785509,-0.10325210464792767
6.47,-0.4640848750792146,-1.676016829393462,-0.4767285256850438
6.48,-0.11425707219031858,-1.7337222731418365,-0.47313174769688504
6.49,0.038300105502852816,-0.025735517923443474,-0.4150742244398398
6.5,-0.02747328036071751,1.1749508834386646,-0.33133903834438533
6.51,-0.2979721746405384,0.9163004053809481,-0.11384562841703644
6.52,-0.652440273788764,0.21082126760755496,0.16776396548914654
6.53,-0.827836647741853,-0.2585409611180786,0.403877222892692
6.54,-0.6748517692205923,-0.5124075524903866,0.5260503529432025
6.55,-0.32107642745032416,-0.38238980136575357,0.563364852170273
6.56,-0.062414505372515375,0.32750719374361853,0.7079630041869936
6.57,-0.01325761107288944,1.0417341446721697,0.6406967313215826
6.58,-0.10264678809234536,0.7488663838482345,0.3824655096732616
6.59,-0.2673383826728259,-0.2508632001102633,0.2935477141263977
6.6,-0.4008756137212963,-0.9262890963817767,0.2853695323608775
6.61,-0.3971361283585046,-0.810196651224875,0.07298949475952554
6.62,-0.22267323944186965,0.018227429738400833,-0.4884947783122218
6.63,0.08541141530668658,0.8661374870201876,-1.046869803258326
6.64,0.40240364039454124,1.0230456040339537,-1.095674489671854
6.65,0.473057876672581,0.7591800628738485,-0.7612571934194189
6.66,0.1898292085328991,0.3024085836756225,0.02086792629937459
6.67,-0.2658534023078122,-0.1214235990545791,1.1789818744946654
6.68,-0.6711609209757138,0.2969450574846498,1.7651689450509105
6.69,-0.8316419100619328,1.1589008175313675,1.5886921877299973
6.7,-0.662960175283021,1.1933718210294888,0.7748246623731933
6.71,-0.309635101100723,0.4166882816345911,-0.39063747432472556
6.72,0.08733143795306973,-0.622747206849282,-0.8671489782323019
6.73,0.5052499005406667,-1.2476806002333376,-0.7752315080555467
6.74,0.7935147286538734,-0.8922414210947901,-0.5188436741554071
6.75,0.7340958914458934,0.3536215408183285,-0.018048343615527714
6.76,0.3017078324942188,1.504138279706696,0.6292721248184593
6.77,-0.26739982872455664,1.3755111357807293,0.9942363294763606
6.78,-0.6987833811222524,0.1155579747726026,0.7098171168583931
6.79,-0.8907051163028274,-1.2366483046983925,0.29292201571012594
6.8,-0.807184891682291,-1.7703275545812391,0.16096047961533463
6.81,-0.4985768741911605,-0.7701825104073572,0.044230840862611004
6.82,-0.22860121833358124,1.3062957776774051,-0.15233978383026267
6.83,-0.1111527445385843,2.515151084006711,-0.7686224453085603
6.84,-0.09904039238834046,1.26671351095672,-1.1687103503671572
6.85,-0.35167095455514374,-0.6906797419058417,-0.9229967986021753
6.86,-0.7543224240901077,-1.2646268259551137,-0.8956074594169996
6.87,-0.8679522725624527,-1.4891018730843668,-0.4697302809674922
6.88,-0.5952417853989765,-1.1198673214832278,0.20736045177029244
6.89,-0.17973592923734366,0.2600727828644486,0.3271093184671105
6.9,-0.04982236709199184,1.1006474645572928,0.6100102544709664
6.91,-0.26132610090246555,0.4140471246980467,1.1394620601612853
6.92,-0.5848766982795292,-0.728285900100067,1.062629487410584
6.93,-0.8803326029938707,-0.9929865736890057,0.3717552950101966
6.94,-0.9764953182676408,-0.3711323048861063,-0.6308676522638121
6.95,-0.8490348599470858,0.17385365955187948,-1.2793434511216943
6.96,-0.6578913782606158,0.27916159138723007,-1.0560341149587344
6.97,-0.4478920218312519,0.04194555527280339,-0.4532430922974458
6.98,-0.18742785825630712,-0.5808436272400231,0.19019059122150103
6.99,0.01819004809103519,-0.8360772295959646,0.5375547302324476
7.0,0.022748112384607704,-0.07353009274535482,0.3798526213110841
7.01,-0.10940147993227972,0.7001717930866208,0.17948494059119594
7.02,-0.21652153726067028,0.5345921043070131,0.11144271674089992
7.03,-0.1419364034032716,-0.3228507413230579,-0.1600972876743792
7.04,0.05902523686096846,-0.764836449804373,-0.5491746404871118
7.05,0.16794716084638323,-0.3195673079824957,-0.299148025181685
7.06,0.189994340256282,0.4176835192066808,-0.057766643537052846
7.07,0.3275539722422247,0.4765019272901505,-0.5521629250554838
7.08,0.5278151385495978,-0.35453820007968806,-0.3886424006907552
7.09,0.500555634007865,-0.37844350376522173,0.17253923464339793
7.1,0.34645274295989686,0.15746084017179449,-0.020370616690760027
7.11,0.25899705805664175,-0.26329885868999364,0.518484147491673
7.12,0.0367328679393072,0.43121626262342844,1.3649430644137888
7.13,-0.18760910450862797,2.2077464673237785,0.5778088721783278
7.14,-0.16741812790127908,1.8809946181985797,-0.4568113893140831
7.15,-0.03367370007809574,-0.2588725810331751,-0.11692445338755687
7.16,0.03843960741710253,-1.1077534628915162,0.19743728879040282
7.17,0.12693647031208363,-0.5358861150739136,-0.12513242935197644
7.18,0.2564899110008943,0.01957597670872994,-0.2818971349848315
7.19,0.2692883862417479,0.2203576555935815,-0.32441204270857366
7.2,0.07387623775392076,0.01210892518343977,-0.3024902950936011
7.21,-0.22902457568410514,-0.5066208319879489,0.08169034364273355
7.22,-0.4741160762853005,-0.6438776434086824,0.354574677185418
7.23,-0.554798663307534,-0.6058460584804715,0.28226237432535933
7.24,-0.4734040581823645,-0.7367685047351971,0.0730654708724535
7.25,-0.32307356464801024,-0.4797102285801393,-0.0562603463893942
7.26,-0.22208299919320565,0.3218508503700231,-0.07743435569841814
7.27,-0.12873588192673432,0.5636805862549392,-0.4901286724624561
7.28,-0.044313678093741156,-0.25946672172046753,-0.7955704889963072
7.29,-0.21103359643229158,-0.6470038021741058,-0.28655690342839996
7.3,-0.5678520663558543,-0.06253208063664532,0.1490168002026347
7.31,-0.7185585303112697,-0.056470742916544796,0.2690463296088576
7.32,-0.6909540392075683,-0.15710796464850652,0.3756009994829047
7.33,-0.6504345413545745,0.3510458832314599,0.32467163587419695
7.34,-0.5177845585691683,0.3637728298102789,0.12456070399560043
7.35,-0.28496491622234876,-0.32995493684066046,0.058678940763551755
7.36,-0.12034721994248956,-0.6214818765240465,0.028234430448111754
7.37,-0.019989193422831043,-0.6308730391674865,-0.27242886288845647
7.38,0.01640996785665585,-0.7925707761863017,-0.4325003668970143
7.39,-0.11360769607612405,-0.519905784292795,-0.05180901033737429
7.4,-0.29328533399923207,0.1827403174818043,0.13229299650730514
7.41,-0.4164792179755434,0.5657283970356632,0.04442017074083612
7.42,-0.49111058390451745,0.30150084975930874,0.30279439320216944
7.43,-0.49026223680975295,-0.17452979554978265,0.4811635221171566
7.44,-0.39571876221415214,-0.45124693147075545,0.5389160856478661
7.45,-0.27061549170086996,-0.3971233411543374,0.727832022724518
7.46,-0.14017189758772805,-0.17562964091646346,0.5358812361243892
7.47,-0.023460258714241195,0.043460303932186514,-0.26115608054118333
7.48,0.17246806300907022,-0.0231444701263044,-0.993354220703509
7.49,0.3890025850821448,-0.1427798178775015,-1.549886849459651
7.5,0.2144809224971268,0.0928439481743524,-1.7232918563586581
7.51,-0.1564173255070428,0.1098975271904365,-0.8602584466115937
7.52,-0.13198759702750026,-0.8066188327286343,0.5925266153414115
7.53,0.21949896515751657,-1.5047117698115504,1.4408519584150827
7.54,0.4884364893529568,-0.7673514240329764,1.537287050567305
7.55,0.4723225893372319,0.5395469117686881,1.6213048994541166
7.56,0.2633479206775353,1.5094153341128076,1.149639483111103
7.57,0.0178105808672536,1.8874962568446043,-0.28162168949098176
7.58,-0.14008373652855433,1.2121695280142943,-1.3253007612412886
7.59,-0.07333002514892188,-0.21487251994995377,-1.4682947737904948
7.6,0.2108939261652311,-1.287065192431881,-1.4369506288859095
7.61,0.569313768516913,-1.8259218726224842,-0.8898482723597083
7.62,0.690907245554676,-1.2241666268138556,0.02770222685905967
7.63,0.3967753938489702,0.5674974649998927,0.4991303979505565
7.64,-0.16788795625624567,1.724101455161036,0.7248548564135
7.65,-0.7074991278115973,1.1884784341465773,0.8727687365444093
7.66,-0.9524120955337898,-0.4074760189607968,0.8364673549415251
7.67,-0.8478917411589005,-1.6385701785495703,0.6322213900690703
7.68,-0.48711341730152735,-1.2028598585646206,0.06445083499994779
7.69,-0.04309954455576038,0.2803815933213665,-0.4867526213030986
7.7,0.29217931013542947,0.8403771766743208,-0.5844549394577024
7.71,0.38648044150057403,0.41833496358726985,-1.03449829346637
7.72,0.2345321182849301,-0.5094881008937991,-1.3774988343729901
7.73,-0.0207882824950123,-1.8890414687552202,-0.7835081953175704
7.74,-0.312208059112555,-2.1895781692664773,-0.11254532777914565
7.75,-0.5905370991701456,-0.8175288034157278,0.3700177374813097
7.76,-0.7158413886607436,0.9834644238591348,0.6718640493666765
7.77,-0.58164033067017,1.8076886654890356,0.7933868751852283
7.78,-0.32577815148104156,1.2649947127107293,1.1896266147671435
7.79,-0.2614577915935715,0.1689365682912324,2.060385930105607
7.8,-0.34168817897477005,-1.2583153612737406,2.991795509951632
7.81,-0.23327763878720933,-1.1585866165890384,1.5853970185115371
7.82,0.200245933225248,0.3565176766697324,-2.367026234245093
7.83,0.735861831328345,-1.2849362677977465,-3.80275912537202
7.84,0.8151998221954833,-3.0238820376405786,-2.4049083139161214
7.85,0.37996317832331855,-0.09230490384342917,-1.9784890196997984
7.86,-0.05031349405113926,3.3287700309905506,-1.7629153157993636
7.87,0.0009386125846393893,1.785040490733264,0.04202553980449821
7.88,0.1783618152611341,-1.6957347642020453,1.3369266957230854
7.89,-0.08402773842843478,-1.8645082784427924,1.2532893384494417
7.9,-0.5011835761974852,-0.08793479445912565,1.603941569578994
7.91,-0.6285825927991359,1.0972444228612355,1.3850756247328044
7.92,-0.42361773627652305,0.8924167289161297,0.15380949951664932
7.93,-0.18063148869780193,0.0290712799757783,-0.472094183529167
7.94,0.05536465755674315,-0.7106887632863581,-0.5670094808286392
7.95,0.3118098419445668,-1.1576460759685498,-0.9271348485180959
7.96,0.44816130589067027,-1.326513611034143,-0.8327640940218154
7.97,0.37007208045399254,-0.8609289094094302,-0.14115022350626705
7.98,0.17499268544267002,0.18988668120931768,0.3044378220681744
7.99,0.03202281996342968,0.9369442611422355,0.39185524814940237
8.0,-0.1327688586030858,1.2215380313160675,0.5070337945351373
8.01,-0.29102950720713633,0.8058695814341105,0.6536297005873958
8.02,-0.20526148196754854,-0.49385189095085963,0.4634990243106497
8.03,0.148086009109486,-1.4090932812364672,-0.026092327059974375
8.04,0.5516302598794068,-1.0518620475250886,-0.02164733490055451
8.05,0.7230139256513818,0.25988352722592833,0.4572417944443769
8.06,0.6713080889727843,1.2371212574595662,0.41128366899710134
8.07,0.5307059440734879,0.9963605464937592,-0.3244012039557307
8.08,0.3317009567865005,0.02467220565610346,-0.7446220926768453
8.09,0.12536997580563386,-0.6280135114535856,-0.5006234403047033
8.1,0.04712741180370048,-0.8367336988710669,0.10801347860243071
8.11,0.17950677925100011,-0.5276699466087554,0.6730017573721586
8.12,0.38962069798987214,0.7606540488356163,0.7323057655073097
8.13,0.4927371478052798,1.9060289900661724,0.42095928989311837
8.14,0.4347727968080311,1.3882818884837462,0.24039920794094863
8.15,0.27080152072253827,-0.2313647844829941,0.3581659013387443
8.16,0.10623415537544306,-1.0349786196523572,0.2892245671134805
8.17,0.1300164508939967,-0.7268975140716203,-0.10990602005345604
8.18,0.3966924405237896,-0.34749330538120643,-0.4496406861549259
8.19,0.6218536549643755,0.08871083234069338,-0.4148874321912181
8.2,0.5605885619661384,0.9736919160879964,-0.0643024236506733
8.21,0.37878211068875983,1.4947272385846373,0.025765277720469205
8.22,0.38812588990950303,0.44555780491552055,-0.14456125620529017
8.23,0.5112781440520489,-1.086542347326113,-0.01645267264040475
8.24,0.5615811126178705,-1.1849805847940873,0.19290579378345918
8.25,0.6092970395096815,-0.11988289277040275,0.15235560502023124
8.26,0.6360917824007662,0.9001306129186152,0.21722943573503153
8.27,0.5794874696194718,1.3911788845026904,0.026708530445727567
8.28,0.4595534078556224,1.229474028789439,-0.4915397424395995
8.29,0.36009118484245545,0.3438308519017494,-0.43086101636576923
8.3,0.33452394549353226,-0.29752338337368045,-0.2289943442663093
8.31,0.3585750540782418,-0.4696022793000561,0.03478302447341528
8.32,0.41924397161789256,-0.6562425234217117,0.6957619708982294
8.33,0.45969353450612577,-0.11207935234643115,0.8535829108672089
8.34,0.386824755543006,1.174372083441328,0.3148030782409737
8.35,0.18665478677765085,1.7105048720306557,-0.3097970492358279
8.36,-0.04473506086670007,0.8333962844186092,-0.9004675828401686
8.37,-0.12570393198272628,-0.6602360652615941,-1.2463534550132427
8.38,0.01451328082882268,-1.444595701059335,-0.9057622367622661
8.39,0.17382774852669608,-0.5960627941881137,-0.18348400159289657
8.4,0.21588353513215308,0.7355922418241359,0.504156744733425
8.41,0.14714330621979096,1.2819479576787294,0.7603916657586969
8.42,-0.030639475042893872,1.283657409922239,0.4483618911745633
8.43,-0.22809800848963824,0.8141182987945677,0.07196311526499147
8.44,-0.43747801144831977,-0.1219002451451214,-0.2805948354101165
8.45,-0.6054485477383572,-1.2573247384591928,-0.28121091372192336
8.46,-0.5978083819944514,-1.7145726502800749,0.3068679624524125
8.47,-0.4053943611511712,-0.5224836805134976,0.6212384467749967
8.48,-0.17606587266917798,1.5466318906702885,0.261300150672377
8.49,-0.14971661463432193,2.590340625076067,-0.2810222148649322
8.5,-0.30771161395044105,1.343843211566862,-0.631744322279061
8.51,-0.3982877533026947,-1.4830251277666184,-0.7223806619818944
8.52,-0.37330082004451554,-3.0241919532636325,-0.6639146191334457
8.53,-0.311907658726084,-1.792051590540818,-0.3674086654727524
8.54,-0.22467219932079177,0.6498094544198757,0.1923386902937451
8.55,-0.15902540922211703,2.2209767989583957,0.7387714968622666
8.56,-0.25927861694799786,2.2472775309896416,1.0018904098008832
8.57,-0.5915638697450857,1.116076804032679,0.9080395352701118
8.58,-0.9354638987414655,-0.8270838650656354,0.7638420553407362
8.59,-1.0054233059482214,-2.5583114857747336,0.46152976370668075
8.6,-0.7183822002183332,-2.4711870585400484,-0.3430767253930886
8.61,-0.2170041887269147,-0.7174194259915091,-1.1285061610337845
8.62,0.13870048620333586,0.781913538258336,-1.1547424497595036
8.63,0.03330067342877969,1.1668262477088345,-0.394624773141485
8.64,-0.47354645262236233,0.6115247821735046,0.29854820517750563
8.65,-1.0298322212726778,-0.8664691217581515,0.38647488619980835
8.66,-1.4452559685616688,-2.3367522088591977,0.4065247474367863
8.67,-1.6826278441814293,-2.486923224162854,0.4400144344781756
8.68,-1.672960022711545,-1.6664607112695462,0.6464646919588352
8.69,-1.4501290920251664,-0.5179975192674804,0.9999318214127487
8.7,-1.1220489877124469,0.8267445066957535,0.6035220528885871
8.71,-0.833902239802415,1.212952031080725,-0.3567814193163505
8.72,-0.7258734380932977,-0.12936025260435097,-0.9492716181185292
8.73,-0.8168916113766613,-1.8292119179072976,-1.076923650001539
8.74,-0.9730276200845993,-2.4616813189004567,-0.6717577116735249
8.75,-1.0306201629604235,-1.6485588398430036,0.05968734798889203
8.76,-0.9098597488520205,0.0651661627991411,0.6036152412199903
8.77,-0.7133172350381636,1.5202990977852104,0.9970634411134705
8.78,-0.5438763428249214,1.6709274390329878,1.103244067240208
8.79,-0.35539027302772136,0.37426785876689267,0.8319182567017456
8.8,-0.07896663365645609,-1.0980909902285694,0.43904497107410445
8.81,0.29073135124563754,-1.3165512219352271,-0.15639075404752603
8.82,0.6079602812153179,-0.41874913678140224,-0.6358041161950991
8.83,0.8092551619685832,0.13511018266155878,-0.3592564566266246
8.84,0.8254417282414089,0.34477531766081376,0.24014071957634303
8.85,0.6391486453605538,0.8197399930273541,0.0717904249209135
8.86,0.5876586088989092,0.004841784454344743,-0.5014983433076183
8.87,0.7317280790666827,-1.2120775642104775,-0.8172068007542714
8.88,0.8571469108221884,-0.866006717805888,-0.9848976849633062
8.89,0.9713864820265572,0.45056478395625293,-0.5499609534260256
8.9,1.2216900595469704,1.6803130946850606,0.3709882051214309
8.91,1.5840861854001276,2.2211117006929775,1.081769955202976
8.92,1.8155487494552727,1.6937849833000245,1.258111137098161
8.93,1.7660540027643337,0.1787447009260994,0.7248340976921975
8.94,1.5024556663163,-1.4433914797047562,0.06136033567470778
8.95,1.1613961053766795,-1.6083037009242034,-0.5094485024033376
8.96,0.9676948034095032,-0.07979248593090327,-1.1075981002187385
8.97,1.048746563690758,1.449511673858321,-1.0988150913838681
8.98,1.4466377018612036,1.3576027293788495,-0.5552990845752864
8.99,1.90301001539331,0.3860339986733213,-0.061350850077860265
9.0,1.9478461316140085,0.3236753022497014,0.3604108756327861
9.01,1.4998965659644095,1.2179627544600118,0.5663436635749812
9.02,0.9292693980364036,1.4918317941486015,0.3780852571660112
9.03,0.523336473321841,0.8964879379994691,0.01190361246883893
9.04,0.395893315207018,0.4411840823708029,-0.2763926318019734
9.05,0.5783875268398285,0.364397986333751,-0.5283522926104851
9.06,0.9386891632212361,0.20301342164919284,-0.6430722531853578
9.07,1.1792440864317275,0.15852501159556023,-0.4166784527773288
9.08,1.1046658016465418,0.7149909890934678,-0.30028651329396044
9.09,0.7846424527866626,1.2632128687100994,-0.5073791408296194
9.1,0.3301402646516294,1.0667618409846156,-0.30756513195232027
9.11,-0.10778254900552486,0.2943226281521872,0.3698921561260933
9.12,-0.31892733497643727,-0.4443323597883902,0.7004100906038149
9.13,-0.3486124104457848,-0.6405387315302652,1.1422432091221275
9.14,-0.36430610833083965,-0.39449758863944834,2.0158677077546168
9.15,-0.3654275997346205,0.06704250436278412,2.2478888554104572
9.16,-0.4159080048281694,1.0334888200490902,1.287056849157943
9.17,-0.6571841312578266,2.03902798634797,-0.2540398774412803
9.18,-1.000940439167181,1.458679645876199,-1.5430894362788001
9.19,-1.2097500054449735,-0.9987499538844128,-2.14633413407277
9.2,-1.1986278070618057,-2.9774586523901174,-2.138513971355411
9.21,-1.1017021588503453,-2.3071753577813756,-1.6998077165168004
9.22,-1.0015513965931424,-0.31042533302078107,-0.7296785916314197
9.23,-0.9175719870293798,0.5397618386020752,0.48022585317943994
9.24,-0.9856570711701894,0.047411234670733195,1.3122459603205856
9.25,-1.3424862878464783,-0.29701452331256956,1.4877828840780343
9.26,-1.8030961089844437,-0.05345833911688701,1.0049456263984176
9.27,-2.063699200019817,-0.06518886446109282,0.08418834051251294
9.28,-1.9838422797110282,-0.8326162171955447,-0.6603162243191196
9.29,-1.6056322614407441,-1.6961443272561552,-0.8300124140999274
9.3,-1.0563726832233105,-1.5692904352312311,-0.7723088526224903
9.31,-0.51800515673645,-0.31658398146696737,-0.640241499840553
9.32,-0.40776374450134983,0.6762710034278715,-0.1943405737003439
9.33,-0.8660747027055584,0.74844840537769,0.45231269053694184
9.34,-1.5391976975948145,-0.18279565361138386,0.9827946927984258
9.35,-2.0405147406514166,-1.3459062954700627,0.9809470021751535
9.36,-2.1026333956973353,-1.7551007529697729,0.5360943871011979
9.37,-1.7159514832705172,-1.2345321927708914,-0.07276706517529587
9.38,-1.0696145495129536,-0.7800482723046339,-0.4122944861405647
9.39,-0.4029278468472239,-0.9816749986578361,-0.3269490070447848
9.4,-0.006599937996604262,-1.1002729343322744,-0.13840721464792385
9.41,-0.07721768824639104,-0.5588749544805655,-0.09992818834442756
9.42,-0.43481264572508443,-0.27269628417629466,-0.05863538225236152
9.43,-0.7790699101154926,-0.5876068843856119,-0.0018251173907196645
9.44,-0.9233857242167351,-0.5964794121222847,0.05875742927415391
9.45,-0.780591728018325,-0.10129516314841969,0.3358617035971593
9.46,-0.3396135115478566,0.15231199108280966,0.5601998983172556
9.47,0.23969496818741637,-0.13804738249510853,0.5171876979824926
9.48,0.6326105213920722,-0.2924290078622936,0.4422946061721986
9.49,0.7265589096446997,-0.2817122586219077,0.3710659882568262
9.5,0.6566705976240758,-0.6049516886396316,0.1618716531239861
9.51,0.5177936162939556,-0.7043427866210559,-0.18611070519670542
9.52,0.4163398369069479,-0.21172036381105766,-0.47080876349883294
9.53,0.4402842473881278,0.33396098399663815,-0.5732498629431915
9.54,0.6245076441219559,0.2503037908796071,-0.29729854181008947
9.55,0.8246238348025831,0.07560785249449295,0.23080998227555607
9.56,0.9790747765308159,0.08214558848217622,0.6718962802450575
9.57,1.139403517855726,-0.06778327360156881,0.8088765704252048
9.58,1.199542083171782,0.14565944619860718,0.4845016504326292
9.59,1.108925470811375,0.739825195506481,-0.054176513492991456
9.6,0.9920407866792179,0.8626526579250845,-0.32885215739798446
9.61,1.0268865838219052,0.3051001851222853,-0.5049446275517369
9.62,1.3275547247974346,-0.5260543311005159,-0.7453066429193258
9.63,1.7038598465281956,-0.7861943497855134,-0.7142529870486026
9.64,1.7878325604427947,-0.000663294499686908,-0.1486975531947193
9.65,1.5669767191710446,0.8891058761347354,0.6215756128811194
9.66,1.2565662171999608,1.2266587585964026,0.7713259584740971
9.67,0.9951728666777613,0.8852760364480047,0.6141703010042678
9.68,0.7677910162522674,0.35660240091646117,0.47792248151387934
9.69,0.6388861682562307,-0.1508624505943891,0.3132374127866264
9.7,0.6652965092987908,-0.14778833282278372,0.034232991331071855
9.71,0.8542623873983828,0.4784996891984294,-0.441501661519145
9.72,1.150358448887957,0.7358775714109176,-0.7930617405231449
9.73,1.2531387725825214,0.7575922636550634,-0.8136104996844838
9.74,1.1205710317791915,0.4046906734933273,-0.42096937939316065
9.75,0.9250760775888126,-0.3823904793132022,0.11537693741947469
9.76,0.7578557655067896,-0.599467956888767,0.32331762197865915
9.77,0.5417560980989476,0.4728607079998657,0.22743644276588645
9.78,0.28017613595694063,1.6716566164964486,0.23223052374930847
9.79,0.1240077112851415,1.5943570574522812,0.40460624886190183
9.8,0.14762163579696044,0.6303533425112052,0.5182605157228181
9.81,0.3692104836878047,-0.22116398037999008,0.28442839743365217
9.82,0.6820912629747155,-0.6131474568734858,-0.1219368862164633
9.83,0.8344524201498165,-0.4080868525585943,-0.3086837578321238
9.84,0.7118089949628603,0.44665758808234174,-0.43498127876642423
9.85,0.3849065922979678,1.3007228626235832,-0.49323575269234127
9.86,0.15009217613249431,0.8787855381292718,-0.27402926613213285
9.87,0.12991732381609308,-0.2141513344453759,-0.06633139368042082
9.88,0.12934709244378323,-0.4842631632961131,0.4175734555967199
9.89,0.06264197802778683,-0.07280827017949218,1.1989318544806224
9.9,0.08567972167915747,0.19892011840924168,1.247281061191077
9.91,0.1606780337587713,0.479585641331331,0.48709486751411585
9.92,0.15075854958160365,1.014202236208858,-0.3387049867909838
9.93,0.14981866465856947,1.1955856929354085,-1.2898458408418243
9.94,0.22308465164791777,0.4815175970875954,-1.853224036736401
9.95,0.24747954211065737,-0.35729814223465606,-1.2040242128443752
9.96,0.2209512701758411,-0.40749116282161363,-0.29555626194014334
9.97,0.294506891794115,-0.07838190622208407,0.03777440651600978
9.98,0.4374707536155781,0.08090444256042012,0.32186161506820454
9.99,0.3305644261942165,0.7423627790163817,0.6289309991087166
10.0,-0.04544297115022879,1.478198721766015,0.7057526268768286
10.01,-0.37555045267871584,1.0843438032357844,0.655294517964373
10.02,-0.4772559468258676,0.10014149689847253,0.4895722579545859
10.03,-0.4411553606491151,-0.35667439729602957,0.29369386728394725
10.04,-0.26620994514280955,-0.5443107651894641,0.01897956256466629
10.05,-0.020426162496955134,-0.4593421157595088,-0.444570445820737
10.06,0.10863050756470011,0.3758948529316352,-1.1326869445974426
10.07,-0.01244664542506679,1.208059025662309,-1.6419546333652644
10.08,-0.17433658844735542,0.2544479953454094,-1.351099972069032
10.09,-0.2799087170098528,-1.6332964803816046,-0.3526268678774929
10.1,-0.45815680237094253,-1.7604968969785348,0.5296476334984804
10.11,-0.5168119415427987,-0.4231091883825705,0.8456332765511165
10.12,-0.47613970051382204,0.7478316281104135,0.9652172610946452
10.13,-0.597129897279068,1.319449624815811,1.2538670138185364
10.14,-0.7850958897019841,1.2386981789993503,1.167624782345268
10.15,-0.8848072093121636,0.6735176188147819,0.5329152705717183
10.16,-0.76058316541671,-0.1473115152775131,-0.4199590583059321
10.17,-0.37386636700990544,-0.8460790956833102,-1.714620715666992
10.18,0.01897871426355769,-0.9481530818279298,-2.127468027042934
10.19,0.25253359419832067,-0.563192946640637,-1.0075053361572093
10.2,0.5087931864157327,-0.3631234577431472,-0.07082773904240047
10.21,0.6439662314413533,-0.2922090523908781,0.49728170470373745
10.22,0.22521515552924662,0.9068545780488808,1.285093197298776
10.23,-0.4641580992716862,1.7243674556949589,1.7606795071320165
10.24,-0.9573858978110626,0.6304484328498547,1.7668096465302894
10.25,-1.1969065909218237,-0.568482854902911,1.844651480945308
10.26,-1.133485136232261,-0.5930156926986616,1.6612340010701938
10.27,-0.6574234411108877,-0.2976647527803599,0.5118458137841253
10.28,0.05761937386546091,0.5433437297480312,-1.5783459866432217
10.29,0.6304505256520109,0.5046609581706806,-2.8620570327750654
10.3,0.7276859105288903,-0.38670787192345907,-2.51129927494249
10.31,0.3675169910700759,-0.8115626249417552,-1.2638761981997662
10.32,-0.08202813852937939,-0.9464441662497356,0.19544618056472174
10.33,-0.251578029877061,-1.2198671470160467,1.1857643543316765
10.34,-0.2601495957210611,0.09782944075668669,0.8760628708558836
10.35,-0.4502997413977438,1.2732140226765252,0.6961834174161758
10.36,-0.6828321961902655,1.4273066959397496,0.8940091334677258
10.37,-0.603896620791449,0.925615673294324,0.36883180984213515
10.38,-0.22257907649705277,0.1745282257416808,-0.29503442914834127
10.39,0.404854331160229,-0.5084475582711335,-0.8054079580504653
10.4,1.0451935161625014,-0.7002064122754239,-1.2534778810877356
10.41,1.3523973142433605,-0.2548704168115388,-0.9764657635081362
10.42,1.2301307137153243,0.7167762361689397,-0.17192231162321198
10.43,0.8097899011572954,1.644267403894262,0.5075386349574611
10.44,0.2505494643528733,1.9573914221155242,0.7674038486791228
10.45,-0.20003152280662193,1.3755669257743826,0.5843536047261367
10.46,-0.2949077120709255,0.09850138716008618,0.32644737043098443
10.47,0.014460354965172935,-0.7704077679275176,-0.010240859330575591
10.48,0.5471008656088372,-0.5259128497934742,-0.3009381131930704
10.49,0.9094804927496197,0.57386391465844,-0.2407958052184729
10.5,0.8858550397596731,1.456667263889966,-0.05325621654054209
10.51,0.48647754254537395,1.3349575422209292,0.06689290539408017
10.52,-0.020383221409354304,0.1114023670175143,0.2283569324140102
10.53,-0.3961576819098802,-1.0134572452510728,0.10397599291051013
10.54,-0.5908462575969345,-1.136960418727147,-0.02715329100420789
10.55,-0.5834744919993405,-0.6012359462912202,0.2927028102946713
10.56,-0.36393605484375,0.1788248431484237,0.5392138715377899
10.57,-0.09305569030239372,0.832210431034085,0.43166452021666424
10.58,0.06850405246345669,0.799645424130859,0.056345621776575726
10.59,-0.0019596959746999,0.21497221908195652,-0.3115852422233834
10.6,-0.2941951834804495,-0.20170433836512391,-0.40591520728587066
10.61,-0.5718586902809734,-0.5569784634975465,-0.07904808230676856
10.62,-0.6620472843278428,-0.6427281720693815,0.05769321234278055
10.63,-0.6327061495337135,-0.19356008521016332,-0.030285597727465467
10.64,-0.6172591841190274,0.6452300930583329,-0.063031300978812
10.65,-0.5417073874144872,0.964083873979842,-0.07196797026836749
10.66,-0.3204161187806977,0.4205008428082307,-0.005480300174812733
10.67,-0.3692580040784357,-0.42347940499587977,0.02030006043302648
10.68,-0.7814271731583495,-1.0613738360618339,0.4997044145317958
10.69,-1.2049999638064581,-1.4949960703812628,1.24390116311019
10.7,-1.4132241466709974,-0.7357190191180571,0.9031925094541509
10.71,-1.436112957336129,0.496392209047283,0.09184300701603162
10.72,-1.3668719315659328,0.39071080877500264,-0.3276316280261441
10.73,-1.23721220856688,-0.8787311252940281,-0.5016647049331169
10.74,-1.0793299218538597,-1.7977152283138502,-0.4337396358347463
10.75,-0.9562030002818496,-1.141240054952367,-0.498540675760798
10.76,-0.7775752205188399,0.18301201390726518,-0.8194687747153824
10.77,-0.8503395811503585,0.2689898907011157,-0.46137064259462796
10.78,-1.382900675414412,-0.13481410995861826,0.5052946950937631
10.79,-1.979661656238373,-1.2499754162386043,1.4922706964162893
10.8,-2.218836646588444,-2.605251509472668,1.4838178080519513
10.81,-1.930034797255243,-2.351741313049591,0.20140661690122488
10.82,-1.2421363234560086,-0.505850572275189,-1.170458827098682
10.83,-0.5979921557171048,0.5097389038525575,-1.5003404446540602
10.84,-0.2924313057508079,0.48010602248134876,-1.3094697388166514
10.85,-0.4279063358775029,-0.4125669294000996,-0.5829247013999338
10.86,-0.8734205893344447,-1.6706554061750472,0.5684330730962954
10.87,-1.2325319711667067,-2.498591905696109,1.041636957508654
10.88,-1.2230093858475952,-1.9340614773285314,0.6064212345283573
10.89,-0.9246634892733935,0.19062634204773587,0.11173359950773755
10.9,-0.6536608195209195,1.7097703399041224,0.14421280093129013
10.91,-0.43618125073178216,1.1615751822619762,0.6029254974269432
10.92,-0.19373602843543375,-0.8985620592190692,1.0631386096243371
10.93,0.02677734035736156,-2.261721298121045,0.8111850695392051
10.94,0.16736621215410985,-1.8289594152773936,0.07181001639854295
10.95,0.2564640650865671,-0.6669050237828091,-0.4985674253637489
10.96,0.23298885437844646,0.47015549110622107,-0.6963037668974145
10.97,0.23519336484563055,0.8886332773523866,-0.8117657686079974
10.98,0.3889269151937319,0.16206555903745778,-0.7008511529907285
10.99,0.5055939923001355,-0.4615863811912963,-0.2406082041249175
11.0,0.4466333098511097,-0.4265065867152674,0.7243649108080747
11.01,0.44084783143332257,-0.5967241900086079,1.547779318315729
11.02,0.5851897446506497,-0.6328895241215151,1.5718872325126827
11.03,0.7138840728307299,0.16087324471533507,1.085799761715018
11.04,0.7492751682655958,1.0061602887192302,0.3589969183081471
11.05,0.769098688128311,0.8811772562508837,-0.5657497157323822
11.06,0.9212128885420999,-0.24272131993253937,-1.0733070598348635
11.07,1.177882290023926,-0.8129877210251587,-1.330925690196072
11.08,1.4280356047746385,-0.1405588852842896,-1.4361000393895045
11.09,1.6937636215199932,0.48566364032179854,-0.7136487862458144
11.1,1.9556516429740751,0.5274508185105247,0.4849059983787514
11.11,1.8869112333497247,0.9677489792069388,1.6414190493480998
11.12,1.4093649162745567,1.7465364673364467,2.263771813865396
11.13,0.8375334935061546,1.3450026924798546,2.004180503465201
11.14,0.40921841794177755,-0.09721686565685952,0.8105250286032163
11.15,0.26430335230872354,-0.9432540073007277,-0.694449667236448
11.16,0.40332613759082053,-0.7661157346288443,-1.5155412532243113
11.17,0.6838277873981026,-0.3401447198419866,-1.3723454789006966
11.18,0.9581313716429063,0.044515651572245823,-0.9932903384636198
11.19,1.1168900034842788,0.22305901393624156,-0.7854734706756558
11.2,1.085734779853525,-0.1709337477436585,-0.47212509255671753
11.21,0.7596547966788981,-0.2582286107347672,-0.3662372725686846
11.22,0.25507009562990957,0.05570429330813472,-0.1335332650338613
11.23,-0.07601284564268931,0.23512890923876947,0.3499231577284261
11.24,-0.1019215015300305,0.3838157863360154,0.5568995041085322
11.25,0.04296749572609056,0.4893372556207102,0.4884979554828541
11.26,0.17683488395765246,0.37287352152741415,0.38408705170797913
11.27,0.2586468918333049,-0.0500746078141652,0.14456080535120552
11.28,0.34115331096425533,-0.45791028744790313,-0.368254120247265
11.29,0.39788223463828937,-0.496475410048808,-0.6074912518944858
11.3,0.3350772332721555,-0.12053367447329541,-0.35453038703454104
11.31,0.16804818845443276,0.321691363342608,-0.1101164951101398
11.32,-0.005509929550569968,0.3747970204228669,0.17233027721592403
11.33,-0.0592210734799952,-0.118341704079395,0.6656441830059507
11.34,-0.13080323897658996,-0.15588784891859725,0.7375020867683307
11.35,-0.17406119458496075,-0.44981927052538107,0.542789380466275
11.36,-0.053945589835250274,-1.4227815299949391,0.24967921724653785
11.37,0.11928219357697872,-1.404888600156998,-0.10013715692158091
11.38,0.2439826536712945,0.8654082490946651,-0.8058031408198612
11.39,0.3468932381930974,1.8468490291764583,-1.3355711326017412
11.4,0.2744409296722201,0.884097302661383,-1.1889941889675881
11.41,-0.01195594172604508,-0.24428080455205475,-0.2706013281116119
11.42,-0.30848469288570907,-0.7249757704213541,0.6035115551304254
11.43,-0.3146486493497039,-0.9066632808329226,0.6801276631582134
11.44,-0.046516474537258753,-0.09783602478768084,0.1411298704959517
11.45,0.10901728929127912,0.821458318155514,-0.07442533793965465
11.46,0.011342198458543003,0.9822918141531175,0.2901930495148883
11.47,-0.11697532895413326,0.13211216002733117,0.47545696427244405
11.48,-0.10669447198768725,-0.9363058679948206,-0.003321572041632021
11.49,0.018225239015735608,-1.4197416388128328,-0.39823872264769855
11.5,0.1121966347409455,-0.8490329025779707,-0.5943173778039327
11.51,0.19932240585135252,-0.17546254626840146,-0.5230308649507278
11.52,0.28865978439496043,0.25451032203101553,-0.2799485329439654
11.53,0.41836476578252474,0.36103433616303654,-0.24514653779136797
11.54,0.41923845483735445,0.32380972244416245,-0.4134897972668253
11.55,0.20045277676639892,0.12738460923520728,-0.30663399015272236
11.56,-0.06847240075802881,-0.23900074332723564,-0.06501464542248732
11.57,-0.12802262880746063,-0.5379229279720543,-0.0843018068248212
11.58,0.104382244182459,-0.6539946005222214,-0.02127734223940488
11.59,0.36218626086122885,-0.07412496613813362,-0.11154381565588013
11.6,0.46896845611208915,0.44242377948865513,-0.07525602795565718
11.61,0.37103827687375457,0.46187770442388393,0.1678127482581767
11.62,0.22174212784715444,0.11800280342338725,-0.12053115733602683
11.63,0.1568847372139566,-0.48126500858545235,-0.4654653709563424
11.64,0.11834519629559123,-0.5707322719144697,-0.43169103217487187
11.65,0.09963444439239022,-0.22921687254505832,0.032376714915597814
11.66,0.19370446546147005,0.0356743533116986,0.4205888806753776
11.67,0.43503612033628575,0.026826195141736286,0.31540539645593074
11.68,0.6621803738903038,0.028255885882531497,-0.105260515889774
11.69,0.675464061036928,0.1929127660996559,-0.04295578036687554
11.7,0.5579205014730798,0.12584873488501588,0.49590124093435684
11.71,0.47042117673311845,0.0028881365593438355,0.7222267753623206
11.72,0.4227055441664612,0.5761742422283167,0.4330315870397304
11.73,0.397383412912071,1.5051734385594149,0.13015698764854955
11.74,0.4783906079467997,1.639528590514189,-0.09845871350778261
11.75,0.8274764459371068,0.5989509706002438,-0.4535362731809432
11.76,1.4418773271302918,-0.8289739656618946,-0.5636892181781226
11.77,1.7619014652100846,-0.5324041688780413,-0.23284524333282866
11.78,1.6696738148873114,0.5142413035941716,0.4123006212195766
11.79,1.408484663849321,0.9242398902436189,0.7465398659121979
11.8,1.1196473792517987,1.0010865987198927,0.7295704630394932
11.81,0.8484938557906283,1.3672214284892588,0.35249629419174056
11.82,0.5921064950949151,1.8602221379047275,-0.17043456532756307
11.83,0.6861443543835913,0.9463434078849311,-0.2589744637923148
11.84,1.2696804241952828,-0.7563273762688862,0.0421679351254262
11.85,1.679150104950785,-0.26702512162435826,0.3499482478449163
11.86,1.672660515372717,1.503014139259949,0.2793943598297708
11.87,1.3384176176868616,2.2211660605814343,0.09426346107089507
11.88,0.7749982703553324,1.4844030115973204,0.7490288911313426
11.89,0.22658612385228458,0.260486982851396,0.6058681529691096
11.9,-0.04513932666058656,-1.1094662224127068,0.08017839578470831
11.91,-0.09452676697029264,-1.3858141571644707,0.19176503999979577
11.92,0.10965978852430418,-0.5846166746581173,-0.3205263485294363
11.93,0.4140211628238786,-0.23820004054550065,-0.8189748559705242
11.94,0.5308222018294281,0.383775185755605,-0.7260240158629123
11.95,0.42574406172953827,1.3132266106993127,-0.49699939014978295
11.96,0.32168832717782914,0.9561329342037216,-0.7398765606636738
11.97,0.24062928949445817,-1.0198846035304523,-0.6514834113955164
11.98,-0.1109034323504488,-1.863407347175218,0.30491629283303273
11.99,-0.41277405340054785,-0.8763948854864322,0.7856632908563992
12.0,-0.3857597914941828,1.1300745009036626,0.08099341695511605
12.01,-0.19239161556228163,2.57367500378288,0.12450739141360688
12.02,-0.07701484989518413,3.052603536579969,-0.08649116871490477
12.03,0.009611994750260585,1.711924723286966,-0.5472057278894202
12.04,0.18922997691508744,-1.0108531479750342,0.24205914750659221
12.05,0.383707324602931,-1.8691640538493168,0.7400208072189239
12.06,0.6633016695868309,-0.8824665457656097,0.4946805129549326
12.07,0.8972747698748414,0.38049697826172507,0.20202046454015662
12.08,0.752014053821318,1.334404560165233,0.3692248646469723
12.09,0.2669346383566327,1.6623824967155059,0.870660437056367
12.1,-0.2854949590352021,0.908376898734103,0.9786273118429689
12.11,-0.6541642143434432,-0.2000331114050582,0.3243464300746828
12.12,-0.6998370564885363,-0.4293012604450661,-0.7098785653140487
12.13,-0.3603856740303723,-0.2975295120200771,-1.1986607787913433
12.14,0.1891055905596951,-0.206235281561345,-1.1634856693150075
12.15,0.6211221139540508,0.28418849725745776,-0.7773772886262625
12.16,0.8469276178248596,0.8265679457793853,-0.5686911420475717
12.17,0.8243425689047176,0.6312367568177479,-0.23077944649499857
12.18,0.3453220462836556,0.45004421566765296,0.5233045341403096
12.19,-0.27365223424771506,0.46104201093936065,1.1584200582974293
12.2,-0.6442429081691726,0.3589551662975215,1.7032784687259133
12.21,-0.5328310220002845,0.7457033003193876,1.2652574386907085
12.22,-0.05921453426267569,1.1285143609559767,0.5008265480430418
12.23,0.4023065602572117,0.853978876904575,0.09666558720575563
12.24,0.7166616921680034,-0.00281171130658625,-0.008646634742582234
12.25,0.8534006033244057,-0.5136426991378563,-0.6829384148689625
12.26,0.7243307831583207,-0.3935864883575333,-1.0702112480002683
12.27,0.1682583175515111,-0.058467939240877974,0.3685343606366884
12.28,-0.4373951862072165,0.17502950745571155,1.0296835655080268
12.29,-0.7424402149084098,0.5503893708451383,0.17913600353420686
12.3,-0.59683294773774,-0.08037209113252551,0.5201042928580722
12.31,-0.33880656000255327,0.08056523194673218,0.3593770008290141
12.32,-0.02329546804504346,0.03766637189710503,-0.3602745071702381
12.33,0.13811383144223274,0.11026323995461942,-0.32573471779304386
12.34,0.37632335314205323,0.7442502476017975,-0.2783213822654844
12.35,0.5519157354089064,0.8540599156132624,-0.7517999906185875
12.36,0.27685544173466986,0.10368799399768171,-0.42224455024357777
12.37,-0.24282071934230043,-0.17186911346207764,0.555494942540712
12.38,-0.6351715305006567,0.4865500334184755,0.8313894989389313
12.39,-0.7152292323177719,1.2856298805750948,0.4946720216766107
12.4,-0.46016097979513226,1.131855226146185,0.3428409647227853
12.41,-0.14137560450737563,0.7704297183198472,0.27573532395289096
12.42,0.07937683661515893,0.4468921503548806,0.3772414061812295
12.43,0.13145283541755284,-0.06369423806161927,0.5270782017233479
12.44,-0.03000627603514146,-0.816799881564834,0.8523584619261786
12.45,-0.43603853965704187,-0.9725932928855289,1.4249753572093655
12.46,-0.9575139774249996,1.122010032568629,0.3273814541755777
12.47,-1.1861723725344564,2.3075756831411525,-1.7047297447512169
12.48,-0.8157247716383219,-1.8279340655990455,-2.039935874467174
12.49,-0.4248957336160426,-4.908441580083918,-1.9884737433291608
12.5,-0.31530280100698044,-3.2518715399387306,-1.3822937084144407
12.51,-0.5623933887867903,1.3701366502915586,0.37355332709041683
12.52,-0.5969231682363015,3.5890613051099405,2.0676765420341856
12.53,-0.5486256709602293,3.0542277269283082,1.7124653201807862
12.54,-0.6512707149899952,0.7297145776024748,0.9993741865786995
12.55,-0.7809023396320341,-1.756117127762594,1.34597769985071
12.56,-0.7272208881127948,-2.4094046731447354,1.4462128344452392
12.57,-0.33884366829730506,-0.04968645951958377,0.21739589338755042
12.58,0.27508392033601353,3.0501256209323167,-1.0688743968459489
12.59,0.8436683226491639,1.731138579306361,-1.8255030671162422
12.6,1.062888596766733,-0.5735956927933207,-2.629236523949325
12.61,0.9524865844155384,-2.0425699562390864,-1.6195862015520528
12.62,0.6198958841322582,-1.657701358030005,0.03257110855028084
12.63,0.2642371938604814,0.25019097675940655,0.6750748540109276
12.64,-0.07656883642052854,1.8524334762221462,1.1199437609469862
12.65,-0.3759318978470908,2.314759415090285,1.2969851542613868
12.66,-0.44190862603451314,1.0400683845577507,1.255084512215175
12.67,-0.3514928105609252,-0.5931959956197027,1.209735914821281
12.68,-0.08475630915249154,-1.3293597172024532,0.6859099037451513
12.69,0.36382323984714826,-0.952657799217425,-0.48260675755606997
12.7,0.8352993496349219,-0.34775163518356844,-1.4590643835100612
12.71,1.107716692153269,-0.0737105531755368,-1.6934150837060362
12.72,0.919451224319391,0.853794112814511,-1.7575339491254967
12.73,0.3382613565075962,1.3748684381031664,-0.8530353369841688
12.74,-0.32390599754161764,0.7320947413881246,0.6073291877531292
12.75,-0.7084326323486217,-0.40283543824299173,0.9675271920109886
12.76,-0.6324021998492484,-1.2545499459347564,0.8503924380621941
12.77,-0.3159403258866171,-0.8060980581373376,0.7190161704493073
12.78,0.011135130360413954,0.3252658610848344,0.3274335542746454
12.79,0.2583518636826612,0.4620136725153613,0.21249246650728343
12.8,0.2825730912324577,-0.01190259586480562,0.44944380204858475
12.81,0.09219589061123142,-0.17157736842762095,0.14517171356468464
12.82,-0.18435205981985295,-0.038771656783312576,-0.7410412746631578
12.83,-0.3688976375892814,-0.5604427516016954,-0.9389072217138933
12.84,-0.44425241082165445,-0.9694730161131474,-0.6656925361025713
12.85,-0.417080536900846,-0.3836825173315232,-0.644471482186931
12.86,-0.2888084976238372,0.09043217827296286,-0.005807370013132801
12.87,-0.07090906260310591,0.004501933497419963,0.6275769183939608
12.88,0.15868759918749503,-0.1242145265721808,0.3613152356361207
12.89,0.33328361527838496,-0.4678499094477621,-0.043525057396455784
12.9,0.3000471286398282,-0.5694559418574153,-0.10021803631397484
12.91,-0.014152594791728751,-0.1852782438290396,0.3580349288221664
12.92,-0.3071006858872239,0.12417580113189262,0.6058071702015476
12.93,-0.38768715982547536,0.15668589889381335,0.22361442567888265
12.94,-0.2660949293203185,-0.07629470302213334,-0.2362726547883649
12.95,-0.11170180298946719,-0.04438757990923525,-0.7549513963839057
12.96,-0.0780590044009663,-0.17508734187203726,-0.5224421935772671
12.97,-0.13367610486327958,-0.5685314338752324,0.417434007609866
12.98,-0.17096521967367892,-0.806820638521486,0.7037897536213322
12.99,-0.22360129502533937,-0.6876542860129108,0.4359162553636361
13.0,-0.19783972830730082,-0.20038509420073786,-0.5133703391318727
13.01,0.025763531532255718,-0.7503886420835805,-0.8308944737152363
13.02,0.06121295161264586,-0.6968568032296718,-0.6338944653992837
13.03,-0.10029102462709066,0.07064510629558389,-0.33825775509793843
13.04,-0.2577530998551657,0.10171262207240063,0.3243813536529992
13.05,-0.20919328985580432,-0.3995861303536658,0.5640171903029086
13.06,-0.026183281067931646,-0.2530006317821274,0.105803540414845
13.07,0.08947068376558386,0.5064992894684129,-0.20614344911650828
13.08,0.17597633451714942,0.5428997296880426,-0.02263325629813405
13.09,0.3490718509369407,-0.003864574518857788,-0.08009905535249112
13.1,0.6017066961151314,-0.36564386506120616,-0.204264713787998
13.11,0.925070201881613,-0.44329036595824695,-0.2902304565974763
13.12,1.1058321219843192,-0.0029239960250165434,-0.401245201273918
13.13,1.0740475007697354,0.335377434448121,0.10418992356538193
13.14,0.9472825580047164,0.41570619087202787,0.8042840124525599
13.15,0.8019674173157051,0.8440049920706711,0.8567292790394915
13.16,0.8483738435800969,1.0687558253994272,0.07434616833137497
13.17,1.1167089054409638,0.4210518660104835,-0.3110158807958538
13.18,1.3248784770274131,0.5484415170854594,-0.7685116001934388
13.19,1.456814301798771,0.6339754571375332,-0.5178371599892211
13.2,1.5186001759867644,0.608525213511556,0.2558591058711465
13.21,1.5399653679962988,0.9606340627302632,0.11141935747625967
13.22,1.5171292560653409,0.7476424891079093,-0.07162787061615983
13.23,1.387707925018139,0.3131706404798277,-0.32390058403120037
13.24,1.2451623334427124,0.1996887162093059,-0.7962824406706722
13.25,1.1869897258242226,0.08614718430264899,-0.1304082829349166
13.26,1.2547572403548855,0.6511893215664484,0.6283957835626239
13.27,1.358613514198917,1.9425865819642265,0.6467979876269768
13.28,1.3992902669143263,2.4166918158040356,0.4943920213082814
13.29,1.4172639249881587,0.8814643132924361,0.29836944621947764
13.3,1.35582486691166,-0.8334433493296605,-0.2515668501707477
13.31,1.3598545683570364,-1.1520804527872568,-0.7562619870160365
13.32,1.420025227098205,0.15998945539725,-0.8597253653956903
13.33,1.506818830806753,1.7938127729438664,-0.5307823072938157
13.34,1.5478902213693135,2.477582663483286,0.26478951786975824
13.35,1.382302536279537,2.416943056720035,1.143122517080204
13.36,1.068391929179658,1.9401532426573165,1.1971308789634432
13.37,0.8038920351466117,0.5932335804241328,0.8203145969837993
13.38,0.6642216523970943,-0.29537265918034017,0.05843792704421204
13.39,0.5817331264109779,-0.13146809479786858,-0.8719461502657341
13.4,0.48127781046702656,0.3179602350574049,-0.8942990302996217
13.41,0.4597049392789861,1.1945589434750659,-0.4316080295701485
13.42,0.5334367669516927,2.0632631915813056,0.2670156450263226
13.43,0.784395687377925,1.5381565786391636,0.9618410545548459
13.44,0.8929168801080258,0.7140488306578897,0.8700815756535549
13.45,0.5896672667127828,0.566084823595357,0.5419022694190055
13.46,0.13949560620809737,0.12786519847955855,0.4348266969448465
13.47,-0.2514170820964533,-0.04851052755620653,0.19354263324753024
13.48,-0.5418441433353244,1.0306998863584784,-0.05447694652097033
13.49,-0.6139307363487306,1.9766393564000027,-0.210823102915145
13.5,-0.418332419966872,1.1646520902508444,-0.06993481902158095
13.51,-0.22755235919150077,0.11712000541678846,0.18974566618880792
13.52,-0.16249542116161134,-0.12292294300151178,0.44082430262791344
13.53,-0.237872175441842,0.1492243762935922,0.4077291867235863
13.54,-0.4548389336063025,0.4880917948448653,0.17356596294669735
13.55,-0.8003014895055389,0.7562537494902688,0.08007435899910996
13.56,-1.1450537362085755,0.4599268467694744,0.40476319146745876
13.57,-1.2943154851522618,-0.1924751314637583,0.5324650627215111
13.58,-1.261789430467939,0.0047977532051874374,0.3030593629249118
13.59,-1.0951314328773352,0.9269196132719566,-0.21776568453187173
13.6,-0.913932477565302,1.1809715922904847,-0.5124732098296322
13.61,-0.7771580864529726,0.24082575178668353,-0.3464850665408775
13.62,-0.6989831226702,-1.0745881547472125,-0.05183430333382399
13.63,-0.7397696351731834,-1.1645509856395675,-0.05927987740256057
13.64,-0.9950773781846162,0.19729196741082525,-0.008279003497215161
13.65,-1.3309558854103045,1.3293485176474062,0.07169338237241063
13.66,-1.6112679263211969,1.2782018298451792,-0.03919918596301991
13.67,-1.7813898988211057,0.3968175969506896,0.1249641374534474
13.68,-1.8380045237801212,-0.4460817332120965,0.30762440626664594
13.69,-1.7198623174536292,-1.36688947793786,0.2177146342701728
13.7,-1.3870974462846337,-1.8176478764055133,-0.04094217398388175
13.71,-1.0157421971378036,-0.8504380661066729,-0.36466117721672403
13.72,-0.7748697826371164,1.0195963490777677,-0.7028998416392848
13.73,-0.9432812362039233,1.3137620152462608,-0.7016089479245025
13.74,-1.5118760339875004,0.41251342016102294,-0.21661698171246618
13.75,-1.9589959010923574,-1.2936928352533226,0.1988953158562837
13.76,-1.9896613649589872,-2.3855414128730694,0.6151639987933628
13.77,-1.7152867402388856,-1.3672987585853964,0.4049659446699277
13.78,-1.2400943156110236,-0.07478920511190275,-0.19129567332970185
13.79,-0.9652021115671282,0.45926669812014426,0.2146558202592292
13.8,-0.9344884155258758,0.9280876994743805,0.1014653077720481
13.81,-1.031194550806476,0.8465390180468559,-1.0900229973452202
13.82,-1.175520525698532,-0.977533945924415,-0.8127278178096388
13.83,-1.4384770873889419,-2.046071660945455,-0.02415160679942672
13.84,-1.5484058149908635,-2.1282404922917273,0.3330573286599929
13.85,-1.373576752009317,-1.195938691067549,0.21589371521526673
13.86,-1.1063790610266178,0.6556529950199893,0.026035260348022837
13.87,-0.9552957320414039,1.5347367366069515,-0.04756837747972402
13.88,-0.8549077423460445,0.15125398313495816,0.342189853402894
13.89,-0.7120525349448946,-1.7721171082703802,0.4422085513754953
13.9,-0.5961712747200807,-1.9956190874707285,0.18761237509672998
13.91,-0.5229344439736411,-0.7932969274703014,-0.048065607739039964
13.92,-0.4751755155424202,0.4385452830586098,-0.4025483641478114
13.93,-0.511483789449122,0.9701763827969161,-0.3047818974747146
13.94,-0.5987163880390307,0.8241242243284221,0.20661801208746758
13.95,-0.49496338099984577,-0.4179569480731122,0.5690053099011974
13.96,-0.15534711319045816,-1.854766537583893,0.5502024362406106
13.97,0.17867837995752478,-1.4456078961117522,-0.0027489646125135525
13.98,0.3336253496044308,0.20048810145428536,-0.06894865984538057
13.99,0.3039883715941679,1.354271532996299,-0.09039308142134474
14.0,0.10698749502779632,1.3487096411135118,-0.02050917300721488
14.01,-0.0740800822015267,0.5245593877457435,0.13466408850943629
14.02,0.05689130773526642,-0.8683126141323364,0.2967137261458653
14.03,0.41508026034330797,-1.2741549060417343,-0.15429563401032778
14.04,0.7442272311166384,-0.4755018540032463,-0.35545208057818994
14.05,0.840199337019705,0.9018480760789104,-0.21465302957883406
14.06,0.7629166169336701,1.7919905344906721,-0.3292909966780948
14.07,0.4859009460727432,1.6159960281036057,-0.052919522729687044
14.08,0.06705530942909245,1.2468496124332467,0.022533031685769794
14.09,-0.07159306610661863,-0.26577041277487073,0.22594972285169954
14.1,0.18366856426374734,-1.703424655899193,0.35602483091163795
14.11,0.5744537011263434,-0.9470870407959584,0.01937965113223002
14.12,0.6679372101399645,1.3789875449909978,0.060695549843456466
14.13,0.4634404867954394,2.3391923283823846,0.3288276652744269
14.14,0.12939274149950192,0.6956489605576928,0.5731378075828025
14.15,-0.3505204989886339,-1.1614069443042643,0.7799952169819572
14.16,-0.8617190029922188,-0.895897811755616,0.28448119979276126
14.17,-1.1315198340975015,0.024168175782725537,-0.3536683358488371
14.18,-1.2152484022812622,-0.1944306005885624,0.15285883253268284
14.19,-1.2257448318343285,-0.9344349240802082,0.7764766837160201
14.2,-1.2207826038878742,-1.2655499492006048,0.3419492127689309
14.21,-1.2887203062266457,-1.768477555490221,0.3562633525346725
14.22,-1.4772423544255444,-2.234071250259709,0.46192021274058215
14.23,-1.5687738287628186,-2.8353439879726623,-0.08797575908715416
14.24,-1.6312086049695245,-2.610442785572009,-0.5524507722720888
14.25,-1.7287001609831345,-1.5514378203592485,-0.3111820900260599
14.26,-1.7018012636477144,-1.1588915964111521,-0.04740289914230096
14.27,-1.6065225827442084,1.932624349877022,-0.4685671096496102
14.28,-1.2049297831356103,2.031808684989713,0.4409204064070732
14.29,-1.649103757961065,-1.2579057674105583,1.2720968305106164
14.3,-2.0674712071375607,-3.368318964930973,2.074547488200926
14.31,-2.007271814426123,-4.722715199392494,2.30566588810227
14.32,-1.4968505952248485,-4.095925769734792,1.5653969064802162
14.33,-0.21307763687518377,6.037290570542851,-0.6502362946514944
14.34,0.616836998861331,5.297344935478078,-1.3671341564797723
14.35,0.31614586947040846,4.035482194914004,-2.5640002967584765
14.36,0.18168147514532454,0.5891846242157167,-1.1577546155145864
14.37,0.16520111496499315,-3.641480888509425,0.7775013791822482
14.38,0.16858122609460174,-5.375470889536397,-0.2192841186633913
14.39,0.6192723318307517,-5.65084717925787,-0.02400769350128816
14.4,0.8199816611107074,1.618024138560161,0.7967645069183054
14.41,0.5898616006642361,5.282536447175795,0.6004381201344099
14.42,0.11224742246091578,4.663329930059073,0.9207590354104993
14.43,-0.1871152752748636,0.33006798710736723,1.8101645610847446
14.44,-0.18887485542204308,-6.847407330193267,0.8156854996269771
14.45,0.582586740444668,-4.440295624620484,-1.8604726840515553
14.46,0.8971676961553823,-0.018889134688383213,-1.0776930666161904
14.47,1.038570077573447,0.5239781229396953,-0.18611032381367437
14.48,1.1213816952556779,-1.099830060701292,-0.35152681531779617
14.49,0.9115464008874651,-0.13573919143105878,0.18231010461718422
14.5,0.8132892183394452,3.537509729078296,2.9299619243518844
14.51,0.09164199636468,0.7429080499676823,2.5578678665443717
14.52,-0.4521295600641494,-2.964862003580933,1.6897544292168971
14.53,-0.7365991191918921,-4.62760569219004,1.7657072399592242
14.54,-0.9421765963658568,-3.2320229560738976,1.615348813151433
14.55,0.00877789770475246,1.4971350297871138,-1.6163409001075646
14.56,0.26159039628500025,-1.845546729925689,-2.4031115465000203
14.57,0.023344423805643194,-1.3412595471313713,-2.5427728377056074
14.58,-0.2835264242601272,0.15333275806482705,-2.3505556969478736
14.59,-0.4509909496843673,-0.8493849170016201,-1.3432090282909308
14.6,-0.008921922145641427,2.196119609442546,0.7146781019353822
14.61,-0.2247451960414641,-0.227949539819667,1.0067198982645602
14.62,-0.8450542757862294,-0.2942906206501372,2.0917235752102354
14.63,-1.3577239494525661,0.9373989486373453,2.646153444315946
14.64,-1.189772636284417,-0.7947511091179899,0.04589513835739792
14.65,-0.41287639625090433,-2.8883926860166507,-1.4581987436922943
14.66,-0.02510732967304709,-0.9690520624654272,-1.7390252838767826
14.67,0.3889055828228169,-0.9948074936910257,-1.3205396404513698
14.68,0.7160247851942434,-1.9556827697233954,-0.8562195452106601
14.69,1.4027069451723275,3.018648699642836,-0.23838265074054063
14.7,1.4907980059794599,1.8447300023998396,0.3875693609722457
14.71,0.7977149431094989,0.1632045395794799,0.9794665141359572
14.72,0.10423829397396514,-0.8434742956211178,1.9468324831148096
14.73,-0.3255446299584642,-1.4542606459585228,2.398385691213387
14.74,0.248971818195732,-0.9989053205818897,-0.3311790870406071
14.75,0.8953393311841162,0.13826185721014003,-1.314933796558415
14.76,0.9469552294337911,1.1035537352929201,-1.1440519259649413
14.77,1.0029688098965683,0.5376425296066751,-0.9672101883085729
14.78,0.9166192277489014,-0.539990167045663,-0.08341274427851438
14.79,1.4291741903729194,-0.11541260059724101,1.4336835231783425
14.8,1.5200893200104062,1.8024166057541438,1.1415623931513652
14.81,1.2349726786039623,-0.027797667133693867,0.40088665644386845
14.82,0.8623037029276731,-2.3178392103830925,0.1842325678475451
14.83,0.3775023458946648,-2.089554598498317,1.5492725497464597
14.84,0.6486130329556377,6.025334078047387,1.8732796951635189
14.85,0.8125211971571299,2.1523727768873835,0.5692934997487371
14.86,0.5455715311830347,-1.1982732260343272,-1.2486267329091227
14.87,0.3563476196529433,-2.4052586828754343,-1.5722829921465848
14.88,-0.15950297335760724,-0.9198473524943135,1.0774927669284826
14.89,0.3488726881949461,2.9066860203390252,0.569918438467677
14.9,0.9067629435944737,0.567732607753106,-1.3234978019205041
14.91,0.7072292138065318,-0.8533837269770861,-1.5184687827206922
14.92,0.3625732330448396,-0.9896432361644029,-0.24324915985867795
14.93,-0.13014189866308395,-0.005362231390451517,1.5795339177774093
14.94,0.20345762732963102,2.0673636637097363,1.159599196172459
14.95,0.3603838381704809,0.03076392730984761,-0.6674420738115056
14.96,0.14362205476812523,-2.0395434576859794,-1.4472737322814893
14.97,-0.0826544788780028,-2.6072230965789833,-0.23447004251172532
14.98,-0.3978131100558844,-0.44611983475186706,1.2742671868535027
14.99,0.35551340026865513,5.532959936360147,1.0019837417819168
15.0,0.43642672423546053,0.1058896463437234,0.06513640789291711
15.01,0.1531686604361541,-2.497608955586144,-1.0298234672193733
15.02,-0.17126528475168357,-1.9872561251288217,-0.4925538152250609
15.03,-0.6764967706993243,-0.3590036288613818,2.412270899401179
15.04,-0.191529296889467,2.261776711864688,1.0715087672459254
15.05,0.3431218491046735,-0.9872695065055321,-1.838765114554939
15.06,0.07169669970320362,-1.7165923785628143,-1.698843271403076
15.07,-0.21795034502334742,0.022907619092937762,-0.6920507077434143
15.08,-0.6847748771238373,1.3300302910105597,1.6425603699795215
15.09,-0.3191321951297657,-0.0770000054713951,1.3092721956199134
15.1,0.06687659664011954,-1.1892849632441835,-0.6561784283092569
15.11,-0.15186915271891518,-1.8341796375884372,-0.7071552625284345
15.12,-0.32427116768889996,-0.665000400012798,0.20714712005600153
15.13,-0.6829532648355752,0.9774983027155926,1.7580432008063749
15.14,-0.12097148375604043,1.833175602567325,-0.06447385855076432
15.15,0.25709178597464205,-1.6175661838502222,-1.679947445824167
15.16,0.04610477220208911,-1.7564559204104258,-1.44901075742187
15.17,-0.1598920850419223,0.09614017390355492,-0.2815093838954148
15.18,-0.5253526120656283,1.4746698124298876,1.119812971399057
15.19,0.14058470844004414,-0.16986124432078276,0.8939265679857983
15.2,0.246166695924293,-1.4241298639859903,-0.20317081173871687
15.21,0.10226668040583864,-1.7824289472164003,-0.5045866383212376
15.22,-0.1500402439644573,-0.12562817550491356,0.3716020948672579
15.23,-0.4778216772868946,1.8511982649605256,1.6893751344160375
15.24,0.4041560802607532,-0.1295461717772309,0.3855672180275276
15.25,0.42262024251739505,-1.706608263353674,-0.7024358948318726
15.26,0.4336353492966832,-2.119837686164178,-1.4433020067311357
15.27,0.22407782297664883,0.30353058285572343,-0.9529068465663953
15.28,-0.04745498935459741,3.00003723743071,0.4131067154519136
15.29,0.6604286530962622,0.7283889094553013,0.5461692357454314
15.3,0.5467664085131412,-0.318352497153071,-0.8304473230217508
15.31,0.4688237517995825,-1.419910699363325,-1.3674741503634313
15.32,0.16306788677248063,-0.5129439253542449,0.3011346225229938
15.33,-0.10510940864118333,1.0664688783275984,2.688039322028253
15.34,0.8073202513487179,1.105029487903995,-0.027525501239409576
15.35,1.175697668836359,0.3324079292196357,-2.954566422446334
15.36,1.0070114762103952,-0.8133538026612399,-1.833844764113673
15.37,0.569912899949782,-0.37262137395336475,1.2029716717294245
15.38,0.1816754585091384,0.8800909720135789,2.4007584992763076
15.39,0.6277060009049507,0.5115067827472524,-1.2656844724959861
15.4,1.2535203199179374,-1.8837546396482763,-3.050908425684519
15.41,0.9135173922975864,-0.2633304542530648,-1.0560635940253873
15.42,0.4987180770136696,1.3094139902657143,1.491589840241577
15.43,0.25038522569663463,1.1437747417877835,1.9090445940581569
15.44,0.7936765670563568,0.366014927331033,-0.3731829991799062
15.45,1.268720987458211,0.07750705254519555,-1.641020318879033
15.46,0.8945097458202657,0.3740332220540831,-0.43693682513622767
15.47,0.4412888162373057,0.10150575355761549,2.315630234653121
15.48,0.0754263069861115,-0.8333727502999537,3.5671395123010496
15.49,0.04359022524629868,1.4656068390301722,0.8164459371753258
15.5,0.732625535199642,1.221205220396795,-3.4768560711529637
15.51,0.6336039241102701,-0.4798216548639163,-1.9838013169064554
15.52,0.2658286356921627,-0.18057443313845153,0.03359307360798337
15.53,-0.03317562243694528,-1.1679353890500594,1.8882130249688809
15.54,-0.2513467463986573,-1.4889769646715512,1.387904134314521
15.55,0.3381652140737922,4.09757631532008,-2.342184098511499
15.56,0.618892655922166,0.1231825695557799,-1.1922626076882854
15.57,0.28037903006970205,-1.0765341734951894,0.3597037915050413
15.58,0.041709721796778565,-1.8562644578200407,1.30095304086008
15.59,-0.19311670368018788,-1.4031782221383424,1.2669361873818668
15.6,0.029151486922118667,7.205401018983098,-1.5024533899398882
15.61,0.5309253152528869,0.5492190929648775,-1.0970013771593885
15.62,0.0756939664111391,-0.5915605483732582,0.03793954690531934
15.63,-0.24320327544021644,-0.3155448344698501,1.297771057124948
15.64,-0.3225398318069997,-0.17743605087549089,0.8718744573688784
15.65,0.3038972043227506,-0.9272268880169324,-2.090055823944664
15.66,0.8533193236877148,-2.2811916561172625,-1.2756041687630486
15.67,0.5409037968942672,-0.504949494932458,-0.31464837725032757
15.68,-0.043067594873780264,1.3922572857998763,0.520959985708058
15.69,-0.5729990480038187,1.562281941304598,0.5535900514801713
15.7,-0.4727589404639856,0.8763784902836356,-0.7477573937353471
15.71,-0.39981637083744553,-0.7331083942754902,-0.8923495954641054
15.72,-0.7384310993439511,-1.169271872289276,-0.3503516190132861
15.73,-0.9766038762819285,-1.0389014710083817,0.8868739773124431
15.74,-0.8781803852940868,0.4156826454643182,1.1284309670529376
15.75,-0.06567587200360492,2.5572719008030593,-0.4250755720899021
15.76,0.4036129657843,0.23550508139095896,-0.4524622651214937
15.77,0.29500449693879144,-1.7339004751945835,1.0257744122775478
15.78,-0.014691708135394131,-1.8843406224200998,1.7509184724231432
15.79,-0.25256600622790626,0.5371279864608784,0.24135333778433843
15.8,-0.041545938841049554,2.7320925701052348,-1.9529004584370377
15.81,0.03400547584004413,-0.20714418436571727,-1.9982398021656782
15.82,-0.3009513365949889,-1.0797228645951282,-1.0109959419257857
15.83,-0.5210570484635676,-1.074302790242533,0.5905866558968916
15.84,-0.3409912292586313,-0.12158767953638061,0.2823269682131577
15.85,0.5545187343392625,0.3426821275001926,-0.3401277017488341
15.86,0.8199811255767014,-0.3461099079347502,0.25214886112469526
15.87,0.41696285204684713,0.23889422210342418,1.5546605056781848
15.88,0.018602595293899953,-0.08644522881784512,2.6552393989303598
15.89,-0.14835271365951422,0.5722902647385922,1.43047831516355
15.9,0.3157601350957733,1.6378411850275707,-1.5568406012522158
15.91,0.5527499554753739,-0.14414835950978763,-1.5803358193866333
15.92,0.47982638594111787,-1.113886435269108,-0.5705241321369144
15.93,0.41582035399786393,-1.5666666237863698,0.3523618527747758
15.94,0.3647982840158553,0.16866068965103181,0.017196129251460142
15.95,0.938228300614562,3.7398064791055385,-0.982453539237801
15.96,1.1592746895568367,0.35063566594400714,-0.25285303090876293
15.97,0.674571234522916,-0.5060003299117349,0.5844111677402603
15.98,0.2749543481198318,-1.462071225441322,2.0044898923156578
15.99,-0.10811872706040908,-0.8508476951016621,1.9920021660266525
16.0,0.3429483047923847,2.5033799826254555,-1.2144997218111317
16.01,0.8419708956192695,-0.09077840342438014,-1.8721268989913369
16.02,0.5882340255308061,-0.4081057307803989,-1.6026537720622425
16.03,0.3246239324494757,-0.35678263947077093,-0.4502081387925003
16.04,0.07173922713634381,-0.12377266565770527,0.5702906774820857
16.05,0.492476412681474,1.387676432165945,0.40821282694493394
16.06,1.0350141478516293,0.7776830889403265,-0.12243562033682531
16.07,0.6496144425824014,-0.26419664354527916,0.21297671631784523
16.08,0.12690591557703537,-0.9659457354195383,1.284310125776872
16.09,-0.254510215954505,-0.6185412495573362,1.5006642418686875
16.1,-0.03088233859314228,2.7800308674674534,-0.5048434404388767
16.11,0.5307871173440716,0.6587816986633931,-1.0807434028027467
16.12,0.3509039022487149,-0.5529157780030691,-0.40877263763117233
16.13,0.1116851699915791,-0.8521108173605304,0.4977629079994405
16.14,-0.0317775473023919,-0.5946880434742348,0.4541856527564782
16.15,0.4563664644447812,2.066210903013066,-0.5759891153564896
16.16,0.8866628418361127,0.8869274645901399,-0.9304058423684702
16.17,0.5219942488093752,-0.02414083764454953,-0.6469123402343165
16.18,0.0644509573422435,-0.7264396512243818,0.585914463628015
16.19,-0.2915606359113695,-0.7931238446377635,1.3763916041268316
16.2,0.053913333968391104,2.6212905083470157,-0.2625064192978831
16.21,0.6823405856372865,1.2681189778308068,-0.8773936173288642
16.22,0.46958285838021885,0.4254658599013173,-0.2937472861669766
16.23,0.3274892876585432,-0.2814634605187867,0.6537002250231447
16.24,0.3040478859391632,-0.36871903561530106,0.955422439695239
16.25,0.9383369139183493,0.6938755246068844,0.06555260723907128
16.26,1.5449972085469597,0.9242009061847172,-0.8319265232777111
16.27,1.2869142232893385,0.5459777377254884,-0.6224867073969398
16.28,0.8030214096121917,0.37994114051185524,0.3525591422833798
16.29,0.43280904862979347,0.5975683603132208,0.5071710602488863
16.3,0.6014187414449053,1.2281919272995898,-0.1940311079312485
16.31,0.957947132298278,0.8018514507780883,-0.5170231255518443
16.32,0.8237148629330646,0.9284510410272538,-0.663102998317953
16.33,0.5850120466465635,1.5210435347424132,0.021155049212586922
16.34,0.5474809866753598,2.124952810215496,0.3771800846179181
16.35,0.9799925791831278,1.2529149744672052,-0.06875563634482412
16.36,1.3634974872371746,-0.08897372766300561,0.31104556718969445
16.37,1.4102534617960707,0.18013367084721366,0.5118216009801032
16.38,1.358082910460907,1.0500604433529135,0.2789004116065824
16.39,0.9201875595189332,2.090686425334702,0.06391611772669627
16.4,0.46393155163500643,0.7899237241389649,0.24819562563980002
16.41,-0.006502994466519924,-1.4586974930449155,1.3089646647292388
16.42,-0.2027724853302285,0.9267604470323533,0.7071151068672479
16.43,0.1591947824728329,2.8770024914789687,-0.0820149607907854
16.44,-0.2879754238778522,0.05233939607506428,-0.05971447268652845
16.45,-0.7357728326983651,-2.325524864086744,-0.24032394980740376
16.46,-1.1202651226114508,-2.516151790122601,0.5753672617528683
16.47,-1.4868094914850472,-1.2812837939161463,2.5219284018451553
16.48,-1.3055220943528503,2.6979715451031137,1.4485445119157443
16.49,-0.8241485049068232,2.1918404813182413,-2.9626315018726466
16.5,-1.0130210919531022,-1.3706196516442235,-4.376397277558972
16.51,-1.4822704700573965,-1.9600256653251034,-1.7677610659663177
16.52,-2.057261411380912,-0.4253597626926324,1.0492801350428362
16.53,-2.2091331850167393,-1.7659291963815218,2.2355744108290323
16.54,-1.7771907177578314,-2.0492664061403976,0.1131686718893685
16.55,-1.0142415465431467,5.011338721871638,0.13921430615188346
16.56,-0.9534274843857566,-0.4337732860974791,0.9375818855786504
16.57,-1.3586438260238223,-1.7179103449179849,2.0668740647240766
16.58,-1.5928432129126675,-0.643849722473046,2.7054356021645893
16.59,-1.5702582843402795,-0.3826006910681298,1.1679988277576108
16.6,-0.7904647811073131,-1.9563737748901824,-2.21745193395714
16.61,-0.6785283042435317,-1.0726546574791989,-2.400620685310491
16.62,-0.7621273825219821,0.39963333133838136,-2.6063643042270956
16.63,-0.9271892182451591,1.330329451856759,-1.9357962204901487
16.64,-0.9066458903990099,0.2964692887957701,0.2629304046987245
16.65,-0.2949876931955486,-0.6218261933729747,1.4444619456313277
16.66,-0.11007945586630191,1.7930776483042201,-0.3085850759093511
16.67,-0.3929279854237122,0.22146018976759133,-0.22780374070280293
16.68,-0.61697851979618,-2.0809314027413754,1.5380405837408644
16.69,-0.6253369243610888,-2.0935416292741618,2.5867560546714423
16.7,-0.30739374598692776,1.5940697228090337,1.1814146054672316
16.71,0.33898477401321586,2.31031598983718,-0.9682179442987494
16.72,0.5719711067377978,-0.2650546058866356,-2.8171935465751057
16.73,0.38523235155469016,-1.4884712683407386,-2.045486874249433
16.74,0.06816086713496279,-1.1295657228837213,0.9713884656522436
16.75,0.014554187761506408,-0.8835774030006043,2.5405211176236433
16.76,0.14659570340133785,0.3806919324254946,0.483420364534881
16.77,0.12012520636224722,-1.3591123754117225,-1.2905782429555959
16.78,-0.3590357864244687,-2.1696758037897106,-0.021880833206740714
16.79,-0.8906763040995493,-0.00409863212741073,2.0941512511122333
16.8,-0.6364238457098514,3.6195080043003482,0.9382313817411323
16.81,0.4376617648188094,-1.1075997186776452,-2.1830135002114806
16.82,0.6392087201314108,-2.445172374886767,-2.1827884389214987
16.83,0.4104867244037064,-0.8208763718725963,0.025915461712195654
16.84,0.06794872339568138,1.6454299704996853,1.6307471225346815
16.85,0.6479189169469666,0.6407924291048951,0.8954823533576299
16.86,0.8313688555101258,-0.6059615926542986,-0.5341140464095543
16.87,0.5406818882950092,-0.9731698293016793,-0.5765043956533955
16.88,0.02930080151447648,-0.1489988944712989,1.190509255062891
16.89,-0.3218475588182715,1.3242457328568673,2.3977234068745306
16.9,0.37933389541462303,1.5623689981758857,-0.42953313136509547
16.91,0.724797809747193,-0.11192449277850645,-2.4132049098211916
16.92,0.6665838895312934,-1.0578942777675384,-1.5791342911761852
16.93,0.45358429373601233,-0.15916327388474452,0.6123888257724026
16.94,0.604341992567345,0.9750307789418035,0.6021816952137897
16.95,1.4613929671275763,-1.2195410142820935,-0.6962750905217643
16.96,1.3395452997590052,-0.4847517187179588,-0.9889719772193089
16.97,0.8133656660426439,-0.1600912125394158,-0.0581243536686433
16.98,0.10354543620514618,0.38545328457306394,1.8505544337454614
16.99,-0.18551992067641743,1.3424582859759202,1.7326445661047762
17.0,0.2870733828935912,1.9648335195562694,-1.052104871410129
17.01,0.46775574512836704,0.28205047495963237,-2.3615310838712005
17.02,0.4258954210917681,-0.667973876734807,-1.2383520096763687
17.03,0.37050291955998116,-0.5700227359333142,0.7724717157379933
17.04,0.5533673103583007,-0.3075506223061194,1.8443268969802629
17.05,0.9613105743626484,0.45465321669526926,1.5186906548076256
17.06,1.1392020064219044,2.774671441256479,-0.8117074835821869
17.07,0.9131918827664025,1.0594823853621533,-1.1706482082729204
17.08,0.5839753847061535,-1.5587788219353798,1.3318480241650608
17.09,0.2612139542608,-1.9315002188753283,2.95398269766992
17.1,0.40249107100672255,3.0817838177831565,-1.0216425373033646
17.11,1.1102587222849043,0.7818205084604675,-4.721145333098988
17.12,1.1758252861637293,-2.1535594730825913,-1.3053159425236016
17.13,0.7518754693542822,-0.8231270251752585,0.5712646320205228
17.14,0.5622568259268328,0.8589866014263218,-0.09606750157949205
17.15,0.7800751088520109,2.1382342441158126,-0.6926006854150111
17.16,1.1691820087253788,0.03722407870061237,0.6265985195524107
17.17,0.6786868503266955,-0.348605883300311,1.1574283752219683
17.18,0.015689129718405494,0.5640467150211762,1.9911717442636612
17.19,-0.47339090804667133,1.450568160475526,2.271369286831797
17.2,-0.3488423294900992,2.0789593495312952,-0.48097760165546466
17.21,0.007098783368637392,-0.6872938192121698,-2.2692060938856966
17.22,-0.06967344249781203,-1.9148966991648957,-0.9901494671760773
17.23,-0.11755977063426515,-0.9700894919624843,-0.3286422553705471
17.24,-0.002114451846705663,1.5050954676060737,-0.7456180499049389
17.25,0.415464635625358,2.1432442591847587,-0.7633930941840076
17.26,0.36364555997859604,0.5728565679954779,-0.7591731084344897
17.27,-0.008541565489943169,-1.235683035905767,0.8884915784143356
17.28,-0.40191231350981815,-1.1864803297892281,2.176810068644017
17.29,-0.4770040443445505,1.8776839992537961,0.9638509646404123
17.3,-0.3377060333353114,2.4964846741034132,-0.629652108719891
17.31,-0.20793471499141122,0.12462856934020915,-0.8397300791918755
17.32,-0.07965139467855478,-1.880704250287283,0.3048184293481633
17.33,0.03448498487724399,-0.8295679209503873,0.9912927333180919
17.34,0.13198912990132924,3.076184505185768,-0.16939606316948855
17.35,0.013776576480272881,1.9737929328240222,-0.8725369132913887
17.36,-0.10623535825764166,-1.3341146210144688,-0.5871325112985731
17.37,-0.04892576193436529,-3.8086248627334487,1.1023792982974878
17.38,-0.3106954852313534,-0.8062516592295855,1.8681778580224424
17.39,-0.654139237336786,2.208208001385563,1.3497562224635216
17.4,-0.8034529672592827,0.958848597692234,0.022345071838016
17.41,-0.8619644330288283,-2.0592649258111195,-0.36300665381740516
17.42,-0.8427607055620412,-2.156838338029586,0.7657510736829453
17.43,-0.6073885067222698,4.52027233751358,-0.558213915683406
17.44,-0.6762169296347255,2.8438026240590686,-2.2799605553890876
17.45,-0.904680047643589,-1.3680657905671263,-1.8717445064913383
17.46,-0.9745708989605004,-4.136227648730331,0.9073848916492608
17.47,-0.8481140429567035,-3.003721293696614,2.4431250876905266
17.48,-0.4201213067745156,3.365480349626813,0.4092657225622108
17.49,-0.42993318735267394,1.9111753865047318,-0.645685055476457
17.5,-0.8544059680031215,-0.40197587033761517,0.127644218327793
17.51,-1.1564953840472332,-1.7785298614449372,1.3243282757927073
17.52,-1.0675621181716515,-1.7841977156186777,0.23743885121444347
17.53,-0.266161973304097,-0.05012096321768077,-1.9818678044686713
17.54,0.18959583481075556,0.14928192984492175,-2.3259111922617994
17.55,-0.10058145194212663,0.5825485208240065,-0.6683008005953863
17.56,-0.46735350261081854,0.08144016337445178,1.200892904248094
17.57,-0.5140193395275853,-1.5353201221486337,1.5209999554803368
17.58,-0.44565002915093654,-0.8540284806344903,0.5090364781860617
17.59,-0.5784232425386203,0.19141180341883515,-0.4905258795946108
17.6,-0.8240902775807797,-0.4219695130474212,0.6331357254043615
17.61,-0.7903096719292708,-1.1196016907367317,0.8962424361186717
17.62,-0.3743650843108873,-0.15486412253145193,-0.7282240212772626
17.63,0.2257036232592768,1.0520479236783378,-1.97721316619893
17.64,0.2799808933780462,-0.35742757795492336,-1.7428933229339576
17.65,-0.041986551378354664,-1.0911078094365372,-0.4441775996180492
17.66,-0.38644191766168146,-0.7168530289032293,0.7696391437281074
17.67,-0.18871265415910682,-0.17023419827356773,1.0722716151813698
17.68,0.22575086092624563,0.854238916607633,-0.3742068385370049
17.69,0.0482120073848597,-0.2722440902660355,-0.4443382896436514
17.7,-0.2553027890177952,-1.2536270810005292,0.9563911902529139
17.71,-0.3509707839718783,-0.990828638655336,1.5228028601958377
17.72,0.272950127996875,1.2345102422998973,-0.20055111612320167
17.73,0.885381091895395,0.8462937300237584,-1.2570385182286816
17.74,0.7743863966116709,0.07782788466106269,-1.324998999690074
17.75,0.5214357480347305,-0.6887580158816073,-0.3815188410477996
17.76,0.35843469033122144,-0.6081757497255906,0.6441492530262256
17.77,0.8849310395899693,0.4447098137102983,0.4507682154934773
17.78,1.1825523993347855,1.0621013887540807,-0.4717131973666984
17.79,0.9516335477552469,0.10744327425763245,-0.5952349142584289
17.8,0.5307507164057446,-0.7118244017796893,0.9855262879544187
17.81,0.23375114863192586,0.2779350704311454,1.929596544188994
17.82,0.4691847960976892,1.9090695752173816,0.5034405344045423
17.83,1.013389162891711,0.46700860582998893,-1.476481598011813
17.84,1.1750981143549024,-0.4811232307901002,-1.9490627670004939
17.85,0.994514598615767,-0.25325585379173504,0.15396970324248224
17.86,0.8028915940848805,0.8099015706999032,1.2698485503317523
17.87,0.869376344025389,1.1165118198897077,0.1260751261733954
17.88,1.2642785530204361,-0.5354585388457445,-1.237202764998696
17.89,1.5049578557395515,-0.7765553749039464,-1.5600407945910935
17.9,1.068602945886166,0.035724980910840524,0.5784883270940228
17.91,0.595086913589393,0.46326728188771676,2.5406396358896317
17.92,0.3393093822563538,0.36003596079472955,2.31616997377061
17.93,0.4772778489379516,2.237765610229129,-0.4645532318491002
17.94,0.9717516378975123,0.2589814289226332,-1.4399872641655902
17.95,0.6656051673343227,-0.14752645884344862,-0.5194049128156001
17.96,0.4854080835333593,-0.24442362814167037,0.006623743531877273
17.97,0.41393362845457077,0.5198262731764213,0.40516149614923547
17.98,0.7658966162678172,2.7051241938698953,-0.29992061501367506
17.99,1.3593921206295032,0.6002828567427148,0.20947633173038158
18.0,1.0432817347847956,-0.33238016333660464,0.9715428689515259
18.01,0.7018523315256815,-1.0375798213392122,1.8996013173466455
18.02,0.3203799447318783,-0.12706820646476943,1.9332017484189135
18.03,0.3761704266360967,4.6347936176433056,-1.0956183480544377
18.04,0.634883333463719,1.3033095397326258,-2.051243530374749
18.05,0.18902812492229046,-0.23711202728289138,-1.2474233580690657
18.06,-0.05449748280585211,-0.3263040462951811,-0.3950242422252275
18.07,-0.07904758420565192,0.5741525129828126,-0.16096239359007494
18.08,0.5966638843076618,0.7639556993441529,-0.4736916098342357
18.09,1.1403525623728246,-0.39395434013215025,-0.10689160427445839
18.1,0.7691527509606492,0.6971247928819677,-0.25762951703277964
18.11,0.11739258026976801,1.6144882232203823,0.8382729154531515
18.12,-0.38344818651091067,0.9239519684052093,1.521408188344616
18.13,-0.6227563110796404,-0.4034035689584699,0.5275543540515815
18.14,-0.7527090349229006,-0.70693976264081,0.10254123192393268
18.15,-0.6093612904570131,0.06665377215195185,0.24906384007121232
18.16,-0.4536841138236504,0.5746461454980712,-0.3022027326552329
18.17,-0.5240107165562329,-0.7745660597743985,-0.42457080137229225
18.18,-0.7365130376783654,-1.7822697360975737,0.17287098890229538
18.19,-0.8444659993645766,-0.6015096818905231,0.5748490336638474
18.2,-0.4435322784037246,3.121957199763176,0.4310581092109158
18.21,-0.3827024180577524,0.03021326944806761,-0.37760430335257833
18.22,-0.8473957791905717,-2.8008440725208468,-0.5267153768909635
18.23,-1.3237798457438013,-2.5717228171188395,0.29458187408812675
18.24,-1.6023245728912583,0.4758174043421907,1.1232837756963618
18.25,-1.037756253174217,4.895082433638669,0.6621313032768604
18.26,-0.69691684281477,-1.7962699468611059,0.0743668341477145
18.27,-1.0002195788198052,-2.7413044405318847,0.11471364006246987
18.28,-1.249817278793735,-1.297129939769369,0.8165211603174514
18.29,-1.34087929348265,0.10534604696141589,1.576163257170692
18.3,-0.5372627246149839,1.3187569777828922,-0.417382685455363
18.31,0.02406044382783258,-1.3782643206698462,-2.2476789546097846
18.32,-0.18120344294250978,-1.1368776600917594,-1.7095874995214797
18.33,-0.6693378176048095,1.2724026357691012,-0.055876565784811795
18.34,-0.9790588501495423,1.0306315790174319,0.5715494806901694
18.35,-0.5111191767062571,-3.91016684670319,-0.6818559910750295
18.36,-0.7033808447713186,-1.528666653996874,-0.6308257384495783
18.37,-0.9473427757538474,-0.41385199491282926,0.435937823464685
18.38,-1.1183619935040996,0.26315385841348343,1.6691698053488946
18.39,-0.828421126536229,1.4611235567661778,1.6169460772894526
18.4,0.09775374732803764,2.4102567588161965,-0.1431463975246802
18.41,0.43581729507772904,0.09404130492080463,-2.0120865887915507
18.42,0.3640717826863537,-1.225870852929144,-1.5118649094007917
18.43,0.1548915677530488,-0.19850238996637035,0.46168962938215574
18.44,0.309625708195426,0.27232547339154733,0.39749660318138114
18.45,1.030841581291688,-1.4811549544727685,-1.8402398451614717
18.46,1.207866828870522,-0.9683935931707999,-1.745760113107381
18.47,0.7384909935071091,1.3973981216308506,-0.15415215250686806
18.48,0.22052889393581604,2.2037267895339965,2.069047133564688
18.49,0.07090073965358482,0.6052006324817134,3.2368704371914463
18.5,0.35956117134069876,-0.23020889794864993,0.8707124490729818
18.51,1.1711992992474336,-0.28345461324175336,-2.870191067313916
18.52,1.6041888179013972,-0.6194988004806861,-0.9336241077285135
18.53,1.6217096505357589,0.03687026130843279,1.4025864651805164
18.54,1.658022556022588,0.8986446040834475,1.5249102918357764
18.55,1.5480794879387374,1.599739507996611,-0.07881498501301862
18.56,1.5881411444359954,0.40223628006447437,-2.0098593269819847
18.57,1.1468957884052386,0.06580395332666435,-0.5027197228329499
18.58,0.6346997624704394,-0.09474217250666825,1.0490411247986289
18.59,0.3552700551210466,-0.527302482618814,2.0436909588748016
18.6,0.272550434062013,0.6658913456702407,1.4340799058618046
18.61,0.8151988993405695,2.602187090473437,-1.4662570290845551
18.62,1.0470675506267544,-0.5308296812120686,-1.8849336699755006
18.63,0.692916362076264,-0.2686979920164767,-1.8146413885602555
18.64,0.40365316636099796,0.7552840361536073,-1.3856833020206742
18.65,0.23340639611780176,1.2503632589838745,-0.5433348081163893
18.66,0.7256903040025847,0.7160224323757194,0.842758694659367
18.67,0.7126867504729647,-0.010171783099295695,1.0129126201841465
