seconds_elapsed,z,y,x
0.0,-3.713650812791287,-8.706984292757511,2.562734518522024
0.01,-3.715874074954902,-8.701281648612474,2.57883627334797
0.02,-3.7195946071124215,-8.691246572003916,2.6071444423961094
0.03,-3.726032329082794,-8.678616821046921,2.6398277816734073
0.04,-3.735083921872514,-8.665799538397359,2.6689725169427736
0.05,-3.746200415733034,-8.654451473048072,2.690128529014099
0.06,-3.759970457647347,-8.6451904751,2.7006856540138475
0.07,-3.777715991486859,-8.638278001183345,2.6980410353507285
0.08,-3.800158176035137,-8.633666431775868,2.6812236325993237
0.09,-3.826140104648622,-8.632603969358003,2.647472969627147
0.1,-3.853859025409293,-8.637576622005255,2.590420908227545
0.11,-3.879675087896445,-8.651969749447286,2.502316044796538
0.12,-3.8965717203205146,-8.678431813701897,2.3814524803457684
0.13,-3.89731618644472,-8.71724627774941,2.233825824343486
0.14,-3.8863240731050905,-8.757672884731015,2.090234326447369
0.15,-3.8810765787825208,-8.785105662971242,1.9821696802165423
0.16,-3.882468634638544,-8.801946342592036,1.903216884921379
0.17,-3.883014795072993,-8.81480731753809,1.8416190926449252
0.18,-3.895491887581947,-8.816376173308575,1.8074859503949459
0.19,-3.9295247002445963,-8.803194640670569,1.798023529404038
0.2,-3.9824964422424003,-8.778921623221121,1.800120501573005
0.21,-4.046662628792328,-8.748979826542621,1.8027458950143922
0.22,-4.11248133691081,-8.718517610853935,1.8013799495923666
0.23,-4.167704571772982,-8.691962324370376,1.8028294488057097
0.24,-4.194627942223103,-8.676095649084333,1.8168044795881788
0.25,-4.184977387340161,-8.676250735962096,1.8382046553930005
0.26,-4.14329364032422,-8.692325393873885,1.8565630658943921
0.27,-4.079639419775956,-8.719842226391599,1.868383619054061
0.28,-4.005429981194829,-8.753369520334585,1.8721289831273216
0.29,-3.9317034174104655,-8.787802869109719,1.8670980870002134
0.3,-3.8669326093825016,-8.818398614025936,1.8581229670627923
0.31,-3.8176978171908664,-8.841859478286388,1.8484650268361373
0.32,-3.784079702254222,-8.85763897338134,1.8420708265264008
0.33,-3.763289892255496,-8.866525503408042,1.841934481401304
0.34,-3.7500551243736044,-8.871072031025792,1.8470365677749052
0.35,-3.72512811250969,-8.878912681111158,1.8597292339285132
0.36,-3.623117017778581,-8.911728809220564,1.9033756712186534
0.37,-3.4518981736037113,-8.959006509623505,1.996546381110472
0.38,-3.232242151594775,-9.013933301875133,2.1129469707610586
0.39,-2.9904443765023174,-9.074521674193191,2.20739850123456
0.4,-2.7519479951664327,-9.13675175765659,2.2604716694613294
0.41,-2.520271252093794,-9.200015918024517,2.274112340829902
0.42,-2.285223266620676,-9.264252525179925,2.261547027745019
0.43,-2.040680613073665,-9.326628122339168,2.2387729588274268
0.44,-1.7883467776706656,-9.38577375237011,2.20700789454709
0.45,-1.5408077698952711,-9.439500322013856,2.1642034167574984
0.46,-1.3049414399574795,-9.486016019521983,2.11550017633186
0.47,-1.0839574659621056,-9.524015100857396,2.069258251593142
0.48,-0.8640318386740526,-9.553986487296479,2.0343193946762805
0.49,-0.6273202439259596,-9.576716854535276,2.013802325390494
0.5,-0.36424785439444307,-9.594172954272228,1.9948780656479834
0.51,-0.0795198696973964,-9.608306911802778,1.9576934464834705
0.52,0.20775546427084932,-9.619421673580469,1.8924783717664486
0.53,0.4716686636178775,-9.625331987648414,1.8139024867295892
0.54,0.7008690643628668,-9.623975099911878,1.7465305376754803
0.55,0.911145907927977,-9.613958736764177,1.7045115014497145
0.56,1.1261028509740518,-9.59344548082394,1.6914166037571794
0.57,1.34253945267831,-9.564151233048088,1.6993020030789219
0.58,1.5387160142374203,-9.531682290301132,1.7157703634327908
0.59,1.7053824458824165,-9.499357711328935,1.7378005148003455
0.6,1.8349826872173396,-9.470583316406184,1.7631399283078968
0.61,1.9202630619596186,-9.451177581704103,1.7768528977290503
0.62,1.974477119387049,-9.44064321455303,1.7736049791592428
0.63,2.0188739614465407,-9.432551819310943,1.7666841906944077
0.64,2.0685198124347157,-9.422120570191968,1.764873753979634
0.65,2.126249909773763,-9.40908479340949,1.765766644882651
0.66,2.186212933689886,-9.395988003188569,1.76227773827118
0.67,2.238261245026855,-9.386746808618181,1.746154540591214
0.68,2.2700164521006236,-9.384947948877087,1.7145898319171986
0.69,2.2768614400325577,-9.390874359720618,1.672546046408379
0.7,2.269926138764183,-9.398445874160613,1.639156452724047
0.71,2.2613540525405056,-9.403022975925676,1.6247415002845524
0.72,2.2525918097804203,-9.405302859806568,1.623721848452539
0.73,2.2445809370316434,-9.40633475755912,1.6288299324831166
0.74,2.2469403885276464,-9.40530824882026,1.631510697667417
0.75,2.2686845733845376,-9.401159595057447,1.6252710097710688
0.76,2.307235950618036,-9.394135325600727,1.6114868794125234
0.77,2.349107078915636,-9.386831071024487,1.5934519926408777
0.78,2.3792663260953404,-9.382292084666656,1.5754030011495315
0.79,2.3899877442613158,-9.382223187891514,1.5595513769856684
0.8,2.3833244171415915,-9.38633391990242,1.5449338159494064
0.81,2.3696573154948335,-9.392461838065117,1.528620623303229
0.82,2.359834586229401,-9.39751480944726,1.5126887757649496
0.83,2.3561440575569153,-9.401154689482913,1.4957268235469172
0.84,2.3516233730282052,-9.405661858847118,1.4743321346507037
0.85,2.3395237304232173,-9.41327683525967,1.4446286992442894
0.86,2.3181000432957735,-9.42483537680911,1.4031018632731962
0.87,2.285864920468562,-9.440160155043685,1.351910351859033
0.88,2.239944562304045,-9.458865099620354,1.2967916498292507
0.89,2.1765662782293926,-9.481067124235782,1.2412065529360228
0.9,2.0989799253839845,-9.505530105772968,1.1863595206816697
0.91,2.014549395452502,-9.529732135504032,1.137571711726315
0.92,1.9268271659997025,-9.552351943509477,1.0992200231622322
0.93,1.8405581460191267,-9.572473416682762,1.0717932447063483
0.94,1.763785378139681,-9.589017351060743,1.0530640538054612
0.95,1.6995270257001236,-9.602115510188867,1.0394784585494468
0.96,1.640458261311302,-9.61363774909469,1.0278393220499464
0.97,1.574129420267102,-9.626068857477195,1.0149656728517968
0.98,1.4963073781937586,-9.639937782754695,1.0007490431901827
0.99,1.411687786146237,-9.654143213236129,0.9865713498721049
1.0,1.3235463155594818,-9.668002818185872,0.9728814733242104
1.01,1.2286768804163593,-9.681753540344582,0.9603083287627611
1.02,1.1268319654765941,-9.69518829330074,0.9494606086182502
1.03,1.0266382094395146,-9.707202791954224,0.9404204484241482
1.04,0.9335637638284726,-9.717344048307373,0.9328487280218025
1.05,0.8445140113203331,-9.726098723107052,0.9265019348212771
1.06,0.761484955560287,-9.733264832606446,0.9233682164389663
1.07,0.6842265541594066,-9.73872595505065,0.9263495921706535
1.08,0.6112828408549854,-9.742964191324349,0.932835923565853
1.09,0.5434993914988014,-9.745853297486766,0.9446194094757826
1.1,0.48078134487918195,-9.7479281219195,0.957201906471361
1.11,0.4238190068998331,-9.750157011273615,0.961497458352955
1.12,0.37673429988675644,-9.752410640219791,0.9583825078660783
1.13,0.3399057639076506,-9.754313609584289,0.952862224689467
1.14,0.30675788183859326,-9.755832155737986,0.9485597335905392
1.15,0.27113662826776724,-9.75690655345187,0.9483198624688077
1.16,0.23380567842493008,-9.757403976132323,0.9531213043769771
1.17,0.20043117325238305,-9.757588373408764,0.95887648264791
1.18,0.1775150324737432,-9.758254074340627,0.956681774961153
1.19,0.17218778850839522,-9.759316560103164,0.9468014979839809
1.2,0.184857946026585,-9.759815031381326,0.939225604067602
1.21,0.20400628647669977,-9.758677351642675,0.9470116620204491
1.22,0.2163980887681933,-9.756863605010842,0.9628515917532208
1.23,0.2145671853611323,-9.75621696632813,0.9698299131064253
1.24,0.1937547030710096,-9.75664117250463,0.9698439348912778
1.25,0.15267866119325296,-9.757135875701902,0.9719934755015726
1.26,0.09676697380265499,-9.75728006957072,0.977542618504049
1.27,0.0323044590862273,-9.757116878715182,0.9833018801772528
1.28,-0.02436415771597037,-9.757466735465668,0.9803136340749341
1.29,-0.06191612676795683,-9.7582087511897,0.9714330179080846
1.3,-0.07992535854611207,-9.758188382447365,0.9704219626133672
1.31,-0.08240068900807092,-9.757093914366616,0.9811516108981319
1.32,-0.08024356855070004,-9.755227126493933,0.9996900003996747
1.33,-0.08836624043051673,-9.752991351732405,1.0205747341461615
1.34,-0.11721965378415851,-9.750621082862269,1.0399850740362875
1.35,-0.1704348558892958,-9.747614561705333,1.0602802219367609
1.36,-0.23716103444175085,-9.743653504968144,1.0835162267577045
1.37,-0.29879493699662113,-9.739029107589076,1.1096930391203226
1.38,-0.35412964532545826,-9.733598566385687,1.1406076728687626
1.39,-0.40852530595231856,-9.726748027590771,1.180096570464215
1.4,-0.46148897098450203,-9.717964082595316,1.2316848722080085
1.41,-0.5177851450064286,-9.706774438593833,1.2956369624756445
1.42,-0.5819906514920327,-9.692313849547299,1.3739138316207027
1.43,-0.6468039682088588,-9.673776618475339,1.4717538145258238
1.44,-0.7005805762752186,-9.652588352436554,1.5821770075856836
1.45,-0.7430180642155583,-9.632945494025098,1.6800042983218353
1.46,-0.798070086414427,-9.613947942408622,1.7614209547896733
1.47,-0.8777085892789717,-9.59238762795361,1.83916016031668
1.48,-0.9574100496290698,-9.570543227550491,1.9120325835769367
1.49,-1.021477020649616,-9.551316366437373,1.974243454823097
1.5,-1.0864916978413517,-9.532975531409235,2.0273705672755726
1.51,-1.171145068662146,-9.512513221231657,2.075548823165482
1.52,-1.2771074175578352,-9.488034232269852,2.1242433748333664
1.53,-1.3958483510901492,-9.460335145432405,2.1724634771707496
1.54,-1.5123553450189884,-9.434988262022356,2.2047298170891194
1.55,-1.60589295538934,-9.416653462352741,2.217345227022147
1.56,-1.656238216220104,-9.407720954097652,2.2185382877861834
1.57,-1.6542494971950028,-9.410329963821708,2.2088996474148495
1.58,-1.5980680247905779,-9.424322704913363,2.1901346119574914
1.59,-1.4844293869939373,-9.446530637500315,2.173587582720201
1.6,-1.3158621707049372,-9.471126051985918,2.174157530606633
1.61,-1.1048994820569515,-9.49318738043536,2.1944347295157947
1.62,-0.8755410551354887,-9.510465311051135,2.2229204483308256
1.63,-0.6560309921820292,-9.52239633526682,2.2478999788053065
1.64,-0.46077052767309956,-9.530146916419557,2.2641009538874846
1.65,-0.28988529024954973,-9.534948128535936,2.272615289169999
1.66,-0.14016005362352046,-9.537412304053746,2.2767790259539153
1.67,-0.020757222143127117,-9.537529492129767,2.281043955802146
1.68,0.048993765945817294,-9.536852790254594,2.28387415742085
1.69,0.074094774159346,-9.53846712952248,2.276499142829142
1.7,0.07796733111906314,-9.543817340393796,2.25379826170908
1.71,0.06592524746215728,-9.550879277972243,2.2240572068573345
1.72,0.03862211435719476,-9.556207416013882,2.2016965596069427
1.73,-1.1243991671027154e-05,-9.559137570280104,2.1892389019748975
1.74,-0.04470666291306989,-9.5616251668103,2.1778832204835363
1.75,-0.08404992377954766,-9.565475688160094,2.1597690083708856
1.76,-0.11055612173419326,-9.57169669268793,2.1308089357938313
1.77,-0.12512124479052197,-9.580567366745846,2.089704285550193
1.78,-0.13098617189651718,-9.591363926498651,2.039161821247052
1.79,-0.12451799812445263,-9.603862842913612,1.9797839465111222
1.8,-0.09482351603885657,-9.617635454408303,1.9133081965058831
1.81,-0.044719488934422263,-9.630703922542704,1.8483177167999822
1.82,0.00901143767328126,-9.64140418038994,1.7922990488978081
1.83,0.05653027775823175,-9.650252003243118,1.7432354582650051
1.84,0.09020693190729374,-9.65820246113023,1.6972743517118896
1.85,0.10201300801664356,-9.665105787481146,1.6569282447446856
1.86,0.08803401328956521,-9.669266538908005,1.6333143513685282
1.87,0.06383254806694678,-9.670637364095706,1.6263534117745726
1.88,0.052886796713476354,-9.671850499003773,1.6195347514071738
1.89,0.05221094053612336,-9.673164618029274,1.6116857302585015
1.9,0.05084458419442615,-9.67410047898987,1.606099715772853
1.91,0.04661327870499078,-9.674166008769443,1.6058343773914867
1.92,0.03971733425759699,-9.672656039207085,1.6150754870372401
1.93,0.031233945056884992,-9.66965997530042,1.6330841133119323
1.94,0.025901876588756607,-9.6658184189435,1.6557586086490443
1.95,0.03005303444716665,-9.66110819215581,1.6829068547147379
1.96,0.04666266308299836,-9.656301905758555,1.709915831267208
1.97,0.08696262802165956,-9.654429566817331,1.71870090441248
1.98,0.15883983349593306,-9.655307391019736,1.7083026770172405
1.99,0.25260113558635766,-9.65717398840899,1.6861370710491226
2.0,0.3554202955014197,-9.657120969741095,1.667841099617897
2.01,0.45345713606651733,-9.653618618410915,1.6645010953488468
2.02,0.5321429639244597,-9.64670876774407,1.68144903337899
2.03,0.5725966627051966,-9.638169840572337,1.7168889145747361
2.04,0.5697658015771563,-9.631196517771665,1.7565536415501684
2.05,0.5427046951737399,-9.628812177839961,1.7780925936490815
2.06,0.5001809012945362,-9.629830259222564,1.7848446560703788
2.07,0.4441373722126071,-9.632038645994681,1.7879135521042815
2.08,0.4137567654005985,-9.63514633972725,1.7784890008588843
2.09,0.4041902009691585,-9.640824839725058,1.7496040885178141
2.1,0.40204980189271655,-9.64960434523214,1.700887906423034
2.11,0.40198016472697806,-9.66156468150513,1.6313682031596006
2.12,0.3965679028482957,-9.676797658369406,1.5395580283494295
2.13,0.38629001250923706,-9.69407106110358,1.4293534980135862
2.14,0.36766539565946355,-9.711325656485025,1.312455068267465
2.15,0.3400699919394552,-9.725205037411197,1.2140987810161983
2.16,0.3013543044392295,-9.734239055711324,1.150038621153955
2.17,0.22750605477350724,-9.743840710603815,1.082847318225033
2.18,0.12467453603956886,-9.755271129975517,0.9924978424017021
2.19,0.016770428375269826,-9.76628672774691,0.8856894139116342
2.2,-0.09773433666571624,-9.776880278325455,0.7509873316567892
2.21,-0.22831255506123502,-9.786953175556249,0.5668284303702763
2.22,-0.3473408495303348,-9.792995017474512,0.37732910360147637
2.23,-0.42301668056036273,-9.793700871226106,0.2717851240905077
2.24,-0.4844449220013829,-9.79163112139316,0.2421990780208869
2.25,-0.5564426245193314,-9.787639504090707,0.24857354680487886
2.26,-0.6295090473152796,-9.783012033166228,0.2565851779867013
2.27,-0.7010723778404975,-9.778172422456933,0.25528135658490503
2.28,-0.7767331400882576,-9.772634242617892,0.24798053793284822
2.29,-0.8590264418437799,-9.765842635747282,0.24334116700983174
2.3,-0.9539213546693981,-9.756895082798287,0.2474583785566275
2.31,-1.067319683633307,-9.744794032337586,0.2586933412478747
2.32,-1.2079993570254386,-9.7277598800241,0.2765954360241392
2.33,-1.3800305152274326,-9.704207759111476,0.2964824548258324
2.34,-1.5573003118389905,-9.676998000299234,0.3109417143993064
2.35,-1.6948582034054473,-9.653576537783751,0.3236327468875213
2.36,-1.7720537761389767,-9.638826493965192,0.35042728436559284
2.37,-1.8011758894234258,-9.631848574491242,0.3914247963015425
2.38,-1.817792625025228,-9.626627375953289,0.4399666242976653
2.39,-1.8391338976659397,-9.620285275382304,0.4875186732537735
2.4,-1.8616373629356104,-9.613735819226084,0.529633810505546
2.41,-1.8834750579287909,-9.607551264633223,0.5636193163015171
2.42,-1.90057974878501,-9.602555738957605,0.590786902710323
2.43,-1.904502276926456,-9.600503196991536,0.6111954611334581
2.44,-1.890510595918128,-9.602226099718996,0.6272472537267736
2.45,-1.8545970298093406,-9.608153544434744,0.6431970078612578
2.46,-1.7968220571766176,-9.617849562537245,0.6617848980786297
2.47,-1.7268209021497563,-9.629245958297654,0.6820145537879816
2.48,-1.6531780344770612,-9.640511144845679,0.7049863867425215
2.49,-1.5789136270729702,-9.651304520729061,0.7271408497574994
2.5,-1.4926214909413813,-9.664113580571577,0.7385648252008423
2.51,-1.3737998985943571,-9.68167243576741,0.7383249708863094
2.52,-1.226681186198908,-9.701309468658549,0.7395677985238952
2.53,-1.0780141377116852,-9.718397640253382,0.7471823077989836
2.54,-0.9411176589524509,-9.731618319332833,0.7602358682133862
2.55,-0.8152883717108812,-9.742146948031401,0.7711305857508102
2.56,-0.7076793113422633,-9.750445931646341,0.7726855185213815
2.57,-0.6076917555965928,-9.757365761927456,0.7704692990028142
2.58,-0.506293375310214,-9.761789663656623,0.7871106826146189
2.59,-0.3878909207836138,-9.764133006463862,0.8242940002595021
2.6,-0.2594372927273165,-9.76576365926253,0.8546863061025185
2.61,-0.12205343167292323,-9.766021877151845,0.882004167061881
2.62,0.01306221778324979,-9.764136196208131,0.9109093778253567
2.63,0.14303176202266663,-9.760802716054364,0.9352199722341134
2.64,0.2726340780098571,-9.755903518695687,0.9572812635545423
2.65,0.4029273302353821,-9.748850565525512,0.9827939760104909
2.66,0.5347503487061717,-9.739267197215714,1.0143899738343014
2.67,0.6680206497520899,-9.727613142773274,1.0467884658288344
2.68,0.7965345001722577,-9.714556271519196,1.0778130163109032
2.69,0.9160819551503198,-9.700098405407058,1.1125225901477755
2.7,1.0333203769366852,-9.684563596097725,1.144773378854032
2.71,1.1440525025842487,-9.667969188230234,1.179190785865532
2.72,1.2548324533321031,-9.648095617721344,1.2281085491135248
2.73,1.376060694900045,-9.623074528808687,1.292714269734395
2.74,1.5096320137388084,-9.593023984837671,1.3648962831151323
2.75,1.6449983998238344,-9.558430177607873,1.4485797546284507
2.76,1.7729303216999674,-9.520062124178637,1.5470068999871678
2.77,1.888474513001641,-9.479320447440198,1.6566631546145176
2.78,1.9913109839030783,-9.438450941947147,1.7661327421672102
2.79,2.071500815861401,-9.40134717365775,1.8689442638402785
2.8,2.135676142531612,-9.36927250962956,1.9557932557288222
2.81,2.221941199090924,-9.33617127234797,2.016973560274545
2.82,2.334672874474892,-9.300943428651989,2.0521286957048503
2.83,2.443730522826524,-9.269218903716672,2.068661100720084
2.84,2.5473790027782375,-9.237156802046416,2.086984213242347
2.85,2.645232874279373,-9.205873858454122,2.1034323972180475
2.86,2.7409560895294742,-9.18063993874071,2.0911431160549263
2.87,2.830339048195127,-9.159306536927538,2.0655175309033202
2.88,2.900223317993481,-9.139903816501853,2.0545402926994734
2.89,2.942632909952828,-9.128146126559528,2.0465110548528216
2.9,2.9631854638606656,-9.124925058683841,2.0311634968493535
2.91,2.9697645037507936,-9.127538491667455,2.009699875609858
2.92,2.9745868980376153,-9.129988828111498,1.9913567290692682
2.93,2.9837215081864312,-9.131024075921644,1.9728558652062083
2.94,3.0019877227391514,-9.130677168972447,1.946569866460701
2.95,3.0276951070585367,-9.129064999450573,1.9140442545717689
2.96,3.0528938740303446,-9.127347566311661,1.881939735055226
2.97,3.0752680513511503,-9.12700663113652,1.8468348744865117
2.98,3.0909573231797376,-9.131770122065259,1.7964061103331366
2.99,3.100091463351735,-9.139807168679019,1.7388807819525307
3.0,3.1215195443284407,-9.140602328826516,1.695843497875859
3.01,3.1446486242910594,-9.138245146962372,1.6655467439828198
3.02,3.161519644644894,-9.136897351720561,1.6408213855113853
3.03,3.1767404218317297,-9.134033849284505,1.62730463074616
3.04,3.191213182682447,-9.12860678244644,1.6294390439894513
3.05,3.202522424766305,-9.122249277541801,1.6428011851749569
3.06,3.207984542541929,-9.11785110230523,1.6565124813503784
3.07,3.210509084928672,-9.112791899976736,1.6792959789387245
3.08,3.211346633816571,-9.105751028557188,1.7154889475359483
3.09,3.2113344321720674,-9.097350758825652,1.759510673449304
3.1,3.216987303873624,-9.08805025088735,1.7968541945513157
3.11,3.230677392234109,-9.078667661243555,1.8195786179163678
3.12,3.2510891152680945,-9.070246747491456,1.8252147982029288
3.13,3.2784826667202833,-9.06239406129012,1.8151898490508227
3.14,3.311562148834079,-9.054649750714734,1.7936550380908696
3.15,3.349359929014054,-9.045627990713726,1.7688115137470795
3.16,3.389338367395446,-9.034924870813844,1.7472368701968153
3.17,3.429675328205597,-9.023158861302266,1.7292296483915017
3.18,3.4713806638093314,-9.009414490772125,1.71763554193175
3.19,3.514836942869541,-8.993621442266653,1.7120078526888827
3.2,3.563673482047369,-8.974884095306251,1.7093674039345241
3.21,3.620240383822862,-8.95244833625836,1.7081291217092864
3.22,3.674303330884909,-8.932461248013938,1.6973032487229132
3.23,3.7148777834565654,-8.919999274040098,1.6743790951937951
3.24,3.7386008098119135,-8.9149445932986,1.6483149676596083
3.25,3.7505959311661323,-8.914238920240136,1.624715693187964
3.26,3.7538195868330884,-8.917113839031904,1.6013371193750203
3.27,3.749302143192814,-8.924073459940082,1.572891012467556
3.28,3.7350314612000424,-8.93383491153582,1.5512786590599064
3.29,3.6948763997791443,-8.953328418848402,1.5349194389324534
3.3,3.643425898507665,-8.978455787696996,1.5109058862930966
3.31,3.58636003250388,-9.006910684288874,1.4776789124645227
3.32,3.521692261472709,-9.038655048276036,1.4388218269105337
3.33,3.449162674565067,-9.072833073221224,1.398809755270081
3.34,3.371311153085304,-9.1078629081061,1.360394734370881
3.35,3.2942224253778964,-9.14116743963536,1.3254409959249627
3.36,3.2255173045479104,-9.1694208151438,1.2990724743646076
3.37,3.1669717372254937,-9.19212136819772,1.282646974580648
3.38,3.1132796752174237,-9.211596663592148,1.2743813559665385
3.39,3.0596580166437097,-9.229440854261194,1.2751383438283468
3.4,2.997006023582064,-9.248725375282985,1.2841133871210306
3.41,2.9182022618020036,-9.272336572527141,1.2951844014198182
3.42,2.8247981931435207,-9.299619201870696,1.306488886503045
3.43,2.721261650943472,-9.328788604647942,1.3181354973649668
3.44,2.614320660099614,-9.357848113355509,1.3285124306744318
3.45,2.5043454157086904,-9.3868109590337,1.3359899326690847
3.46,2.3852362949674553,-9.417223064419609,1.3398036122131443
3.47,2.25871244572501,-9.44803288815714,1.342083993344382
3.48,2.131778040031906,-9.477465671893315,1.3421734133144136
3.49,2.014369027662053,-9.50378844750963,1.3375023822763457
3.5,1.908624681389322,-9.526876389799169,1.3284144025018354
3.51,1.8092645362038071,-9.548000436142217,1.3157819001696753
3.52,1.7093120555701231,-9.5694687628202,1.2932211780200626
3.53,1.5994191223716194,-9.592663410985294,1.2613936050156107
3.54,1.4731884457214808,-9.618552364726037,1.2169104670876356
3.55,1.3433394564160421,-9.646149216506151,1.1464540348410026
3.56,1.1952571063951483,-9.675311286510357,1.0609378275801007
3.57,1.0681379435223886,-9.700702924286137,0.9602291002046831
3.58,1.0329646465760431,-9.715670793707359,0.8407421230200575
3.59,1.1285300367910693,-9.715161964266064,0.7125992053010247
3.6,1.3229622052282881,-9.698078455931245,0.5990083191805985
3.61,1.5683888862099786,-9.666074943662819,0.5163417270248494
3.62,1.809082631754291,-9.626586836239996,0.4659074942677888
3.63,2.001413459039263,-9.589690846902236,0.44396903534226057
3.64,2.128689388689225,-9.562347372976182,0.4454180014938162
3.65,2.196541791393897,-9.545955879033903,0.4686592582098028
3.66,2.2217835875390533,-9.53845864818371,0.5016182085698083
3.67,2.2244798158137553,-9.53634492944642,0.5292314233012083
3.68,2.2130516215232983,-9.537657790299283,0.5529324886321239
3.69,2.1817196722747534,-9.543030028351493,0.5836664787430087
3.7,2.133088114552125,-9.55140894734212,0.6245919045622925
3.71,2.0748539994747106,-9.560921004980113,0.6731152996193618
3.72,2.015180666543052,-9.569877047728088,0.725099165638119
3.73,1.9601015978876,-9.576737748927709,0.7831567892538722
3.74,1.918475341758255,-9.579432555046298,0.8504033987339052
3.75,1.9003100241886535,-9.57609140652655,0.9255265474012276
3.76,1.9042263356066187,-9.567414710726647,1.0038609165914665
3.77,1.9175662419306811,-9.556724778619865,1.077637568521456
3.78,1.9346306286857233,-9.546740427671029,1.1343486069498754
3.79,1.959120402360653,-9.537920050234284,1.1662121769007667
3.8,1.9940906099624913,-9.529764918826855,1.1735759698414945
3.81,2.0429413672634955,-9.520914248100443,1.161185623077236
3.82,2.106232684067907,-9.509031326278379,1.1452283232516731
3.83,2.1783795527931376,-9.4939787991788,1.1350287313817506
3.84,2.272739972665972,-9.472252889009932,1.131078726696141
3.85,2.3877352290644023,-9.442642891807196,1.1412887355359134
3.86,2.4915046651253596,-9.41170452506631,1.1748155567947955
3.87,2.5565838449850764,-9.386077453544786,1.2385854502305345
3.88,2.5759558655993655,-9.368212076526415,1.3301882580963071
3.89,2.5489501249347346,-9.359192517709586,1.4407454147070289
3.9,2.4922756611503067,-9.352458768764048,1.5765238194682498
3.91,2.422562005714592,-9.343368973368534,1.7311134628655986
3.92,2.348541868099414,-9.333167901616825,1.8817663389567676
3.93,2.290457515861427,-9.31641154097384,2.030612549291791
3.94,2.2474237344348085,-9.290494121664455,2.1908847973069
3.95,2.2245416090138797,-9.244525333846118,2.3977539061085453
3.96,2.2434155099113537,-9.17617593763096,2.6309514450879123
3.97,2.307516270037125,-9.094499601333611,2.850169068995304
3.98,2.385380507274306,-9.010508326953406,3.0463975588509844
3.99,2.461135492759558,-8.934824578567001,3.205495227969638
4.0,2.5447916073372907,-8.86944908737688,3.3200264305810054
4.01,2.6365163304462373,-8.81459440670917,3.3939308523411054
4.02,2.73345587857428,-8.772870108284474,3.425324859580371
4.03,2.8366063048563928,-8.743742320081909,3.4158907179452
4.04,2.9400830761143255,-8.721251713763795,3.385759025884396
4.05,3.0306414269223403,-8.698441508867125,3.3646595412484173
4.06,3.1081858330548564,-8.671700587471754,3.362999609880051
4.07,3.181523237268769,-8.64280695398886,3.3687962773910964
4.08,3.2535540764288444,-8.618951419010488,3.3611219155940786
4.09,3.3285585881884865,-8.60618177400693,3.32004092792945
4.1,3.4051440544327507,-8.604597504311007,3.2455044555130614
4.11,3.4800252057243277,-8.608519122204871,3.154346243121848
4.12,3.555583848132675,-8.612792629573072,3.0568616560085085
4.13,3.6234268056793617,-8.618652252742091,2.9592058605205858
4.14,3.6663257647057503,-8.62757370803349,2.8795864782622473
4.15,3.679286535999747,-8.636924478629894,2.834879070794647
4.16,3.6478806222318236,-8.65400472846937,2.823268516226737
4.17,3.549594611099892,-8.689524272815401,2.8387669852160977
4.18,3.4186181614200386,-8.734104190860114,2.8625195850066074
4.19,3.327091599115123,-8.763469429119668,2.8811903882421572
4.2,3.3074507915753073,-8.767038670634381,2.893118380660361
4.21,3.3342681179899967,-8.755319635232011,2.897761283015914
4.22,3.374634456418913,-8.739520562895143,2.8987116512095965
4.23,3.4119991870955646,-8.725524220637231,2.897163729869521
4.24,3.4458177517677813,-8.71343232169001,2.8935313945466645
4.25,3.4773851744436537,-8.70227045092485,2.8893614400806404
4.26,3.49922948983489,-8.694077428072026,2.887684390621363
4.27,3.506244448191031,-8.69027847942546,2.8906211585995303
4.28,3.5059269231917005,-8.68940196548949,2.893639900314391
4.29,3.5108821904508227,-8.687840764555464,2.8923142857429807
4.3,3.5271744712083564,-8.682922688268524,2.8872382234556895
4.31,3.5508122419301826,-8.67359477776524,2.8862926195184126
4.32,3.5735694127476494,-8.660855720467685,2.8964372680838872
4.33,3.5897419459398727,-8.64731471613058,2.916821476937152
4.34,3.597886833682627,-8.635237005695075,2.9424573850914064
4.35,3.599750719835935,-8.625530759925729,2.9685368584192737
4.36,3.597684038772756,-8.618687714961549,2.9908464147714557
4.37,3.5896519270939407,-8.616066724230574,3.0080044997329773
4.38,3.572010157697674,-8.618240871313981,3.0227250337730753
4.39,3.5474884739737766,-8.62355104584692,3.03641963241573
4.4,3.523078718760322,-8.62943277921379,3.0481194725423526
4.41,3.502455302276841,-8.634932275802171,3.0563107004168404
4.42,3.484885167844398,-8.640524717982617,3.060588626015117
4.43,3.4676973007749603,-8.646472266528756,3.063311305344643
4.44,3.4492364339490855,-8.652586535524678,3.066887294157893
4.45,3.43013389134918,-8.658223269087713,3.072399964198581
4.46,3.4115512503472765,-8.662778245453184,3.0802393207579932
4.47,3.3935569774052006,-8.666270660179771,3.0902753706603927
4.48,3.3754676883757067,-8.669826972237841,3.1000975967931113
4.49,3.3562590817247604,-8.67517573621621,3.1059813097275106
4.5,3.335995819964582,-8.682426606012898,3.107547997142465
4.51,3.319391607666984,-8.688573049998103,3.1081618090122682
4.52,3.3153565628417114,-8.688408257467787,3.1129280032601656
4.53,3.3304273186090145,-8.678233898145969,3.12515479975513
4.54,3.363729017972582,-8.65803432341095,3.1453805783422313
4.55,3.408342679349039,-8.630804542239446,3.172031891962631
4.56,3.4570014748155042,-8.600148390880532,3.2024758948765206
4.57,3.5048564099466883,-8.567878781732658,3.23676511299113
4.58,3.5496775980011708,-8.534520574749706,3.2758103480861007
4.59,3.592190763813425,-8.50062095601526,3.3173512069082793
4.6,3.633156851243361,-8.466677129154771,3.359284835831496
4.61,3.6743178648315222,-8.432563968091022,3.4000737394499114
4.62,3.71884482340363,-8.398379962831845,3.4360868481881903
4.63,3.767414051889246,-8.364714416861583,3.4651782826870265
4.64,3.8182104498507816,-8.331970389139613,3.488395495693312
4.65,3.869157133978881,-8.299524771946663,3.5095389014869514
4.66,3.9191661006543717,-8.265530926095996,3.5341746735764428
4.67,3.9696997651326367,-8.228604721726262,3.5637937287425445
4.68,4.019937777006273,-8.188624856297713,3.5993713135461167
4.69,4.064774925393237,-8.147914509202943,3.641180315620069
4.7,4.099939693236526,-8.111764595130166,3.682301684835855
4.71,4.119592268057537,-8.084204924918252,3.720814828894669
4.72,4.124312269663573,-8.065745841395326,3.7555175442785034
4.73,4.122833912183491,-8.054873777155649,3.7804142754248447
4.74,4.120495273501726,-8.05006549678034,3.7931963264964432
4.75,4.114635457679717,-8.051708823575035,3.7960648228435763
4.76,4.081091715643301,-8.064434209235811,3.8050975368301487
4.77,3.984484572996326,-8.095171477813137,3.8414022738423648
4.78,3.840741418789069,-8.137098444802573,3.898724830881427
4.79,3.7075864411839405,-8.17353469539621,3.951410803961776
4.8,3.6054665697632093,-8.199854135927207,3.9913814688266958
4.81,3.5245083783362112,-8.221522103920899,4.0191162925896
4.82,3.454027163444625,-8.243103159342356,4.0360945303624245
4.83,3.383130427024276,-8.26591740346651,4.049425821493234
4.84,3.3048344871151007,-8.290360489681552,4.064054797036641
4.85,3.224048612178691,-8.316477476234523,4.075586631134475
4.86,3.149829705633354,-8.343463900986064,4.078516520863849
4.87,3.087806639515069,-8.36949385891629,4.072655457567504
4.88,3.0395723936714014,-8.39253984525572,4.061543706708596
4.89,3.007145960758158,-8.410301892760621,4.048960956280804
4.9,2.990331244661432,-8.42196561295901,4.037170562187632
4.91,2.9798336729267456,-8.430382887446257,4.02735172786774
4.92,2.9634913148193434,-8.440932879931706,4.017280938095731
4.93,2.9364724022884556,-8.457358650985066,4.002517583889291
4.94,2.898730420056688,-8.479222009674674,3.9836975092953644
4.95,2.853940229710238,-8.504640736377462,3.961778782464943
4.96,2.8106209192231697,-8.529807356183287,3.938606111305827
4.97,2.7764143386931543,-8.548851405209549,3.9215840441158427
4.98,2.7537529561704477,-8.558672654509325,3.916159724063061
4.99,2.744401714372167,-8.56049471497827,3.9187454939289923
5.0,2.7491666712173086,-8.557029803601482,3.922964354879826
5.01,2.7726109451697565,-8.548844145332465,3.924264148219328
5.02,2.8258350855331478,-8.53462859992766,3.917106928161937
5.03,2.9126911253486303,-8.513752836016556,3.89867604556862
5.04,3.02059405050558,-8.486867790796179,3.875119741522862
5.05,3.1230514001022884,-8.46206419243233,3.8481288865082064
5.06,3.210652500303722,-8.448858642258141,3.8048439704278345
5.07,3.2826509841574882,-8.445415228751202,3.750748067571021
5.08,3.3370724579379196,-8.446844098259282,3.6992201096168635
5.09,3.3817102337132696,-8.449633250872344,3.6520053141171993
5.1,3.4307556194859377,-8.450388755950753,3.6041708632710066
5.11,3.4852678243221273,-8.448447069774804,3.55610961890099
5.12,3.534754536409204,-8.445762384638936,3.5134608416943776
5.13,3.5668558498403846,-8.442972757270082,3.4877027754134464
5.14,3.576644076748644,-8.43854321514339,3.4883948148304955
5.15,3.567449130471962,-8.432229066199843,3.512951410541599
5.16,3.5441574684574753,-8.426299457544529,3.5505350270821023
5.17,3.5151405343363242,-8.423747628948197,3.5853008405496416
5.18,3.492535165348403,-8.424710561503046,3.6051041569962274
5.19,3.484077277476874,-8.427047088676076,3.6078316933627037
5.2,3.493973261107292,-8.430200239029382,3.5908140205769703
5.21,3.521165137183659,-8.432264921795504,3.5592406222590767
5.22,3.5553296764021662,-8.429455802758737,3.5318595599184044
5.23,3.5851778950294184,-8.417470050454178,3.5302735674755876
5.24,3.604634104340119,-8.400639116750897,3.550510872111883
5.25,3.619314985653039,-8.389979702836762,3.56077022650059
5.26,3.6404274923544806,-8.385343479226092,3.550134247888645
5.27,3.6652974650498487,-8.376742084723542,3.5448638745870515
5.28,3.6686225794433964,-8.362634267508131,3.5744775226591767
5.29,3.647424097962995,-8.34403079019684,3.639102540132883
5.3,3.6248486742499697,-8.33627251069635,3.6793159078299964
5.31,3.611266132599103,-8.350593822985143,3.6600357850232106
5.32,3.5998143052602884,-8.385352337019174,3.5909997481556277
5.33,3.579413507743155,-8.437016949306614,3.4887769342643713
5.34,3.551217433532077,-8.496590854676048,3.371006698989737
5.35,3.528924267367166,-8.551843500628676,3.252772090504962
5.36,3.5246354589161966,-8.59313698916382,3.1469624435401014
5.37,3.5345905065451824,-8.6262025222472,3.043478844406347
5.38,3.5394666293407075,-8.668986548183097,2.9130743559313244
5.39,3.5176852701871737,-8.729028120847703,2.755982014369518
5.4,3.4589970174010207,-8.793599761770931,2.621984266344748
5.41,3.3766418226041077,-8.851732250108386,2.5324745286532555
5.42,3.3002748172094534,-8.898890456487326,2.4669738930459935
5.43,3.236231880685745,-8.94653121172478,2.377752862693579
5.44,3.1932987146934932,-8.99366139534414,2.2546135564127665
5.45,3.153792019407644,-9.040898463006945,2.1173633681037924
5.46,3.119977946186611,-9.07826408760268,2.005011628598802
5.47,3.100959860540859,-9.100033451865862,1.9348210816488465
5.48,3.1000718398711142,-9.107710935743118,1.8998635609749823
5.49,3.1150619640938104,-9.105219131730529,1.8872515169585689
5.5,3.1309901018337665,-9.099785461840316,1.887096111482729
5.51,3.1441734520810214,-9.091692892514905,1.9040743311763668
5.52,3.1601619822684093,-9.079800602875613,1.9340968240452456
5.53,3.180854143762138,-9.065138745484303,1.968621689034012
5.54,3.208742838195472,-9.047153819101831,2.0057110693932945
5.55,3.245610174614109,-9.02442912859844,2.0482266231960486
5.56,3.2870677291066523,-8.995905976437763,2.106727981976007
5.57,3.3317955579896523,-8.964873735773066,2.1678449643660445
5.58,3.381485826205119,-8.930641421409955,2.231160116156329
5.59,3.4483911547037542,-8.886234582500066,2.3046358881368136
5.6,3.54061810230247,-8.827485053739235,2.388871513144124
5.61,3.6361109450614197,-8.75977353600151,2.4923852445821826
5.62,3.7153229076886976,-8.690406394470939,2.615400645604321
5.63,3.7605872662884767,-8.628666547411646,2.75171260179959
5.64,3.759670955783519,-8.586212040880016,2.8828083634516144
5.65,3.7244432710660487,-8.56625457331652,2.986169166887894
5.66,3.676863137505307,-8.561138446907643,3.0589661216320234
5.67,3.628114425544057,-8.561728959807072,3.1150397423697465
5.68,3.5890021127223695,-8.560243503315256,3.164072323873139
5.69,3.5633795804046158,-8.55309828638599,3.211979609668545
5.7,3.5398200149464305,-8.541634385096456,3.2680152815684407
5.71,3.5047420377241147,-8.530095006932534,3.3352279949261376
5.72,3.4522117965705594,-8.521537286615816,3.411002855083691
5.73,3.389143946759819,-8.51523640633295,3.489125019588631
5.74,3.3322786304834686,-8.510033392540242,3.5560160714536435
5.75,3.295259896892721,-8.504475298647058,3.603523671663716
5.76,3.277408184328438,-8.495309439915738,3.641225775652259
5.77,3.267850280540392,-8.480986986129867,3.682937838164909
5.78,3.238091618093855,-8.466074236712558,3.7429263921682963
5.79,3.164315775187186,-8.450036890785087,3.840778332555446
5.8,3.046663448783877,-8.431510636187157,3.9743290517663876
5.81,2.9298471039751184,-8.415677005383595,4.09414121410104
5.82,2.8780704229607053,-8.396414245543873,4.169777042543141
5.83,2.8614352150368814,-8.376415234875449,4.22114849630788
5.84,2.858235868617612,-8.357898617291921,4.25985200864198
5.85,2.8629442641290908,-8.343970586533032,4.283928605108273
5.86,2.8918007209993006,-8.338705656861706,4.274788714181556
5.87,2.9158129145066853,-8.340442329926383,4.2550272528961735
5.88,2.964238829335713,-8.338473164933584,4.225312710755991
5.89,3.0199367888798343,-8.337072984347325,4.188488580163831
5.9,3.064717607391127,-8.32525915274898,4.179456186272016
5.91,3.088367837883002,-8.30201702119497,4.2081792383618115
5.92,3.1191701948523263,-8.278894282440772,4.230957924895736
5.93,3.1553278096090533,-8.267886959223501,4.225674611378486
5.94,3.1733941281077516,-8.267414118033539,4.2130515749223605
5.95,3.1516040946834734,-8.273802317409016,4.216841974019626
5.96,3.0848026502284234,-8.283627892523258,4.246810426312415
5.97,2.9812300652398833,-8.295525412588644,4.297251025005424
5.98,2.8679188138045273,-8.308818262892586,4.348364999196546
5.99,2.7397318405485502,-8.313584265157713,4.421311971217423
6.0,2.6223027633238125,-8.310926899980487,4.496897365115812
6.01,2.533555598151585,-8.303765944724606,4.560573525231533
6.02,2.4654783468815618,-8.300893631071073,4.6029215245043416
6.03,2.4060732310745494,-8.302857344570501,4.6307332615279
6.04,2.3489234647743062,-8.313990978832138,4.640087917228742
6.05,2.2891562852533336,-8.341664913469552,4.620251293006136
6.06,2.220327814180198,-8.36581132797603,4.610173575763154
6.07,2.1610252435174377,-8.366776020687906,4.636530582392156
6.08,2.1324392761704147,-8.362216108191786,4.657941838819566
6.09,2.132184342648092,-8.363640739753732,4.655501842798312
6.1,2.134250139200885,-8.373719690981526,4.636396283246704
6.11,2.1264914469262624,-8.387878447639592,4.614314825221698
6.12,2.1009726794620676,-8.402528950481189,4.599324377989998
6.13,2.063167019768393,-8.413265753236276,4.596809854017228
6.14,2.019418644462811,-8.418754245315236,4.606178400195257
6.15,1.9753898341660334,-8.422154157578701,4.619037213384
6.16,1.9371830938932721,-8.429186654644342,4.622387807626201
6.17,1.901899395383109,-8.443616420457307,4.610687978082654
6.18,1.8677882287417131,-8.465550397626691,4.584336900775248
6.19,1.8406472284583622,-8.490928441937818,4.548235610310368
6.2,1.830841572737915,-8.51724839489714,4.502751681522508
6.21,1.8870352949890643,-8.532009601002793,4.451295269480672
6.22,2.000961934495176,-8.528155245378981,4.408673439951994
6.23,2.059659511221988,-8.537855194086289,4.362676766332878
6.24,2.096692140947847,-8.556290115900492,4.3085887622085
6.25,2.1173023706843637,-8.587233649307107,4.236326718604366
6.26,2.121561929730554,-8.62796749080914,4.150544443578988
6.27,2.1197805052180865,-8.670318007119443,4.0622578960283855
6.28,2.1244355738403957,-8.70693813558312,3.980692791136186
6.29,2.140432974114492,-8.735087831265679,3.9098328374877727
6.3,2.1619419842307357,-8.754833689962801,3.853439336762368
6.31,2.1830807371701293,-8.767803097096563,3.811825394982268
6.32,2.2045310747584703,-8.777446150286243,3.7771368373728773
6.33,2.2279290966201293,-8.786725688486715,3.7416595114916475
6.34,2.2485060898930156,-8.797388430390564,3.7041046716875448
6.35,2.261035658547716,-8.809148371375993,3.668360523162245
6.36,2.268324644547329,-8.820915343123358,3.6354384266236175
6.37,2.2747134561448004,-8.83190635706319,3.6046335661688658
6.38,2.2833206354774025,-8.841702391876131,3.575058336849539
6.39,2.2960061053370273,-8.8508504371195,3.544163266976384
6.4,2.312302471922286,-8.859865417244931,3.510883270098203
6.41,2.331032650677124,-8.86811227027293,3.4775132207154003
6.42,2.3524810075516287,-8.87548065059457,3.4441122219340987
6.43,2.3778806399986454,-8.88246502815108,3.4084732729780125
6.44,2.4053824289741006,-8.891768585941234,3.3646197289463626
6.45,2.4302777465824805,-8.905146214309957,3.310902303285472
6.46,2.4531339945278745,-8.92042196191173,3.2524010938447976
6.47,2.4765874366409086,-8.934779608272445,3.194706579726195
6.48,2.504026373142904,-8.946759271397422,3.139313048642995
6.49,2.536355950813065,-8.956368363740882,3.0854906945418605
6.5,2.5714505901807363,-8.964375180807215,3.0327417741448253
6.51,2.605745310098396,-8.971275727892397,2.9826550507153233
6.52,2.6377117750834813,-8.977271358331581,2.9361658542674274
6.53,2.6710306877714265,-8.981199207503305,2.893728445253424
6.54,2.7099199226585835,-8.982442811611952,2.8534239559961616
6.55,2.75414179679451,-8.981525211753969,2.8136861576812957
6.56,2.8032931975451065,-8.977633792837656,2.777324841768293
6.57,2.857568968903767,-8.970898248264508,2.7435559384503465
6.58,2.914730312697888,-8.962524374858024,2.7105821478086956
6.59,2.971663188667262,-8.95275221219296,2.6809009014299816
6.6,3.0272721980035815,-8.941901544955648,2.654780807696596
6.61,3.0828560137947667,-8.930106451193968,2.6304075297394056
6.62,3.1397653814514035,-8.91746620394677,2.605854622120864
6.63,3.1987852348022803,-8.903953022791272,2.580141841614662
6.64,3.2567629596936283,-8.890387504488801,2.5542622717805354
6.65,3.3092107828669675,-8.877244530223065,2.532497905884659
6.66,3.3530353235016492,-8.864406151407843,2.519824288193963
6.67,3.38885969406357,-8.850909287423766,2.519362654752618
6.68,3.4214574889093456,-8.835510692359815,2.5293374902974493
6.69,3.455975185613472,-8.817840510025032,2.5440164526751503
6.7,3.495857547592757,-8.79774307434495,2.559044259626412
6.71,3.5410899894559926,-8.77599061730122,2.5714987655684416
6.72,3.589280368441011,-8.755358072733754,2.5750138461816
6.73,3.635061669881277,-8.737913583820161,2.5700545746341983
6.74,3.6742171268731476,-8.723909260062625,2.5619597139129566
6.75,3.705942929015415,-8.712904795396808,2.553716942026388
6.76,3.7289858062893466,-8.705788133483303,2.5444449658844053
6.77,3.742254828592166,-8.702696625110065,2.535537813034106
6.78,3.7479692763583516,-8.70158981087064,2.53089441348701
6.79,3.7486682094153756,-8.700781048335946,2.532641028835224
6.8,3.7426899321858134,-8.701392188409459,2.539370111829914
6.81,3.7270574638047296,-8.70513209222345,2.5495110559860734
6.82,3.7033955949328363,-8.711412108712949,2.56249690922175
6.83,3.676870223876046,-8.718093870428916,2.5779199850382573
6.84,3.6485726565314374,-8.724397929628859,2.5967212826448374
6.85,3.6147312612860407,-8.73212595866818,2.61796407696341
6.86,3.572523466991814,-8.742701799248183,2.640476478130313
6.87,3.523197109500538,-8.756213510922585,2.6618701496322976
6.88,3.467387431591833,-8.77286100769154,2.6802514991396245
6.89,3.406302620019142,-8.791860250816098,2.6962560234892443
6.9,3.343631915517843,-8.811027004436491,2.7120865307110837
6.91,3.283878156111293,-8.827653767461618,2.7309778506337965
6.92,3.230130670367007,-8.840052676405048,2.7548888552633066
6.93,3.1840169588433924,-8.847781814823088,2.783629097071368
6.94,3.1447555572617825,-8.852052502006519,2.8145286334546933
6.95,3.110111845076396,-8.854586559934187,2.844898791248413
6.96,3.0790957863630326,-8.85639320963535,2.8728892992318578
6.97,3.0514720349999935,-8.85747041243079,2.8989382150637812
6.98,3.0274540558475063,-8.857055561081705,2.9252725207891643
6.99,3.0075470975431076,-8.854470146344125,2.9534982948859096
7.0,2.992509661638876,-8.849293993413543,2.9841265541487525
7.01,2.983186103246972,-8.841726642493665,3.0157284016808674
7.02,2.9793065925206266,-8.832826972852297,3.045501253969731
7.03,2.9783353108446384,-8.824552280238153,3.0703497552436736
7.04,2.9767802075179897,-8.818891439970491,3.0880833390469338
7.05,2.9734669717129947,-8.816294255328684,3.098677945839674
7.06,2.969585283342211,-8.815643203511682,3.1042495607788507
7.07,2.9653441826729225,-8.815733487627522,3.1080478842514054
7.08,2.9620408551302666,-8.815346439436942,3.112294322773747
7.09,2.9606476537064172,-8.814178330039171,3.116922197600791
7.1,2.9599766110707466,-8.812500699931787,3.1222995321623803
7.11,2.9593394950898833,-8.810243168988611,3.129266325475503
7.12,2.9588397681173184,-8.806984030197347,3.1388963178901728
7.13,2.9583596575303788,-8.802442250094586,3.1520569337114748
7.14,2.956741947843828,-8.79650989663634,3.170076528988254
7.15,2.9534388518092616,-8.78890941402052,3.194133469960664
7.16,2.9486602404631763,-8.779895281635994,3.223195178427468
7.17,2.943439351078937,-8.770206303039426,3.254193147694874
7.18,2.9388181431439997,-8.760972993919603,3.283121603547638
7.19,2.9333781570653756,-8.753776277802682,3.3071075122456692
7.2,2.9249402386420926,-8.749905137040475,3.3247863035739105
7.21,2.913367855395486,-8.749918246403226,3.3349018582601855
7.22,2.899507076105563,-8.75365294525245,3.3371763637261256
7.23,2.8833788922238877,-8.760415367602107,3.3333971960383484
7.24,2.864810963906066,-8.768941120625176,3.326978590577438
7.25,2.8449448989594797,-8.777739235322322,3.3208204849743703
7.26,2.8255324162717943,-8.785512188799439,3.3168415571840186
7.27,2.8080584412591962,-8.79167557368344,3.315353561576709
7.28,2.7939414949249226,-8.79603228139765,3.3157297800753884
7.29,2.784818653394148,-8.799023301238021,3.3154736066049852
7.3,2.7812786893856645,-8.8011456612086,3.3128097984294214
7.31,2.7824527432409054,-8.802134557318663,3.309193892339674
7.32,2.787825480038401,-8.801227841044264,3.3070823001946734
7.33,2.7975026782681196,-8.798152120972413,3.3070900790715307
7.34,2.810111943655446,-8.793745533408488,3.3081176566331756
7.35,2.8236770280860717,-8.78928686671628,3.3084171609983093
7.36,2.8372332670057574,-8.785857799937144,3.3059262848937125
7.37,2.8495386939975154,-8.784099310496266,3.300008934516266
7.38,2.8583189730012766,-8.783953699235827,3.2928006796713922
7.39,2.8629513178099444,-8.784487429067818,3.2873501532812686
7.4,2.864641639120855,-8.784605058284189,3.2855632754117297
7.41,2.8653489013099183,-8.78386999564356,3.2869108809440677
7.42,2.867165641714529,-8.782973202930764,3.2877237769991052
7.43,2.870913221361318,-8.783486302864766,3.283078277702139
7.44,2.8742321416179597,-8.786854411761652,3.2711334144675894
7.45,2.8735056313774994,-8.793600166869265,3.2535895097822163
7.46,2.867038586263046,-8.803223875526834,3.233198647596238
7.47,2.8565229202904927,-8.815013263098377,3.2102950818228626
7.48,2.8466038779944,-8.828359535563848,3.182296152102193
7.49,2.840264460957061,-8.842565436864405,3.148323263842922
7.5,2.8358785093111254,-8.857227579632646,3.110831403845914
7.51,2.8324026600457772,-8.871988030767215,3.071684816311268
7.52,2.832389943014301,-8.88628254579612,3.0300851563090396
7.53,2.8369682878304805,-8.899830082907522,2.9857076572617958
7.54,2.843530726177069,-8.912619112139142,2.9409863670808254
7.55,2.848775540619021,-8.924550673754135,2.899455238009902
7.56,2.8523479131769047,-8.935372350296618,2.8623910346896446
7.57,2.8560310019966058,-8.944927099218946,2.8286854222112847
7.58,2.8598609296442095,-8.953771016672414,2.7966570416773533
7.59,2.8640200572632324,-8.962496810386682,2.7642592684248273
7.6,2.8704720835801467,-8.970710739021438,2.7307157492042804
7.61,2.8787720627113993,-8.977639228894077,2.6990378826168793
7.62,2.8867288177066803,-8.9835961994074,2.670575653531722
7.63,2.893720570281949,-8.989188678958334,2.6440654669410932
7.64,2.90085959651221,-8.994128809855612,2.619327781057598
7.65,2.9096851542775877,-8.998201238564551,2.595439565674236
7.66,2.920386004548456,-9.001410802474814,2.572188817432278
7.67,2.9325606198595557,-9.003621252734431,2.5505142964774414
7.68,2.9457833271818914,-9.004551851913845,2.5319329297940047
7.69,2.9600956889107968,-9.003654070441572,2.5184042539368208
7.7,2.975981246714573,-9.000904713295466,2.509492603109365
7.71,2.992079720083689,-8.997578934229622,2.5022655068032624
7.72,3.006024441726169,-8.994400378278721,2.496981023525495
7.73,3.0196645618233893,-8.990064869170117,2.4961323336338874
7.74,3.0383494460645557,-8.982753184849805,2.499762876266861
7.75,3.063073506341785,-8.97281577179695,2.505260433270583
7.76,3.087350835913828,-8.964273595926189,2.5060564239651546
7.77,3.100732768584141,-8.960950547022982,2.501436610251319
7.78,3.104966711321246,-8.961437510395903,2.4944281446040986
7.79,3.1149821324246965,-8.961958049626917,2.4800020468770207
7.8,3.133994361815828,-8.960632349145058,2.460762458355497
7.81,3.1546807511952486,-8.9569173362488,2.4478358945320298
7.82,3.1730722588770095,-8.950788276139459,2.446488391845955
7.83,3.188495151393834,-8.94285347155243,2.455432002495991
7.84,3.2036833885613647,-8.932752735190906,2.472348594942256
7.85,3.2214567324210424,-8.919525149185084,2.4968653588457186
7.86,3.2408908269225627,-8.903885624690462,2.527331300457491
7.87,3.261833784874893,-8.886569677888,2.5610982851824
7.88,3.287637514646863,-8.867164900417547,2.5951134045862436
7.89,3.3201500004061515,-8.845216833771243,2.6283880865245735
7.9,3.3557402763736324,-8.821646842856314,2.6621774630180113
7.91,3.387514681807722,-8.798356952774437,2.698776179782094
7.92,3.411644430980749,-8.777214009754077,2.7369783995094354
7.93,3.4295356377576782,-8.758580071678939,2.7740777772350818
7.94,3.4415833768777393,-8.7429977104003,2.8081307740665595
7.95,3.4453044731256472,-8.732151879498828,2.8371861978738684
7.96,3.4402133308202365,-8.726419511545684,2.8609085148931404
7.97,3.429249185121298,-8.724243270054703,2.8806442439873576
7.98,3.4157231806763613,-8.72418996245489,2.8968322903969006
7.99,3.3995343447746773,-8.72696952407091,2.907481171074757
8.0,3.3767230888114748,-8.736098777170632,2.9066170809384255
8.01,3.343139998480289,-8.754884770490834,2.8887823262140766
8.02,3.2963537663530054,-8.783600876697646,2.8550599114909008
8.03,3.235992682540195,-8.82040014893156,2.8102128537121245
8.04,3.1663516662779103,-8.860549393240575,2.762826357404357
8.05,3.094534679049211,-8.898929626820927,2.720582394666822
8.06,3.0282337398553993,-8.931958779575169,2.6868399901342945
8.07,2.9727244952842535,-8.957779406921828,2.662856752752653
8.08,2.929067795680926,-8.976347497852299,2.6487294854964802
8.09,2.894047328102622,-8.988783823588419,2.645073330871771
8.1,2.863718797924288,-8.996569892290646,2.6516047560041525
8.11,2.834954451339211,-9.00125583160486,2.666561019721542
8.12,2.8072814478018837,-9.003745745506345,2.687353519018791
8.13,2.7832989786442868,-9.003753974968623,2.7121586606340484
8.14,2.767886300000114,-8.999432698931047,2.7421041609839114
8.15,2.7659084269974343,-8.989201014974347,2.7774138841241216
8.16,2.778756299578208,-8.973291953203761,2.81574273634832
8.17,2.8043988816232557,-8.95281057453473,2.855208110330797
8.18,2.839640949081988,-8.928357493838872,2.8966101331841885
8.19,2.881728539943411,-8.900490071659677,2.9404503137104108
8.2,2.927465200662344,-8.870180787717663,2.9864830912130085
8.21,2.9738538008463884,-8.83894990996358,3.0328997055961264
8.22,3.0169597947524918,-8.808959144412539,3.0772906125601014
8.23,3.053374265786001,-8.781495993265644,3.1195992664362304
8.24,3.0848897224570155,-8.75539287172267,3.1616836674474986
8.25,3.115183643307047,-8.729371975990533,3.203658094558931
8.26,3.142145263584045,-8.704734075032437,3.2441363194745287
8.27,3.160501038858619,-8.683892255000751,3.2819676626361325
8.28,3.1675594806495306,-8.668303689204249,3.3162074080505124
8.29,3.1664456121182827,-8.657249148580513,3.3460247096488107
8.3,3.1629241322987847,-8.648870049226462,3.3709411699524363
8.31,3.160132306233166,-8.642127886593812,3.3907999094032415
8.32,3.1585768922069737,-8.637086388016767,3.405068820021552
8.33,3.1554106745442754,-8.634513059112598,3.4145187258582657
8.34,3.147453233125518,-8.634210775056468,3.42261145001299
8.35,3.134408030282733,-8.635268064410408,3.43190276842334
8.36,3.1210286662502753,-8.636988354988555,3.43976118624795
8.37,3.111238280445903,-8.638583400525802,3.4446264179050523
8.38,3.1048026928616266,-8.639408666634885,3.4483633650865646
8.39,3.1027066334969113,-8.639042175611275,3.451167177312912
8.4,3.105336673161437,-8.637918480686437,3.4516131848045615
8.41,3.110587525633444,-8.636808731803006,3.4496614358964544
8.42,3.115343516742036,-8.636234908704997,3.44680566771734
8.43,3.118454978812131,-8.63641277014278,3.443542437776158
8.44,3.1214991398468848,-8.636654374835112,3.4401774207615925
8.45,3.1266303201898102,-8.636206809255125,3.436639008371175
8.46,3.1353176280865434,-8.634611685827434,3.4327290771064027
8.47,3.1470871921796366,-8.632420174937767,3.4274665935346307
8.48,3.160109411502638,-8.63037717542134,3.420620345555848
8.49,3.17378982352447,-8.628877113460822,3.4117249790715696
8.5,3.1869805809532163,-8.628492486589932,3.4003813467825594
8.51,3.197729193960799,-8.629575340753007,3.387521431837203
8.52,3.2056247314711217,-8.631449578662421,3.3752644863773527
8.53,3.2118383990635135,-8.63345871339805,3.364200464941147
8.54,3.2164298061934513,-8.63563679160422,3.3542089626242406
8.55,3.2190030002454297,-8.638487764665603,3.3443848270410355
8.56,3.217086118553572,-8.643500459498444,3.3332544899560603
8.57,3.2097225447458193,-8.651442569437293,3.319717808303187
8.58,3.1973299726219815,-8.661927221977036,3.3042998464416837
8.59,3.1823465627773295,-8.67337606958335,3.2886982847355193
8.6,3.167183039364156,-8.684439492275835,3.2741066243271786
8.61,3.151626723503316,-8.69563291502539,3.259370874056485
8.62,3.1349523558843253,-8.708177086502594,3.2419105692426267
8.63,3.1165771079743427,-8.722686384843062,3.220544301878755
8.64,3.095378375507854,-8.73978668581827,3.1945103841431632
8.65,3.0715408304559872,-8.758831255008397,3.1652293058488055
8.66,3.0476370113607043,-8.777320776208173,3.1369972785766236
8.67,3.027126057589147,-8.793578544600647,3.1112264008901374
8.68,3.0103258564926776,-8.807291056826474,3.088667912393515
8.69,2.9949313735294396,-8.819061120025879,3.069995538393773
8.7,2.9818253159474,-8.829640418516531,3.052290773071336
8.71,2.972297675975456,-8.839690526379261,3.032424973082516
8.72,2.965843312664916,-8.85046587624032,3.0072029637037656
8.73,2.963892615434501,-8.862383733533708,2.9738342921740633
8.74,2.9669345973528123,-8.874571032713265,2.9341862806387846
8.75,2.9741726246662976,-8.88617121247576,2.8914411379467224
8.76,2.984073243294617,-8.896999111714443,2.847612302745883
8.77,2.994538803310899,-8.907215923545225,2.804360292859252
8.78,3.0033882340104747,-8.916887227425613,2.7638772624680903
8.79,3.0111565539948435,-8.925558165210747,2.7271972047896615
8.8,3.019878766588702,-8.932429750327573,2.6948696720813192
8.81,3.031338450913468,-8.937155449920263,2.666180529540264
8.82,3.0469906934445175,-8.939942246852558,2.638858001295231
8.83,3.0670101179290086,-8.941273392836477,2.6110017164059935
8.84,3.0904276889836,-8.941656345659833,2.581916995848359
8.85,3.115141797540942,-8.941483541573927,2.5526548805919513
8.86,3.1395941789079407,-8.9406596824826,2.525439350091598
8.87,3.1640526469275887,-8.938388222145933,2.502857863647063
8.88,3.1894316310775586,-8.93417698054458,2.485622075618676
8.89,3.216887044510149,-8.927349394317881,2.4747462596119107
8.9,3.2477486757761445,-8.917350685480972,2.470484092011042
8.91,3.282462475770252,-8.904754748719618,2.4700369420179316
8.92,3.3190205861327673,-8.89104780260664,2.47055718487638
8.93,3.355049973798876,-8.877120792837578,2.471976805957483
8.94,3.390268254905645,-8.863270834392125,2.4736245794553033
8.95,3.4242987995145135,-8.849420510197316,2.47633625946241
8.96,3.4552113020241495,-8.834948242316601,2.4850588683953796
8.97,3.483518825361402,-8.818901728295378,2.5024748943000175
8.98,3.513020498298306,-8.800448608436307,2.5260795098182043
8.99,3.546080545066339,-8.779881739908133,2.5513261829330305
9.0,3.5824454411192783,-8.758060226229588,2.5754131546479226
9.01,3.6202659781114157,-8.735684811972453,2.598422634460875
9.02,3.6557335503207784,-8.714348937440425,2.620319947154799
9.03,3.6854089917229205,-8.695668048538897,2.6407357015764923
9.04,3.708647550951746,-8.680677738963913,2.6574724120358266
9.05,3.7233904389316472,-8.67216325351189,2.664644568288121
9.06,3.731121051312502,-8.669057618264533,2.6639357275421
9.07,3.7325233117527445,-8.670203741970369,2.6582384532708225
9.08,3.726297389609045,-8.67687825116898,2.64516073824022
9.09,3.711776646402527,-8.688860224500171,2.6261771258858437
9.1,3.689268332959828,-8.706347064419795,2.5998415260386802
9.11,3.6586782641478135,-8.728779205928502,2.5676562097099804
9.12,3.6196403790215443,-8.754076387045929,2.5366782325426818
9.13,3.5714395707697335,-8.779591892549043,2.5167351321978857
9.14,3.521463562377285,-8.802485025378575,2.50717323640918
9.15,3.473193177471236,-8.822574230395206,2.503894219734269
9.16,3.423182249191759,-8.842944679346019,2.50090178164699
9.17,3.366755174052442,-8.865547440830522,2.4974682174843195
9.18,3.3029486758185316,-8.891311061477548,2.4910639369607277
9.19,3.2339249333116284,-8.918032614740387,2.486101285604493
9.2,3.164883085710525,-8.943765336168562,2.4825039232654036
9.21,3.0994968454384986,-8.967218325305563,2.480395508864255
9.22,3.039596843782868,-8.987031225674604,2.4828136487715713
9.23,2.9894744677454463,-9.000711374932106,2.4940971701459764
9.24,2.9540256437241457,-9.00599396650173,2.5171687765794157
9.25,2.9336418232646064,-9.002813557857841,2.5521419379089334
9.26,2.923958341921423,-8.993196491086355,2.5967589122924912
9.27,2.921352902011136,-8.979463526084741,2.6467304138490664
9.28,2.9253477789638676,-8.962269675133923,2.7000499466109917
9.29,2.9350997475352254,-8.942152324152287,2.755593888625763
9.3,2.9482332822132657,-8.92024251803976,2.8120037671595637
9.31,2.962500801935443,-8.897080589248823,2.8697878915567543
9.32,2.978557698039945,-8.872391676024288,2.9289856917833976
9.33,2.9977035762738296,-8.845292651063954,2.9907595526110815
9.34,3.0186581044415037,-8.816234093937686,3.054789894523197
9.35,3.0376525039642246,-8.786776030391797,3.1201346280641253
9.36,3.0514669526678655,-8.758357138415445,3.1858642544358755
9.37,3.058488184129004,-8.732463016439873,3.2495779590097493
9.38,3.0591779298112343,-8.710812548194852,3.3065503288057094
9.39,3.054250264482206,-8.694944582027272,3.352566320594354
9.4,3.044652960248364,-8.685703942615557,3.385103371378892
9.41,3.0298781130981993,-8.68293241344904,3.4054175087006526
9.42,3.008764929147702,-8.685137719025864,3.418487845080588
9.43,2.9813077906194283,-8.690158374319441,3.4297607502956504
9.44,2.95016304610318,-8.695774093923916,3.4424293729322497
9.45,2.9177540595668607,-8.700430731243735,3.458245122351864
9.46,2.8850826737508175,-8.703369971108526,3.4781998693091727
9.47,2.8533494554701826,-8.704655414689894,3.501085582529149
9.48,2.825337574816286,-8.704938533762956,3.523033102050479
9.49,2.7993374005074,-8.70565995525923,3.541957578121171
9.5,2.7692018356032064,-8.708440878691444,3.5587685181152358
9.51,2.730869546823435,-8.713789382337552,3.5752494303899223
9.52,2.687724573991188,-8.720668794747848,3.591126845317941
9.53,2.6471636782647407,-8.7274302054364,3.6048135484424995
9.54,2.6150780865095253,-8.732944975781821,3.614873018795664
9.55,2.594309841556581,-8.737187607621388,3.619590777421964
9.56,2.5841437424642963,-8.740627132439915,3.6185637481242567
9.57,2.580745663771396,-8.743150649674423,3.614894717963584
9.58,2.5803213245262526,-8.744881263551562,3.6110096357532697
9.59,2.5807392172031065,-8.745700720359306,3.608725822219286
9.6,2.580877113306978,-8.745364072603518,3.6094415342639827
9.61,2.580836848816867,-8.74445276443051,3.611676472117386
9.62,2.5821559383762818,-8.743687841875849,3.612587170261875
9.63,2.5858185436117025,-8.743691366573424,3.609956378264124
9.64,2.590224675945695,-8.745086847405064,3.6034107944702005
9.65,2.592513375008114,-8.748558989144994,3.5933229075269844
9.66,2.5906962834327367,-8.754063718358577,3.5812058183023705
9.67,2.584532674673144,-8.760814902802252,3.5691266159172352
9.68,2.5785442973192376,-8.768456546996582,3.5546622135446047
9.69,2.574206328657998,-8.776648823413172,3.5375451251064085
9.7,2.5690265646493535,-8.785444352897796,3.5194315811624275
9.71,2.562565088976355,-8.795544606670163,3.4988486368629044
9.72,2.5548147185311345,-8.807607655499119,3.4740770689581315
9.73,2.5452488143083074,-8.821676387594087,3.445277225074856
9.74,2.5337437833567864,-8.837320753742837,3.413509415772828
9.75,2.519359447547821,-8.854066100157858,3.380599603635083
9.76,2.501793115642222,-8.87127150754086,3.348382567213965
9.77,2.481664959381174,-8.888266837979312,3.3181571301504125
9.78,2.46071684777353,-8.904912704642221,3.2889987818833757
9.79,2.4412182763804604,-8.921310933309258,3.258953254843189
9.8,2.4236895278914568,-8.93812854515501,3.2257817889748654
9.81,2.40841681800653,-8.956020638942523,3.1873553268035058
9.82,2.396261367948908,-8.97452873787315,3.144156254343268
9.83,2.386337935880755,-8.99147390705449,3.1030337722467545
9.84,2.377574973138712,-9.004892987155033,3.0707056489093922
9.85,2.3705776254254958,-9.015228930643104,3.0456939967914862
9.86,2.3653467735200366,-9.02422092697919,3.0230515184283306
9.87,2.3606306569282993,-9.03348526066574,2.9989698896241888
9.88,2.3570616569367786,-9.043663932069721,2.9709603560636393
9.89,2.3559189685715105,-9.055401833336777,2.9358854358888444
9.9,2.355340993828009,-9.06933785975655,2.8929965599405563
9.91,2.353240484867737,-9.084558843331859,2.846571079180699
9.92,2.3513338756828013,-9.099582812378324,2.799775076296058
9.93,2.3518703313681555,-9.11336845441305,2.754119517969185
9.94,2.356217013420184,-9.124924120689426,2.711830685856893
9.95,2.363492797547851,-9.134095503118049,2.674379119688321
9.96,2.3713471980734897,-9.141755847390154,2.641054632052621
9.97,2.377455303432233,-9.149123017486419,2.6098736281106865
9.98,2.380336092024435,-9.156509060208782,2.581193162343424
9.99,2.3807577883548983,-9.163336084044698,2.556465381820452
10.0,2.38115213117783,-9.168943467985802,2.535921268779865
10.01,2.383981757301252,-9.172638590737169,2.5198562111070917
10.02,2.3916376544319826,-9.173496351346678,2.5094614552898227
10.03,2.406202364486718,-9.171294035470401,2.5035711482944247
10.04,2.426327746846929,-9.167165437544295,2.499256639326577
10.05,2.448421281779384,-9.163138990304212,2.492463795846386
10.06,2.469106161543371,-9.16060708869977,2.4813439238581614
10.07,2.48612650961716,-9.159576314090543,2.4681261857313017
10.08,2.500539312966518,-9.158880077663161,2.4561204723422163
10.09,2.51458632752369,-9.15637789197387,2.4511108286281087
10.1,2.5293721320416487,-9.152201206663399,2.451495569342092
10.11,2.545846413685821,-9.147679285855604,2.451318456073197
10.12,2.5630230352184253,-9.143376869404712,2.449468220976706
10.13,2.5776255221381184,-9.13977337511933,2.4475976751875863
10.14,2.5869859711637555,-9.136905591010038,2.4484363384461956
10.15,2.5917129813994553,-9.133862153317466,2.4547817619029835
10.16,2.5945992691882056,-9.129991756310849,2.4661000713599703
10.17,2.5963753337612774,-9.125827951642464,2.4796059202128746
10.18,2.5953679412996804,-9.122424501831755,2.49314852807506
10.19,2.5904582147433453,-9.120458778257985,2.505415624645323
10.2,2.581531210087202,-9.120360945355838,2.514965854523259
10.21,2.567918852214103,-9.122041170329355,2.5227922060825527
10.22,2.5473907557346527,-9.125851689085794,2.5297989156574427
10.23,2.517999423048278,-9.132323509010739,2.53583627176743
10.24,2.478410540957974,-9.14107019069672,2.5432730594517126
10.25,2.4290557290596215,-9.151245154930832,2.5542290511400254
10.26,2.372589153716254,-9.162869110932366,2.565572718288637
10.27,2.310623570427952,-9.176619654175763,2.5729401474779263
10.28,2.243097735899823,-9.192870929491376,2.5746447344269505
10.29,2.1705923354578744,-9.211000462870903,2.5719619351397056
10.3,2.0963498853095035,-9.229390737953587,2.5676172637521413
10.31,2.024934540482704,-9.245958443977663,2.565361408879417
10.32,1.96018650549533,-9.258996085730908,2.568678043916151
10.33,1.9036582359906298,-9.267563722831978,2.580306231615006
10.34,1.854363240297292,-9.272343153801733,2.598986538540683
10.35,1.8104795357712036,-9.274786808417558,2.6211308788086303
10.36,1.7742838202789248,-9.27468515038771,2.6461500227385466
10.37,1.7489682705881529,-9.271596650961177,2.6737031789022327
10.38,1.7340124143476383,-9.26588527911056,2.7030861179625223
10.39,1.7275822903810654,-9.257767229231057,2.734829725306179
10.4,1.729022317321557,-9.2473026038291,2.7691015483914936
10.41,1.737893600633112,-9.235040590623937,2.8042399854668183
10.42,1.7522901376422202,-9.22225913561369,2.837156441606157
10.43,1.7693392195365918,-9.210295276245333,2.865313420733936
10.44,1.7873279018565227,-9.200166391645537,2.886626224535395
10.45,1.8054289226639535,-9.192393803858101,2.900103758983404
10.46,1.824138815886578,-9.186823538049365,2.906044587508721
10.47,1.8446549316001364,-9.182602672074182,2.906431783445745
10.48,1.8652842306520387,-9.17844155795937,2.9064103826676337
10.49,1.8824867450853817,-9.17367796631599,2.910358564152878
10.5,1.8946237259642325,-9.168271022496711,2.9195069579911537
10.51,1.9028915765787382,-9.161486860440293,2.9353761338241435
10.52,1.9097018554956107,-9.15288957817263,2.957677315745011
10.53,1.916833837850791,-9.143533067797424,2.981905997868689
10.54,1.9244223569848302,-9.134911670129412,3.003375608503513
10.55,1.9323106436575361,-9.128136069724935,3.0188786715327947
10.56,1.9415678556866791,-9.12334325360928,3.027418333867114
10.57,1.9521065896684187,-9.120280345252597,3.0298724856113632
10.58,1.962890507079463,-9.118685047876417,3.027704149816188
10.59,1.9740866111752993,-9.117720892661552,3.023322539622817
10.6,1.9861329863395516,-9.116507647413986,3.019088051406878
10.61,2.0000030936965447,-9.114462809733265,3.0161030682532552
10.62,2.0175021763657077,-9.111188696474223,3.0143326167485323
10.63,2.0397315587144305,-9.106618801735554,3.0131700901195693
10.64,2.065588962886869,-9.101326761294153,3.0115398728896414
10.65,2.091733449500911,-9.096395390483343,3.0083971445059463
10.66,2.116582100221142,-9.09231632926765,3.0033459816143373
10.67,2.1420861785043805,-9.088684494288994,2.996243843006508
10.68,2.170372722191041,-9.085020889914041,2.986975132110647
10.69,2.2018636456910605,-9.081122268415628,2.975751702443793
10.7,2.2349249522570314,-9.0772072706891,2.9630198399281467
10.71,2.2666078726288172,-9.073931816362135,2.9489573734967673
10.72,2.2940655780720944,-9.07201221744954,2.933603951585988
10.73,2.314963770420065,-9.071640446215344,2.9183123221058294
10.74,2.3288356926828797,-9.072607678330154,2.9042417300238688
10.75,2.338520038591266,-9.074791588279762,2.889599658990665
10.76,2.347818753175172,-9.078202260946581,2.871279373839685
10.77,2.3566374472766802,-9.083249099789807,2.8479886176479927
10.78,2.3603547987947366,-9.090667073745575,2.8211076544931184
10.79,2.3555550024933756,-9.100833648713229,2.792184713091118
10.8,2.3435973422929295,-9.113181989327309,2.7617964810755002
10.81,2.3275112502765793,-9.12668044135616,2.730640755162813
10.82,2.309221094643859,-9.140617565819406,2.6993688242644707
10.83,2.2904099890619447,-9.154538576569067,2.6680425298798722
10.84,2.2740038192021044,-9.167854679428592,2.6361705748293813
10.85,2.2625103908806987,-9.180140125444666,2.6031014419640703
10.86,2.254393782319771,-9.19156483894728,2.5696153171566047
10.87,2.245374852906064,-9.202643114254576,2.537669252613511
10.88,2.2334111136653134,-9.213856193639222,2.507351929615348
10.89,2.2198467548925107,-9.225528651689745,2.476277033698892
10.9,2.207122756633085,-9.237579029842966,2.442489937434277
10.91,2.1965781844421954,-9.24973409844098,2.405710423884854
10.92,2.188480227669092,-9.261590099267611,2.367167884933953
10.93,2.1833295540464657,-9.27246550876273,2.329053093686112
10.94,2.1805591613664053,-9.281694408429768,2.294656894802219
10.95,2.1784642405819024,-9.289322152140262,2.2656125263492024
10.96,2.176056937726224,-9.295879338944806,2.2409073183476678
10.97,2.173557271871431,-9.301660677722209,2.2192401141176434
10.98,2.172887468408002,-9.306760108822761,2.1984156346354773
10.99,2.1755331738577155,-9.311456539769145,2.1757877218008392
11.0,2.180104244380853,-9.316413302261562,2.1498303002223804
11.01,2.182996839699287,-9.322342877134366,2.1209908214736255
11.02,2.181639132235269,-9.329343884352431,2.0914016325452174
11.03,2.1765888903909967,-9.336673172389089,2.063787505660034
11.04,2.170764228157396,-9.343296665315393,2.0398178432638563
11.05,2.1675960633650084,-9.348664121383328,2.018483297437736
11.06,2.1689093379324387,-9.352691007178969,1.9983200314572
11.07,2.1746032593584967,-9.355230118950198,1.9801699085970244
11.08,2.1835023396949356,-9.356379418547423,1.9648936231740874
11.09,2.193276694567441,-9.356905024679627,1.951463994466644
11.1,2.20088423187602,-9.357497639192912,1.9400307769553897
11.11,2.2045359498599404,-9.358161369938045,1.9326751586268949
11.12,2.205948171044597,-9.35830986112347,1.9303399746249832
11.13,2.208958510607553,-9.357035359667073,1.9330712448972434
11.14,2.2159152082210722,-9.353847095028577,1.9405167438762438
11.15,2.226767511110838,-9.348952477985291,1.951640420518108
11.16,2.239616233467438,-9.343063373177053,1.9650922304433136
11.17,2.252951867603308,-9.33698014954097,1.9787177526469053
11.18,2.266518183084145,-9.331319426554687,1.9898989213042149
11.19,2.2805959839026975,-9.32613288037502,1.998109631335093
11.2,2.297039998213034,-9.320734298112523,2.0044501286467358
11.21,2.317220923294678,-9.314630692093065,2.009574521855703
11.22,2.3390932765735504,-9.308287976438848,2.013624708912902
11.23,2.357226079500292,-9.302977734534172,2.017036061869606
11.24,2.365171955425875,-9.300570425758275,2.018847741986491
11.25,2.3569662855429034,-9.302388395124614,2.0200407213541163
11.26,2.332471307122699,-9.307417684065971,2.0252641300428946
11.27,2.2983781692834357,-9.312950286489453,2.0387428015707942
11.28,2.262693620866429,-9.316996509216644,2.0600492246711406
11.29,2.228069720616428,-9.319310627070395,2.0871246503452987
11.3,2.1926237763922467,-9.320751247184893,2.1179907910021325
11.31,2.152404789414139,-9.323071456241385,2.1487845403782813
11.32,2.103095896699964,-9.327606445351284,2.1776854245305626
11.33,2.0433396649975553,-9.334514514583635,2.2047588586255538
11.34,1.9742155620477317,-9.343648853591041,2.22887094660059
11.35,1.8983568189298867,-9.354263018215642,2.2501277402149524
11.36,1.819187042172216,-9.365769472641851,2.2675971629053304
11.37,1.7388284209970448,-9.378321746122989,2.2787299499541347
11.38,1.656323328419565,-9.392162488227802,2.283164823366859
11.39,1.570699668468703,-9.4066345465542,2.2840800329284185
11.4,1.4835282515972124,-9.420316713152221,2.2859853650880133
11.41,1.400109655207584,-9.431584507311756,2.2922061214538054
11.42,1.3296641465092134,-9.438470714461385,2.305869517031664
11.43,1.2807351752023632,-9.439557374223952,2.3290601741357997
11.44,1.2573062030284825,-9.434375633358478,2.362582940132785
11.45,1.26102844446416,-9.422977509333764,2.4056435665987888
11.46,1.287157630877352,-9.4063889006291,2.456137324821633
11.47,1.3249487156801911,-9.386272674589113,2.51232092556521
11.48,1.3645168805121317,-9.363858398743956,2.574014718636979
11.49,1.4030672020532187,-9.340271474719541,2.638195732310643
11.5,1.4411252199376419,-9.317187022160917,2.698656000765892
11.51,1.4748844956360982,-9.296533916008357,2.7511880511899376
11.52,1.495645702174567,-9.279916094449536,2.795769392839528
11.53,1.5023566529645598,-9.268089815162558,2.831204504850298
11.54,1.501452288655695,-9.260300952639401,2.8570589284847974
11.55,1.497998598021819,-9.254280313938532,2.878298075440159
11.56,1.4966872798084718,-9.247885995426163,2.899452277420203
11.57,1.498329013647609,-9.240880188918256,2.9208643927676157
11.58,1.5009817537046775,-9.233763980479749,2.9419357771797396
11.59,1.502945956401898,-9.22714126845205,2.9616466078174177
11.6,1.5033602471332086,-9.22113472007704,2.980084158819679
11.61,1.5007842851022297,-9.21549644838516,2.998764754613953
11.62,1.4944053525279135,-9.210468096588901,3.0173408708790483
11.63,1.4860185083815771,-9.205883918375255,3.0354202587212367
11.64,1.4792688220357182,-9.200834638206205,3.053972426856399
11.65,1.4779189893766915,-9.195164446057687,3.071653839595419
11.66,1.481796845772311,-9.189722967247134,3.0860405446572226
11.67,1.4873329738018741,-9.185455634564613,3.096063453026134
11.68,1.4900254641848816,-9.182789575731038,3.1026713984868093
11.69,1.4880115459090413,-9.181056553442584,3.108757768030337
11.7,1.4838076081526663,-9.178108257916138,3.1194516874319302
11.71,1.4808189487405796,-9.171992686003218,3.138787718680016
11.72,1.4829026670018615,-9.16224916696186,3.166135633692839
11.73,1.4959351463443875,-9.149885507884113,3.195618152231384
11.74,1.5238076735909385,-9.136415595879367,3.2208774514437155
11.75,1.5650829495297982,-9.124470483413655,3.2349090627200834
11.76,1.613129066196351,-9.115809443142048,3.2357338337148436
11.77,1.6574615654889262,-9.111599362465745,3.225182223285128
11.78,1.6883843702029948,-9.112753132294857,3.2058349313533436
11.79,1.7010211037759626,-9.119326000936216,3.180360999121891
11.8,1.695045164984193,-9.130730470126272,3.1506827180594827
11.81,1.6731647380723051,-9.145521676680815,3.119312887841171
11.82,1.638845615457238,-9.161339322315508,3.090986603155238
11.83,1.5972633115039456,-9.175466218863239,3.070793886974191
11.84,1.5543008063455064,-9.185920763640748,3.0615761635651664
11.85,1.5131399992903207,-9.191797599688622,3.0645562677928377
11.86,1.474565887456987,-9.19526405232812,3.0729555598817018
11.87,1.4431340866979958,-9.199104678310151,3.0763893700599976
11.88,1.424780076250856,-9.204236267076952,3.069594692745349
11.89,1.4228952209804069,-9.210536137576007,3.0515073354781816
11.9,1.434086939070125,-9.217463837201795,3.025232531102331
11.91,1.4504225761809681,-9.225558345617932,2.992590886457033
11.92,1.4626869455861424,-9.23494851737694,2.9574568412498454
11.93,1.4635683259744288,-9.24601442197178,2.922229945686508
11.94,1.451353723698461,-9.259356792019924,2.885856871561425
11.95,1.4304288059418264,-9.272743834902013,2.8531418793442436
11.96,1.4034316927524138,-9.282503095246181,2.8347573054467516
11.97,1.3722308522301698,-9.288621693765219,2.8299847306728507
11.98,1.3414147184093843,-9.2939346677724,2.827313772154812
11.99,1.3127879738349586,-9.300541493334434,2.8190164859481026
12.0,1.2894095433249007,-9.308564599157485,2.8032848523202816
12.01,1.2804592159447712,-9.316806803579663,2.7799053775583547
12.02,1.2948098083211197,-9.322612103393627,2.753669575619925
12.03,1.3240441107153038,-9.324376193856157,2.733726594358042
12.04,1.3600657495706374,-9.322608913492894,2.7220384506722692
12.05,1.4046916328467807,-9.317219791645158,2.7178173685990337
12.06,1.455487426178619,-9.309814375238922,2.716472261246923
12.07,1.504110472292509,-9.302521910094068,2.714972599617351
12.08,1.5433549666716828,-9.296280028075707,2.7143314781666166
12.09,1.57180833719514,-9.291160090725587,2.715535536521578
12.1,1.5885682913081876,-9.287939366862352,2.716804694861444
12.11,1.5966899513643267,-9.285834645987686,2.719234966905856
12.12,1.6010105454555417,-9.284141409605873,2.722473413003496
12.13,1.605526764760446,-9.28297827419851,2.723783967761515
12.14,1.6103876648311009,-9.282517630278468,2.722483524519779
12.15,1.6140329750752669,-9.282460104752719,2.7205197776031698
12.16,1.6174489975807207,-9.282454278594011,2.7185094615403944
12.17,1.6236417595235868,-9.282040790801732,2.7162296040375202
12.18,1.6326405873237517,-9.281813469344288,2.7116092023129434
12.19,1.641448107105115,-9.281939739745244,2.7058486679834477
12.2,1.6486756919060161,-9.282080026673333,2.700973767679645
12.21,1.6546861960448283,-9.281697475693981,2.6986097477884163
12.22,1.6593766918277149,-9.280233219443591,2.700765776328965
12.23,1.6640946237738505,-9.27710884128814,2.7085832146397637
12.24,1.6700971428834162,-9.272551623651035,2.720466670642392
12.25,1.6768712081604877,-9.267309132999268,2.734125834710348
12.26,1.6826784687960301,-9.261890159517497,2.74887968553969
12.27,1.6861331281173546,-9.25660411236577,2.7645274425375796
12.28,1.686343517169171,-9.251331931165575,2.78199036508519
12.29,1.6841828912462256,-9.245881992156773,2.8013552310303553
12.3,1.6809542059252294,-9.240362886817529,2.8214281598818673
12.31,1.6790387145642762,-9.234724896213894,2.840961983011031
12.32,1.6804707625990254,-9.228849988856565,2.8591482823584027
12.33,1.6828573365142294,-9.223283714569892,2.8756570519104274
12.34,1.6826555588369032,-9.219082911440944,2.8892108574817144
12.35,1.673524551624316,-9.217923536946328,2.8982019974297875
12.36,1.6509124005329805,-9.221196307434044,2.900753499495255
12.37,1.6143623338944395,-9.228341496669817,2.8985945235889523
12.38,1.5685881143453948,-9.236927615415697,2.8963642655902384
12.39,1.5192072008960216,-9.245118452654257,2.8965497928217623
12.4,1.463940243467076,-9.252629852371255,2.9010090162440902
12.41,1.4033339307562083,-9.259380432975393,2.909401305796814
12.42,1.3403887609934815,-9.265266730070817,2.920318042624297
12.43,1.2780376602923416,-9.270663615927589,2.931124788490669
12.44,1.2187846864977818,-9.27654470755781,2.9377530447000617
12.45,1.1633788665755498,-9.284077509337594,2.936420594327694
12.46,1.112395651726449,-9.293683537009464,2.925774394039482
12.47,1.066740814681381,-9.304601209399996,2.9080272428022553
12.48,1.0258854764593532,-9.315894781265074,2.8864937833917668
12.49,0.9891324219259743,-9.32704804964422,2.863212075407098
12.5,0.9591196646022648,-9.33639703717589,2.8428898734123305
12.51,0.942079998189908,-9.34089875086661,2.833806613335278
12.52,0.9456585608663903,-9.338670097365409,2.839953576623292
12.53,0.9756187196226146,-9.328409200339596,2.8634097632527467
12.54,1.0322934858138901,-9.309426050301289,2.9049444801956485
12.55,1.1108385715000813,-9.282361676080491,2.9619222786828274
12.56,1.2053416618210009,-9.248084289809556,3.031283984120757
12.57,1.3091964488661338,-9.207577688144841,3.1104106038009944
12.58,1.41636079051382,-9.16356085251774,3.1923414047268412
12.59,1.5199923475113852,-9.12007837263541,3.268330349136474
12.6,1.6112563150440014,-9.081152870727797,3.332453430576856
12.61,1.6839797727450305,-9.050303855457553,3.380176440781089
12.62,1.737258413556314,-9.029265112441522,3.4094291125687963
12.63,1.7762764108046183,-9.01755634537609,3.4203377383184623
12.64,1.8066487548862435,-9.013521651253583,3.415070956542617
12.65,1.8308464174052304,-9.015056686715734,3.398088330453692
12.66,1.8517179384785694,-9.020007791518402,3.3735479188630317
12.67,1.8729215976722535,-9.026091722620311,3.345450916623825
12.68,1.8959206306284968,-9.030951861409957,3.3192796740380364
12.69,1.9206370327893048,-9.032320917180549,3.3013009083884417
12.7,1.9466254532452032,-9.02863987693448,3.2961482836424363
12.71,1.9744362568666993,-9.019837550257643,3.3036923391076742
12.72,2.0045668480955716,-9.007178342032464,3.3200324609887084
12.73,2.0343804375747556,-8.992957168557792,3.3403855490978516
12.74,2.0583535073855384,-8.9807614505606,3.3584761759906527
12.75,2.070221910162067,-8.973574588141537,3.3703842083939954
12.76,2.067000082955118,-8.972674815037054,3.3747557537381345
12.77,2.0460609706801893,-8.978657895413962,3.371586071919694
12.78,2.0082883615673834,-8.990177006680584,3.3635619345531107
12.79,1.960053875302354,-9.004687005820454,3.353165663889345
12.8,1.910215638416698,-9.020265368436867,3.3400312997033197
12.81,1.8649386303017275,-9.035411571205117,3.3246568455821346
12.82,1.8263884111836601,-9.049084299882637,3.3088466172172524
12.83,1.7941883119600714,-9.061095144285407,3.2935706641195934
12.84,1.7698332534622356,-9.071334926619766,3.27853897190253
12.85,1.7579964020027312,-9.078784309694921,3.2642697956379596
12.86,1.7620224747939237,-9.082087127981394,3.2528943801880903
12.87,1.7810111862288078,-9.080650953360216,3.246544063046809
12.88,1.8121880496177611,-9.075001243709728,3.245070755550306
12.89,1.8528796343632694,-9.066484138435259,3.245879449902369
12.9,1.9012949462039452,-9.056862636001416,3.2447205849569634
12.91,1.9569295109394078,-9.047918598689703,3.236559395571503
12.92,2.0165186055068034,-9.041082325800378,3.219019209644068
12.93,2.0700728573682183,-9.038005359890468,3.193587496062223
12.94,2.099685241584688,-9.04330656869263,3.1591051673227506
12.95,2.0888509219880573,-9.061263136559237,3.1144804380192914
12.96,2.0436222426926043,-9.08799418898127,3.0661326148311296
12.97,1.9806884465619377,-9.116382822590328,3.022823049745798
12.98,1.907729437029355,-9.141592096658632,2.9934722979843302
12.99,1.8310809965629615,-9.160459205998706,2.9836685186847682
13.0,1.7602922932967835,-9.172972391400878,2.9878725865308686
13.01,1.7013243575940586,-9.18393886134774,2.988395986668413
13.02,1.6565005678884606,-9.196718037970314,2.974277149830722
13.03,1.627427537888245,-9.210480844697097,2.947636303694786
13.04,1.6137665701110475,-9.222474149206482,2.9175102999857727
13.05,1.6139483453237522,-9.231155603309048,2.889836048838453
13.06,1.6258211574603159,-9.235848873661384,2.868107598931774
13.07,1.6441853891840992,-9.23683997233658,2.8544199407999025
13.08,1.6623520117741923,-9.235602040341151,2.8479056342806275
13.09,1.6731192951970937,-9.234174165165545,2.846239373832527
13.1,1.6714416461347275,-9.234539542004553,2.8460362531076218
13.11,1.6585072188417533,-9.236883787041439,2.84598922660003
13.12,1.642475782423992,-9.239939401583207,2.8453670564636058
13.13,1.6326392181594465,-9.24287921145081,2.8414850358226476
13.14,1.6334847072507481,-9.245372610664262,2.832870298110733
13.15,1.6449950048914315,-9.24695358401775,2.8210164008845773
13.16,1.6632850379512232,-9.24797586660087,2.806895624748792
13.17,1.6831486625542988,-9.249030395568662,2.791538462563966
13.18,1.7033248196162964,-9.249631970995459,2.7772738874128895
13.19,1.725536006581949,-9.249343991690488,2.764490101617446
13.2,1.7491953451632782,-9.24867077927711,2.7518439277463673
13.21,1.7724609570202827,-9.247576190583256,2.7406143735096222
13.22,1.7972165736054704,-9.244920769174591,2.733436287915675
13.23,1.8257503031199602,-9.240202968939478,2.7304676958615284
13.24,1.8563640177792933,-9.23379964424679,2.7314876846957308
13.25,1.8863669384128852,-9.226222837092298,2.7365300888277715
13.26,1.9133524753368367,-9.218377213662212,2.7442337530721588
13.27,1.9335720680314812,-9.21146797660419,2.753261492050238
13.28,1.943225127424954,-9.206270781108985,2.763835660003759
13.29,1.9407782784082346,-9.202786708703792,2.777123169919335
13.3,1.9291915902407395,-9.200428887845753,2.792955083245214
13.31,1.913235630748177,-9.199113489784049,2.8082211924128324
13.32,1.89361538349792,-9.200017227970395,2.81854021529629
13.33,1.8682187520351354,-9.203673770115495,2.8235329771719724
13.34,1.8375989453048207,-9.208303152748952,2.828517021668225
13.35,1.807910114155819,-9.21085785196101,2.8393153731345504
13.36,1.7875802408950654,-9.209318062949176,2.8571396395742092
13.37,1.7794995977227814,-9.203651715146863,2.8803477478795263
13.38,1.7777118713541837,-9.197046650792327,2.902473757878121
13.39,1.7631461252074065,-9.197515336766468,2.909859579939465
13.4,1.7077240859519993,-9.213200961876458,2.8929668337144236
13.41,1.6038001404284794,-9.242148640990106,2.859481735742886
13.42,1.4735462864481785,-9.272585017528513,2.830795890483339
13.43,1.3452162986908245,-9.294630407196792,2.822561020077873
13.44,1.235461339274338,-9.305566116926343,2.836875410600541
13.45,1.1476749955012364,-9.30624770923614,2.8714107876050714
13.46,1.0770252099505704,-9.298513611829863,2.9233804018895317
13.47,1.0154630608958204,-9.284765468046968,2.9883505434731785
13.48,0.95512666243321,-9.267220128618634,3.061747262637926
13.49,0.891734034103489,-9.247960083077862,3.1381275865631424
13.5,0.8278974169866103,-9.229393491240295,3.2095298277408277
13.51,0.7689279104993751,-9.21435153248269,3.267020415309345
13.52,0.7171521985375547,-9.204414987073415,3.3066566409055707
13.53,0.6706806685980126,-9.199763891247786,3.3293175171560825
13.54,0.6255652142716377,-9.199846192717747,3.3378683766806154
13.55,0.5798023605764339,-9.202955565236513,3.3375594868178307
13.56,0.5332828207135205,-9.207638862207462,3.332390321720064
13.57,0.486840829510323,-9.212987177215256,3.3247073777804177
13.58,0.4449828717190696,-9.216815599590472,3.319986319645753
13.59,0.41714145321232327,-9.2164079940358,3.324768581219123
13.6,0.4156148267392586,-9.209931066021074,3.3428440537414152
13.61,0.4561814833911799,-9.19543543317937,3.377077966296808
13.62,0.557931946931079,-9.171146959665137,3.4268813659657815
13.63,0.7331216917360838,-9.135239017450502,3.4881936391594945
13.64,0.9536261842262703,-9.085193486757328,3.56432590729869
13.65,1.1568317038405205,-9.026918138613865,3.651841792520363
13.66,1.290995184527789,-8.972873608762622,3.7398777376564443
13.67,1.337023695289746,-8.932904241614766,3.8189618340199365
13.68,1.3122284522991632,-8.910920898168785,3.878485881778965
13.69,1.245997578505417,-8.904303722142346,3.915280618680335
13.7,1.1550502020361806,-8.909076178846396,3.9321747487787015
13.71,1.0540491557916378,-8.922718986204686,3.9296011286187826
13.72,0.9590439530391376,-8.94359130762344,3.9064539688781528
13.73,0.8791781322503444,-8.969333727025166,3.8660683683161663
13.74,0.8197151236625828,-8.99578776938737,3.8174478491377135
13.75,0.7819606938099716,-9.016409885766745,3.776610646102412
13.76,0.7633445682145346,-9.024319656687652,3.7615578912197374
13.77,0.7641122697665907,-9.016106371790533,3.780987766002844
13.78,0.7886680877917501,-8.994067912437375,3.8280206321080095
13.79,0.8364423910718995,-8.96615660844455,3.8829198731131243
13.8,0.8974189542619477,-8.939866805767323,3.929660069837309
13.81,0.9628372968451352,-8.916439550780723,3.9672273942062986
13.82,1.0350015076064194,-8.894467013779385,3.9982228053898825
13.83,1.1218531794912834,-8.872903773212954,4.022539537597389
13.84,1.2262653789418716,-8.851318137872374,4.039493055536697
13.85,1.3408333638003747,-8.830727439545702,4.048129992567045
13.86,1.4535157957608291,-8.811788218496085,4.050567051899852
13.87,1.55384336612366,-8.793906039667066,4.052293155298334
13.88,1.6347112521620029,-8.777263754794197,4.05666545876711
13.89,1.6925152584159695,-8.764174736211444,4.061343251662216
13.9,1.725343853505465,-8.757390056403098,4.062214703652427
13.91,1.7341428333110709,-8.758665960837632,4.055718576802811
13.92,1.7225664529693987,-8.769276715296344,4.037646846786101
13.93,1.6936022168942755,-8.789371895858851,4.006012501296501
13.94,1.6511993741683202,-8.81641293218978,3.964024507706538
13.95,1.6018088005284254,-8.846209579328287,3.9176215627775353
13.96,1.5504443361299904,-8.875238864040888,3.872386479473453
13.97,1.500288143135614,-8.90063131663186,3.8337111125266805
13.98,1.453506057116337,-8.920653769583414,3.8051253756381027
13.99,1.4094844567616642,-8.934122499448979,3.7900827515769446
14.0,1.3689825443685164,-8.941368877652248,3.787855276262285
14.01,1.3336381114168587,-8.944729608751741,3.792537528928168
14.02,1.3035649577604937,-8.946020786973751,3.799951233669717
14.03,1.2802880382648898,-8.946329372992892,3.807149730665358
14.04,1.268044418541514,-8.946912107137422,3.809884440314483
14.05,1.2691400604920982,-8.948612007694617,3.805517637776572
14.06,1.2831405827115312,-8.95119092809064,3.7947272907663057
14.07,1.307568615094765,-8.953745968081082,3.780323904266661
14.08,1.3382994710771152,-8.954370694963744,3.768065290408255
14.09,1.370875173605501,-8.952843808462333,3.759975604119084
14.1,1.4038005080088811,-8.950139565112515,3.754259878803473
14.11,1.4375837530460083,-8.947135783187495,3.7486290878989696
14.12,1.4722794919722335,-8.944357551418172,3.7417851130125017
14.13,1.507078795999315,-8.942243235307663,3.7329753500589664
14.14,1.5401055729818642,-8.941794432473833,3.7205505963967136
14.15,1.5693096417148336,-8.944413291470203,3.702004217880013
14.16,1.593523567360498,-8.950643987789302,3.6765122387504423
14.17,1.6137467390449256,-8.958410124382963,3.6486746359578137
14.18,1.6323070006431821,-8.966138977662913,3.621335167862482
14.19,1.6489541228524345,-8.973643191704953,3.595121864645992
14.2,1.662625816364982,-8.98008504933014,3.5726764056543887
14.21,1.6729507715487015,-8.986254505644277,3.5522868370953327
14.22,1.6767428106686082,-8.993057745351633,3.533236221631028
14.23,1.6733705955447147,-8.999360673014568,3.5187621894075893
14.24,1.6668138921507545,-9.004392828840047,3.5089881029587313
14.25,1.6603621276612013,-9.009063157330427,3.5000492435228225
14.26,1.6543360605878457,-9.013278217187588,3.4920445839961585
14.27,1.6493648492981334,-9.016297563303635,3.4865966029265847
14.28,1.6465696092959021,-9.017837062335188,3.483936631146633
14.29,1.6454169457141423,-9.017711507885371,3.4848053331253785
14.3,1.6450368555596926,-9.016198955099748,3.488896954723873
14.31,1.645848385902966,-9.013431825276042,3.4956547351269465
14.32,1.6490464151784454,-9.008720049815706,3.5062726350612112
14.33,1.6577180291298228,-9.001651328901309,3.5203014614435304
14.34,1.675046559077302,-8.992461083443798,3.535542062638317
14.35,1.7009432117287497,-8.981130200085113,3.551927482236528
14.36,1.732479834019946,-8.967777837575815,3.570365584274447
14.37,1.7663980545813176,-8.953903426127834,3.5885248345055425
14.38,1.7991632122879466,-8.940708663266282,3.6051117593265696
14.39,1.8278598439426406,-8.927927707758702,3.622318661734371
14.4,1.849672544675347,-8.915753337458021,3.641192574314696
14.41,1.8629094163095226,-8.9046524414918,3.66155911549189
14.42,1.8666925433050545,-8.89541854362499,3.6820238489239325
14.43,1.859035576958469,-8.88922677316087,3.7008007877685194
14.44,1.8398315173993152,-8.886501312163148,3.716898762529272
14.45,1.811102141045069,-8.886131397910512,3.731849043505722
14.46,1.7750316661349697,-8.886839890695668,3.747443363791085
14.47,1.730092450865294,-8.888913920535071,3.7634841487731454
14.48,1.6744338772959886,-8.892624433490266,3.779831001258239
14.49,1.6103463668743854,-8.897534801687307,3.796071989328015
14.5,1.5419450393733591,-8.903036841588328,3.8115356574096717
14.51,1.4717812665590635,-8.909339669081909,3.824525473069384
14.52,1.4001979515764087,-8.916999470081524,3.8335371166323142
14.53,1.327742073117273,-8.925145478720177,3.840362240946953
14.54,1.2578980367372155,-8.9322462937308,3.84737620773671
14.55,1.193669069003587,-8.93742444608018,3.8558254163603625
14.56,1.1353947587147857,-8.940348065422224,3.8666415480004446
14.57,1.0821644844077052,-8.94091339936514,3.8805836401911984
14.58,1.0351495642186153,-8.939117185176828,3.897527953548063
14.59,1.000610110657917,-8.932961633044787,3.9206027102212815
14.6,0.98709441708951,-8.919911764406923,3.9535905814581485
14.61,0.9965057413765623,-8.900430798990332,3.9948916860095385
14.62,1.024844202236906,-8.87571918481179,4.042380052558205
14.63,1.0695975071942614,-8.845551663172177,4.096502265875094
14.64,1.1292635084601792,-8.809763965566328,4.157113225726748
14.65,1.2007851736268098,-8.76939902171376,4.22188368813427
14.66,1.2784872296115417,-8.725943333942345,4.288580633045467
14.67,1.355383079276352,-8.68142818254451,4.35482411445152
14.68,1.4266867337885365,-8.638172051868695,4.417649331381385
14.69,1.4909066769400527,-8.59894514690038,4.472675469496281
14.7,1.546200031249604,-8.566384300593635,4.516210137519433
14.71,1.5949038006060166,-8.542328021627613,4.544770230827245
14.72,1.6396833499170627,-8.526310476892013,4.558900324623111
14.73,1.682728627341009,-8.516506356498088,4.561546434434005
14.74,1.7230452261845728,-8.510999059065131,4.5567795566235745
14.75,1.7578238443225758,-8.507127576729957,4.5507260925389605
14.76,1.7860741909668523,-8.502694220238858,4.548013965585192
14.77,1.8091745984648062,-8.495249333482601,4.55279424000453
14.78,1.8304083040657992,-8.483144956927342,4.566850836631462
14.79,1.8509472487657517,-8.46725141881028,4.588017126824495
14.8,1.8678094892301935,-8.450471536079062,4.612057977166482
14.81,1.8793528054334778,-8.434089531123181,4.637287321525567
14.82,1.887906390548982,-8.419180603177018,4.660853272101479
14.83,1.8940838216973306,-8.408666480816942,4.677302249871993
14.84,1.891477176804496,-8.405625109165369,4.683815114564203
14.85,1.8730012930359294,-8.410992104241137,4.681596108515857
14.86,1.839166273570053,-8.4235821506661,4.672350176361712
14.87,1.7950544221098381,-8.441325170908494,4.65745214232859
14.88,1.7441475386349508,-8.462096793338533,4.639061492394852
14.89,1.6882722956265102,-8.48393305643361,4.619807819107753
14.9,1.631872566514916,-8.506111728913933,4.599252776543875
14.91,1.583480474821396,-8.52708607955284,4.577289885905927
14.92,1.5502408514147756,-8.545426534826772,4.554420312104568
14.93,1.5373533418321512,-8.560405578426847,4.5305970568882845
14.94,1.5480388131155864,-8.571812877760664,4.50531339021911
14.95,1.5792980709182813,-8.580020860310366,4.478756143269058
14.96,1.6213751832036976,-8.585572321681674,4.453011153972572
14.97,1.6646817488312566,-8.589081222134118,4.430211045867778
14.98,1.7022940588771796,-8.592235298886068,4.409758644038469
14.99,1.731173157760691,-8.598523799302265,4.386197953009867
15.0,1.7519354624725723,-8.609057322787246,4.357194142413815
15.01,1.765009567692739,-8.625046828404543,4.320134135027771
15.02,1.7665923931092609,-8.647907459190149,4.273528399254185
15.03,1.7552395847779871,-8.675367402858301,4.222242077580282
15.04,1.7373980579266595,-8.703739559574153,4.170918208234381
15.05,1.7197730650864027,-8.731481593448482,4.11992975377207
15.06,1.7042775815339053,-8.758534928664718,4.068623682497116
15.07,1.686459147669132,-8.785655279722734,4.017254147668795
15.08,1.6614037658607044,-8.813312813023092,3.9667971863657283
15.09,1.6310580368362093,-8.840601697065402,3.9183762932048722
15.1,1.5990541140734107,-8.866504325070418,3.8727765148690327
15.11,1.567064599025445,-8.890445016990743,3.830743198585158
15.12,1.5354211461474585,-8.912598102022098,3.7918855555167665
15.13,1.5040524417639518,-8.931553041131794,3.7597243325541094
15.14,1.4765502630476206,-8.947817346876185,3.7318494612448636
15.15,1.4573522398651095,-8.963325804278961,3.7020652859876617
15.16,1.4461835933475102,-8.9785854469297,3.66932185733845
15.17,1.4416445666680457,-8.993583845418893,3.634212122247768
15.18,1.4415361001981393,-9.007655262922336,3.5992344974233665
15.19,1.4439096603161874,-9.01969413507544,3.567998851962162
15.2,1.4457145164440743,-9.02868986892654,3.54444163441562
15.21,1.4461710836299333,-9.034685060136857,3.52894500414897
15.22,1.4468518238037174,-9.038352250508767,3.5192617395941084
15.23,1.4475722409628031,-9.039513822136948,3.5159799450003826
15.24,1.451558222576215,-9.037580308546808,3.519302548239744
15.25,1.4631600409157284,-9.033426694101772,3.52515482963184
15.26,1.483059457961733,-9.028768643515301,3.528773133249882
15.27,1.5111123395015398,-9.025322864032816,3.5256859488364523
15.28,1.5446137144310725,-9.024325069279273,3.513697109680845
15.29,1.5793081870691494,-9.02580321944217,3.494421896502343
15.3,1.6091391862589104,-9.029062200163711,3.4723272426667826
15.31,1.630446449994956,-9.032902049000587,3.452343331198854
15.32,1.6434353218377937,-9.03473554395331,3.441373623284948
15.33,1.652659188689551,-9.03276363653267,3.4421356606548934
15.34,1.6616755906780127,-9.027582128523159,3.4513711505893476
15.35,1.6680957429086154,-9.02022055545231,3.467486883722155
15.36,1.6708183511241421,-9.011960738183125,3.4875914663515593
15.37,1.6691357700759069,-9.00464328669835,3.507245081455235
15.38,1.6616197199975522,-9.000007877199694,3.522674085171253
15.39,1.6478025309513484,-8.999128870521009,3.531400996266392
15.4,1.627161527279601,-9.00193945786881,3.533806545900524
15.41,1.6000710648964378,-9.006979292863928,3.5333322922624757
15.42,1.5659488052992518,-9.013218613648661,3.532707897874178
15.43,1.5237335595050716,-9.020622493367522,3.5322604274177083
15.44,1.4699498613303426,-9.029501128344997,3.532355890374843
15.45,1.4023248674390745,-9.039376580806584,3.534566539632883
15.46,1.3248811254367285,-9.048838177598197,3.540213212566813
15.47,1.2441010648291881,-9.056911334068475,3.5488606690798328
15.48,1.1633585376670597,-9.062617545194708,3.561657385240946
15.49,1.08554744098219,-9.064932996265147,3.5802833426194782
15.5,1.015145873440289,-9.062586102369051,3.6067865431311175
15.51,0.956867825670031,-9.05579837197258,3.639628757408784
15.52,0.9100378190654167,-9.046162026169805,3.6754373202344106
15.53,0.8654368532899631,-9.035566138762787,3.7120898537059954
15.54,0.8122393237201592,-9.025649394730102,3.748050609518008
15.55,0.7455717705541172,-9.015858149545563,3.785260139701553
15.56,0.6685818624487924,-9.003746526741645,3.8281933918072113
15.57,0.5875423231361584,-8.988763197871037,3.876380568139058
15.58,0.5076674542830756,-8.971580807027486,3.9271354370369993
15.59,0.43461693602965507,-8.951917671853877,3.980413025122498
15.6,0.3715253669484439,-8.930182269648753,4.035262614202873
15.61,0.3164662997475131,-8.907587136336062,4.089543684565396
15.62,0.264912195025774,-8.884810429145983,4.142417958327971
15.63,0.2148659625896869,-8.863279713307392,4.191160041399829
15.64,0.16858247649251754,-8.845820597251329,4.23000729694755
15.65,0.12857483178865672,-8.834415562486392,4.255194673762349
15.66,0.09834125925989634,-8.828565814307174,4.268140368741394
15.67,0.08366376821269159,-8.825830687245228,4.274117935771326
15.68,0.0901387651356139,-8.821854118262893,4.282186336310779
15.69,0.12324425982782605,-8.81239235838836,4.3007760400819945
15.7,0.18563267297934993,-8.795090034031668,4.333761371959202
15.71,0.2726521735612303,-8.770441370926648,4.378794985296709
15.72,0.3743107593740114,-8.740041519686418,4.431689099779479
15.73,0.4808832812552293,-8.70612033512633,4.48779569291237
15.74,0.5862332806158201,-8.67001386290645,4.544808023619767
15.75,0.6883613474673644,-8.633338874897383,4.599982186329587
15.76,0.7863954555557403,-8.59788877251934,4.6504092828854215
15.77,0.880291477608631,-8.56485800991024,4.694350669878586
15.78,0.9687727928507336,-8.534916366576995,4.7313383240476625
15.79,1.0498323354153216,-8.510176916154556,4.758566562297528
15.8,1.119154479703612,-8.494043449631146,4.771620588230877
15.81,1.1703039580359622,-8.488023958352716,4.770100742988672
15.82,1.2008429680821449,-8.491171676976785,4.756912701976389
15.83,1.2126372436531319,-8.499935811345646,4.738236514132201
15.84,1.2080344078366048,-8.511288508029574,4.718994173637841
15.85,1.1927456377335492,-8.523386107128642,4.701010835035395
15.86,1.1789743136842004,-8.534664282562664,4.68399558782394
15.87,1.180270169198194,-8.544467136582938,4.665763677336972
15.88,1.1978835089527338,-8.554766814761527,4.642329700467453
15.89,1.2234229729463477,-8.565790783761953,4.61525570926389
15.9,1.2476944515962367,-8.575869577059581,4.589976379338772
15.91,1.2666271322613576,-8.582906420436053,4.571614251697459
15.92,1.2815426073328287,-8.5870558995359,4.559653045133654
15.93,1.293537860896101,-8.590891243492333,4.549032145623197
15.94,1.302636223298461,-8.596515005031033,4.535792037846781
15.95,1.3148631039628933,-8.604515622649735,4.5170464099261505
15.96,1.3394392685146075,-8.61589845584678,4.488007901091658
15.97,1.3744545104783932,-8.632284307120363,4.445695955825589
15.98,1.4071761086084795,-8.653936798215163,4.39303409446494
15.99,1.428531011150222,-8.678352961755573,4.337635601810401
16.0,1.4402096690568091,-8.702070717762014,4.285967854982543
16.01,1.4479513002216422,-8.723832002829347,4.238875604577646
16.02,1.4539708299873773,-8.743632907266269,4.195808356228588
16.03,1.4571529396949523,-8.761801387601285,4.156627670720503
16.04,1.4576846029736346,-8.779218831935536,4.119526841216326
16.05,1.4570307073811433,-8.797016307364354,4.081614729456834
16.06,1.4562092364043533,-8.816374247010605,4.039915981394905
16.07,1.455477730892045,-8.837608772641948,3.993505515301946
16.08,1.453201322632826,-8.859646339675049,3.945206871902559
16.09,1.4471790493879402,-8.87975894794784,3.9019861241539395
16.1,1.4356492826726968,-8.89586784472408,3.8694400309058135
16.11,1.4167971568994648,-8.908583030280463,3.8470790450562213
16.12,1.3871539093211278,-8.919905795575156,3.8316002959309374
16.13,1.3465304862178913,-8.931614260249308,3.8187739858881202
16.14,1.3019945626409024,-8.944655356542183,3.8036577364407775
16.15,1.2621485288672833,-8.958462463747042,3.7845579686900757
16.16,1.233053894859717,-8.971462296964432,3.7633178789580537
16.17,1.2179892899012505,-8.983795273299561,3.7387317763116608
16.18,1.2177864109285779,-8.99580008185448,3.709817767004727
16.19,1.2272004505365308,-9.003965697644196,3.6868475027176983
16.2,1.2400803954811899,-9.005591457980946,3.6785677705124193
16.21,1.2560248808495664,-9.002768641035518,3.680064875818192
16.22,1.2733963391967196,-8.998476369568785,3.684589274304685
16.23,1.2893354286622962,-8.994316695104098,3.6892037283839727
16.24,1.3032944986759474,-8.989894761903836,3.695070784603306
16.25,1.3185044671357333,-8.983585551465355,3.7049968802679274
16.26,1.3368510978453791,-8.974953925467913,3.719307147589259
16.27,1.3558908372269292,-8.965055987877642,3.73624675420894
16.28,1.3716038271502484,-8.956013448894574,3.7521733537773385
16.29,1.3801514437297764,-8.950350444995665,3.7625499335480415
16.3,1.380104445592438,-8.949284428463457,3.76510256180171
16.31,1.37107063556301,-8.951935937352076,3.7620940319125076
16.32,1.3542354830729872,-8.956210102952845,3.7580106247482155
16.33,1.3343611178800616,-8.960365554513338,3.7552132133676897
16.34,1.319529098613046,-8.963251930450387,3.7535738866218
16.35,1.3168123783305241,-8.963598361974068,3.753703107651085
16.36,1.3299544396505396,-8.959207424383365,3.759531144285025
16.37,1.3586706768954306,-8.948859952181696,3.7738433952191195
16.38,1.4005902927539142,-8.934380232709268,3.7927429302402347
16.39,1.451132052321568,-8.917459078856732,3.813482695576699
16.4,1.5055673294451504,-8.89871374763011,3.836089871697485
16.41,1.560727410661521,-8.87793270273846,3.862098035418529
16.42,1.6158240783542073,-8.853821409543885,3.894630796169625
16.43,1.669307328579354,-8.825884105516463,3.935255636642024
16.44,1.717173436858147,-8.795642319955181,3.9820957883531536
16.45,1.7573534913765134,-8.764967412297091,4.031906286553847
16.46,1.7903891158322562,-8.73540029016919,4.0812578563129005
16.47,1.8157758933501393,-8.7089501530503,4.1263556701466015
16.48,1.831056865598372,-8.68717805733718,4.165346233165693
16.49,1.835513881963952,-8.66956516583473,4.199950269982705
16.5,1.8319688154360494,-8.65561971681485,4.230164254679869
16.51,1.821259525642619,-8.646989758505592,4.252391401258088
16.52,1.7979669769040472,-8.64558889495042,4.265120633889238
16.53,1.7588462102970561,-8.650686042388061,4.271060045462879
16.54,1.708507392089603,-8.659142139290442,4.274332297751513
16.55,1.6530245569790873,-8.66846652156681,4.277237341251631
16.56,1.5961605007424886,-8.677523041112996,4.280469993570291
16.57,1.540540627884305,-8.685757482047038,4.284153830953516
16.58,1.4880343392007744,-8.692965452865609,4.288104243304829
16.59,1.4401012962982185,-8.69859083080497,4.293074380189757
16.6,1.3980114559903694,-8.701460134218195,4.301179814589596
16.61,1.3625943456607612,-8.700922493672335,4.313627006097838
16.62,1.3344581449242399,-8.696415526924367,4.331478064712382
16.63,1.3142147682656058,-8.68711514901518,4.356255152534842
16.64,1.304426759801971,-8.672519204446841,4.388154156521074
16.65,1.3077665238268843,-8.653502548490007,4.42453964605375
16.66,1.322679744366469,-8.632593203956855,4.4607970538792845
16.67,1.3445581672462572,-8.611773838927473,4.494372006644857
16.68,1.3706683509686186,-8.590405839668508,4.527247937191205
16.69,1.4026056140058045,-8.566662508492097,4.562297653817262
16.7,1.4431194494445572,-8.540080450102401,4.599321957191781
16.71,1.4916837426562295,-8.511014214490537,4.6375241998320975
16.72,1.5453184041358194,-8.48028422605142,4.676086356979637
16.73,1.601218288138903,-8.449859623078813,4.712223898535577
16.74,1.6568166752455213,-8.421660303844037,4.743400535233612
16.75,1.7093703265139446,-8.396963959755979,4.768495952549124
16.76,1.757662542501439,-8.376578859536679,4.7867790355996345
16.77,1.8009576373798375,-8.360098784145015,4.799499010205648
16.78,1.8375123965510076,-8.346390113596849,4.8095079449426485
16.79,1.8672808010186186,-8.335198943230225,4.817456448504141
16.8,1.8904541098821055,-8.326313879179466,4.823790404775731
16.81,1.9084730608318947,-8.318445268108936,4.830269396494851
16.82,1.925090330059806,-8.310760444118845,4.836899541148517
16.83,1.941509736695163,-8.303653480827021,4.842541402057616
16.84,1.9557572333023638,-8.29822085165484,4.846122723495938
16.85,1.964950796469844,-8.295742427409763,4.84664873897601
16.86,1.9672357340410134,-8.29670574381346,4.844070344087118
16.87,1.9618975985728708,-8.300470779704607,4.839780435782794
16.88,1.9491996413351027,-8.306916977662162,4.833843662885458
16.89,1.9317718622521032,-8.316158512389649,4.824937507943459
16.9,1.9137934941299284,-8.326978256020151,4.813426958912611
16.91,1.898954518289445,-8.338444148900683,4.799436333496081
16.92,1.8900845279810545,-8.350739807750248,4.781523608793341
16.93,1.887189905237758,-8.36372746451576,4.75991485932521
16.94,1.8871527354086655,-8.376782284547186,4.736918528751514
16.95,1.8878918541780134,-8.389197219712871,4.714601749203942
16.96,1.889761081622072,-8.40004955352066,4.6944901381868185
16.97,1.8928855534983102,-8.40864293722252,4.677821949564245
16.98,1.896102698577118,-8.415404802080886,4.664341632136778
16.99,1.898857130644822,-8.4214017141869,4.65238292603402
17.0,1.9031140899710886,-8.427741983621193,4.639141645791042
17.01,1.910904504902753,-8.436386477496177,4.620175370852874
17.02,1.92028087006916,-8.449215207115927,4.592749530721766
17.03,1.9266748991534042,-8.46628911486895,4.558491724467965
17.04,1.9265266093850064,-8.486775807760417,4.52028903849689
17.05,1.91967028016729,-8.509755927463384,4.479813804747665
17.06,1.9084124354259868,-8.534054921549153,4.438202105946745
17.07,1.8934486088944935,-8.558791047565448,4.396785124065317
17.08,1.872591668729411,-8.583622925442345,4.357127208841757
17.09,1.8442334367889885,-8.608323892422899,4.320331902183275
17.1,1.8098667409633504,-8.63226773339149,4.286962437717253
17.11,1.772270844531984,-8.654899593776438,4.256936259069671
17.12,1.7332208365799087,-8.675796068679448,4.230401574969297
17.13,1.6932602217992792,-8.694327743273753,4.208492527633626
17.14,1.6544377545565325,-8.710190803147931,4.191108583365315
17.15,1.6187534946107993,-8.72459662757125,4.175053489505227
17.16,1.585908497421955,-8.73903631442856,4.157424131444991
17.17,1.5549712494610703,-8.753606799851863,4.138416406312494
17.18,1.5259828960072899,-8.767644180679943,4.119454335298269
17.19,1.4998336228966305,-8.780267068318254,4.102142599767189
17.2,1.4770179196913034,-8.790864506782384,4.087707292744872
17.21,1.4568039422171581,-8.799360679724645,4.076669134702122
17.22,1.4366543044990652,-8.806427915443646,4.068551458291822
17.23,1.4153347463601937,-8.812813157524673,4.0621936170828645
17.24,1.3940396681716614,-8.818768835341343,4.056628763929029
17.25,1.372547820021395,-8.824286664105461,4.051957190390274
17.26,1.35047372700878,-8.82953803415006,4.047933948057221
17.27,1.3293458125837787,-8.834859540635724,4.043314640078009
17.28,1.3103266521384564,-8.84073789244366,4.036670481528327
17.29,1.2942478817477172,-8.84728306467557,4.02750767537072
17.3,1.280806529897821,-8.854518495101747,4.0158864806274766
17.31,1.2684112550527429,-8.862307771219541,4.0026183184744095
17.32,1.2565226063769337,-8.869172456031453,3.991150395839266
17.33,1.2459041624346607,-8.873731985102259,3.9843388720577666
17.34,1.2369599681285626,-8.875882402189115,3.9823350172676397
17.35,1.2281412247641035,-8.875912792560504,3.9849948824256742
17.36,1.2183882384481826,-8.873883888467955,3.992497923045349
17.37,1.2087145489453448,-8.870036189313451,4.003971312473034
17.38,1.1990640293915007,-8.864249401026335,4.019655123586341
17.39,1.1902215989235185,-8.85597833232615,4.040453903718898
17.4,1.1842347675790232,-8.845027147453141,4.0661141431177095
17.41,1.1813174228386734,-8.83196870102944,4.095236322397139
17.42,1.182861876399104,-8.817286214826735,4.126310785128925
17.43,1.1890809551139634,-8.802043029134353,4.1569569455570505
17.44,1.1980207322384187,-8.78687172198448,4.186380252960877
17.45,1.2057987283179117,-8.770831383679086,4.217661429695282
17.46,1.2093878332792325,-8.753236289640645,4.253031151652054
17.47,1.2074425286703754,-8.73455057649402,4.291817718555785
17.48,1.1998719864738945,-8.714868521832837,4.333741598039292
17.49,1.1878744156069951,-8.694061389385926,4.378595476868401
17.5,1.1727563329117296,-8.672009714150558,4.426137833213236
17.51,1.1569806797884181,-8.649292572257806,4.474480321361442
17.52,1.1407995837133171,-8.627661332909147,4.520175029024189
17.53,1.120995661222463,-8.608743577729143,4.561018110430146
17.54,1.0936610592409477,-8.593061252039657,4.597083184945996
17.55,1.0596980310974613,-8.58004045952348,4.629239041457941
17.56,1.018433861491129,-8.569103808869436,4.658656828256708
17.57,0.9694463283086091,-8.559835612319892,4.686057323905568
17.58,0.9131631257451203,-8.55219238441878,4.711235988888692
17.59,0.8500893927895993,-8.544020193665657,4.737778377643052
17.6,0.7838242544089818,-8.53272301086522,4.7694528256570425
17.61,0.7187127124502807,-8.518200190302661,4.805539966708049
17.62,0.6586228764690808,-8.50190982034424,4.842873081228036
17.63,0.6076542571337965,-8.485003225363421,4.879070945880738
17.64,0.567865302562606,-8.467450933135625,4.914245069220988
17.65,0.5388985600175829,-8.449385945995461,4.948490331004912
17.66,0.5179100881373467,-8.431690363544494,4.980818044199673
17.67,0.505314849156726,-8.415457462545103,5.009491965419516
17.68,0.5043799293826283,-8.401343229614545,5.033222854841876
17.69,0.5173583122238113,-8.389270047975604,5.052001187116708
17.7,0.5442612823727537,-8.378362583980856,5.0672448974380195
17.71,0.5842188881226944,-8.367332887520805,5.08098527582742
17.72,0.6362973524391431,-8.355015074659356,5.094961795094599
17.73,0.6989737300718278,-8.340583809042814,5.110353789932104
17.74,0.7684766662633262,-8.323406200735548,5.12834436837926
17.75,0.8395574273510303,-8.304174136545923,5.148343757183081
17.76,0.9095213729101317,-8.285078106804622,5.167199562750961
17.77,0.9776225317629468,-8.268638075550776,5.181088477047609
17.78,1.0426151043242562,-8.256137370303675,5.188357168607482
17.79,1.1015022673302113,-8.247402611502975,5.190095772251453
17.8,1.149856339554498,-8.241089747784905,5.189648442250634
17.81,1.1893060602528658,-8.234981353294428,5.190458751384034
17.82,1.225381124959363,-8.228452036618014,5.192422909064928
17.83,1.259866835244333,-8.222312624519416,5.193899001455863
17.84,1.2890560093767665,-8.216950522060415,5.1952268495276135
17.85,1.3102176991001941,-8.212328982294272,5.197245599443329
17.86,1.3242671808212088,-8.209166988708391,5.198681533684415
17.87,1.3331286355913634,-8.207233849010798,5.199469112661096
17.88,1.3366892855470023,-8.206568890826652,5.199603815844696
17.89,1.333914524488221,-8.207859601839678,5.198278313415021
17.9,1.3267600702975493,-8.211201578619704,5.194831618555238
17.91,1.320800954801236,-8.216924116419653,5.18729257403665
17.92,1.3213013801839926,-8.225146473588506,5.17411611351983
17.93,1.3284915898363256,-8.2353453928985,5.156017689963165
17.94,1.3381432168939436,-8.246096234252287,5.13630073636964
17.95,1.3479390287316253,-8.257005392818034,5.116175491480545
17.96,1.3592883118425014,-8.267524071961635,5.096145847435889
17.97,1.3738576060601713,-8.276256182499111,5.078033895999429
17.98,1.3930742043948812,-8.282498375934779,5.062597617017625
17.99,1.417797269116232,-8.286507838970017,5.049152714732418
18.0,1.4504932295923436,-8.28934328211908,5.03518287025097
18.01,1.492619444132928,-8.292661849227292,5.017374041163513
18.02,1.538084020692774,-8.299554882547254,4.992183394873282
18.03,1.5758275711345902,-8.313095157850531,4.957764223581226
18.04,1.597587160405112,-8.33315884163878,4.916951144614072
18.05,1.6057328892459635,-8.356981585945638,4.873676975784666
18.06,1.602365588144514,-8.382722669541659,4.830389599988537
18.07,1.5851791832533362,-8.40751803220657,4.7928210306817025
18.08,1.556347962872949,-8.42985443025916,4.76294180918898
18.09,1.5165187799258313,-8.449222224048022,4.74142287435626
18.1,1.4681592976139821,-8.464999226469414,4.728483940891703
18.11,1.4159373245069624,-8.479502862894467,4.718413134778069
18.12,1.3632776641563984,-8.494407938009353,4.707100366082891
18.13,1.3128660306078888,-8.50787171084006,4.6971037413529455
18.14,1.2658557555396515,-8.519803637257166,4.688374922132597
18.15,1.2246337445624682,-8.531452008211224,4.678133977501569
18.16,1.1887262795173787,-8.543829709936338,4.664789948442723
18.17,1.158166799940401,-8.556566449150107,4.649104415466959
18.18,1.133216597274245,-8.569151625873365,4.632042430385186
18.19,1.1124067638287607,-8.581617364225545,4.613977773794784
18.2,1.096904630137353,-8.59168751775662,4.598923357918233
18.21,1.0893833928900543,-8.597980735707491,4.588941446244854
18.22,1.0905252194520065,-8.600329525898308,4.584263419276104
18.23,1.0971749283069232,-8.59676631635933,4.589358233735921
18.24,1.1072510050762876,-8.589663603754296,4.600226339041467
18.25,1.1227707724138807,-8.581882564876286,4.610974787437681
18.26,1.1477148798895729,-8.575456465364178,4.616783639219996
18.27,1.1846572986075121,-8.572800399462048,4.612380594532739
18.28,1.227001915452477,-8.575324959374836,4.5965873260359915
18.29,1.2641278213838578,-8.583169425545433,4.571820762302527
18.3,1.285151431124518,-8.594867458049157,4.543895248922765
18.31,1.2872924129344703,-8.607449595201645,4.5194064086172325
18.32,1.2807544084315328,-8.618687649436241,4.4998063366261505
18.33,1.2783333570830306,-8.626473640653382,4.485554100814409
18.34,1.28343876360819,-8.630514899017214,4.476313099473612
18.35,1.2944703075274975,-8.631539472030292,4.471158980037124
18.36,1.3085759189068398,-8.631076298966999,4.467943051096575
18.37,1.3232071753865953,-8.630894870180041,4.463983914771594
18.38,1.337421373528837,-8.631310524807745,4.458942541670634
18.39,1.3487561319271295,-8.632423616711325,4.453369406576668
18.4,1.355536853386475,-8.634532819010206,4.447219413641087
18.41,1.3590733930305785,-8.636080831944232,4.443133939709708
18.42,1.3625539799224917,-8.634598768683086,4.44494427158831
18.43,1.3684734296216587,-8.62960620702203,4.4528125308299655
18.44,1.3754601333887098,-8.622574826338845,4.464265257368126
18.45,1.3817995710834232,-8.614280221396655,4.478298036082776
18.46,1.389896661675553,-8.60519933539795,4.493224754397946
18.47,1.403373205001744,-8.596522590843607,4.505627768341065
18.48,1.4249831936124007,-8.588688883833377,4.513777382575629
18.49,1.453903053847832,-8.580728251349356,4.519688098504892
18.5,1.4884467804422798,-8.571390985460567,4.526152746925597
18.51,1.5245279470417137,-8.560543449681063,4.534663866520523
18.52,1.5540695856388227,-8.549619927107653,4.545236168520398
18.53,1.5641501734486651,-8.541278140516985,4.557452179814369
18.54,1.546767776986052,-8.536848128740196,4.5716578375906405
18.55,1.5070883453315562,-8.534846835379728,4.588600109041532
18.56,1.455487464995025,-8.532504831350114,4.609552373713194
18.57,1.4011464652216954,-8.527899571574704,4.634839742523545
18.58,1.3501330713247408,-8.520839742675554,4.662883189642513
18.59,1.3020933637811989,-8.512709016294847,4.69131078863521
18.6,1.2525028240411784,-8.504484093969763,4.719642364118688
18.61,1.1973950586904971,-8.497407349679905,4.746608323783825
18.62,1.1311904495795946,-8.492376867675086,4.771766616719552
18.63,1.05180786917642,-8.489463729602887,4.795028298038279
18.64,0.9639344544437354,-8.488363499018055,4.815385682355993
18.65,0.8732710527052185,-8.488389738645266,4.832600068645101
18.66,0.7827144677700524,-8.488366834465795,4.848130337981957
18.67,0.6949399295914919,-8.487443995122153,4.86310300531482
18.68,0.6148823184161532,-8.485716748178751,4.876895913511765
18.69,0.5497066812299312,-8.482119248069607,4.890941908190665
18.7,0.5083204362038025,-8.473593063332158,4.9101889770647675
18.71,0.4937197571245769,-8.457564493792862,4.939237862126624
18.72,0.5059874444087495,-8.433876203557238,4.978331490372288
18.73,0.5462381266019288,-8.40359372092829,5.0250277127526894
18.74,0.6106881850036087,-8.368809904275981,5.075362750485091
18.75,0.6896363264780353,-8.3307867305281,5.1275012669244076
18.76,0.7711071484748129,-8.291062568389103,5.180007091350288
18.77,0.8457858722440711,-8.252436646809183,5.229815122951632
18.78,0.9070080560850808,-8.218131981926767,5.273433111393673
18.79,0.9501291801472072,-8.191103914709288,5.307821603300628
18.8,0.9741164559661253,-8.173854642395657,5.330048499871407
18.81,0.9814523341420334,-8.16641466575665,5.340110174240335
18.82,0.9791756881688722,-8.16658242275593,5.340274085208692
18.83,0.9782760106959163,-8.171095742757243,5.333528771237457
18.84,0.9878058115252598,-8.177581663813362,5.321815515732618
18.85,1.0103360961324026,-8.183081410246759,5.309111097360466
18.86,1.0423479187304274,-8.18429888925163,5.301034550740938
18.87,1.0805828924505068,-8.179863088294146,5.300219115871381
18.88,1.1215891005255862,-8.169856922688377,5.307122402816645
18.89,1.1609233688188085,-8.156246909014206,5.319581998372423
18.9,1.193912501809354,-8.141464624315104,5.334908056367854
18.91,1.217800338021568,-8.127367089962691,5.350990180007562
18.92,1.23408926922356,-8.115282172675961,5.365584725620654
18.93,1.2451479187175478,-8.106978330142281,5.375578387626919
18.94,1.2483853970803247,-8.10435297420863,5.37878925526869
18.95,1.2393551967804233,-8.108603899456362,5.374466907761231
18.96,1.217440563921931,-8.11924781931313,5.363382755565546
18.97,1.1863408581726622,-8.133462846454721,5.348781894290978
18.98,1.1510404621200416,-8.147857059536044,5.334565189562884
18.99,1.1137124692821763,-8.161157588784803,5.322143063488495
19.0,1.075816414849245,-8.172574878990572,5.312410579728511
19.01,1.0427616802679107,-8.179950788339822,5.307656824339693
19.02,1.022032156114166,-8.18268323711884,5.307491547608425
19.03,1.0218458010534894,-8.183995504609234,5.305508729451671
19.04,1.041637378612894,-8.186368761838166,5.297980882868344
19.05,1.0732815226621892,-8.190041052307484,5.285964061880399
19.06,1.1119446075681612,-8.194826891270028,5.270523026331273
19.07,1.1552309969768761,-8.200931973962888,5.251674062701268
19.08,1.1996435755076467,-8.208372537562811,5.230043807365648
19.09,1.2400630862218172,-8.218046385420262,5.205370127461562
19.1,1.2711481393077793,-8.23034193288647,5.178387288092329
19.11,1.2893539613082121,-8.245017537747945,5.15047550490384
19.12,1.2950130507461424,-8.262413210907354,5.121094316542317
19.13,1.2913860776430404,-8.282549406525881,5.089379231776989
19.14,1.2829577846604006,-8.30450726408968,5.055611406200445
19.15,1.272580067854706,-8.327607558360096,5.0201073187576295
19.16,1.260139716141551,-8.351866949794552,4.9827998753187455
19.17,1.2412687867310037,-8.377248495997616,4.944776359395644
19.18,1.2125227483015468,-8.403151633379208,4.9078075895182245
19.19,1.1764376746134984,-8.428390433661944,4.873185368941785
19.2,1.1370285689197301,-8.45209687333425,4.841378834465371
19.21,1.0981591987051011,-8.473450610002523,4.8129521220030975
19.22,1.0640315049052131,-8.493583905718657,4.785058842441901
19.23,1.037456466398229,-8.512741185604478,4.756777889705149
19.24,1.0175159926862223,-8.529468641379644,4.7310618988625945
19.25,1.0032935364907036,-8.543970008389433,4.707882182906933
19.26,0.9964243016927413,-8.557623100262314,4.6844882485129595
19.27,0.999566930587344,-8.57164315082642,4.658104831612242
19.28,1.0141165785353141,-8.586545091032164,4.627400597406443
19.29,1.037176437468292,-8.598851121117425,4.599357191344881
19.3,1.0631421416506752,-8.606500459917413,4.579085416933272
19.31,1.087796852889488,-8.611376434093566,4.564111201956927
19.32,1.1075867832285198,-8.61596555031172,4.550678004390079
19.33,1.1216470449512814,-8.621552841069738,4.536632423550818
19.34,1.1315892036956086,-8.6284243086967,4.521072396399135
19.35,1.139164547253769,-8.637401535884615,4.50198334199635
19.36,1.1450744037558072,-8.648917020798391,4.4783058094231825
19.37,1.1485778641647748,-8.662469469769457,4.451127637738357
19.38,1.1495497513160207,-8.677397132879065,4.421700671190662
19.39,1.1476732215339862,-8.69316940517755,4.391099189820948
19.4,1.1420033017773399,-8.70908010282018,4.3609459137037
19.41,1.131622923473688,-8.724512724134561,4.332713955991025
19.42,1.1172764565144677,-8.738028472672058,4.309146562369078
19.43,1.1019929624634799,-8.747548828712995,4.293752200826407
19.44,1.0887422196444936,-8.752349473670511,4.287350073736534
19.45,1.0778262305750992,-8.753052267485165,4.288674023203141
19.46,1.0679358566881214,-8.749561112119727,4.298255071838951
19.47,1.0582455937765873,-8.741461875867314,4.317077300466302
19.48,1.050036034054017,-8.729116434795385,4.343966409961111
19.49,1.045607182899575,-8.713267981287627,4.37671966655717
19.5,1.0470891902544308,-8.694025066261199,4.414454947447091
19.51,1.0556006924953296,-8.670754832657494,4.457955946522454
19.52,1.069792845643424,-8.643653507368379,4.506912619483277
