time,seconds_elapsed,z,y,x
1789317030772214800,0.07621484375,-4.574457787293196,-8.670233647987246,0.2679161013281904
1789317030782171100,0.086171142578125,-4.644574402831495,-8.630454595306515,0.33698633135240524
1789317030792126000,0.0961259765625,-4.736172782337666,-8.578325179618597,0.38909722500294447
1789317030802081800,0.106081787109375,-4.801967443023622,-8.53883663431704,0.4469434474350884
1789317030812036900,0.116036865234375,-4.834563890723884,-8.51709008193314,0.5065143017027527
1789317030821992000,0.125991943359375,-4.85668190676868,-8.49991215263903,0.5783630382632836
1789317030831947800,0.13594775390625,-4.871031334638595,-8.48752964092791,0.6366169647134841
1789317030841902800,0.14590283203125,-4.874711192195117,-8.48206786839068,0.6797814951140433
1789317030851859000,0.15585888671875,-4.871050039339066,-8.480544604346155,0.723620271514356
1789317030861814000,0.16581396484375,-4.862027359449863,-8.48247528014779,0.7607235291145742
1789317030871769900,0.175769775390625,-4.84009054519087,-8.489106096464395,0.8240086181323975
1789317030881725000,0.185724853515625,-4.811937632896006,-8.49693167552352,0.904322218036279
1789317030891681000,0.195680908203125,-4.807626199437678,-8.493146896287799,0.9610283670552074
1789317030901635800,0.2056357421875,-4.813139702162147,-8.487184773012995,0.98578140777871
1789317030911592000,0.215592041015625,-4.837611880117654,-8.472712595546245,0.9904683965511619
1789317030921547000,0.225547119140625,-4.881717563825846,-8.447514441403746,0.9892998642284423
1789317030931502800,0.2355029296875,-4.924223995643854,-8.419730946943163,1.0151523906264452
1789317030941458000,0.2454580078125,-4.974457222321629,-8.382602116510272,1.075702501722425
1789317030951413000,0.2554130859375,-5.012750420358777,-8.349201366689801,1.1548002960957586
1789317030961368800,0.265368896484375,-5.030559048771858,-8.324542141729593,1.2513405159182847
1789317030971324000,0.275323974609375,-5.038628373458981,-8.307284717458487,1.331028531269729
1789317030981279700,0.28527978515625,-5.040135270890593,-8.300186868152021,1.3690572331517934
1789317030991235000,0.295235107421875,-5.030666016277671,-8.304829725521802,1.375711284213513
1789317031001191000,0.30519091796875,-5.012895381787419,-8.317108776858449,1.3663701860249042
1789317031011145700,0.315145751953125,-4.990311209535599,-8.331552312752605,1.3610314553454517
1789317031021101800,0.325101806640625,-4.964889183509349,-8.343636133778094,1.3798504298448562
1789317031031057000,0.335056884765625,-4.943987265256047,-8.34782131050825,1.4287275657385587
1789317031041013000,0.345012939453125,-4.947061850395799,-8.337446631488204,1.477825066384673
1789317031050967800,0.3549677734375,-4.973244339400529,-8.312894958555697,1.5274153189837931
1789317031060924000,0.364923828125,-5.010045253053307,-8.284515251767635,1.5609743281058965
1789317031070879000,0.37487890625,-5.063399242100119,-8.252343751481176,1.5592236850462853
1789317031080834800,0.384834716796875,-5.111631650349498,-8.226267645460366,1.5395171140573918
1789317031090790100,0.3947900390625,-5.138634808087349,-8.212197619053722,1.5246747881039977
1789317031100745000,0.404744873046875,-5.136926835125684,-8.212036875534057,1.5312790086746215
1789317031110700800,0.41470068359375,-5.109969854617119,-8.22299841453135,1.56233407215178
1789317031120656100,0.42465625,-5.082546425640583,-8.232987893626094,1.5987551927067338
1789317031130612000,0.434612060546875,-5.058163679534196,-8.245064115867018,1.6137817891858517
1789317031140566800,0.44456689453125,-5.038317407813668,-8.255088666275142,1.6245784930102527
1789317031150523000,0.45452294921875,-5.033552385368943,-8.257218079519271,1.6285191934600471
1789317031160478000,0.46447802734375,-5.058267139908671,-8.244978191149235,1.6138924099534748
1789317031170434000,0.47443408203125,-5.087109203511476,-8.228267879366875,1.6085121782198548
1789317031180388900,0.484388916015625,-5.1054941705077885,-8.214036524918676,1.6229405165448785
1789317031190344700,0.4943447265625,-5.119821386545897,-8.200504258650541,1.6460707783721387
1789317031200300000,0.504300048828125,-5.121218978384137,-8.195586091470718,1.6660943063557148
1789317031210256000,0.514255859375,-5.11101147262454,-8.19914466073513,1.6798726563394069
1789317031220211000,0.5242109375,-5.101725757884979,-8.20455441082418,1.6816893503725527
1789317031230167000,0.5341669921875,-5.1104567613512275,-8.200977136859297,1.6726025192059575
1789317031240121900,0.544121826171875,-5.124650121876597,-8.192381742471456,1.6712947976082562
1789317031250078000,0.554077880859375,-5.124665319445729,-8.188505193299054,1.690140513984114
1789317031260032800,0.56403271484375,-5.117189284476638,-8.188454339894651,1.7128848452337084
1789317031269987800,0.57398779296875,-5.103453604590893,-8.194824459448457,1.7233675146728753
1789317031279944000,0.58394384765625,-5.099885098454356,-8.195323056620358,1.7315448297791183
1789317031289898800,0.593898681640625,-5.106602424010634,-8.18923993731439,1.74050291999951
1789317031299855000,0.603855224609375,-5.113289938950539,-8.183825511050223,1.7463238812379538
1789317031309810000,0.613809814453125,-5.119660643026233,-8.17782714741826,1.7557370217494666
1789317031319765800,0.623765869140625,-5.1264381743371485,-8.170196214148401,1.7714169675707816
1789317031329721000,0.63372119140625,-5.145857160556316,-8.15358234847784,1.7915446865811944
1789317031339677000,0.643677001953125,-5.163917133381963,-8.136272317236662,1.8180775964587925
1789317031349632000,0.653632080078125,-5.174093074959516,-8.124002033728361,1.8438333844840527
1789317031359587800,0.663587890625,-5.189069694817066,-8.112468832322955,1.8525081277184188
1789317031369543000,0.67354296875,-5.1998418487221,-8.106912951761483,1.8466177545055746
1789317031379499300,0.683499267578125,-5.202848629322648,-8.10268335136771,1.856684390489757
1789317031389454000,0.6934541015625,-5.191410120463371,-8.105415991201996,1.8766691938981412
1789317031399410000,0.703409912109375,-5.169742478534579,-8.11512489978969,1.894438513214141
1789317031409365200,0.713365234375,-5.1478293374121185,-8.126006943809985,1.9074201598621903
1789317031419321000,0.723321044921875,-5.140605815899372,-8.13064337143898,1.9071451423130927
1789317031429276000,0.73327587890625,-5.148454775834083,-8.125849122899771,1.9064049914702772
1789317031439232000,0.74323193359375,-5.162545845028758,-8.11553406511247,1.912229752101004
1789317031449187000,0.75318701171875,-5.181467403119802,-8.101058380514383,1.922404670765251
1789317031459142000,0.763141845703125,-5.200317649540305,-8.083750687360762,1.9442345175184308
1789317031469098000,0.773097900390625,-5.213452440923452,-8.067094151592254,1.9779519320726393
1789317031479053000,0.783052978515625,-5.22619443359673,-8.052289965692163,2.0044727131210265
1789317031489009200,0.793009033203125,-5.249467172634601,-8.03730048635304,2.0038193637788293
1789317031498964000,0.8029638671875,-5.272158312392235,-8.027490455478429,1.983462658318132
1789317031508920300,0.81292041015625,-5.277509025770425,-8.025131909653544,1.9787692398048937
1789317031518875100,0.822875244140625,-5.250562566655874,-8.034926158437132,2.010456025314331
1789317031528831000,0.8328310546875,-5.224499320116639,-8.043736656880379,2.042861188226193
1789317031538786000,0.8427861328125,-5.228398081120848,-8.039438667425513,2.0497958097949622
1789317031548742100,0.8527421875,-5.241961911571026,-8.026850404009222,2.0644326763041314
1789317031558697000,0.862697021484375,-5.260833785301447,-8.009643248620629,2.0831750784359873
1789317031568653000,0.872653076171875,-5.280943091872334,-7.99936501571238,2.0717584891475735
1789317031578608000,0.882608154296875,-5.287338930389285,-7.9995374496698375,2.054712223409116
1789317031588564200,0.892564208984375,-5.265998620718717,-8.010196206328272,2.067946091252565
1789317031598519000,0.90251904296875,-5.247953845462202,-8.015158797171711,2.094419233766943
1789317031608475000,0.912474853515625,-5.2566217205643655,-8.00674752717912,2.1048297147527335
1789317031618430200,0.92243017578125,-5.2686009121716015,-7.9990090418815605,2.1043005763120948
1789317031628386000,0.932385986328125,-5.275574842837453,-7.993512782552838,2.107710238625109
1789317031638341000,0.942341064453125,-5.269691045495867,-7.997368288937211,2.1078028853446242
1789317031648297000,0.952296875,-5.26176083701849,-8.004645001941919,2.0999774524159727
1789317031658252000,0.962251953125,-5.265834370067715,-8.004805745461583,2.0891252190120517
1789317031668207000,0.97220703125,-5.282084663122892,-7.996801302704214,2.078736073075235
1789317031678163000,0.982162841796875,-5.305180292028188,-7.982876237726211,2.0734359208405015
1789317031688118000,0.992117919921875,-5.307537084287405,-7.981347128462791,2.0732896442376076
1789317031698074000,1.00207421875,-5.302395629745721,-7.984587133297324,2.073971196760982
1789317031708029000,1.01202880859375,-5.279342086416483,-7.999611683949827,2.074883343169838
1789317031717985300,1.0219853515625,-5.255703436675668,-8.014761906808614,2.0764282345242795
1789317031727940000,1.031940185546875,-5.26218987608552,-8.015577314844727,2.0567579038925468
1789317031737896000,1.04189599609375,-5.270665443485975,-8.016534761700033,2.031168120083958
1789317031747851000,1.05185107421875,-5.279575895172357,-8.010898217117786,2.030266056677699
1789317031757807000,1.06180712890625,-5.27492719258368,-8.01137694054544,2.04043279203549
1789317031767762200,1.07176220703125,-5.273986112341285,-8.009985193926095,2.0483156542398033
1789317031777718000,1.081718017578125,-5.276451041150093,-8.011904179289937,2.034416892746836
1789317031787673000,1.091673095703125,-5.276802338805794,-8.020432353660464,1.9996029151275754
1789317031797629200,1.101629150390625,-5.272970797818899,-8.030297914114595,1.9698948823451994
1789317031807584000,1.111583984375,-5.2603363571733235,-8.042972686770558,1.951878894791752
1789317031817540000,1.1215400390625,-5.256317184659839,-8.046802474191784,1.9469187881663441
1789317031827495200,1.1314951171875,-5.238175378769636,-8.054274417507647,1.964833068910986
1789317031837451000,1.141450927734375,-5.223878557869791,-8.059671308115124,1.9807034227378666
1789317031847406000,1.151406005859375,-5.233557655841111,-8.058060365787147,1.9616139607340097
1789317031857361200,1.161361083984375,-5.252020364248752,-8.053442642858624,1.9309929047599435
1789317031867317200,1.171317138671875,-5.261746223971247,-8.0531322617352,1.9056458436660468
1789317031877272000,1.18127197265625,-5.244735467937589,-8.070031374087929,1.8808852041579782
1789317031887228000,1.191227783203125,-5.211679001510143,-8.09431182886362,1.8683963094629346
1789317031897183200,1.201183349609375,-5.184840678945183,-8.113272549921273,1.8608108227699993
1789317031907139000,1.21113916015625,-5.180978742820024,-8.119773602378368,1.843127574302256
1789317031917094000,1.221093994140625,-5.186465065276622,-8.120314869648217,1.8252267375610767
1789317031927050200,1.23105029296875,-5.194701563224196,-8.118982744261622,1.807641396509856
1789317031937005000,1.241005126953125,-5.206255807417631,-8.117266587993502,1.7819279863215982
1789317031946961200,1.250961181640625,-5.203792632174491,-8.12517633820474,1.7528389622204004
1789317031956916000,1.260916015625,-5.184513931208849,-8.143278981128335,1.7257487107209861
1789317031966872000,1.2708720703125,-5.160720383167266,-8.161237247145175,1.7121822499223052
1789317031976827100,1.2808271484375,-5.155390128055215,-8.166880805990099,1.701293922291696
1789317031986783000,1.290782958984375,-5.150868851238489,-8.176343630862236,1.6692349424690007
1789317031996738300,1.30073828125,-5.122335415193438,-8.199776528897882,1.6418696734204887
1789317032006694100,1.310694091796875,-5.0813908258646725,-8.2282211176157,1.6267232499539852
1789317032016649000,1.32064892578125,-5.064919583535194,-8.246110994571447,1.5870201851189136
1789317032026605000,1.33060498046875,-5.084386500549316,-8.247239706340432,1.5173763016588986
1789317032036560100,1.34056005859375,-5.0890632601886985,-8.254313005727528,1.4622384979352354
1789317032046516200,1.35051611328125,-5.068139714625477,-8.27189717773497,1.4352880932979284
1789317032056471000,1.360470947265625,-5.046154092788696,-8.28767751519084,1.4216623035274445
1789317032066426000,1.370426025390625,-5.0388826404809945,-8.294010225343703,1.4104722164712846
1789317032076382200,1.38038232421875,-5.056427064999938,-8.288109476867318,1.3820907561175524
1789317032086337000,1.3903369140625,-5.063054958707094,-8.29339998449087,1.3249042031705378
1789317032096292900,1.40029296875,-5.036217220664024,-8.320572069054842,1.2549815027691422
1789317032106248200,1.410248291015625,-4.987327809810638,-8.36030085285306,1.1841956096671522
1789317032116204000,1.4202041015625,-4.944974522727728,-8.394867723843454,1.1152599475417286
1789317032126159000,1.4301591796875,-4.922471599018573,-8.414491877245903,1.0658252508305013
1789317032136115200,1.440115234375,-4.913225631767511,-8.42408505049944,1.0321705262489616
1789317032146070000,1.450070068359375,-4.922411977785825,-8.42324509254396,0.9945752473480999
1789317032156026000,1.460026123046875,-4.925438047608733,-8.42585381373763,0.9567813771352172
1789317032165981000,1.46998095703125,-4.927752754291892,-8.4275500962615,0.9295289938766509
1789317032175937300,1.479937255859375,-4.932156542208791,-8.430469783100484,0.8782968923546374
1789317032185892000,1.48989208984375,-4.915359721186757,-8.449432257723808,0.785319991036877
1789317032195848000,1.499847900390625,-4.888812198261916,-8.472856972452998,0.693249829300493
1789317032205803300,1.50980322265625,-4.857572133606672,-8.496414958173036,0.6207265910118818
1789317032215759000,1.519759033203125,-4.842674716465175,-8.508545540949703,0.5688077493347228
1789317032225714000,1.5297138671875,-4.831126025229692,-8.51684575178325,0.5421658261246979
1789317032235670000,1.539669921875,-4.8128886500105255,-8.528197166880965,0.5256768289428204
1789317032245625000,1.549625,-4.815432489274442,-8.528312317693233,0.49988469096254556
1789317032255581200,1.559581298828125,-4.814217852787674,-8.53219997278154,0.44187717702146617
1789317032265536000,1.569535888671875,-4.8005204590857025,-8.543514563000201,0.3657193085575476
1789317032275491000,1.579490966796875,-4.787977496115863,-8.553152159917355,0.2987459777473472
1789317032285447200,1.589447265625,-4.791197627206146,-8.5528774346292,0.2511917427541688
1789317032295402000,1.599402099609375,-4.795929331903159,-8.55133137423098,0.21019522230876608
1789317032305358000,1.609358154296875,-4.790779401794076,-8.554867731663585,0.18186761103412136
1789317032315313200,1.619313232421875,-4.785621580639481,-8.557719613963364,0.18341473087826743
1789317032325269000,1.62926904296875,-4.776848491597176,-8.56272662847042,0.17836592305609955
1789317032335224000,1.63922412109375,-4.774698035565018,-8.564453890654445,0.15087390408907084
1789317032345180200,1.64918017578125,-4.769453705170751,-8.568034087228774,0.10714200386302546
1789317032355135200,1.65913525390625,-4.7613370342105625,-8.573073834961653,0.04969282249102834
1789317032365091000,1.669091064453125,-4.768484275616705,-8.569242293974757,0.004613210293954762
1789317032375045600,1.679045654296875,-4.7821416295692325,-8.561606684529782,-0.02020898581938818
1789317032385001500,1.68900146484375,-4.776828325591981,-8.564525202324987,-0.03468869813862256
1789317032394956300,1.698956298828125,-4.764735736738145,-8.571274092063307,-0.03076157640632009
1789317032404912400,1.708912353515625,-4.75980295651108,-8.574033619904517,-0.02453783620339818
1789317032414867500,1.718867431640625,-4.7624239526644345,-8.572450150105357,-0.0530733683074126
1789317032424823600,1.728823486328125,-4.773974689726531,-8.56560189164579,-0.10008715344807133
1789317032434778400,1.7387783203125,-4.780930207952856,-8.561278767749666,-0.13273463721582665
1789317032444733400,1.7487333984375,-4.78368505961895,-8.55933230985701,-0.1567673643081449
1789317032454689500,1.758689453125,-4.78762006098032,-8.55681594312191,-0.17315978751406072
1789317032464644400,1.768644287109375,-4.770329903483391,-8.566429574641585,-0.1749859982942231
1789317032474600400,1.778600341796875,-4.743343112358451,-8.581561092799902,-0.16701039803884923
1789317032484555500,1.788555419921875,-4.735427516928315,-8.586192259731888,-0.15304532071086577
1789317032494511400,1.798511474609375,-4.741912787294387,-8.582692142656445,-0.1484724233047571
1789317032504466400,1.808466552734375,-4.747952651980519,-8.578876383760571,-0.1738266173923388
1789317032514422500,1.818422607421875,-4.754511572104692,-8.574675424939393,-0.19987649299334734
1789317032524377300,1.82837744140625,-4.763891979390382,-8.56929490094483,-0.2071562747379765
1789317032534333400,1.83833349609375,-4.775781739148497,-8.562643041840195,-0.2084420950311236
1789317032544288500,1.84828857421875,-4.783191430883109,-8.558782859280704,-0.1967216091590002
1789317032554244600,1.85824462890625,-4.772927811022103,-8.564960086610913,-0.176051325970795
1789317032564199400,1.868199462890625,-4.766038343769312,-8.569088564717768,-0.16118198414631188
1789317032574155500,1.878155517578125,-4.763311256892979,-8.570756790190934,-0.15292182219536044
1789317032584110600,1.888110595703125,-4.756789453908801,-8.574404206782578,-0.1514370269977022
1789317032594066400,1.89806640625,-4.737712997516989,-8.584912741315364,-0.15409029058599844
1789317032604021500,1.908021484375,-4.7208320053428405,-8.594346340093017,-0.1460892544952687
1789317032613977300,1.917977294921875,-4.731373565362394,-8.588830207020044,-0.12835314332912676
1789317032623932400,1.927932373046875,-4.759461887988448,-8.573556065520643,-0.10967203379729762
1789317032633888500,1.937888427734375,-4.780525426544249,-8.562024617680907,-0.09318944808989763
1789317032643843300,1.94784326171875,-4.783015197533369,-8.560766142052412,-0.08014753175512887
1789317032653798400,1.95779833984375,-4.788065466660261,-8.5580861091882,-0.06307397158436942
1789317032663754500,1.96775439453125,-4.791971534188091,-8.556016901698708,-0.044283392062387426
1789317032673709300,1.977709228515625,-4.779867839418351,-8.56285697685182,-0.026955281741824
1789317032683665400,1.98766552734375,-4.765991289757192,-8.570622934678196,-0.011335046201513614
1789317032693620500,1.997620361328125,-4.75945662729144,-8.574260998919605,-0.002290684346171474
1789317032703576600,2.00757666015625,-4.755836390967667,-8.57626824708879,0.004425761145044817
1789317032713531400,2.017531494140625,-4.7575759281113745,-8.575286834836005,0.017636308620055205
1789317032723487500,2.027487548828125,-4.762953821757436,-8.57221809491515,0.041620954220369454
1789317032733442600,2.037442626953125,-4.771007072092592,-8.567591019636392,0.06524528774146456
1789317032743398400,2.0473984375,-4.777061549825966,-8.564185010585188,0.06941604322062339
1789317032753353500,2.057353515625,-4.778950724573433,-8.563135793793201,0.06876760294898412
1789317032763309600,2.0673095703125,-4.7747456740990275,-8.56537509715259,0.08082780563686974
1789317032773264400,2.077264404296875,-4.7833723404079675,-8.56032073637247,0.10312839344064705
1789317032783220500,2.087220458984375,-4.808471710351109,-8.546088797402382,0.115531993605569
1789317032793175600,2.097175537109375,-4.818719840382039,-8.540395554196834,0.10937080409470945
1789317032803131400,2.10713134765625,-4.803740005654096,-8.548955877271293,0.09909670850546098
1789317032813086500,2.11708642578125,-4.7849324293315405,-8.55961288036406,0.08853725663619115
1789317032823042300,2.127042236328125,-4.762782556843757,-8.572061443048716,0.07781190101495013
1789317032832997600,2.13699755859375,-4.765406475606561,-8.570608906152843,0.0771002456142567
1789317032842952400,2.146952392578125,-4.789451952582597,-8.557220432269572,0.07415077099178452
1789317032852908300,2.156908203125,-4.784760872156918,-8.5599846362859,0.05568001170842908
1789317032862863600,2.166863525390625,-4.7613759049162265,-8.573088448008894,0.04287431528232991
1789317032872819500,2.1768193359375,-4.742478604483604,-8.58356015766263,0.04210076905998867
1789317032882774300,2.186774169921875,-4.757831071916223,-8.575085759305953,0.036335629662009886
1789317032892730400,2.19673046875,-4.785144026255607,-8.559937874534725,0.015385208649950799
1789317032902685400,2.206685546875,-4.794599836865067,-8.554653796651959,-0.00991762285986333
1789317032912641500,2.2166416015625,-4.793609364522993,-8.555168175914883,-0.028124378036835696
1789317032922596400,2.226596435546875,-4.781759644514322,-8.561762167352438,-0.03736485397873912
1789317032932552700,2.236552734375,-4.778567862735688,-8.563548466247319,-0.03639415719950339
1789317032942507500,2.246507568359375,-4.7629327789694065,-8.57223738413751,-0.039986498586065136
1789317032952463400,2.25646337890625,-4.746231235015392,-8.581443019378185,-0.0500831324162893
1789317032962418400,2.26641845703125,-4.74235643940866,-8.583434485456348,-0.07137693149743135
1789317032972374500,2.27637451171875,-4.749990003027022,-8.578873461151122,-0.10447996331322938
1789317032982329300,2.286329345703125,-4.759263150545954,-8.573294784235953,-0.13566656248187645
1789317032992285400,2.296285400390625,-4.7530248406782745,-8.576410285907983,-0.1559711176302284
1789317033002240500,2.306240478515625,-4.746444000983238,-8.579994574135542,-0.15919362334068865
1789317033012196600,2.316196533203125,-4.762271976973116,-8.571333713296056,-0.15287633908581919
1789317033022151400,2.3261513671875,-4.781887362547218,-8.560355807685852,-0.15571204656893387
1789317033032107300,2.336107177734375,-4.779583761779963,-8.561447694575786,-0.16607448716191575
1789317033042062600,2.3460625,-4.765587969653308,-8.568879890403151,-0.1840213915345259
1789317033052018400,2.356018310546875,-4.764299391147494,-8.56906810645163,-0.20715099577466026
1789317033061973500,2.365973388671875,-4.773554710748791,-8.563343299064039,-0.2296109936575405
1789317033071928600,2.375928466796875,-4.776307224327326,-8.561208625122905,-0.2509975536226295
1789317033081884400,2.385884521484375,-4.768850186319649,-8.565137781265378,-0.25861573700876905
1789317033091839500,2.395839599609375,-4.748571952922642,-8.576679750499128,-0.24904351521171628
1789317033101795300,2.40579541015625,-4.749390283568204,-8.576727681294082,-0.23113014778252688
1789317033111750400,2.41575048828125,-4.760914717145264,-8.570581433624028,-0.22182512555429712
1789317033121706500,2.42570654296875,-4.747570374664664,-8.577723706594108,-0.23153763260487464
1789317033131661300,2.435661376953125,-4.731180380877852,-8.586202196604013,-0.2518812045893632
1789317033141617700,2.44561767578125,-4.730643497522175,-8.58585440607965,-0.2729428799816407
1789317033151572500,2.455572509765625,-4.744514494225383,-8.577574653512238,-0.29184975196020674
1789317033161528300,2.4655283203125,-4.752524489940702,-8.572810215589403,-0.3013710107550025
1789317033171483400,2.4754833984375,-4.749725214610994,-8.574583070480823,-0.29499435186255724
1789317033181439500,2.485439453125,-4.747281620851159,-8.576318515971302,-0.2836503711526282
1789317033191394600,2.49539453125,-4.736572010788321,-8.582126909989118,-0.2869906945564784
1789317033201350400,2.505350341796875,-4.7247617460072036,-8.588052208384871,-0.30393150889277454
1789317033211305500,2.515305419921875,-4.716719309327006,-8.59161428478062,-0.3272748654814437
1789317033221261600,2.525261474609375,-4.721560611878335,-8.588301799231767,-0.3439524440379813
1789317033231216400,2.53521630859375,-4.739195345029235,-8.57839532224536,-0.3486570780649781
1789317033241172500,2.54517236328125,-4.743438681687414,-8.575560975602269,-0.36045937873534856
1789317033251127600,2.55512744140625,-4.735847495906055,-8.579144094786047,-0.37474509371928866
1789317033261082400,2.565082275390625,-4.724850885595381,-8.58486188791096,-0.3825129877744242
1789317033271038500,2.57503857421875,-4.720587382932007,-8.58689894669652,-0.38935046911165117
1789317033280993500,2.58499365234375,-4.719730766102671,-8.587099437704682,-0.39528986909799274
1789317033290949400,2.594949462890625,-4.709126662240922,-8.592068458288907,-0.413366427732259
1789317033300904400,2.604904541015625,-4.699665590934455,-8.595919873020053,-0.4400993171613663
1789317033310860300,2.6148603515625,-4.7020986633002755,-8.593571848589182,-0.4595302495466545
1789317033320815600,2.624815673828125,-4.718298395211995,-8.584089149972796,-0.47059952323473986
1789317033330771500,2.634771484375,-4.732978370210528,-8.575527073332667,-0.47920481796208764
1789317033340726300,2.644726318359375,-4.740039394637942,-8.57085966604352,-0.49271611450742925
1789317033350682600,2.6546826171875,-4.744578207111358,-8.567361302533746,-0.5095817995145917
1789317033360637400,2.664637451171875,-4.735586799143254,-8.570753867581486,-0.5355095465732738
1789317033370593500,2.674593505859375,-4.718541848579049,-8.578417534077166,-0.5625749558923766
1789317033380549000,2.684549072265625,-4.710736435525119,-8.581623636642098,-0.5788561920750885
1789317033390505000,2.6945048828125,-4.730426055379212,-8.5700559484452,-0.5895708801718429
1789317033400460300,2.704460205078125,-4.765672433066368,-8.549650873798132,-0.6018512101501227
1789317033410416000,2.714416015625,-4.761119884328544,-8.550415428429842,-0.6265100697841495
1789317033420371000,2.724370849609375,-4.714767882998287,-8.574172151592373,-0.6518617339879273
1789317033430327300,2.734327392578125,-4.680781149983406,-8.59237767036855,-0.6570514846507459
1789317033440282000,2.7442822265625,-4.691061428718268,-8.58652309912145,-0.6602623364560306
1789317033450238200,2.75423828125,-4.722976323895156,-8.56623551337421,-0.6953372300338
1789317033460193300,2.764193359375,-4.729893848198652,-8.558210612350702,-0.7453265649531036
1789317033470149400,2.7741494140625,-4.712375727164745,-8.564933198603986,-0.7783349544551224
1789317033480104200,2.784104248046875,-4.709732519179583,-8.566846338748931,-0.7732686840415001
1789317033490060000,2.79406005859375,-4.713592117217183,-8.565372174543143,-0.7660393903750926
1789317033500015400,2.804015380859375,-4.710921728964149,-8.56636410818994,-0.771368403378129
1789317033509970200,2.81397021484375,-4.71263788523227,-8.563969906529783,-0.7873162794206291
1789317033519926000,2.823926025390625,-4.728477843920886,-8.552389358851313,-0.8176292192935943
1789317033529881300,2.83388134765625,-4.7455771550208325,-8.539307758960128,-0.8544684921953827
1789317033539837200,2.843837158203125,-4.72929149839133,-8.544777714803814,-0.8893620378568768
1789317033549792000,2.8537919921875,-4.702463697220384,-8.558832543641328,-0.8964406710062175
1789317033559748000,2.863748046875,-4.699240351259708,-8.561986039236187,-0.8831270159248262
1789317033569703200,2.873703125,-4.710680613684654,-8.555200909140705,-0.8879287901833653
1789317033579659300,2.8836591796875,-4.712001340894401,-8.552368316063284,-0.9079762835644185
1789317033589614000,2.893614013671875,-4.693710189661384,-8.559373226389289,-0.9362634166982025
1789317033599570200,2.903570068359375,-4.691081302462518,-8.55815800538063,-0.960246715158224
1789317033609525200,2.913525146484375,-4.70834749456197,-8.546674488335848,-0.9778515646275132
1789317033619481000,2.923481201171875,-4.728066632771491,-8.533399411699175,-0.9984338224723934
1789317033629436200,2.933436279296875,-4.737326920808852,-8.526648768395185,-1.0121248594988137
1789317033639392300,2.943392333984375,-4.730241638723015,-8.529322371518612,-1.0226730684548615
1789317033649347000,2.95334716796875,-4.7411710290163755,-8.522633687534928,-1.0278097006909548
1789317033659303200,2.96330322265625,-4.758703470836579,-8.512717273676396,-1.0289636930316686
1789317033669258200,2.97325830078125,-4.747693124261498,-8.517652976512908,-1.0389304488379507
1789317033679214300,2.98321435546875,-4.720651095817983,-8.531111593022942,-1.0516470878742634
1789317033689169200,2.993169189453125,-4.6925224411815405,-8.543659524428843,-1.075409583190456
1789317033699125000,3.003125,-4.687772908566892,-8.543295951813459,-1.098752610985562
1789317033709080300,3.013080322265625,-4.701435230955481,-8.534429923790693,-1.1092279008358716
1789317033719036200,3.0230361328125,-4.711453059361875,-8.528981010735034,-1.1086380451839417
1789317033728991200,3.0329912109375,-4.71986403709352,-8.52546511156857,-1.0998682440772651
1789317033738947000,3.042947021484375,-4.7344729926824565,-8.518573013967275,-1.0904399059966206
1789317033748902100,3.052902099609375,-4.779610649786889,-8.495131932625174,-1.0763052899211645
1789317033758857200,3.062857177734375,-4.8017727972343565,-8.480890056782961,-1.089894181747362
1789317033768813000,3.07281298828125,-4.771283258685469,-8.493173199772833,-1.127499616716057
1789317033778768100,3.08276806640625,-4.719002159567177,-8.518586457970738,-1.1554601482439786
1789317033788724200,3.09272412109375,-4.68926753103882,-8.535023798030615,-1.1552226862262933
1789317033798679000,3.102678955078125,-4.6940652867093675,-8.533851831641792,-1.1443331164866686
1789317033808635100,3.11263525390625,-4.685374322992563,-8.538218210157751,-1.1473816173370928
1789317033818590200,3.122590087890625,-4.658371165254712,-8.552569391593337,-1.1504437813866883
1789317033828546300,3.13254638671875,-4.656949315758049,-8.554058753368258,-1.1451101652737705
1789317033838501000,3.142501220703125,-4.699131630188226,-8.531326112556457,-1.1423700727853923
1789317033848457200,3.152457275390625,-4.768451834651827,-8.492095925930142,-1.147416688650474
1789317033858412300,3.162412353515625,-4.809418343551457,-8.46649094455242,-1.1655072758100926
1789317033868368100,3.1723681640625,-4.809211130541563,-8.464575466319918,-1.1801901734180749
1789317033878323200,3.1823232421875,-4.793500351190567,-8.47292711507976,-1.184160538353771
1789317033888279300,3.192279296875,-4.782888940805196,-8.478264968976378,-1.1888527147579937
1789317033898234000,3.202234130859375,-4.75258469569534,-8.494228261783718,-1.1964134323358535
1789317033908190200,3.212190185546875,-4.702663311445713,-8.521087627136707,-1.202666062989831
1789317033918145300,3.222145263671875,-4.670256541098654,-8.53749340301454,-1.212558949842304
1789317033928101000,3.23210107421875,-4.677414303898811,-8.531998312729597,-1.2235968420114367
1789317033938056200,3.24205615234375,-4.7096296433269975,-8.511185241803526,-1.2447887561872601
1789317033948012000,3.252011962890625,-4.743762799075245,-8.489007896786928,-1.2664317020662128
1789317033957967400,3.26196728515625,-4.773976735553145,-8.471063659295439,-1.2730340229406951
1789317033967923200,3.271923095703125,-4.790209785212576,-8.461071842113137,-1.27848995025903
1789317033977878000,3.2818779296875,-4.794608604693413,-8.456026249161361,-1.2952775650613009
1789317033987834000,3.291834228515625,-4.772214986577629,-8.465700086435675,-1.3146427752666174
1789317033997789200,3.3017890625,-4.746433479589224,-8.478133451551198,-1.3277872112609446
1789317034007744000,3.311743896484375,-4.731804650256038,-8.484392511945963,-1.3399623638316989
1789317034017700000,3.3217001953125,-4.731627540123462,-8.483299456012249,-1.3474835531167686
1789317034027656200,3.33165625,-4.74536818844527,-8.474832071918248,-1.3524363532185553
1789317034037611300,3.341611328125,-4.747930732409656,-8.472320965880154,-1.3591605469070374
1789317034047566000,3.351566162109375,-4.763308626544475,-8.463339202523231,-1.3613117335915565
1789317034057522200,3.361522216796875,-4.785982815167308,-8.44933405804634,-1.3687613189451395
1789317034067477200,3.371477294921875,-4.79529454113096,-8.44325386134982,-1.3736848929524421
1789317034077433000,3.38143310546875,-4.781923895165324,-8.451631813594698,-1.3687676025554536
1789317034087388200,3.39138818359375,-4.7642792251423,-8.461093469423055,-1.3718354656934737
1789317034097344300,3.40134423828125,-4.759333293172717,-8.462418580546975,-1.380799985654652
1789317034107299000,3.411299072265625,-4.749081363749504,-8.466857439777254,-1.38886054251343
1789317034117255200,3.421255126953125,-4.748929972580075,-8.467621409887075,-1.3847161361850797
1789317034127210200,3.431210205078125,-4.744953762425482,-8.471170626801252,-1.376613347619772
1789317034137166300,3.441166259765625,-4.751356322944164,-8.466758071056008,-1.3816690235741436
1789317034147121200,3.45112109375,-4.767141044314205,-8.457415657693147,-1.3845125764369963
1789317034157077000,3.461076904296875,-4.776962765626609,-8.453596391665934,-1.3739476355418563
1789317034167032300,3.4710322265625,-4.7924213237822055,-8.447522624710201,-1.3573653340533376
1789317034176988200,3.48098828125,-4.7977094933182,-8.445656246316432,-1.3502838513597846
1789317034186943000,3.49094287109375,-4.790869418165087,-8.449103756421804,-1.3530007091030478
1789317034196899000,3.500899169921875,-4.773517009086906,-8.459011402451992,-1.3524264163464308
1789317034206854100,3.510854248046875,-4.759911385321617,-8.467953418320416,-1.3443947933211922
1789317034216810200,3.520810302734375,-4.750751050527393,-8.475074063980578,-1.3318677585728467
1789317034226765000,3.53076513671875,-4.745029750271141,-8.480484983113408,-1.3177511165454983
1789317034236721200,3.54072119140625,-4.749529399777948,-8.479588326534628,-1.3072666935406625
1789317034246676200,3.55067626953125,-4.760746667101979,-8.473846568012236,-1.30369058861956
1789317034256632000,3.560632080078125,-4.7830827098116275,-8.461764500552416,-1.300405137208104
1789317034266587100,3.570587158203125,-4.801187398561835,-8.452147361901401,-1.2962206911303102
1789317034276543200,3.580543212890625,-4.808345161361992,-8.44814338695705,-1.2957913598023354
1789317034286498000,3.590498046875,-4.816730712391436,-8.44463450205326,-1.287500209058076
1789317034296453000,3.600453125,-4.822861762492359,-8.44353326281309,-1.2716713562853634
1789317034306409200,3.6104091796875,-4.797511340397596,-8.457357205504179,-1.2756874600589274
1789317034316364000,3.620364013671875,-4.741140049356222,-8.488211777973175,-1.2815025760784744
1789317034326320000,3.630320068359375,-4.704162902353704,-8.510255267477035,-1.2715303403794764
1789317034336275200,3.640275146484375,-4.7210631837502115,-8.503183137133718,-1.2561183978445827
1789317034346231300,3.650231201171875,-4.761410099446773,-8.481035602733492,-1.253552785140276
1789317034356186000,3.66018603515625,-4.781220715332031,-8.469193189248442,-1.2582004648156464
1789317034366142200,3.67014208984375,-4.77696101206094,-8.472177758017182,-1.2542812455452979
1789317034376097300,3.68009716796875,-4.785570727235078,-8.470599548915027,-1.2319292746141552
1789317034386053000,3.69005322265625,-4.8079184603825205,-8.459811612918973,-1.2189770001910627
1789317034396008000,3.700008056640625,-4.804722294689714,-8.461137893086672,-1.2223694191083312
1789317034405964000,3.709964111328125,-4.782638473175465,-8.473307638829946,-1.2246695127442477
1789317034415919000,3.719919189453125,-4.768862753540277,-8.48034878951311,-1.2296401407636701
1789317034425875200,3.729875244140625,-4.760070959797502,-8.483340957066416,-1.243000411465764
1789317034435830000,3.739830078125,-4.746480825862288,-8.490155897778273,-1.2484184909917413
1789317034445786000,3.7497861328125,-4.736009700730443,-8.498044605201482,-1.2344377503037451
1789317034455741200,3.7597412109375,-4.74410036046654,-8.49627876457274,-1.2153746648501604
1789317034465697000,3.769697021484375,-4.759190377570689,-8.48790198137164,-1.2149058782946318
1789317034475652000,3.779652099609375,-4.765701659160852,-8.48323866573572,-1.2219418413460255
1789317034485608200,3.789608154296875,-4.776554769347608,-8.479280868020654,-1.2069392833296209
1789317034495563000,3.79956298828125,-4.812956746810674,-8.463464874729514,-1.1728597574647515
1789317034505519000,3.80951904296875,-4.837694589965045,-8.449452131468057,-1.1721216524485498
1789317034515474200,3.81947412109375,-4.819547523377835,-8.456730013516545,-1.1941858924794941
1789317034525430300,3.82943017578125,-4.780700783111155,-8.476225572103262,-1.2119749394092707
1789317034535385000,3.839385009765625,-4.763492750939727,-8.485915191468596,-1.2119321231808513
1789317034545341000,3.8493408203125,-4.761291733764112,-8.486924076250196,-1.2135095285654067
1789317034555296300,3.859296142578125,-4.743144082655013,-8.496084118783473,-1.2204623433779924
1789317034565252000,3.869252197265625,-4.724605094140768,-8.508017133161426,-1.2091815823636949
1789317034575207000,3.87920703125,-4.728477843920886,-8.50746768258512,-1.1978668460145592
1789317034585163000,3.8891630859375,-4.760694352392852,-8.488734925064444,-1.203147416765988
1789317034595118000,3.8991181640625,-4.796586042246222,-8.46787158525586,-1.2076051998924464
1789317034605074200,3.90907421875,-4.808381986241042,-8.461068919503688,-1.2083745768297462
1789317034615029000,3.919029052734375,-4.809600422120094,-8.460099197688699,-1.2103064216751604
1789317034624984000,3.928984130859375,-4.80571948903352,-8.461317341306804,-1.2171879978824407
1789317034634940200,3.938940185546875,-4.795384265241027,-8.466050799569487,-1.2250153305072338
1789317034644895000,3.94889501953125,-4.783371755886078,-8.473172614273428,-1.2227372295074164
1789317034654851000,3.95885107421875,-4.76669417732954,-8.481932259312272,-1.2271221665933727
1789317034664806100,3.96880615234375,-4.755152500356734,-8.48592746642828,-1.2441643406786025
1789317034674762000,3.978761962890625,-4.750202768994868,-8.487042734193802,-1.2554111263580618
1789317034684717000,3.988717041015625,-4.761998712989688,-8.480453418931365,-1.255253743839264
1789317034694673200,3.998673095703125,-4.792281038528681,-8.464581311538815,-1.2471093080893159
1789317034704628000,4.0086279296875,-4.802774960014224,-8.458360245066881,-1.2489540591731667
1789317034714584000,4.018583984375,-4.802865560907125,-8.456492697629333,-1.2611921939775348
1789317034724539100,4.0285390625,-4.8127319981440895,-8.449573712021111,-1.269918959660083
1789317034734495200,4.0384951171875,-4.821749417336285,-8.442294660928845,-1.2840442233853042
1789317034744450000,4.048449951171875,-4.8002936645925045,-8.450451663899422,-1.3105043602876365
1789317034754406000,4.058406005859375,-4.760435701456665,-8.471160689929127,-1.322147597938776
1789317034764361200,4.068361328125,-4.741942597910762,-8.483264384698867,-1.3109488891847432
1789317034774317000,4.078317138671875,-4.764969253233075,-8.472937051951885,-1.2941411083772778
1789317034784272100,4.088272216796875,-4.7944428927376865,-8.456376377773285,-1.2935985259331761
1789317034794228000,4.09822802734375,-4.798252221892774,-8.452418580058216,-1.3052911556839941
1789317034804183000,4.10818310546875,-4.78832850151062,-8.456670976805686,-1.3141634673170746
1789317034814139100,4.11813916015625,-4.785016015961766,-8.456941025918722,-1.3244473993137478
1789317034824094000,4.128093994140625,-4.8161140417978165,-8.438398238012194,-1.329987790045142
1789317034834050300,4.13805029296875,-4.841966860456765,-8.423443829986452,-1.3309187872849404
1789317034844005000,4.148005126953125,-4.838770694763959,-8.424803427901864,-1.3339295134082436
1789317034853961000,4.1579609375,-4.808755787989497,-8.441252458399534,-1.338470079447329
1789317034863916000,4.167916015625,-4.778068096520006,-8.458836045885086,-1.3373648946844041
1789317034873872100,4.1778720703125,-4.788357435344159,-8.454138243457674,-1.3302512632869183
1789317034883827000,4.187826904296875,-4.798833821173012,-8.447512103316187,-1.334588123447448
1789317034893783000,4.197782958984375,-4.803696751034259,-8.443446169051528,-1.3427952491700648
1789317034903738000,4.207738037109375,-4.791755845610797,-8.449099664768577,-1.3498786315597593
1789317034913694200,4.217694091796875,-4.78606143336147,-8.451391575098038,-1.355721073977649
1789317034923649000,4.22764892578125,-4.819745091776549,-8.43402192262411,-1.344516373874247
1789317034933605000,4.237605224609375,-4.8576551357150075,-8.413557226744294,-1.3362744690991937
1789317034943560200,4.247560302734375,-4.878845807781815,-8.40030436193943,-1.3424416134268045
1789317034953516000,4.25751611328125,-4.861951663865149,-8.405925708952546,-1.3682937014333902
1789317034963471000,4.26747119140625,-4.837442368769645,-8.415866088208556,-1.3938263482272624
1789317034973427000,4.277427001953125,-4.806325053711236,-8.432200552415848,-1.402716487777978
1789317034983382000,4.287382080078125,-4.776145896285772,-8.450068217539787,-1.3982700297631323
1789317034993338000,4.297338134765625,-4.760780277110636,-8.459619305217265,-1.3929083565995097
1789317035003293000,4.30729296875,-4.742973694524169,-8.468462536886333,-1.3999056681409476
1789317035013248000,4.317248046875,-4.749075226269662,-8.463349139395355,-1.4101048444636166
1789317035023204000,4.3272041015625,-4.775080020619929,-8.446216802808642,-1.4249297808907926
1789317035033160000,4.337159912109375,-4.8108293793931605,-8.423602819940447,-1.43848396672979
1789317035043115300,4.347115234375,-4.837854456701875,-8.406167116492986,-1.4497969495132565
1789317035053070000,4.357070068359375,-4.842968730975687,-8.400231881225109,-1.467019302470982
1789317035063026200,4.367026123046875,-4.8510652359306805,-8.39507990528941,-1.4697624636992812
1789317035072981000,4.37698095703125,-4.857450260792672,-8.392391104596852,-1.464016321262717
1789317035082937000,4.38693701171875,-4.848722179935872,-8.39649795539379,-1.4693907077774404
1789317035092892200,4.39689208984375,-4.8074248316466806,-8.417416240260005,-1.4853174679666756
1789317035102848000,4.406847900390625,-4.754994387185573,-8.443854165330528,-1.5039086250595748
1789317035112803000,4.416802978515625,-4.738069555869698,-8.450626435944438,-1.5192076087392865
1789317035122759200,4.42675927734375,-4.753595918564498,-8.438844228214025,-1.5361018987864254
1789317035132714000,4.4367138671875,-4.786981470815837,-8.417436698526144,-1.5498248653210698
1789317035142670000,4.446670166015625,-4.8155143223389985,-8.39918324895501,-1.5604248775295912
1789317035152625200,4.456625244140625,-4.827599020147323,-8.390783084878326,-1.5682546943724154
1789317035162581000,4.4665810546875,-4.842156537809967,-8.382489303785562,-1.567725994323194
1789317035172536000,4.4765361328125,-4.855755439573526,-8.373985094812513,-1.5711108144558965
1789317035182492000,4.486491943359375,-4.86188532063067,-8.368945931601523,-1.578982716874778
1789317035192447200,4.496447265625,-4.843591831310093,-8.376248363569378,-1.5963935781419276
1789317035202403000,4.506403076171875,-4.812220249229669,-8.39013952627778,-1.6181737405344843
1789317035212358000,4.51635791015625,-4.793058160381019,-8.398733167099952,-1.6304147979483008
1789317035222314200,4.526314208984375,-4.78816980381757,-8.400934476536511,-1.6334377990312874
1789317035232269000,4.53626904296875,-4.795479250048101,-8.39774824771583,-1.6283701403781772
1789317035242225200,4.54622509765625,-4.802101006275415,-8.39299257762134,-1.6333707251444458
1789317035252180200,4.55618017578125,-4.813775661978125,-8.384424655762315,-1.642977780792862
1789317035262136000,4.566135986328125,-4.835476329393685,-8.370685468745231,-1.649297485333681
1789317035272091100,4.576091064453125,-4.865671853432059,-8.350477962496877,-1.6628713987864554
1789317035282047000,4.586046875,-4.894024672213196,-8.33154296040237,-1.674604506678134
1789317035292002300,4.596002197265625,-4.892440617892146,-8.329467907693981,-1.6894919869475065
1789317035301958100,4.605958251953125,-4.866793550938367,-8.34200239509642,-1.7016801451303063
1789317035311913000,4.615912841796875,-4.836406011459231,-8.360764963233471,-1.6962271404214202
1789317035321869000,4.625869140625,-4.813113690938056,-8.375712356996535,-1.6887119424857198
1789317035331824000,4.63582421875,-4.803002631290257,-8.381174129533767,-1.6904051562696694
1789317035341780200,4.6457802734375,-4.788490121813118,-8.387375322261452,-1.7007853882476687
1789317035351735000,4.655735107421875,-4.772744271148741,-8.39263952639997,-1.7189803856298327
1789317035361691000,4.66569091796875,-4.789622048452496,-8.381452361953258,-1.7266034278541802
1789317035371646200,4.675646240234375,-4.844466276057064,-8.352140342751145,-1.7155964422799646
1789317035381601500,4.6856015625,-4.900839905185997,-8.320448150414228,-1.7094722603112458
1789317035391556900,4.695556884765625,-4.920383102306723,-8.307104684716462,-1.7182034099079668
1789317035401512700,4.7055126953125,-4.908160165071487,-8.313436225825548,-1.7225357400238512
1789317035411467500,4.715467529296875,-4.892674134387075,-8.323487664240599,-1.7180420818664133
1789317035421423600,4.725423583984375,-4.872455814483762,-8.333375436526536,-1.7275502071850002
1789317035431378700,4.735378662109375,-4.843977615757287,-8.350436461442708,-1.7252505519405006
1789317035441334800,4.745334716796875,-4.811954291769862,-8.368291267085075,-1.728350417651981
1789317035451289600,4.75528955078125,-4.796059972545504,-8.374528115648031,-1.7422648151054978
1789317035461245700,4.76524560546875,-4.799564473535121,-8.371405599713325,-1.7476130442656577
1789317035471200800,4.77520068359375,-4.8132820332422845,-8.363680558419228,-1.746866317551583
1789317035481156600,4.785156494140625,-4.837169981569051,-8.351994212278724,-1.7367701632119714
1789317035491111700,4.795111572265625,-4.869817282673716,-8.336454113319515,-1.7201134813129901
1789317035501067500,4.805067626953125,-4.899394382552802,-8.320547519135475,-1.7131301982969045
1789317035511022600,4.815022705078125,-4.903626028773188,-8.31906224901378,-1.7082294206432997
1789317035520978700,4.824978759765625,-4.886084234602749,-8.332053248012066,-1.695125608920306
1789317035530933500,4.83493359375,-4.87423889850825,-8.341852172970771,-1.6809795946680008
1789317035540889900,4.844889892578125,-4.855304480935633,-8.352240295994282,-1.6841854049719869
1789317035550844700,4.8548447265625,-4.829316637720168,-8.366557575160265,-1.6878345751293002
1789317035560800500,4.864800537109375,-4.80808680268675,-8.380501929360628,-1.6792480947002768
1789317035570755800,4.874755859375,-4.807486206445097,-8.383807400646806,-1.664406645529717
1789317035580711700,4.884711669921875,-4.832008653283119,-8.374085048055647,-1.6421891146332024
1789317035590666800,4.894666748046875,-4.84326157644242,-8.372145019903778,-1.6187620618164538
1789317035600621800,4.904621826171875,-4.841069619356095,-8.37693459226787,-1.6004336473129688
1789317035610577700,4.91457763671875,-4.8455137392833825,-8.376015723857282,-1.591771179038286
1789317035620533800,4.92453369140625,-4.877473058123886,-8.358402910277247,-1.586738591698557
1789317035630488600,4.934488525390625,-4.886602120997011,-8.351589138609171,-1.5945143402665853
1789317035640444700,4.944444580078125,-4.8559144295275205,-8.369920329591631,-1.592143373351544
1789317035650399700,4.954399658203125,-4.834127252872288,-8.389520517596601,-1.5548409399174152
1789317035660354600,4.9643544921875,-4.830835517850518,-8.400075813880562,-1.5073627110362051
1789317035670310700,4.974310546875,-4.832844811846315,-8.401187574514745,-1.4946731792025267
1789317035680265700,4.984265625,-4.816226270000636,-8.411634149727226,-1.4895536442317068
1789317035690221800,4.994221923828125,-4.788138531896472,-8.428283086711168,-1.4859867455303668
1789317035700176600,5.0041767578125,-4.7989440035492175,-8.422718438321352,-1.4826773287214339
1789317035710132500,5.014132568359375,-4.8526633187770845,-8.393668869447708,-1.472539819458127
1789317035720087800,5.024087890625,-4.896364221076667,-8.369497135743499,-1.4654438698478043
1789317035730043600,5.034043701171875,-4.898050566728413,-8.37059486785233,-1.4534927352912723
1789317035739998500,5.04399853515625,-4.879147128815949,-8.385071136972307,-1.4334908346176147
1789317035749954800,5.053954833984375,-4.860276424129307,-8.39819423791766,-1.4207171316318212
1789317035759909600,5.06390966796875,-4.828777708537876,-8.41761322413683,-1.413179429603368
1789317035769865700,5.07386572265625,-4.798871522834896,-8.43633662930727,-1.4033695448592305
1789317035779820800,5.08382080078125,-4.777766190963983,-8.448400576588512,-1.4028040199309586
1789317035789776600,5.093776611328125,-4.767960544003546,-8.453321666377782,-1.406515880060941
1789317035799731700,5.103731689453125,-4.770645545303822,-8.452910747489332,-1.3998602215640246
1789317035809687600,5.1136875,-4.797360241489112,-8.442016428509355,-1.3740769610099495
1789317035819643000,5.123642822265625,-4.844914604346454,-8.419511166712642,-1.344998458302766
1789317035829598700,5.1335986328125,-4.890311204648017,-8.39411485964954,-1.339431471825391
1789317035839553500,5.143553466796875,-4.917938047242164,-8.377437281093,-1.3426925194479524
1789317035849509600,5.153509521484375,-4.898008481152355,-8.38982213089168,-1.338206021683663
1789317035859464700,5.163464599609375,-4.86586562243849,-8.411772096893191,-1.317508101569861
1789317035869420800,5.1734208984375,-4.822842473269999,-8.436977849820256,-1.3145323006294667
1789317035879375600,5.183375732421875,-4.7710991342902185,-8.465289167547226,-1.3213165539421141
1789317035889331500,5.19333154296875,-4.7388685972929,-8.484338735932111,-1.315112584735453
1789317035899286800,5.203286865234375,-4.7340106358677145,-8.488543786406517,-1.3054270570233464
1789317035909242600,5.21324267578125,-4.764803541277349,-8.47235077649653,-1.2985757298238574
1789317035919197400,5.223197509765625,-4.789666764377057,-8.45856775033772,-1.2969606958426534
1789317035929153800,5.23315380859375,-4.81441980510056,-8.445995269012451,-1.287207655852288
1789317035939108600,5.243108642578125,-4.849442603164911,-8.427475861981511,-1.2770859286800027
1789317035949064700,5.253064697265625,-4.877091073068976,-8.411122693073748,-1.2796049257636068
1789317035959019800,5.263019775390625,-4.88592319882214,-8.405652737230062,-1.2818449597753583
1789317035968976000,5.272975830078125,-4.856984104585647,-8.422377662059665,-1.2820470582187176
1789317035978930700,5.2829306640625,-4.819799160051345,-8.445079323211312,-1.273014149196446
1789317035988886500,5.292886474609375,-4.782648702308535,-8.466898940831422,-1.268182345125824
1789317035998841900,5.302841796875,-4.757766189986467,-8.480199151909352,-1.2729013364717363
1789317036008797700,5.312797607421875,-4.763183831121027,-8.477801443117857,-1.268601301190257
1789317036018752500,5.32275244140625,-4.782620937518775,-8.467374741649627,-1.2651023531585932
1789317036028708600,5.33270849609375,-4.813220950704813,-8.449578972718118,-1.2680338765658437
1789317036038663700,5.34266357421875,-4.832861470720172,-8.437956339463591,-1.270720923692733
1789317036048619800,5.352619873046875,-4.84246925702095,-8.433001347404717,-1.2670317137859761
1789317036058574600,5.36257470703125,-4.86133382422775,-8.423945349767804,-1.254975803680718
1789317036068530400,5.372530517578125,-4.875578330418468,-8.415358723208307,-1.2573219284154473
1789317036078485800,5.38248583984375,-4.865759239454567,-8.417333238151668,-1.2818994664415717
1789317036088441600,5.392441650390625,-4.819418344040215,-8.44068021146953,-1.3032730938598514
1789317036098396700,5.402396728515625,-4.776244680485129,-8.465266371193527,-1.3027400098964572
1789317036108352800,5.412352783203125,-4.779437046785652,-8.465776658803223,-1.287634649092704
1789317036118307600,5.4223076171875,-4.791457447186112,-8.458750121167302,-1.2891411081328987
1789317036128263700,5.432263671875,-4.790979600541293,-8.455853230682015,-1.3097472583100198
1789317036138218800,5.44221875,-4.7922030048564075,-8.452704411262273,-1.3255050916731357
1789317036148174800,5.4521748046875,-4.807138123659789,-8.44314397123456,-1.332340636781603
1789317036158129700,5.462129638671875,-4.8383048308178775,-8.425078737711907,-1.333882897787541
1789317036168085500,5.47208544921875,-4.860286361001432,-8.41263075954914,-1.3325304602652788
1789317036178040800,5.482040771484375,-4.858747899387777,-8.413458442544936,-1.3329162447124718
1789317036187996700,5.49199658203125,-4.839793608070909,-8.422650633782148,-1.343778122727573
1789317036197951500,5.501951416015625,-4.826349020086228,-8.427890288001299,-1.3591906497843562
1789317036207907600,5.511907470703125,-4.813249884538352,-8.433644906005263,-1.3699066895879803
1789317036217862700,5.521862548828125,-4.786163724692166,-8.447630761259793,-1.3786110973082482
1789317036227818800,5.53181884765625,-4.769649520003795,-8.455906422173976,-1.3850865769326686
1789317036237773600,5.541773681640625,-4.772944762156904,-8.452529054695367,-1.394320707615465
1789317036247729700,5.551729736328125,-4.802236615353823,-8.43471516558528,-1.4016069191008806
1789317036257684700,5.561684814453125,-4.837557519581914,-8.413996202683448,-1.404672151890397
1789317036267640600,5.571640625,-4.853792615067959,-8.402296997061372,-1.4186200132220983
1789317036277595600,5.581595703125,-4.843018707597255,-8.405121406832336,-1.4385698914475737
1789317036287551700,5.5915517578125,-4.826204643179476,-8.413105975845456,-1.4483732003204524
1789317036297506600,5.601506591796875,-4.841749418313801,-8.404530455201863,-1.4462797351725398
1789317036307462700,5.611462646484375,-4.869072894047201,-8.387764029318094,-1.4518758016139268
1789317036317417700,5.621417724609375,-4.880457919153571,-8.378754793432355,-1.4655965761914849
1789317036327373800,5.631373779296875,-4.867856211733818,-8.383396481758355,-1.480883869433403
1789317036337328600,5.64132861328125,-4.844168754415214,-8.394711071977019,-1.4944066372208296
1789317036347284500,5.651284423828125,-4.820230537205934,-8.406743455076217,-1.5041411186411975
1789317036357239800,5.66123974609375,-4.799594284151494,-8.416259471440314,-1.5168573923513293
1789317036367195600,5.671195556640625,-4.783797580082714,-8.422828328436612,-1.5302400210157037
1789317036377150700,5.681150634765625,-4.773343990607559,-8.426459378415347,-1.542842897479236
1789317036387107000,5.691107177734375,-4.780509644453227,-8.420182782363892,-1.5548751344479619
1789317036397062100,5.701062255859375,-4.798646189646423,-8.410277474421262,-1.5526144960395991
1789317036407018000,5.71101806640625,-4.835793140257895,-8.392184183847904,-1.5351644718058406
1789317036416973000,5.72097314453125,-4.886932375864684,-8.365164659497141,-1.5206246359303592
1789317036426929000,5.730928955078125,-4.908891986477375,-8.35149503058493,-1.525021117323637
1789317036436884000,5.740884033203125,-4.8840901381760835,-8.360661502858996,-1.5541509118266403
1789317036446840000,5.750840087890625,-4.835609600384533,-8.38292068094015,-1.5855296543002129
1789317036456795000,5.760794921875,-4.789852642337977,-8.40487473859489,-1.6080318473570048
1789317036466751000,5.7707509765625,-4.781650046660006,-8.408630291736126,-1.6128044685862957
1789317036476706000,5.7807060546875,-4.801964812675118,-8.399936113148927,-1.597679526299238
1789317036486662100,5.790662109375,-4.814235972966253,-8.394868892887235,-1.58735307033509
1789317036496617000,5.800616943359375,-4.831556817862391,-8.386284604415296,-1.5800883400291204
1789317036506573000,5.810572998046875,-4.859302902922034,-8.371590893152355,-1.572905881179124
1789317036516528000,5.820528076171875,-4.881167236466705,-8.358016541308164,-1.5773900408558545
1789317036526484000,5.83048388671875,-4.876929160505533,-8.358242751279473,-1.5892577349126338
1789317036536439000,5.84043896484375,-4.8523684274837375,-8.370275718900562,-1.6010586473435162
1789317036546395100,5.85039501953125,-4.82782873724997,-8.38284761570394,-1.6094487284176051
1789317036556350000,5.860349853515625,-4.8091103005155915,-8.393415771469474,-1.6104136279270052
1789317036566306000,5.87030615234375,-4.8031277189746495,-8.398487083384394,-1.6017990904472768
1789317036576261000,5.88026123046875,-4.7823511806666845,-8.412567046663165,-1.5900366103306411
1789317036586217000,5.890217041015625,-4.785013677874208,-8.416722997298836,-1.5597468321375547
1789317036596172000,5.900172119140625,-4.820159517796338,-8.40168208003342,-1.5323770330443978
1789317036606127900,5.9101279296875,-4.8473354017525905,-8.386887246483564,-1.5276944281861184
1789317036616083200,5.920083251953125,-4.84535124219805,-8.388935995706916,-1.5227286224722862
1789317036626039000,5.9300390625,-4.8363113189131015,-8.397275369507074,-1.5054004710525273
1789317036635993900,5.939993896484375,-4.836984688130021,-8.401558161392808,-1.4791133526295424
1789317036645950000,5.949949951171875,-4.84288076043129,-8.40270791594982,-1.4530619426585734
1789317036655905000,5.959905029296875,-4.8388180410370225,-8.407836511009931,-1.436836053392291
1789317036665861000,5.969861083984375,-4.79733656835258,-8.433852411276101,-1.4234100239776073
1789317036675816000,5.97981591796875,-4.755372280587256,-8.461952716600894,-1.3971984550088643
1789317036685772000,5.98977197265625,-4.74691600240916,-8.473305885264278,-1.356562493237853
1789317036695727000,5.99972705078125,-4.7702217669337985,-8.467905487525462,-1.3076476556822656
1789317036705683000,6.009682861328125,-4.786778349459171,-8.46507347896993,-1.2647810122497378
1789317036715638300,6.01963818359375,-4.804968086144328,-8.46045107986629,-1.2261458689071236
1789317036725594000,6.029593994140625,-4.819636955226957,-8.456877897554635,-1.1927696690060197
1789317036735549000,6.039548828125,-4.83172749825418,-8.453340371078252,-1.1686883169990032
1789317036745505000,6.049505126953125,-4.831365679204463,-8.456995386454462,-1.143473796243593
1789317036755460000,6.059460205078125,-4.79123766695559,-8.485486736923455,-1.100421347915381
1789317036765416200,6.069416259765625,-4.746778932026029,-8.517065532013774,-1.0478934344291686
1789317036775371000,6.07937109375,-4.726047109642624,-8.535514796417951,-0.989882705617696
1789317036785326800,6.089326904296875,-4.718236435891687,-8.546392164263128,-0.9315642990965396
1789317036795282200,6.0992822265625,-4.725266772919893,-8.548157420369982,-0.87820563387461
1789317036805238000,6.109238037109375,-4.740297753313183,-8.54512316724062,-0.8251167985700071
1789317036815192800,6.11919287109375,-4.761876547914743,-8.536946290525794,-0.7845144468076527
1789317036825149200,6.129149169921875,-4.778423485828935,-8.530250592279433,-0.7562163538884371
1789317036835104000,6.13910400390625,-4.776786532276868,-8.533806823456286,-0.72582998345308
1789317036845060000,6.14906005859375,-4.775222351700068,-8.538103059345483,-0.6844176304820925
1789317036855015000,6.159014892578125,-4.789638122804463,-8.534315942022204,-0.628657603206858
1789317036864971300,6.16897119140625,-4.788507072947919,-8.539518186840414,-0.5632091621426865
1789317036874926000,6.178926025390625,-4.7582770621180535,-8.560440563359856,-0.4980445064559579
1789317036884882000,6.1888818359375,-4.738398933954537,-8.574690622508525,-0.4389245012283325
1789317036894837200,6.198837158203125,-4.739441428744793,-8.576372876507044,-0.3922948520004749
1789317036904793000,6.20879296875,-4.749934473447501,-8.571758076187967,-0.365341342090629
1789317036914748000,6.218747802734375,-4.745278464335203,-8.574972946581244,-0.3500614649701863
1789317036924704000,6.2287041015625,-4.726336740238964,-8.58650380989909,-0.32261319381333886
1789317036934659000,6.2386591796875,-4.737770865184069,-8.581450033640861,-0.2874715368759818
1789317036944615200,6.248615234375,-4.782236029854417,-8.55793471801877,-0.24973582659112287
1789317036954570000,6.258570068359375,-4.833352176846564,-8.530792444071173,-0.1861872277989052
1789317036964525800,6.26852587890625,-4.840938686452806,-8.527724873194098,-0.11662379829711281
1789317036974481200,6.278481201171875,-4.80570984442234,-8.54814572993219,-0.06878808404800947
1789317036984437000,6.28843701171875,-4.775972877806425,-8.564951318782567,-0.045554750005342065
1789317036994392000,6.29839208984375,-4.780176174715161,-8.562599787220359,-0.046879678466171026
1789317037004348200,6.30834814453125,-4.817964638100564,-8.54130039408207,-0.06160123671726323
1789317037014303000,6.318302978515625,-4.801711130174994,-8.550298524051904,-0.07975948228561319
1789317037024259000,6.328259033203125,-4.750955340927839,-8.578606334647535,-0.07957706579025835
1789317037034214100,6.338214111328125,-4.754755317732691,-8.576832895234226,-0.02526128022329649
1789317037044170200,6.348170166015625,-4.811270693419873,-8.545244747793674,0.028931961242808026
1789317037054125000,6.358125,-4.874615038344264,-8.509197282856702,0.04555861789628397
1789317037064081000,6.368080810546875,-4.860226447507738,-8.517246149277687,0.07145835813661106
1789317037074036200,6.3780361328125,-4.837399114149808,-8.53033125630021,0.05840964673487469
1789317037083992000,6.387991943359375,-4.8560246119037265,-8.51990572387576,0.024647790250740945
1789317037093947000,6.39794677734375,-4.853978785289824,-8.52104729512632,-0.032039686033758334
1789317037103903000,6.407903076171875,-4.8118245279103515,-8.544736213749646,-0.06481945897825062
1789317037113858000,6.417858154296875,-4.741921262861788,-8.583712133353949,-0.06671798607595264
1789317037123814100,6.427814208984375,-4.74575923358947,-8.581603178375959,-0.0651300136316102
1789317037133769000,6.43776904296875,-4.812563948100805,-8.544241123709082,-0.07462196870010811
1789317037143725000,6.44772509765625,-4.8608609460189935,-8.516832307779788,-0.07748244073172099
1789317037153680100,6.45768017578125,-4.86196803047806,-8.516330787998438,-0.061368542206240814
1789317037163636000,6.467635986328125,-4.836279754731059,-8.530820501121879,-0.07675844643926248
1789317037173592000,6.477592041015625,-4.843030982556939,-8.526533617582917,-0.11691768494346179
1789317037183547100,6.487547119140625,-4.839117316244542,-8.527910751155018,-0.16753277794513852
1789317037193503200,6.497503173828125,-4.810439795553684,-8.543435652545094,-0.19939645439144224
1789317037203458000,6.5074580078125,-4.774898818834126,-8.563143392577766,-0.20811458010980857
1789317037213413000,6.5174130859375,-4.775769464188814,-8.56270558568239,-0.20612872178852557
1789317037223369200,6.527369140625,-4.820969665135443,-8.537227445554732,-0.2106472221262753
1789317037233325000,6.537324951171875,-4.829816988457739,-8.531901282095909,-0.22343014959814025
1789317037243280000,6.54727978515625,-4.814039281350374,-8.540741591155529,-0.22618123840456827
1789317037253236000,6.557236083984375,-4.802523907862604,-8.54674404644072,-0.24356192372916266
1789317037263191000,6.56719091796875,-4.814671734035015,-8.539035371759534,-0.2723769349282607
1789317037273147100,6.577147216796875,-4.840550563918054,-8.523436820611357,-0.3008036409295164
1789317037283102000,6.58710205078125,-4.826708501048386,-8.530411335799098,-0.3245732053073123
1789317037293058000,6.59705810546875,-4.822938042598962,-8.532723119872808,-0.3198214442029595
1789317037303013000,6.60701318359375,-4.845641749577224,-8.52001795207858,-0.31535047280136497
1789317037312969000,6.616968994140625,-4.85517033316195,-8.513967565998435,-0.3317557372225448
1789317037322924000,6.626924072265625,-4.839608314631879,-8.522543671163916,-0.3388713779140264
1789317037332880100,6.636880126953125,-4.8032691732719535,-8.543029409831762,-0.34005353690329937
1789317037342835000,6.6468349609375,-4.79452940197736,-8.547405725219845,-0.3531474848194048
1789317037352791000,6.656791015625,-4.799039280617237,-8.543822606036066,-0.37776995796579865
1789317037362746000,6.66674609375,-4.810468729387224,-8.536345402023196,-0.40074024345837533
1789317037372702200,6.6767021484375,-4.829454292625188,-8.525380940416454,-0.40576910447105763
1789317037382657000,6.686656982421875,-4.83679939469099,-8.52147224254012,-0.40034824846610423
1789317037392612900,6.69661279296875,-4.844735448387265,-8.516991882255672,-0.39971740321666
1789317037402568200,6.706568115234375,-4.845489773885905,-8.516179981350898,-0.4077902715677395
1789317037412524000,6.71652392578125,-4.839731648750603,-8.518542618829011,-0.42639728381689634
1789317037422479000,6.72647900390625,-4.822714462976157,-8.527872757232188,-0.4326565634073689
1789317037432435000,6.73643505859375,-4.788141746766865,-8.54952169446051,-0.38700313880052417
1789317037442390000,6.74639013671875,-4.7514743963658805,-8.573276664057374,-0.30463286209516227
1789317037452346000,6.75634619140625,-4.751989652411639,-8.574338155809045,-0.2640283366420306
1789317037462301000,6.766301025390625,-4.798630115294456,-8.54715438080728,-0.299486201655399
1789317037472257000,6.776257080078125,-4.832399406166374,-8.525542268458008,-0.36528815059866754
1789317037482212000,6.786212158203125,-4.833083881299197,-8.523052205207943,-0.4114384188117459
1789317037492168000,6.79616796875,-4.830735272346437,-8.524726275900006,-0.4042521605694666
1789317037502123000,6.806123046875,-4.819739246557653,-8.533062142568825,-0.35687143724597986
1789317037512079000,6.8160791015625,-4.8117500013694166,-8.539586575901508,-0.30479439106611533
1789317037522034000,6.826033935546875,-4.799521803437173,-8.54833043884933,-0.2470613466848619
1789317037531990000,6.835989990234375,-4.778172141416371,-8.560711196994781,-0.2317006046142429
1789317037541945000,6.845945068359375,-4.764923368264735,-8.566910636156797,-0.27189399198321623
1789317037551901200,6.855901123046875,-4.761712005002797,-8.56712866282165,-0.31748785015624015
1789317037561856000,6.86585595703125,-4.757808567823469,-8.56848942978084,-0.3385775095339864
1789317037571812000,6.87581201171875,-4.755885783067345,-8.569664318779111,-0.3358420201554894
1789317037581767200,6.88576708984375,-4.764627892449498,-8.56587778597772,-0.3073214435920119
1789317037591723000,6.895722900390625,-4.778238776911794,-8.559658473071455,-0.2665821127780713
1789317037601678000,6.905677978515625,-4.797023849141597,-8.550090434259175,-0.23430653106262905
1789317037611634000,6.915634033203125,-4.792676759847998,-8.552802031305431,-0.22407759892251342
1789317037621589000,6.925589111328125,-4.778347790244221,-8.56034002559483,-0.2415836824587546
1789317037631545000,6.935545166015625,-4.769946457123756,-8.563892749640345,-0.2788196082616225
1789317037641500000,6.9455,-4.753608485785127,-8.571303318157792,-0.3261218960540369
1789317037651456000,6.9554560546875,-4.746690376959741,-8.573541452473401,-0.36564880060460414
1789317037661411000,6.9654111328125,-4.744008590529859,-8.574934368136525,-0.36776473331265147
1789317037671367000,6.975366943359375,-4.7572754838600755,-8.56964561407864,-0.316057159765996
1789317037681322000,6.985322021484375,-4.763518177641928,-8.568125272643565,-0.2579084289896302
1789317037691278000,6.995278076171875,-4.7445679779782886,-8.579040049889683,-0.2440286279254593
1789317037701233200,7.005233154296875,-4.720829667255282,-8.591166541013122,-0.2756917585646734
1789317037711189000,7.01518896484375,-4.71574315777123,-8.591959152695535,-0.33224151144549247
1789317037721144000,7.02514404296875,-4.742745146465301,-8.57501620120108,-0.38192178041562436
1789317037731100200,7.03510009765625,-4.755955048911273,-8.566797238910198,-0.40158966336194424
1789317037741055000,7.045054931640625,-4.760734392142296,-8.56543238029778,-0.3730292662447318
1789317037751011000,7.055010986328125,-4.766561783121526,-8.564377318286896,-0.31893055977784096
1789317037760966100,7.064966064453125,-4.775504091250896,-8.560685478031635,-0.28215269820708777
1789317037770922000,7.074921875,-4.774771100801229,-8.561017486464976,-0.2844826937909238
1789317037780877000,7.084876953125,-4.731044187277555,-8.583943604022265,-0.321754786885716
1789317037790833000,7.0948330078125,-4.691413603156804,-8.603996796491742,-0.3636893736325204
1789317037800788000,7.1047880859375,-4.674881862811744,-8.61160960958302,-0.39503666152190414
1789317037810744000,7.114744140625,-4.69066746096462,-8.602547182205319,-0.40521640249174085
1789317037820699000,7.124698974609375,-4.731319789348542,-8.581166540524363,-0.3854672344701364
1789317037830655000,7.134655029296875,-4.763100829012692,-8.564939628344774,-0.353658064690046
1789317037840611000,7.144611083984375,-4.780739946077763,-8.555878370010852,-0.3344457434915006
1789317037850566100,7.154566162109375,-4.764015021248161,-8.565187465626002,-0.33481947217471897
1789317037860522000,7.16452197265625,-4.737513091030717,-8.579631586042046,-0.3410137237049639
1789317037870477000,7.17447705078125,-4.7079462202847004,-8.59560715380907,-0.3480835524933412
1789317037880433200,7.18443310546875,-4.689205863979459,-8.605410754942893,-0.3586533887593075
1789317037890388000,7.194387939453125,-4.688772440998256,-8.605423614424467,-0.3639707478571683
1789317037900344000,7.204343994140625,-4.687834575626254,-8.60651959296763,-0.34988395297881214
1789317037910299100,7.214299072265625,-4.700975212228298,-8.600348210856318,-0.3243936840219423
1789317037920255000,7.2242548828125,-4.698889345864951,-8.602038063639402,-0.30944216207303105
1789317037930210000,7.2342099609375,-4.707820548078417,-8.597385269397497,-0.3029165231639519
1789317037940166000,7.244165771484375,-4.738191428683698,-8.580784847730397,-0.30007333562728017
1789317037950121000,7.254120849609375,-4.752028815378249,-8.572998431637883,-0.30380892369272183
1789317037960077000,7.2640771484375,-4.763900454957783,-8.565912272769213,-0.31746834173817184
1789317037970031900,7.274031982421875,-4.758290213860571,-8.568174957004189,-0.33976365057863295
1789317037979988200,7.28398828125,-4.75563502317667,-8.5689564627707,-0.3567988834664225
1789317037989943000,7.293943115234375,-4.725615147966146,-8.585000419598817,-0.3697568935105577
1789317037999899100,7.303899169921875,-4.675604916389286,-8.612830675810574,-0.35810525335725396
1789317038009854000,7.31385400390625,-4.649997304663062,-8.627725462603568,-0.33206020006183534
1789317038019810000,7.32381005859375,-4.645142850369215,-8.63102508867085,-0.3137459602141753
1789317038029765000,7.33376513671875,-4.674811720184982,-8.615494926583766,-0.2996112528071739
1789317038039721000,7.343720947265625,-4.721171612560749,-8.590167008581757,-0.29990780633464453
1789317038049676000,7.353676025390625,-4.792729659079015,-8.549880590900779,-0.315713022503443
1789317038059632000,7.363632080078125,-4.844302317667007,-8.519056998091935,-0.3588821925465017
1789317038069587000,7.3735869140625,-4.846156128840148,-8.516343062958121,-0.3963087638169527
1789317038079543000,7.38354296875,-4.81254495113939,-8.535643391233682,-0.3906265169294551
1789317038089498000,7.393498046875,-4.766331189236045,-8.562563546863197,-0.3673725191246718
1789317038099454000,7.403453857421875,-4.7445758690238,-8.575375097641349,-0.3497602535339072
1789317038109409000,7.413408935546875,-4.713092058740556,-8.592888542500138,-0.34558515980634835
1789317038119364900,7.42336474609375,-4.669075514620542,-8.616698457154632,-0.3501775290979072
1789317038129320200,7.4333203125,-4.661448673003911,-8.619934370335937,-0.37150315265599637
1789317038139276000,7.443276123046875,-4.6970787893116475,-8.598592891621589,-0.41475284058935935
1789317038149230800,7.45323095703125,-4.7528866012513635,-8.56660610025227,-0.4401368726927787
1789317038159187200,7.463187255859375,-4.787859130433201,-8.547780403751135,-0.4268823273874819
1789317038169142000,7.47314208984375,-4.808432839645445,-8.538099552214145,-0.38757165940348054
1789317038179098000,7.48309814453125,-4.836417117375135,-8.52477420669496,-0.3281275002554059
1789317038189053200,7.49305322265625,-4.854979779025912,-8.514714584973454,-0.3149410152176395
1789317038199009000,7.503009033203125,-4.84797136156857,-8.517834178298711,-0.3377314506312832
1789317038208964000,7.512964111328125,-4.809335341443121,-8.538185476931929,-0.37423787484951315
1789317038218920000,7.522919921875,-4.742541148325801,-8.57315157637298,-0.4239958852309733
1789317038228875300,7.532875244140625,-4.692282202684879,-8.60021610890925,-0.4349399981694296
1789317038238831000,7.5428310546875,-4.69910708026886,-8.598600490406156,-0.390960936515592
1789317038248786000,7.552785888671875,-4.759718785358965,-8.567551272147893,-0.33543248950652776
1789317038258742000,7.562741943359375,-4.819931846520304,-8.535435301440954,-0.2915111676556058
1789317038268697900,7.57269775390625,-4.8276653633818025,-8.531990713945032,-0.263015780332312
1789317038278653200,7.582653076171875,-4.823578678590059,-8.534986388629674,-0.2397533617590554
1789317038288609000,7.592609130859375,-4.842541153213381,-8.525400229638814,-0.1942680237281136
1789317038298563800,7.602563720703125,-4.855563424132764,-8.51787567935288,-0.19916856391970067
1789317038308520200,7.612520263671875,-4.839149464948475,-8.52675281329155,-0.2179365936831571
1789317038318475000,7.62247509765625,-4.829590486225485,-8.53253490382433,-0.2031945132338442
1789317038328431000,7.63243115234375,-4.835322015614807,-8.52973329040706,-0.1835689898582175
1789317038338386200,7.64238623046875,-4.820764497952163,-8.537865743458271,-0.18832170081064104
1789317038348342000,7.652342041015625,-4.7716696276545525,-8.566145497003196,-0.15067546804067677
1789317038358297000,7.662297119140625,-4.720034132963419,-8.595432966285944,-0.10099445928502827
1789317038368253000,7.6722529296875,-4.715476323528588,-8.5981445633322,-0.08101624088105745
1789317038378208300,7.682208251953125,-4.764813770410418,-8.570981246596574,-0.07214494302812963
1789317038388164400,7.692164306640625,-4.825812721252441,-8.536796068400145,-0.07088870502249338
1789317038398119200,7.702119140625,-4.865858900436758,-8.514093238204717,-0.06332179516586475
1789317038408075300,7.7120751953125,-4.875688220533728,-8.508620359751582,-0.0376220207773149
1789317038418030300,7.7220302734375,-4.867430095276236,-8.513428052294254,-0.006484282843739492
1789317038427986400,7.731986328125,-4.8509950933039185,-8.522752930000424,0.030078946170711423
1789317038437941200,7.741941162109375,-4.828942543710768,-8.535044840818642,0.06858783963501919
1789317038447897000,7.75189697265625,-4.8016377726778385,-8.55013719601035,0.09902980814855546
1789317038457852400,7.761852294921875,-4.772663022606075,-8.565921040597557,0.13066649830541574
1789317038467808300,7.771808349609375,-4.764190085554123,-8.570079329320787,0.1631454297063872
1789317038477763000,7.78176318359375,-4.771129529428482,-8.565874278846383,0.18029457129742948
1789317038487719400,7.791719482421875,-4.7799590248331425,-8.560731070739031,0.19044039173135532
1789317038497674200,7.80167431640625,-4.791102350138128,-8.5539997166574,0.21170553554017096
1789317038507630300,7.81163037109375,-4.8194560457021,-8.537280637046694,0.2410015351892449
1789317038517585200,7.821585205078125,-4.841384384393692,-8.523930157086253,0.2720413097657263
1789317038527541500,7.83154150390625,-4.842091071358323,-8.522375328859686,0.3060607760064304
1789317038537496300,7.841496337890625,-4.8348321862712496,-8.52503314989209,0.34439196796640753
1789317038547452200,7.8514521484375,-4.827440906976163,-8.5282065192312,0.3686539737699553
1789317038557407500,7.861407470703125,-4.811246143500506,-8.53721458607316,0.37185737292114646
1789317038567363300,7.87136328125,-4.787533844001591,-8.550550452986359,0.37148609192334114
1789317038577318100,7.881318115234375,-4.763886134171486,-8.563028826287388,0.3877050765248015
1789317038587274200,7.891274169921875,-4.740245438604057,-8.573961139190196,0.43318584797848014
1789317038597229300,7.901229248046875,-4.73893201791793,-8.57137989052534,0.4943048450035974
1789317038607185400,7.911185302734375,-4.772222293101251,-8.550004509541392,0.54194403660018
1789317038617141200,7.921141357421875,-4.793393968206644,-8.536777363699674,0.5631938549757003
1789317038627096000,7.931095947265625,-4.785219137318432,-8.541401516368985,0.5625919435597956
1789317038637052400,7.941052490234375,-4.775876431694627,-8.546865626993775,0.5590075822670012
1789317038647007200,7.95100732421875,-4.793535130243003,-8.536222652426362,0.5703509601887315
1789317038656963300,7.96096337890625,-4.826431729933619,-8.517078391495346,0.5790740360768512
1789317038666918400,7.97091845703125,-4.843666357851028,-8.505697750303149,0.6019891573160886
1789317038676874500,7.98087451171875,-4.827311727638542,-8.512050334200262,0.6422306398767977
1789317038686829300,7.990829345703125,-4.785428980676829,-8.533495857810973,0.670449968471378
1789317038696785200,8.00078515625,-4.75079430514723,-8.552121647825837,0.6793809514891356
1789317038706740500,8.010740478515626,-4.721170735777914,-8.569642691469191,0.664947425532341
1789317038716696300,8.0206962890625,-4.69340097758174,-8.587526723206043,0.629883053348586
1789317038726651100,8.030651123046875,-4.6940091726079585,-8.59004951968193,0.5896678012076765
1789317038736607200,8.040607177734374,-4.7347734369337555,-8.569538646572827,0.5615224876973778
1789317038746562300,8.050562255859376,-4.802057167133689,-8.532296418893337,0.5572628940241411
1789317038756518400,8.060518310546875,-4.8446343261003495,-8.507366560298204,0.5697627485046163
1789317038766473200,8.07047314453125,-4.840645256464183,-8.508013041508198,0.5935079273598268
1789317038776429000,8.080428955078125,-4.80067535738647,-8.53016525208354,0.6001522242125124
1789317038786384400,8.09038427734375,-4.765829377193748,-8.551820034530758,0.5688956102812662
1789317038796340200,8.10034033203125,-4.752169685153663,-8.562282976356148,0.5240113434160127
1789317038806295300,8.11029541015625,-4.72727665143758,-8.5782456846416,0.48675848474465305
1789317038816251400,8.12025146484375,-4.70869323925972,-8.589220083120464,0.47317437869142737
1789317038826206200,8.130206298828124,-4.72242804236263,-8.581603178375959,0.47449375419430434
1789317038836162300,8.140162353515626,-4.742523320408165,-8.570832193514704,0.46872382902335374
1789317038846117400,8.150117431640625,-4.741529633195698,-8.571764505928755,0.46165969932340084
1789317038856073500,8.160073486328125,-4.713904251906276,-8.587846456679701,0.4453999443201348
1789317038866028300,8.1700283203125,-4.69865027641207,-8.598188986995815,0.40525107194632287
1789317038875984100,8.179984130859374,-4.702801258611679,-8.598217044046521,0.3531558142563328
1789317038885940200,8.189940185546876,-4.713171261456608,-8.593986859130858,0.3159032113132998
1789317038895895300,8.199895263671875,-4.725038809382915,-8.588386554905771,0.2898575004307553
1789317038905851400,8.209851318359375,-4.7576881563141935,-8.571261232581735,0.2612883354851976
1789317038915806200,8.21980615234375,-4.804484978802502,-8.545877200478316,0.23517871078727765
1789317038925762300,8.22976220703125,-4.824095980462432,-8.535465696579218,0.2105197232890874
1789317038935717400,8.23971728515625,-4.810018063010275,-8.544410050535202,0.1647888677981682
1789317038945673200,8.249673095703125,-4.769864916320145,-8.56787217466533,0.10163959792130627
1789317038955628300,8.259628173828125,-4.705470770081877,-8.603940682390332,0.03351900133870076
1789317038965584400,8.26958447265625,-4.640513437002897,-8.639199627298115,-0.015399984952330123
1789317038975539200,8.279539306640626,-4.604806456066668,-8.658258548033237,-0.026516072907228953
1789317038985495300,8.289495361328125,-4.612395011499524,-8.6542422981292,-0.016941386300098383
1789317038995450400,8.299450439453125,-4.657607195144892,-8.63000042179823,-0.01366474381618318
1789317039005406500,8.309406494140624,-4.720461710725725,-8.595748023584484,-0.0275824805793236
1789317039015361300,8.319361328125,-4.788490414074063,-8.557890878877043,-0.05700876239442732
1789317039025317000,8.329317138671875,-4.8315799064770335,-8.532967450022698,-0.12113363127121701
1789317039035272400,8.3392724609375,-4.830085284005105,-8.532257840448617,-0.20309479745272546
1789317039045228300,8.349228271484375,-4.799574994929134,-8.548193660727144,-0.2507000685133971
1789317039055183400,8.359183349609374,-4.7699245375528925,-8.564789990741014,-0.2501352925037965
1789317039065139200,8.36913916015625,-4.755879353326558,-8.572942902058362,-0.23796485264077782
1789317039075094300,8.37909423828125,-4.737130229192972,-8.583625624114275,-0.22661447872268034
1789317039085050400,8.38905029296875,-4.698932308223843,-8.604817465224862,-0.21804810949992387
1789317039095006200,8.399006103515624,-4.67544826452285,-8.617273042172194,-0.23061995150437578
1789317039104961300,8.408961181640626,-4.687616548961401,-8.609548585399985,-0.2689026829464361
1789317039114917400,8.41891748046875,-4.7053152872592205,-8.5980709135741,-0.32182460071891544
1789317039124872200,8.4288720703125,-4.721682484692335,-8.58726894905269,-0.3672961294202134
1789317039134828300,8.438828369140625,-4.75528927847892,-8.566851599445938,-0.40824477386958896
1789317039144783400,8.448783447265624,-4.822656010787188,-8.529429339024425,-0.4015199956592172
1789317039154739500,8.458739501953126,-4.88529016161561,-8.493537941431999,-0.4051479403654113
1789317039164694300,8.4686943359375,-4.904626145726442,-8.481943949750065,-0.41432146343477066
1789317039174650000,8.478650146484375,-4.84949930178821,-8.51240981516242,-0.4377463973596692
1789317039184605400,8.48860546875,-4.747928978843987,-8.566127376824618,-0.4990175892718136
1789317039194561300,8.498561279296876,-4.701704111024737,-8.590856159889697,-0.5114373642534017
1789317039204516400,8.508516357421875,-4.711356905511021,-8.58577900275588,-0.5078368190107867
1789317039214472200,8.51847216796875,-4.7626314579352735,-8.55623902001679,-0.5277359168970958
1789317039224427300,8.52842724609375,-4.819468612922728,-8.523645494925976,-0.5390610650423914
1789317039234383400,8.53838330078125,-4.819958442266286,-8.52052239446938,-0.5823022774083539
1789317039244338200,8.548338134765626,-4.811580490021408,-8.522900229516624,-0.6158404994707555
1789317039254294300,8.558294189453125,-4.799333295127749,-8.531388656398654,-0.5934421686472371
1789317039264249300,8.568249267578125,-4.774078150101006,-8.54655992204547,-0.5786913934348151
1789317039274205200,8.578205078125,-4.760685876825452,-8.556825879994035,-0.5357128140604123
1789317039284160300,8.58816015625,-4.7584673239931465,-8.560634624627232,-0.4928651675892993
1789317039294116400,8.598116455078125,-4.759978020817041,-8.559522863993049,-0.4975525216879323
1789317039304071200,8.6080712890625,-4.722022384171187,-8.579280872908233,-0.5184934567773715
1789317039314027300,8.61802734375,-4.708655537597835,-8.587395205780863,-0.5055579508259892
1789317039323982300,8.627982421875,-4.764348783247173,-8.559843181988596,-0.44773551112823184
1789317039333938400,8.6379384765625,-4.839711190484464,-8.517619658765197,-0.44466929195802657
1789317039343893200,8.647893310546875,-4.877844229523837,-8.49357242822349,-0.4860450027130544
1789317039353849300,8.657849365234375,-4.835018356493115,-8.519118957412243,-0.4664665881484747
1789317039363805200,8.66780517578125,-4.7757311780050395,-8.55793354897499,-0.3529210921850055
1789317039373760300,8.67776025390625,-4.699668221282959,-8.601001121807098,-0.3259968814348802
1789317039383716400,8.68771630859375,-4.634261975392699,-8.63458599602282,-0.371358154694736
1789317039393671400,8.69767138671875,-4.622350588324665,-8.63941473135352,-0.40592557367440313
1789317039403627500,8.70762744140625,-4.6492450249910355,-8.623018307825923,-0.445500518617779
1789317039413582600,8.71758251953125,-4.717769110640883,-8.585114401367306,-0.4570069781467318
1789317039423538400,8.727538330078126,-4.79657201372087,-8.545530578997731,-0.3703806879647076
1789317039433493200,8.7374931640625,-4.836802901822328,-8.527017601707577,-0.25627613334637134
1789317039443449600,8.74744970703125,-4.843607613401114,-8.52604028110802,-0.12839567642975597
1789317039453404400,8.757404296875,-4.8028532859474415,-8.549947810918093,-0.037166338015242946
1789317039463360500,8.767360595703124,-4.729731643374264,-8.59058844886422,-0.042566445776401084
1789317039473315600,8.777315673828125,-4.673830600193143,-8.620791863948106,-0.08737182958601042
1789317039483271400,8.787271484375,-4.637442358994484,-8.639754338571429,-0.1384364107877016
1789317039493226500,8.7972265625,-4.622381275723875,-8.646956232774258,-0.18474292900841682
1789317039503182300,8.807182373046874,-4.647727021643519,-8.63348534130454,-0.17874964341036975
1789317039513137400,8.817137451171876,-4.701686867628991,-8.604982884919643,-0.13707415512432344
1789317039523093500,8.827093505859375,-4.742085221251845,-8.583294784724712,-0.10031409407174215
1789317039533048300,8.83704833984375,-4.764401390217245,-8.57124954214394,-0.0674844997693086
1789317039543004400,8.84700439453125,-4.743486904743314,-8.582950501331686,-0.051778771052765654
1789317039552959500,8.85695947265625,-4.698939030225575,-8.607348445007204,-0.06250488472583238
1789317039562915600,8.86691552734375,-4.655561953052878,-8.630627613785862,-0.09164170719124376
1789317039572871400,8.876871337890625,-4.6100040247097605,-8.654458571228384,-0.13632830519308337
1789317039582826500,8.886826416015625,-4.594532607072591,-8.661883168271183,-0.18004580243444068
1789317039592782600,8.896782470703124,-4.595885482986271,-8.660847980004549,-0.1947553688536398
1789317039602737400,8.9067373046875,-4.614613272070884,-8.65126065196991,-0.17722137439716606
1789317039612693500,8.916693603515625,-4.652422485983371,-8.631652280658482,-0.14110953898709266
1789317039622648600,8.926648681640625,-4.69205540819168,-8.610705938741564,-0.10360961021948605
1789317039632604400,8.9366044921875,-4.738978779669106,-8.584901050877571,-0.1092349301548209
1789317039642559500,8.9465595703125,-4.769731645329296,-8.56697960973978,-0.1640297382602468
1789317039652515300,8.956515380859376,-4.783996317525208,-8.558096046060323,-0.20680563466940075
1789317039662470400,8.966470458984375,-4.781765781994164,-8.558777598583697,-0.22898652334995567
1789317039672426500,8.976426513671875,-4.743503563617169,-8.578887489676475,-0.2688016154584475
1789317039682381300,8.98638134765625,-4.663588607642054,-8.620806476995348,-0.3209765325222164
1789317039692337400,8.99633740234375,-4.577118238674104,-8.665026726993919,-0.3710658937498927
1789317039702292500,9.00629248046875,-4.529555107988417,-8.688453195288776,-0.40534580102507023
1789317039712248600,9.01624853515625,-4.521391675277054,-8.69227012322843,-0.41452250243220473
1789317039722203400,9.026203369140624,-4.542020914068818,-8.681215645250678,-0.4206180428283289
1789317039732159500,9.036159423828124,-4.602388581269979,-8.648335704433917,-0.4412237911466509
1789317039742114600,9.046114501953125,-4.692336270959675,-8.598073251661658,-0.47485842278823254
1789317039752070400,9.0560703125,-4.7629912311583755,-8.555767310851811,-0.5321137666551395
1789317039762025500,9.066025390625,-4.802516893599927,-8.529104929375649,-0.6004807985797525
1789317039771981600,9.075981689453124,-4.788573416182398,-8.533155081549287,-0.6520939353086054
1789317039781937400,9.0859375,-4.729786880692839,-8.564093825170398,-0.6751233671098947
1789317039791892500,9.095892578125,-4.659173129287362,-8.602576992821692,-0.6768721104733646
1789317039801848300,9.105848388671875,-4.583208956764638,-8.643366683849692,-0.67586892478019
1789317039811803400,9.115803466796875,-4.557729355332255,-8.655536429592967,-0.6922197556003927
1789317039821759500,9.125759521484374,-4.5772623233199115,-8.641336639326811,-0.7391613203216344
1789317039831714300,9.13571435546875,-4.635468720833957,-8.604610544475912,-0.8021711725946515
1789317039841670400,9.14567041015625,-4.705109535554051,-8.559755503705144,-0.8734468219749629
1789317039851625500,9.15562548828125,-4.7533176861450075,-8.526693776580691,-0.9337322177201509
1789317039861581600,9.16558154296875,-4.791320376802981,-8.503155664604902,-0.9539247455950826
1789317039871536400,9.175536376953126,-4.790348609161376,-8.502531979748607,-0.964313014749065
1789317039881492500,9.185492431640625,-4.753680381977558,-8.52104554156065,-0.9821893015708774
1789317039891447600,9.195447509765625,-4.707845974780619,-8.544622816503047,-0.997994554272294
1789317039901403400,9.2054033203125,-4.666564116321504,-8.564414727687835,-1.021935401830077
1789317039911358500,9.2153583984375,-4.661529629285633,-8.564542737981677,-1.0436208716765045
1789317039921314600,9.225314453125,-4.657616255234181,-8.56356717094779,-1.0687903111811727
1789317039931269400,9.235269287109375,-4.65479272224605,-8.558874629217385,-1.1175686628755181
1789317039941225500,9.2452255859375,-4.657027057169378,-8.552670513880253,-1.1551274822235107
1789317039951180500,9.2551806640625,-4.670787871496379,-8.54482330751121,-1.1576335467603056
1789317039961136400,9.265136474609376,-4.713145250232517,-8.52154939942956,-1.1575083860106765
1789317039971091500,9.275091552734375,-4.758559678451717,-8.49650088289082,-1.1558350459709763
1789317039981047300,9.28504736328125,-4.795037351499498,-8.476286946901679,-1.1535024383049457
1789317039991003400,9.29500341796875,-4.815944238188862,-8.4628932123214,-1.1646963247533888
1789317040000958500,9.30495849609375,-4.819125790834427,-8.457983228448033,-1.186988601386547
1789317040010914600,9.31491455078125,-4.805686171285807,-8.461813015869259,-1.2138736857026815
1789317040020869400,9.324869384765625,-4.784634615428746,-8.469648531800509,-1.242063276746124
1789317040030825500,9.334825439453125,-4.763845802161097,-8.474053488761186,-1.2909578021660446
1789317040040780500,9.344780517578124,-4.7420159554079175,-8.478235158360004,-1.3428338276147842
1789317040050736400,9.354736328125,-4.713539217986166,-8.490591366586088,-1.364841076761484
1789317040060691500,9.36469140625,-4.702066806857288,-8.497441378611326,-1.3617778897985815
1789317040070647600,9.3746474609375,-4.697140748631954,-8.501560504367948,-1.3530422101572155
1789317040080602400,9.384602294921875,-4.710003152814507,-8.497468851140141,-1.333893273051083
1789317040090558500,9.394558349609374,-4.748569322574139,-8.478794545808434,-1.315867056364566
1789317040100513500,9.404513427734376,-4.783121872778237,-8.457361297157407,-1.3285960434257984
1789317040110469400,9.414469482421875,-4.79040852265507,-8.447640113610028,-1.3637259551264345
1789317040120424400,9.424424560546875,-4.75546668087244,-8.45960995286703,-1.4110035468690096
1789317040130380300,9.43438037109375,-4.709362224562466,-8.478554307311773,-1.4513498780436813
1789317040140335600,9.444335693359376,-4.667022381483018,-8.500592536118626,-1.4591834942787885
1789317040150291500,9.45429150390625,-4.662307627920806,-8.506600252100824,-1.4391003450624644
1789317040160246300,9.464246337890625,-4.664013555055856,-8.51130857592225,-1.4053380684532224
1789317040170202400,9.474202392578125,-4.665812713432311,-8.51496651390791,-1.3769267974831163
1789317040180158500,9.484158447265624,-4.687848019629716,-8.503658353430032,-1.371954415898025
1789317040190113500,9.494113525390626,-4.724015603815019,-8.482128074145317,-1.3811464610047637
1789317040200069400,9.5040693359375,-4.755181726451218,-8.458764149692653,-1.417018423244357
1789317040210024400,9.5140244140625,-4.742965511217713,-8.455576167306303,-1.4757674032025039
1789317040219980500,9.52398046875,-4.708791146676242,-8.468271398228406,-1.5119691819183527
1789317040229935400,9.533935302734376,-4.686584575565159,-8.479801092502475,-1.5163386291742325
1789317040239891500,9.543891357421876,-4.665857429356873,-8.494607616490125,-1.4972640724785624
1789317040249846500,9.553846435546875,-4.6197015351206066,-8.526703128930926,-1.457416192345321
1789317040259802400,9.56380224609375,-4.592334220245481,-8.550215521943569,-1.4052255479894578
1789317040269757400,9.57375732421875,-4.6257262022376056,-8.539249891293048,-1.361712569477409
1789317040279713300,9.58371337890625,-4.719472115166485,-8.48900322061181,-1.354178082319349
1789317040289668600,9.593668701171875,-4.815651392722129,-8.42988409216702,-1.3845327424421905
1789317040299624400,9.60362451171875,-4.851842942304909,-8.400841537556051,-1.433831318618357
1789317040309579300,9.613579345703124,-4.839422144410014,-8.404100831612944,-1.4565231890283523
1789317040319535600,9.62353564453125,-4.796767244032025,-8.432052668377757,-1.4359331132031976
1789317040329490400,9.633490478515625,-4.715568677987158,-8.47883663138449,-1.4293819379940629
1789317040339446500,9.643446533203125,-4.62121281646639,-8.536613697570562,-1.3931953568473459
1789317040349401600,9.653401611328125,-4.550699310564995,-8.580978324475884,-1.3521513987973333
1789317040359357400,9.663357421875,-4.531348421145975,-8.594493055087327,-1.3311534728236496
1789317040369313500,9.6733134765625,-4.557525941714644,-8.581450618162751,-1.3259152799092233
1789317040379268400,9.683268310546875,-4.607881625728309,-8.55276754451394,-1.3371582661963999
1789317040389224000,9.693223876953125,-4.654223105664551,-8.525106215128302,-1.3532054378949105
1789317040399179000,9.703178955078124,-4.729844163838028,-8.484027770286797,-1.3491605464182794
1789317040409134800,9.713134765625,-4.811480536778271,-8.444500062018632,-1.307851215430349
1789317040419090000,9.72308984375,-4.865653440992534,-8.41958773908019,-1.2674173521026968
1789317040429046000,9.7330458984375,-4.867101301713287,-8.421872050625085,-1.246506373760104
1789317040439000800,9.743000732421875,-4.80694990761131,-8.457752342301607,-1.236954847691208
1789317040448957000,9.75295703125,-4.722433010798692,-8.505178110343218,-1.2373192970894276
1789317040458912000,9.762912109375,-4.641671667127311,-8.54773305747807,-1.2496132537342608
1789317040468868000,9.7728681640625,-4.593955099445581,-8.571831725946069,-1.26081415444538
1789317040478823000,9.782822998046875,-4.572772610685229,-8.583336285778879,-1.25955538655594
1789317040488778800,9.79277880859375,-4.574309318733215,-8.585953774800895,-1.235910599335283
1789317040498734000,9.802734130859376,-4.6236505650073285,-8.56604788184762,-1.189564004832506
1789317040508690000,9.81268994140625,-4.697274896405637,-8.529296652555464,-1.1649477422311902
1789317040518644700,9.822644775390625,-4.773562894055247,-8.484272100436687,-1.183476063220948
1789317040528600800,9.832600830078125,-4.803730068781972,-8.46140151245892,-1.224439064989239
1789317040538557000,9.842556884765624,-4.821668461054563,-8.450514792263508,-1.2291034035384654
1789317040548512000,9.852511962890626,-4.813933190627396,-8.456212711644172,-1.220203692441806
1789317040558467800,9.8624677734375,-4.745103692290186,-8.493354401558637,-1.2317903045348821
1789317040568423000,9.8724228515625,-4.673724801731109,-8.535334179154038,-1.2143914259664714
1789317040578379000,9.88237890625,-4.631024893167615,-8.561959735751152,-1.1903075897414237
1789317040588333800,9.892333740234376,-4.643610526235402,-8.557376499614119,-1.174130069661513
1789317040598290000,9.9022900390625,-4.666725736624002,-8.543847155955433,-1.1809924297116696
1789317040608245000,9.912244873046875,-4.6840752230927345,-8.530753281104564,-1.2066750063702463
1789317040618201000,9.922201171875,-4.7262326953426,-8.507426766052841,-1.2069814419709146
1789317040628156000,9.932156005859374,-4.788343406818806,-8.476783790507913,-1.1774106257021426
1789317040638111700,9.94211181640625,-4.8420413869977,-8.44875538137555,-1.159118378490582
1789317040648067000,9.952067138671875,-4.838456221987307,-8.451603172022104,-1.1533156835611909
1789317040658023000,9.96202294921875,-4.790262976704538,-8.478475396856664,-1.1572491505526006
1789317040667977700,9.971977783203124,-4.723493333506584,-8.51209475786388,-1.1845812479838729
1789317040677933800,9.981933837890624,-4.677973399086296,-8.533065649700164,-1.2139734928153454
1789317040687889000,9.991888916015625,-4.665352402444183,-8.539251644858718,-1.2190378635328263
1789317040697845000,10.001844970703125,-4.673508528631925,-8.538083770123123,-1.1957563566666096
1789317040707799800,10.0117998046875,-4.701489883752167,-8.527696231621503,-1.1596402834728359
1789317040717756200,10.021756103515624,-4.718804591168463,-8.519302497285604,-1.1509859254393726
1789317040727712000,10.0317119140625,-4.706707033878565,-8.523055712339282,-1.1725248994871973
1789317040737666800,10.041666748046875,-4.690383967848122,-8.528774674507975,-1.1961097001489251
1789317040747623000,10.051622802734375,-4.685068325783312,-8.530986505338548,-1.2011545624483375
1789317040757578000,10.061577880859375,-4.703390456676483,-8.523622698572277,-1.181675005148351
1789317040767534000,10.0715341796875,-4.719110003855824,-8.514959499645233,-1.1814602664191276
1789317040777489000,10.081489013671876,-4.698395132607222,-8.523155081060528,-1.2047007836878298
1789317040787444700,10.09144482421875,-4.6817727913692595,-8.531287534111737,-1.2118272745668888
1789317040797400000,10.101400146484375,-4.667321364429593,-8.53706436394751,-1.2267973185531795
1789317040807356000,10.11135595703125,-4.661103805088997,-8.535548698687553,-1.260516486673057
1789317040817310700,10.121310791015626,-4.625617481166124,-8.550255853953956,-1.2911958487056194
1789317040827266800,10.131266845703125,-4.588784126548469,-8.56834271478653,-1.302667821443081
1789317040837222000,10.141221923828125,-4.604961354367434,-8.563145730665326,-1.2795479348793626
1789317040847178000,10.151177978515625,-4.639606259030104,-8.549958332312107,-1.2420358042173087
1789317040857132800,10.1611328125,-4.6914387375980615,-8.527042736148834,-1.2042968059968202
1789317040867089200,10.171089111328126,-4.721517649519443,-8.513569506591558,-1.1818647555667907
1789317040877045000,10.181044921875,-4.733667229257524,-8.505188047215341,-1.193547448445484
1789317040886999800,10.190999755859375,-4.730521916969121,-8.502160808348656,-1.227112229721248
1789317040896956000,10.200955810546875,-4.6924835704758765,-8.517983815902472,-1.2629033818095923
1789317040906911000,10.210910888671876,-4.639786876294017,-8.545205584827064,-1.2736651604510842
1789317040916867000,10.2208671875,-4.5993268556118005,-8.57231220293939,-1.2377613417685032
1789317040926822000,10.23082177734375,-4.581708781334758,-8.588495275977253,-1.1899944321390241
1789317040936777700,10.24077783203125,-4.563349241040647,-8.601160111761093,-1.1688842048972845
1789317040946733000,10.250733154296874,-4.553409154045582,-8.604982884919643,-1.1794609823606907
1789317040956689000,10.26068896484375,-4.565592343792319,-8.593063899067044,-1.2186137929018586
1789317040966643700,10.270643798828125,-4.6111926499724385,-8.562412740215658,-1.2618914282880722
1789317040976599800,10.280599853515625,-4.667659218081831,-8.528665368914604,-1.2826609523333607
1789317040986555000,10.290554931640624,-4.708481350074708,-8.507063193437457,-1.2768987355448305
1789317040996511000,10.300510986328124,-4.749786004887521,-8.48867004313469,-1.245951077964902
1789317041006465800,10.3104658203125,-4.761110239717364,-8.48430366461873,-1.2323955769516526
1789317041016422100,10.320422119140625,-4.723684179903566,-8.503764151892065,-1.2422510544031857
1789317041026377000,10.330376953125,-4.643467026111483,-8.545431794798374,-1.2586525924973189
1789317041036332800,10.340332763671874,-4.56084398022145,-8.586106335014104,-1.2836939486429095
1789317041046288100,10.3502880859375,-4.52383409999311,-8.60329127857089,-1.2995002973228693
1789317041056244000,10.360243896484375,-4.512864962211251,-8.609054079881309,-1.2994650798790157
1789317041066200000,10.370199951171875,-4.54820018722564,-8.59163474304676,-1.291533556227386
1789317041076155000,10.38015478515625,-4.58432422453016,-8.572026371735333,-1.2941104209780692
1789317041086110700,10.39011083984375,-4.622850062279403,-8.550271636044979,-1.3009604330033062
1789317041096066000,10.400066162109376,-4.657373094128072,-8.532441380321979,-1.294875267870724
1789317041106022000,10.41002197265625,-4.674909919862449,-8.52620920793414,-1.2725371793344615
1789317041115976700,10.419976806640625,-4.702912902292609,-8.514419401419163,-1.2480593022905289
1789317041125933000,10.42993310546875,-4.714624382874369,-8.50892197304666,-1.2413481142140925
1789317041135888000,10.439887939453126,-4.718173892049491,-8.506934598621726,-1.2414840155534446
1789317041145844000,10.449843994140625,-4.708886716005206,-8.509752578651904,-1.2573247048944234
1789317041155799000,10.459799072265625,-4.671109358535706,-8.524760762691498,-1.2959839597649871
1789317041165755100,10.469755126953125,-4.635747830036283,-8.540000417399407,-1.3223575874276459
1789317041175710000,10.4797099609375,-4.627055989536642,-8.545914609879254,-1.3145641570724547
1789317041185665800,10.489665771484376,-4.673279688312113,-8.526085289293528,-1.2793394066952168
1789317041195621000,10.49962109375,-4.725749880261719,-8.50250567626357,-1.2430085947722196
1789317041205577000,10.509576904296875,-4.733177107653021,-8.500032564148306,-1.2316149479679763
1789317041215533000,10.519532958984374,-4.7217526273190975,-8.504764268845319,-1.2427541816197334
1789317041225488000,10.52948779296875,-4.709752685184776,-8.51212924465537,-1.237847558747232
1789317041235443700,10.539443603515625,-4.74664624555707,-8.4953628187716,-1.211838161287084
1789317041245399000,10.54939892578125,-4.771001226873696,-8.481753395614028,-1.2115309219688177
1789317041255355000,10.55935498046875,-4.755439500604569,-8.488491179436444,-1.2254380859639495
1789317041265309700,10.569309814453124,-4.728917696642875,-8.502200555837154,-1.233005671674013
1789317041275266000,10.57926611328125,-4.707449376678467,-8.514805185866356,-1.2281680223844944
1789317041285220900,10.589220947265625,-4.7175019841372965,-8.511516081193088,-1.2122920425344257
1789317041295177000,10.599177001953125,-4.7382580641791225,-8.50030670491457,-1.2099938485946506
1789317041305132000,10.609132080078124,-4.751415944176912,-8.491728846183419,-1.2185978646803646
1789317041315088100,10.619088134765626,-4.7376475310653445,-8.494968851017951,-1.2492420823343098
1789317041325043000,10.62904296875,-4.710831712593138,-8.50267694117725,-1.2972811599686742
1789317041334998800,10.638998779296875,-4.71942535341531,-8.497671680235863,-1.2988428563274443
1789317041344954000,10.6489541015625,-4.740153376406431,-8.489605278158187,-1.2759062173761426
1789317041354910000,10.658909912109374,-4.7340246643930675,-8.49424345935285,-1.2677626584090291
1789317041364866000,10.668865966796876,-4.694540503005683,-8.513764736902713,-1.2835444571696222
1789317041374820900,10.67882080078125,-4.656344043341279,-8.531197517740726,-1.3067194349214435
1789317041384777000,10.68877685546875,-4.688045003506541,-8.517209908920526,-1.284434099485725
1789317041394732000,10.69873193359375,-4.740333409148454,-8.490100952720642,-1.2719376060061156
1789317041404688000,10.70868798828125,-4.775241056400537,-8.470045422163604,-1.2750666978120804
1789317041414643000,10.718642822265625,-4.769468318217992,-8.470285660660267,-1.2949189608819782
1789317041424599000,10.72859912109375,-4.74167576366812,-8.481959731841087,-1.3203231589905917
1789317041434553900,10.738553955078125,-4.729114388258755,-8.490423608803749,-1.3109450897924602
1789317041444510000,10.748510009765624,-4.697352637816965,-8.5105633105129,-1.294438191627711
1789317041454465000,10.758465087890626,-4.66197415818274,-8.535140702408551,-1.2600620209038256
1789317041464421000,10.768421142578125,-4.632140745455026,-8.556751645714044,-1.222967238871008
1789317041474376000,10.7783759765625,-4.623753440859914,-8.566141405349969,-1.1884845390327274
1789317041484331800,10.788331787109374,-4.642281615719199,-8.560296770974993,-1.1579789261318743
1789317041494287000,10.798287109375,-4.669912842227518,-8.546710728693007,-1.1471878483306617
1789317041504243000,10.808242919921875,-4.70562303803414,-8.527280052036046,-1.1458636139895766
1789317041514199000,10.818198974609375,-4.720005199129879,-8.519863053777813,-1.1418716948091983
1789317041524153900,10.82815380859375,-4.721975914680957,-8.520305536848307,-1.1303587324742228
1789317041534110000,10.83810986328125,-4.7162864708676935,-8.528883395579458,-1.0886605482991785
1789317041544065000,10.84806494140625,-4.723419391487538,-8.533913206440209,-1.015885965598002
1789317041554020900,10.858020751953125,-4.739418047869205,-8.532792093455791,-0.9485538662116973
1789317041563976000,10.867975830078125,-4.7265196955904365,-8.542571729192137,-0.9245949715405702
1789317041573932000,10.87793212890625,-4.69648579185456,-8.557496326601505,-0.9395075862511992
1789317041583886800,10.887886962890626,-4.679997598390281,-8.564377318286896,-0.9588807605672627
1789317041593843000,10.897843017578126,-4.674925409692525,-8.565569158419967,-0.9728744338020682
1789317041603798000,10.907798095703125,-4.646067856259644,-8.580717627713083,-0.9776103762827814
1789317041613754000,10.917754150390625,-4.626816335561871,-8.593811502563954,-0.9536015780553221
1789317041623709000,10.927708984375,-4.616362161564827,-8.605113233301044,-0.9008987463936209
1789317041633664800,10.937664794921876,-4.654166991563141,-8.591594411036372,-0.832840816950798
1789317041643620000,10.9476201171875,-4.696863392995297,-8.573576523786782,-0.7769505143593997
1789317041653576000,10.957575927734375,-4.7086605060338975,-8.56899445669353,-0.7558110610231756
1789317041663532000,10.967531982421875,-4.6952679404973985,-8.575143626973032,-0.7692445430919528
1789317041673486800,10.97748681640625,-4.675408517034351,-8.582933550196886,-0.8026157014917582
1789317041683443000,10.98744287109375,-4.673954518833757,-8.581827050259708,-0.8226690400917083
1789317041693398000,10.99739794921875,-4.680054589274525,-8.57927093603611,-0.8146049761015921
1789317041703353900,11.007353759765625,-4.689064701943099,-8.5771631501019,-0.7844280106332152
1789317041713309000,11.017308837890624,-4.686896710254252,-8.583427471193671,-0.7267394995134323
1789317041723265000,11.02726513671875,-4.657005137598515,-8.603992704838515,-0.6737858348958193
1789317041733219800,11.0372197265625,-4.620581825086474,-8.625480898547172,-0.6493786119353026
1789317041743176000,11.047176025390625,-4.59038571652621,-8.642343770542741,-0.6392416871938854
1789317041753131000,11.057131103515625,-4.600355906398594,-8.637187702953815,-0.6372620576839894
1789317041763087000,11.067087158203124,-4.66024835730344,-8.604733294072746,-0.6411093076966703
1789317041773042000,11.0770419921875,-4.738536296598613,-8.561955059576034,-0.6399946975182742
1789317041782997800,11.086997802734375,-4.804886545340716,-8.526440678602457,-0.6190802851095796
1789317041792953000,11.096953125,-4.829822249154747,-8.514639766171575,-0.5866014724396169
1789317041802909000,11.106908935546874,-4.803765724617243,-8.531390994486213,-0.5563970709750429
1789317041812865000,11.116864990234374,-4.7562771204724905,-8.55953806156218,-0.5315323500379919
1789317041822819800,11.12681982421875,-4.712507536850869,-8.584162799730896,-0.5242255706885829
1789317041832776200,11.136776123046875,-4.6923970612362025,-8.594064016020297,-0.5420873175283893
1789317041842731000,11.14673095703125,-4.6718528703793885,-8.603606920391321,-0.5675630465032533
1789317041852686800,11.156686767578124,-4.6461417982786894,-8.615699509245157,-0.5945374165380374
1789317041862642200,11.16664208984375,-4.655644955161214,-8.611194014519452,-0.5853992935756221
1789317041872598000,11.176597900390625,-4.691481115435064,-8.595201495617628,-0.5318771448876708
1789317041882552800,11.186552734375,-4.7273009090960025,-8.577611478391288,-0.49758342828284946
1789317041892509000,11.196509033203125,-4.728021916846931,-8.577009420844911,-0.5011097757780925
1789317041902464000,11.206464111328126,-4.727238949775695,-8.57745833365619,-0.5008150671478361
1789317041912420000,11.216420166015626,-4.758140283995867,-8.562699740463495,-0.45897740143686533
1789317041922375000,11.226375,-4.782769698339701,-8.548905023866892,-0.46013614301793276
1789317041932330800,11.236330810546875,-4.780960018569231,-8.550592538562416,-0.4474162525786087
1789317041942286800,11.246286865234374,-4.747840131516754,-8.570544608744978,-0.4173226545447483
1789317041952242000,11.256241943359376,-4.72121574396342,-8.585123753717541,-0.41969807843919843
1789317041962198000,11.266197998046875,-4.703768934600055,-8.594460321861504,-0.424504528872855
1789317041972152800,11.27615283203125,-4.669014139822125,-8.613689338466525,-0.41838856674320996
1789317041982109200,11.286109130859375,-4.646519399419427,-8.626285785189271,-0.4092125594558194
1789317041992064000,11.29606396484375,-4.659916056609154,-8.619660814091564,-0.3962494713777676
1789317042002019800,11.306019775390626,-4.690112749691307,-8.603392985379696,-0.3935337096130475
1789317042011975200,11.31597509765625,-4.726141217666864,-8.583585876625776,-0.3950028323175385
1789317042021931000,11.325930908203125,-4.726366550855338,-8.583944773066044,-0.3843578119235113
1789317042031885800,11.3358857421875,-4.707212937574088,-8.595189220657945,-0.36776031286586075
1789317042041842000,11.345842041015626,-4.691789158470929,-8.604755505904555,-0.34013836564254013
1789317042051797000,11.355796875,-4.695934295451641,-8.603911456295847,-0.30216190540436655
1789317042061753000,11.365753173828125,-4.718966795992851,-8.591701378542185,-0.29050615533152596
1789317042071709000,11.375708984375,-4.726460658879578,-8.587053260475397,-0.3057288041057065
1789317042081663700,11.385663818359374,-4.7285368806317445,-8.585213185566664,-0.3247159382462501
1789317042091620000,11.3956201171875,-4.720355327741801,-8.588979260101913,-0.3436262077583
1789317042101575000,11.405574951171875,-4.725048161733151,-8.586415547093749,-0.34320184486638755
1789317042111531000,11.415531005859375,-4.727959665265679,-8.585622350889444,-0.3222881265774369
1789317042121485800,11.42548583984375,-4.720322302255034,-8.590093943345547,-0.3149990290151909
1789317042131442200,11.435442138671876,-4.702235441422462,-8.599608206143975,-0.3257437469240278
1789317042141397000,11.44539697265625,-4.6794928637385365,-8.611689689081906,-0.3339683717707172
1789317042151352800,11.455352783203125,-4.6804754450351,-8.61069541734755,-0.34562666086051613
1789317042161308200,11.46530810546875,-4.7015962667360895,-8.59840584461689,-0.36441520368903874
1789317042171264000,11.475263916015624,-4.7264559827044605,-8.583658357340097,-0.3896478446230292
1789317042181218800,11.48521875,-4.724953761447966,-8.582531399136782,-0.4305312783490866
1789317042191175000,11.4951748046875,-4.694107956807315,-8.597274210238457,-0.4718148173086345
1789317042201130800,11.505130859375,-4.667450836028158,-8.610835118079185,-0.4886777258368209
1789317042211086000,11.515086181640624,-4.6514112631142135,-8.620681389310956,-0.46755135117787866
1789317042221042000,11.5250419921875,-4.642677044777572,-8.62684634168148,-0.43984705943334845
1789317042230996700,11.534996826171875,-4.641153780733049,-8.627571733346581,-0.4416805584708228
1789317042240953000,11.544953125,-4.650389811111986,-8.622092425152658,-0.45142329626288263
1789317042250908000,11.554907958984375,-4.683345739774405,-8.603520411151647,-0.4648644867140799
1789317042260864000,11.564864013671874,-4.702546114806831,-8.591876735109091,-0.4859115125264972
1789317042270819000,11.574819091796876,-4.7130753998667,-8.585580265313386,-0.4950950820658356
1789317042280775200,11.584775146484375,-4.718637710168958,-8.582469439816474,-0.4960545016825199
1789317042290730000,11.59472998046875,-4.742178160232306,-8.569861302655935,-0.48948944407850503
1789317042300685800,11.604685791015624,-4.757399402500689,-8.56250567919612,-0.4701416599320247
1789317042310641200,11.61464111328125,-4.7465442464873195,-8.569318866342305,-0.4554925915284082
1789317042320597000,11.624596923828125,-4.729362517800927,-8.57949188531041,-0.44252855360228566
1789317042330553000,11.634552978515625,-4.724624091102182,-8.582714354488253,-0.4304906540777534
1789317042340508000,11.6445078125,-4.735448851977289,-8.575976570665835,-0.44555911693722006
1789317042350463700,11.654463623046874,-4.7250198124215,-8.579753751116991,-0.48207730465848
1789317042360419000,11.664419189453126,-4.704949668817222,-8.589477272751926,-0.5046863556232303
1789317042370375000,11.674375,-4.699077854174376,-8.593916716504097,-0.48337691601496185
1789317042380329700,11.684329833984375,-4.718972641211748,-8.585451670497655,-0.4378430991997942
1789317042390285300,11.694285400390624,-4.729802662783861,-8.581365862488747,-0.39940314963571727
1789317042400240400,11.704240478515626,-4.731963932470977,-8.581626559251546,-0.366875967779383
1789317042410196200,11.7141962890625,-4.752366376769542,-8.571139652028679,-0.3477932277772575
1789317042420151300,11.7241513671875,-4.781595686124265,-8.554922092199325,-0.34644849863741545
1789317042430107400,11.734107421875,-4.798732991147041,-8.544577808317541,-0.3643246027961373
1789317042440062200,11.744062255859374,-4.785289572206139,-8.551749891903995,-0.3727745242986828
1789317042450018300,11.754018310546876,-4.772850946393609,-8.559372641867398,-0.35695809261612593
1789317042459974400,11.763974365234375,-4.7791056228742,-8.55640385518968,-0.3442319550991058
1789317042469929200,11.77392919921875,-4.775167406642437,-8.558595227754116,-0.344386232345365
1789317042479885300,11.78388525390625,-4.728475505833328,-8.584312437334656,-0.3485516083965078
1789317042489840400,11.79384033203125,-4.663796989695728,-8.61899445913732,-0.36376470389105375
1789317042499796500,11.80379638671875,-4.625537401667237,-8.639151111981272,-0.3739725019115954
1789317042509751300,11.813751220703125,-4.625255369855463,-8.639381998127698,-0.3721287737410515
1789317042519707400,11.823707275390625,-4.642427161669731,-8.630840964275597,-0.35615433848518874
1789317042529662500,11.833662353515624,-4.65920498573035,-8.622953425896167,-0.32692404274977743
1789317042539618300,11.843618408203126,-4.689396125854551,-8.607594528722762,-0.2987615771752782
1789317042549573400,11.853573486328125,-4.746526418569684,-8.577042154070735,-0.27425765237463634
1789317042559529200,11.863529296875,-4.789413081876933,-8.553460787475109,-0.26500392194222655
1789317042569484300,11.873484375,-4.799415712714195,-8.547836517852545,-0.2654874676754698
1789317042579440400,11.8834404296875,-4.765925823305547,-8.566405024722219,-0.27027468368569385
1789317042589396200,11.893396240234376,-4.717801551605761,-8.592969791042805,-0.271318603248056
1789317042599351300,11.903351318359375,-4.676174240709841,-8.616025672459601,-0.2605303932573646
1789317042609307400,11.913307373046875,-4.631036291344463,-8.64105840690732,-0.23664861894305794
1789317042619262200,11.92326220703125,-4.6108641486704345,-8.652784500536322,-0.1990729945907369
1789317042629218300,11.93321826171875,-4.6127290657594795,-8.65236013764441,-0.1725482862859033
1789317042639173400,11.94317333984375,-4.62595211994797,-8.645556887370347,-0.1590843360136263
1789317042649129500,11.95312939453125,-4.644263437186181,-8.635815830078721,-0.15461109958970917
1789317042659084300,11.963084228515624,-4.663581008857489,-8.625330091899633,-0.1583916045091115
1789317042669040400,11.973040283203124,-4.706950194984675,-8.601894855776429,-0.1497164776822552
1789317042678995500,11.982995361328125,-4.757745147198438,-8.57410317800939,-0.13785422698557376
1789317042688951300,11.992951416015625,-4.780423427474498,-8.561536541903019,-0.13427390254708005
1789317042698906400,12.00290625,-4.764858194074034,-8.570178113520145,-0.1362070534335915
1789317042708862200,12.0128623046875,-4.729894140459597,-8.589679517325758,-0.1260848513372708
1789317042718818300,12.022818359375,-4.692440023595094,-8.610335351863503,-0.11634836062290706
1789317042728773400,12.0327734375,-4.647154774713516,-8.634994576823711,-0.10589618678670376
1789317042738729200,12.042729248046875,-4.583879695633054,-8.668744870734214,-0.10630018274402245
1789317042748684300,12.052684326171875,-4.545080301639437,-8.689127149027586,-0.10821071080677211
1789317042758640400,12.062640380859374,-4.558025123408436,-8.682523805239796,-0.0925803762808442
1789317042768595200,12.07259521484375,-4.612527697968483,-8.653921395611762,-0.06795633223187178
1789317042778551300,12.08255126953125,-4.689821950051188,-8.612436708056926,-0.0434176649114117
1789317042788506400,12.09250634765625,-4.754341183973849,-8.57706904207766,-0.022643964731215965
1789317042798462500,12.10246240234375,-4.794760580384731,-8.554526370880007,-0.026949219610507134
1789317042808417300,12.112417236328126,-4.802255320054292,-8.550242409950494,-0.04558668408014346
1789317042818373400,12.122373291015625,-4.7730990759357805,-8.566480428045988,-0.057662390297837554
1789317042828329200,12.1323291015625,-4.730619824385642,-8.589985806795955,-0.06144070782673079
1789317042838284300,12.1422841796875,-4.691029572275281,-8.611661047509312,-0.06251659342993517
1789317042848240400,12.152240478515624,-4.666849363003671,-8.6247765496701,-0.06427489007303956
1789317042858195200,12.1621953125,-4.640182597613334,-8.639200211820006,-0.057558235803619025
1789317042868151600,12.172151611328125,-4.634140394839644,-8.642569980514049,-0.03320703561296686
1789317042878106400,12.1821064453125,-4.634987659318745,-8.642130420053006,-0.029242705409124027
1789317042888062200,12.192062255859375,-4.664908750329912,-8.625939748230577,-0.046502013393351804
1789317042898017300,12.202017333984376,-4.733388996838033,-8.588461373707652,-0.061218630607845256
1789317042907973400,12.211973388671876,-4.811562662103772,-8.544640936681628,-0.09149045301913283
1789317042917928200,12.22192822265625,-4.8570305740758775,-8.518217624658346,-0.14006838677055203
1789317042927884300,12.23188427734375,-4.84594745452553,-8.52369459476471,-0.18387745301919056
1789317042937840000,12.241840087890624,-4.798224164842069,-8.550542854201794,-0.18878696196852252
1789317042947795500,12.25179541015625,-4.75021679752022,-8.577672268667817,-0.171376429494936
1789317042957751300,12.261751220703125,-4.706700311876833,-8.601750478869675,-0.1650950294042006
1789317042967706400,12.271706298828125,-4.656707615956663,-8.628807412621379,-0.17069208222627638
1789317042977662200,12.281662109375,-4.6187052175596355,-8.648412276801466,-0.2071760388843715
1789317042987617300,12.2916171875,-4.619944111704826,-8.646310336086154,-0.26044267844129354
1789317042997573400,12.301573486328126,-4.660075338824093,-8.623733178097009,-0.29208483935771506
1789317043007528200,12.311528076171875,-4.722432718537748,-8.58947201205492,-0.2999757570043206
1789317043017484500,12.321484619140625,-4.7689814114838835,-8.563365510895848,-0.3097821711497381
1789317043027439400,12.331439453125,-4.7787791673988105,-8.55774767101407,-0.31399810834433883
1789317043037395200,12.341395263671876,-4.780450900003314,-8.557575821578503,-0.29253327724495903
1789317043047351300,12.351351318359375,-4.766783609178662,-8.565985338005422,-0.26841652513099834
1789317043057306400,12.361306396484375,-4.741402791945636,-8.580138951042294,-0.2658827323370613
1789317043067262500,12.371262451171875,-4.6790044956997034,-8.614140589365363,-0.271813492359221
1789317043077217300,12.38121728515625,-4.626347841267288,-8.641519010156392,-0.30240506651047616
1789317043087173000,12.391173095703126,-4.629520626084506,-8.638735516917706,-0.3319338337358087
1789317043097128400,12.40112841796875,-4.683189087907969,-8.609813373816014,-0.3305037644000724
1789317043107084300,12.411084228515625,-4.7444878984794014,-8.576405025210976,-0.3248026301490143
1789317043117039400,12.421039306640624,-4.754684298323094,-8.570645731031894,-0.327713037703
1789317043126995200,12.4309951171875,-4.739384437860548,-8.579491300788522,-0.31773773326408117
1789317043136950300,12.4409501953125,-4.735132041113078,-8.58219880618155,-0.3078634049816057
1789317043146906400,12.45090625,-4.731983806215227,-8.583699273872375,-0.31438067792113866
1789317043156862200,12.4608623046875,-4.7217914980247615,-8.588797473794221,-0.32805841707456856
1789317043166817500,12.470817626953124,-4.707015369175374,-8.595902921885251,-0.35332846740949897
1789317043176773400,12.4807734375,-4.701064936338365,-8.59844091593027,-0.3703846700200811
1789317043186728200,12.490728271484375,-4.701778929826617,-8.597795603764057,-0.3762443558337167
1789317043196684300,12.500684326171875,-4.674749760864675,-8.612188870775698,-0.38379659784417597
1789317043206639400,12.510639404296874,-4.647298859359323,-8.627664672327041,-0.3693187943542376
1789317043216595500,12.520595458984374,-4.620661904585361,-8.64264479931593,-0.3529246723815799
1789317043226550300,12.53055029296875,-4.604045700827241,-8.651514334470033,-0.35277200257051733
1789317043236506000,12.540506103515625,-4.605756011876464,-8.651354175472258,-0.3338649479288608
1789317043246461400,12.55046142578125,-4.638607311120629,-8.63449539512992,-0.3149742964327335
1789317043256417300,12.560417236328124,-4.702042841459811,-8.600630534929037,-0.30053748254030943
1789317043266373400,12.570373291015626,-4.757803891648352,-8.56971926383674,-0.3059491140591912
1789317043276328400,12.580328369140625,-4.773612870676815,-8.558899763658642,-0.3580959740722552
1789317043286284500,12.590284423828125,-4.727262330651283,-8.582399881711602,-0.4071717378105968
1789317043296239400,12.6002392578125,-4.6881616156235335,-8.605434720340371,-0.37152792177107186
1789317043306195200,12.6101953125,-4.675631219874322,-8.61433055897951,-0.31963578543774784
1789317043316150500,12.620150634765626,-4.676854331928491,-8.61356717339158,-0.3223035798748955
1789317043326106400,12.6301064453125,-4.645360000251233,-8.62999808371067,-0.33784806274827567
1789317043336061200,12.640061279296875,-4.577129929111898,-8.664077463445066,-0.3924595410428941
