time,seconds_elapsed,z,y,x
1789317030739859700,0.043859619140625,-0.5915530323982239,-0.6396651864051819,0.9237211346626282
1789317030749815000,0.05381494140625,-0.6438586115837097,-0.9382539987564087,0.7555651664733887
1789317030759771000,0.06377099609375,-0.876214861869812,-0.8729010820388794,0.37081030011177063
1789317030769725700,0.0737255859375,-1.0917173624038696,-0.37258875370025635,-0.2908685803413391
1789317030779682000,0.08368212890625,-1.0111314058303833,-0.5231327414512634,-0.9585939049720764
1789317030789636900,0.093636962890625,-0.9810709953308105,-0.7207547426223755,-1.0446223020553589
1789317030799593000,0.103593017578125,-1.0551902055740356,-0.6102907657623291,-0.6258715987205505
1789317030809547800,0.1135478515625,-0.9623225927352905,-0.5136873126029968,-0.2880600094795227
1789317030819502800,0.1235029296875,-0.8160117268562317,0.2607751488685608,-0.26533207297325134
1789317030829459000,0.133458984375,-0.8418294787406921,-0.48656806349754333,-0.1067538782954216
1789317030839413800,0.143413818359375,-1.124965786933899,-1.0472347736358643,0.059960272163152695
1789317030849370000,0.1533701171875,-1.212155818939209,-1.2505956888198853,0.16271567344665527
1789317030859325000,0.163324951171875,-1.0566266775131226,-1.0875383615493774,0.20898810029029846
1789317030869280800,0.17328076171875,-1.064286470413208,-0.331932932138443,0.3486171066761017
1789317030879236000,0.183236083984375,-1.0533264875411987,-0.19688190519809723,0.3256526589393616
1789317030889192000,0.19319189453125,-0.9908511638641357,-0.749340295791626,0.04270405322313309
1789317030899147000,0.20314697265625,-1.0064711570739746,-1.4076435565948486,0.09934283047914505
1789317030909102800,0.213102783203125,-0.854394793510437,-1.4913196563720703,-0.22553059458732605
1789317030919058000,0.223057861328125,-0.638980507850647,-1.1255967617034912,-0.4073760211467743
1789317030929014000,0.233013916015625,-0.6419893503189087,-0.3514019846916199,-0.4727765917778015
1789317030938968800,0.24296875,-0.84422767162323,-0.06841394305229187,-0.6258202195167542
1789317030948924000,0.252923828125,-1.2414157390594482,-0.40523698925971985,-0.33555641770362854
1789317030958880000,0.2628798828125,-1.5280736684799194,-0.5204229354858398,-0.09605622291564941
1789317030968834800,0.272834716796875,-1.31187903881073,-0.7728394865989685,0.037159353494644165
1789317030978791000,0.282791015625,-0.839156985282898,-0.8179827332496643,0.13489283621311188
1789317030988746000,0.29274609375,-0.4840417802333832,-0.8076674938201904,0.2804529666900635
1789317030998701800,0.302701904296875,-0.42910343408584595,-0.9296040534973145,0.37882134318351746
1789317031008657000,0.312656982421875,-0.6251482963562012,-1.111412763595581,0.4639953672885895
1789317031018612700,0.32261279296875,-0.9061892628669739,-0.9528971314430237,0.4617476463317871
1789317031028568000,0.332568115234375,-1.015108585357666,-0.6153284311294556,0.32396209239959717
1789317031038524000,0.34252392578125,-0.8102614283561707,-0.41958874464035034,-0.06857772916555405
1789317031048478700,0.352478759765625,-0.6757840514183044,-0.09447909891605377,-0.3440324664115906
1789317031058435000,0.36243505859375,-0.5549106001853943,-0.4160350263118744,-0.4112946093082428
1789317031068390000,0.372389892578125,-0.4220825433731079,-0.8907802104949951,-0.539610743522644
1789317031078346000,0.382345947265625,-0.3752913177013397,-1.0405482053756714,-0.3393716812133789
1789317031088301000,0.392301025390625,-0.3512951731681824,-0.7897542715072632,-0.12988422811031342
1789317031098256000,0.402255859375,-0.4191892743110657,-0.42083775997161865,0.2062482386827469
1789317031108212000,0.4122119140625,-0.5223289728164673,-0.1092710942029953,0.3890819847583771
1789317031118167000,0.4221669921875,-0.555523693561554,-0.22611463069915771,0.3541881740093231
1789317031128123000,0.432122802734375,-0.5401204824447632,-0.7098399996757507,0.4257662296295166
1789317031138078000,0.442077880859375,-0.5282907485961914,-0.5992857813835144,0.33778709173202515
1789317031148033800,0.45203369140625,-0.2999108135700226,-0.5215311050415039,0.08336972445249557
1789317031157989000,0.461989013671875,-0.055331166833639145,-0.4413457214832306,-0.3120870590209961
1789317031167945000,0.471945068359375,-0.17849117517471313,-0.28820863366127014,-0.262184202671051
1789317031177899800,0.481899658203125,-0.4228556454181671,-0.31119462847709656,-0.15026433765888214
1789317031187856000,0.49185595703125,-0.5432713031768799,-0.40073275566101074,-0.08168794214725494
1789317031197811000,0.50181103515625,-0.4973093867301941,-0.4376026391983032,0.11315185576677322
1789317031207767000,0.51176708984375,-0.3573128581047058,-0.3334176540374756,0.2182961106300354
1789317031217721900,0.521721923828125,-0.18569210171699524,-0.3459635376930237,0.15265345573425293
1789317031227677700,0.531677734375,-0.11349513381719589,-0.3922143876552582,-0.10171277821063995
1789317031237633000,0.541633056640625,-0.3212035894393921,-0.45576804876327515,-0.06228095293045044
1789317031247588900,0.5515888671875,-0.6172826290130615,-0.5188508629798889,0.14553402364253998
1789317031257543700,0.561543701171875,-0.6422212719917297,-0.6203993558883667,0.2316119223833084
1789317031267499000,0.5714990234375,-0.4509349465370178,-0.5775197744369507,0.3018812835216522
1789317031277454800,0.581454833984375,-0.2615676820278168,-0.24158412218093872,0.027297135442495346
1789317031287410000,0.591409912109375,-0.28843072056770325,-0.2973906695842743,-0.029824474826455116
1789317031297366000,0.601365966796875,-0.45128384232521057,-0.6222020387649536,0.041913360357284546
1789317031307320800,0.61132080078125,-0.5905706286430359,-0.7229605913162231,0.08112947642803192
1789317031317277000,0.62127685546875,-0.5543598532676697,-0.5568355321884155,0.017670074477791786
1789317031327232000,0.63123193359375,-0.40529555082321167,-0.2220173478126526,-0.24678927659988403
1789317031337188000,0.64118798828125,-0.4250389039516449,-0.12506817281246185,-0.15357758104801178
1789317031347143000,0.651142822265625,-0.5308412313461304,-0.3608900308609009,-0.05241207405924797
1789317031357098800,0.6610986328125,-0.5430960655212402,-0.8031556010246277,-0.019453858956694603
1789317031367054000,0.67105419921875,-0.49290236830711365,-0.9066218137741089,0.08673302829265594
1789317031377010200,0.68101025390625,-0.48435336351394653,-0.42946428060531616,0.08527415245771408
1789317031386965000,0.690965087890625,-0.484881192445755,-0.3798581063747406,0.27670562267303467
1789317031396921000,0.700921142578125,-0.5360288023948669,-0.4965599775314331,0.39710527658462524
1789317031406876200,0.710876220703125,-0.560384213924408,-0.6821373105049133,0.41285520792007446
1789317031416832000,0.72083203125,-0.4704444706439972,-0.8164849877357483,0.2083478718996048
1789317031426787000,0.730787109375,-0.4281976819038391,-0.6521732807159424,0.02267654985189438
1789317031436743000,0.740742919921875,-0.4377882480621338,-0.5552254319190979,-0.0652003064751625
1789317031446698200,0.7506982421875,-0.4943748414516449,-0.5504328012466431,-0.1202438548207283
1789317031456653000,0.760653076171875,-0.6057738065719604,-0.44280433654785156,-0.1276588886976242
1789317031466609000,0.77060888671875,-0.6984747052192688,-0.3905762732028961,-0.04511634632945061
1789317031476564200,0.780564208984375,-0.6308674216270447,-0.5485690832138062,-0.050332680344581604
1789317031486520000,0.79052001953125,-0.4361320436000824,-0.8341350555419922,-0.12005423754453659
1789317031496475000,0.800474853515625,-0.32694190740585327,-0.9414277076721191,-0.03657239302992821
1789317031506431000,0.810430908203125,-0.4557190537452698,-0.6196445822715759,0.1620648056268692
1789317031516386000,0.820385986328125,-0.6967108845710754,-0.29542845487594604,0.5126185417175293
1789317031526342100,0.830342041015625,-0.63405841588974,-0.4647729992866516,0.35423609614372253
1789317031536297000,0.840296875,-0.4742639660835266,-0.7007634043693542,0.042151980102062225
1789317031546253000,0.850253173828125,-0.5563111901283264,-0.44241762161254883,-0.06599845737218857
1789317031556208000,0.8602080078125,-0.5647480487823486,-0.5784100890159607,-0.11619558185338974
1789317031566164000,0.8701640625,-0.4196827709674835,-1.0245311260223389,0.01745648868381977
1789317031576119300,0.880119384765625,-0.36261653900146484,-0.7943722009658813,0.18783114850521088
1789317031586075100,0.8900751953125,-0.45750096440315247,-0.27401795983314514,0.4294682741165161
1789317031596030000,0.900030029296875,-0.41226425766944885,-0.13624359667301178,0.17084604501724243
1789317031605986000,0.909986083984375,-0.355769544839859,-0.4543624520301819,-0.05826863273978233
1789317031615941000,0.919941162109375,-0.4619506001472473,-0.7215166687965393,0.04797258600592613
1789317031625897200,0.929897216796875,-0.5216525197029114,-0.7022457718849182,0.10892142355442047
1789317031635852000,0.93985205078125,-0.38471519947052,-0.6245123147964478,0.28645652532577515
1789317031645807900,0.949807861328125,-0.13112792372703552,-0.38124457001686096,0.16601772606372833
1789317031655763200,0.95976318359375,-0.045281194150447845,-0.28611937165260315,-0.01708817295730114
1789317031665718000,0.969718017578125,-0.17820516228675842,-0.4586104452610016,-0.1409430056810379
1789317031675674000,0.979674072265625,-0.39243942499160767,-0.6592308878898621,-0.11557985842227936
1789317031685629200,0.989629150390625,-0.51764315366745,-0.7639591693878174,0.2475309669971466
1789317031695585000,0.9995849609375,-0.350503146648407,-0.5277418494224548,0.1834598332643509
1789317031705540000,1.0095400390625,-0.22351191937923431,-0.30287864804267883,0.47111693024635315
1789317031715496000,1.019495849609375,-0.11258726567029953,-0.15101560950279236,0.24285951256752014
1789317031725451000,1.029450927734375,-0.07418235391378403,-0.64630526304245,0.011560515500605106
1789317031735407000,1.039406982421875,-0.2889135479927063,-0.857081949710846,0.11811518669128418
1789317031745362000,1.04936181640625,-0.4444650709629059,-0.5642455220222473,0.028113126754760742
1789317031755318300,1.059318359375,-0.4026228189468384,-0.4055120646953583,0.21461856365203857
1789317031765273000,1.069273193359375,-0.19191564619541168,-0.16980767250061035,-0.008268582634627819
1789317031775229000,1.07922900390625,-0.05108156055212021,-0.49603772163391113,0.11748428642749786
1789317031785184300,1.089184326171875,-0.0537194199860096,-0.7984769344329834,0.17049051821231842
1789317031795140000,1.09914013671875,-0.17745734751224518,-0.7713103294372559,0.2813131511211395
1789317031805095200,1.10909521484375,-0.21183794736862183,-0.6290903091430664,0.29704365134239197
1789317031815051000,1.119051025390625,-0.19696925580501556,-0.3146732449531555,0.09635449945926666
1789317031825006000,1.129006103515625,-0.3468615412712097,-0.061654042452573776,0.3205881416797638
1789317031834962200,1.138962158203125,-0.2944324314594269,-0.2619847357273102,0.1551821231842041
1789317031844917000,1.1489169921875,-0.10351360589265823,-0.7129442095756531,-0.006807838566601276
1789317031854872000,1.1588720703125,-0.02955283224582672,-0.5989755392074585,-0.10978268831968307
1789317031864828200,1.168828125,-0.04466893523931503,-0.5523704886436462,0.06860675662755966
1789317031874783000,1.178782958984375,-0.08536283671855927,-0.5923845171928406,0.43020012974739075
1789317031884739000,1.188739013671875,-0.10058679431676865,-0.3098912835121155,0.506959080696106
1789317031894694100,1.198694091796875,-0.012396481819450855,-0.1913425326347351,0.31644877791404724
1789317031904650000,1.20864990234375,0.04298342019319534,-0.32912036776542664,0.04243054613471031
1789317031914605000,1.21860498046875,-0.04621436819434166,-0.38567018508911133,0.012515258975327015
1789317031924561000,1.228560791015625,-0.03873887285590172,-0.4321841597557068,-0.03377580642700195
1789317031934516200,1.23851611328125,0.07244996726512909,-0.4234548509120941,-0.04993347078561783
1789317031944472000,1.24847216796875,0.12595340609550476,-0.3732127249240875,0.1683245599269867
1789317031954427000,1.258427001953125,0.14223703742027283,-0.28146976232528687,0.34022256731987
1789317031964383200,1.26838330078125,0.12468627095222473,0.029161080718040466,0.265916645526886
1789317031974338000,1.278338134765625,0.1590450406074524,-0.014287326484918594,-0.016230635344982147
1789317031984294100,1.288294189453125,0.1172667071223259,-0.5591250658035278,0.21812354028224945
1789317031994249200,1.298249267578125,0.008177235722541809,-0.40616321563720703,0.5035043954849243
1789317032004205000,1.308205078125,0.16315722465515137,-0.02821352891623974,0.5150029063224792
1789317032014160100,1.31816015625,0.5996469259262085,-0.019246665760874748,0.0633920207619667
1789317032024116000,1.328115966796875,0.7714903354644775,-0.2164582759141922,-0.2787858247756958
1789317032034071000,1.338071044921875,0.41683876514434814,-0.2543151080608368,0.09738007932901382
1789317032044027100,1.348027099609375,0.15049417316913605,-0.18343746662139893,0.32062089443206787
1789317032053982000,1.35798193359375,0.223758265376091,0.14322958886623383,0.22560462355613708
1789317032063937300,1.367937255859375,0.4787772297859192,0.5481389760971069,-0.08769789338111877
1789317032073893000,1.37789306640625,0.6637691855430603,0.39155417680740356,-0.34813880920410156
1789317032083848000,1.387847900390625,0.6310301423072815,-0.2504407465457916,0.045332327485084534
1789317032093804000,1.397803955078125,0.5633472204208374,-0.47153398394584656,0.4919484257698059
1789317032103759000,1.407759033203125,0.706074059009552,-0.2625373601913452,0.662969708442688
1789317032113715200,1.417715087890625,0.9472078084945679,0.24028903245925903,0.4063810706138611
1789317032123670000,1.427669921875,0.9070585370063782,0.6744945645332336,0.13359934091567993
1789317032133626000,1.437626220703125,0.6525330543518066,0.472658634185791,-0.0032751555554568768
1789317032143581200,1.447581298828125,0.480694442987442,-0.002654106356203556,-0.16416923701763153
1789317032153537000,1.457537109375,0.43531179428100586,0.017784323543310165,0.014913169667124748
1789317032163492000,1.4674921875,0.6465678215026855,0.6009777188301086,-0.14249110221862793
1789317032173448200,1.4774482421875,1.0100916624069214,0.43576931953430176,-0.06980544328689575
1789317032183403000,1.487403076171875,1.1741344928741455,-0.04378423094749451,0.2641618847846985
1789317032193359000,1.497359130859375,1.0372653007507324,0.009364207275211811,0.3250694274902344
1789317032203314200,1.507314208984375,0.8536595106124878,0.07367555052042007,0.3656163215637207
1789317032213270300,1.517270263671875,0.7431952953338623,0.36462855339050293,0.061224475502967834
1789317032223225000,1.52722509765625,0.5660697817802429,0.5530511736869812,0.1467505544424057
1789317032233181000,1.537180908203125,0.5212687849998474,0.6054009795188904,0.14823953807353973
1789317032243136300,1.54713623046875,0.6683804392814636,0.5416054725646973,-0.13585424423217773
1789317032253092000,1.557092041015625,0.8231218457221985,0.04496641084551811,0.06483998149633408
1789317032263047000,1.567046875,0.8804261088371277,-0.04277249798178673,0.1748594343662262
1789317032273002200,1.577002197265625,0.8794096112251282,0.2458486557006836,0.11915275454521179
1789317032282958000,1.5869580078125,0.809702455997467,0.5634332895278931,-0.12765170633792877
1789317032292913200,1.5969130859375,0.6382995247840881,0.2542029917240143,-0.021680528298020363
1789317032302869000,1.606868896484375,0.37992095947265625,0.22744594514369965,0.056822270154953
1789317032312824000,1.616823974609375,0.24240490794181824,0.6089403033256531,0.04830281808972359
1789317032322780200,1.6267802734375,0.41399210691452026,0.48765328526496887,0.09019140899181366
1789317032332735000,1.63673486328125,0.5877665877342224,0.39087986946105957,-0.015797605738043785
1789317032342691000,1.646691162109375,0.6232425570487976,0.09875107556581497,0.0913405641913414
1789317032352646100,1.656646240234375,0.6250998377799988,-0.13117772340774536,0.07751955837011337
1789317032362602000,1.66660205078125,0.5432220101356506,0.1607966125011444,-0.15185637772083282
1789317032372556500,1.676556640625,0.398165762424469,0.2653491199016571,-0.14876843988895416
1789317032382512600,1.6865126953125,0.22746111452579498,0.1530928760766983,0.13008609414100647
1789317032392467500,1.696467529296875,0.1148725226521492,0.4189847409725189,0.1250612437725067
1789317032402423300,1.70642333984375,0.1970914900302887,0.4100751280784607,0.0338602289557457
1789317032412378600,1.716378662109375,0.42377790808677673,-0.07895234227180481,-0.06438431888818741
1789317032422334500,1.72633447265625,0.4683302044868469,-0.14635002613067627,-0.16382968425750732
1789317032432289300,1.736289306640625,0.34076452255249023,0.026080070063471794,-0.052925530821084976
1789317032442244600,1.74624462890625,0.2965070307254791,0.03363625705242157,-0.04661969840526581
1789317032452200400,1.756200439453125,0.20218506455421448,0.08753091096878052,-0.03845737874507904
1789317032462155300,1.7661552734375,0.009591374546289444,0.05919621139764786,0.29282599687576294
1789317032472111400,1.776111328125,-0.02678261138498783,0.15514057874679565,0.293637752532959
1789317032482066400,1.78606640625,0.048717204481363297,0.4223182201385498,0.024274446070194244
1789317032492022500,1.7960224609375,0.12363006174564362,0.19680121541023254,-0.09812656790018082
1789317032501977300,1.805977294921875,0.15296638011932373,-0.42366817593574524,-0.0735679566860199
1789317032511933400,1.815933349609375,0.05579562112689018,-0.34549480676651,-0.09938757121562958
1789317032521888500,1.825888427734375,0.01677738130092621,-0.0479092039167881,-0.11925395578145981
1789317032531844400,1.83584423828125,0.026697658002376556,0.037338584661483765,-0.15673954784870148
1789317032541799400,1.84579931640625,-0.1335117220878601,0.11090947687625885,-0.05372128635644913
1789317032551755500,1.855755615234375,-0.2920244038105011,-0.08801640570163727,0.163854718208313
1789317032561710300,1.86571044921875,-0.26665058732032776,-0.2099873274564743,0.02689632959663868
1789317032571666400,1.87566650390625,-0.20994924008846283,-0.2276105284690857,0.034214429557323456
1789317032581621500,1.88562158203125,-0.1557440608739853,-0.29417356848716736,0.07671661674976349
1789317032591577600,1.89557763671875,-0.1811801791191101,-0.3805393576622009,0.26662397384643555
1789317032601532400,1.905532470703125,-0.21948681771755219,-0.1383245885372162,0.1350182741880417
1789317032611488300,1.91548828125,-0.23703758418560028,-0.03205620497465134,-0.21546517312526703
1789317032621443600,1.925443603515625,-0.3319355845451355,-0.2038724422454834,-0.36913010478019714
1789317032631399400,1.9353994140625,-0.44992268085479736,-0.4878844618797302,-0.19941803812980652
1789317032641354500,1.9453544921875,-0.4332323968410492,-0.5067780017852783,0.002161954063922167
1789317032651309600,1.9553095703125,-0.2811850607395172,-0.11118058115243912,-0.09916573017835617
1789317032661265400,1.965265380859375,-0.20648552477359772,0.01588895171880722,-0.018914569169282913
1789317032671220500,1.975220458984375,-0.31212887167930603,-0.20121513307094574,0.18586361408233643
1789317032681176300,1.98517626953125,-0.4174438416957855,-0.43987804651260376,0.12961071729660034
1789317032691131400,1.99513134765625,-0.40587612986564636,-0.5873777270317078,0.06017385795712471
1789317032701087500,2.00508740234375,-0.32301586866378784,-0.42811620235443115,0.022849123924970627
1789317032711042300,2.015042236328125,-0.24900183081626892,-0.1264365017414093,-0.03651886433362961
1789317032720998400,2.024998291015625,-0.2612563669681549,0.10362546145915985,-0.08157581835985184
1789317032730953500,2.034953369140625,-0.30094626545906067,-0.10034604370594025,-0.09916599839925766
1789317032740909600,2.04490966796875,-0.31498458981513977,-0.5962892174720764,-0.06349029392004013
1789317032750864400,2.054864501953125,-0.3260684013366699,-0.5622646808624268,-0.0023411849979311228
1789317032760820500,2.064820556640625,-0.2476484179496765,-0.10601777583360672,0.05872802808880806
1789317032770775600,2.074775634765625,-0.10125365108251572,0.3212217092514038,-0.1793908029794693
1789317032780731400,2.0847314453125,-0.045886266976594925,0.0706949457526207,-0.32855337858200073
1789317032790686500,2.0946865234375,-0.16957812011241913,-0.5067116618156433,-0.030674023553729057
1789317032800642600,2.104642578125,-0.25091370940208435,-0.653918445110321,0.23106996715068817
1789317032810597400,2.114597412109375,-0.08665047585964203,-0.3907453715801239,0.21430563926696777
1789317032820553500,2.124553466796875,0.12263990193605423,0.00782596506178379,0.27142778038978577
1789317032830508500,2.134508544921875,0.2214847207069397,0.45539334416389465,-0.18165022134780884
1789317032840463400,2.14446337890625,0.07865433394908905,0.0014154701493680477,-0.27766597270965576
1789317032850419500,2.15441943359375,-0.1678617000579834,-0.7575779557228088,0.16823241114616394
1789317032860374500,2.16437451171875,-0.21567796170711517,-0.5685383081436157,0.29320791363716125
1789317032870330600,2.17433056640625,0.06835988163948059,0.14190679788589478,0.17665758728981018
1789317032880285400,2.184285400390625,0.451334685087204,0.6297675371170044,-0.3253690302371979
1789317032890241300,2.1942412109375,0.41671040654182434,0.22290845215320587,-0.2807672321796417
1789317032900196600,2.204196533203125,0.08320380747318268,-0.36024633049964905,-0.0802152082324028
1789317032910152400,2.21415234375,-0.12188223004341125,-0.5629898309707642,0.045226335525512695
1789317032920107300,2.224107177734375,-0.015334481373429298,-0.1621321737766266,0.14144395291805267
1789317032930063400,2.2340634765625,0.23964428901672363,0.4925444424152374,0.0013915016315877438
1789317032940018400,2.244018310546875,0.32334664463996887,0.4486449062824249,0.25517556071281433
1789317032949974500,2.253974609375,0.24710139632225037,0.21741248667240143,0.1433688849210739
1789317032959929300,2.263929443359375,0.16199369728565216,-0.2540876567363739,0.01629534922540188
1789317032969885400,2.273885498046875,0.1631319373846054,-0.4427095055580139,-0.1479247510433197
1789317032979840500,2.283840576171875,0.19706326723098755,-0.2699134945869446,-0.087186299264431
1789317032989796400,2.29379638671875,0.23199382424354553,0.05859034135937691,0.11542672663927078
1789317032999751700,2.303751708984375,0.2385220229625702,0.46803855895996094,0.04989591985940933
1789317033009707500,2.31370751953125,0.19517801702022552,0.4891209602355957,-0.2647176682949066
1789317033019662300,2.323662353515625,0.023127157241106033,-0.0896206945180893,-0.19711466133594513
1789317033029618400,2.333618408203125,-0.11844328790903091,-0.4482528865337372,0.08802413195371628
1789317033039573500,2.343573486328125,0.055802278220653534,-0.33666670322418213,0.16181926429271698
1789317033049529600,2.353529541015625,0.3844541907310486,0.21392187476158142,-0.052254948765039444
1789317033059484400,2.363484375,0.4672766327857971,0.3564736843109131,-0.10570751875638962
1789317033069439500,2.373439453125,0.21947883069515228,-0.028500083833932877,-0.018734006211161613
1789317033079395600,2.3833955078125,-0.13928411900997162,-0.3162767291069031,0.11827124655246735
1789317033089350400,2.393350341796875,-0.26298022270202637,-0.18253731727600098,0.24836879968643188
1789317033099306200,2.40330615234375,-0.03569354861974716,0.3243296146392822,-0.12067901343107224
1789317033109261600,2.413261474609375,0.1514742076396942,0.38978371024131775,-0.09514036029577255
1789317033119217400,2.423217529296875,0.1647639125585556,-0.014961372129619122,0.22948884963989258
1789317033129172500,2.43317236328125,0.130232036113739,-0.2142835259437561,0.1478957235813141
1789317033139128300,2.44312841796875,0.13255618512630463,-0.2096237987279892,-0.057984475046396255
1789317033149083400,2.45308349609375,0.14936818182468414,-0.1119140163064003,-0.20379866659641266
1789317033159039500,2.46303955078125,0.06730979681015015,-0.011891280300915241,-0.04728202894330025
1789317033168994300,2.472994384765625,-0.016213856637477875,0.1968906968832016,0.04201269894838333
1789317033178950700,2.48295068359375,0.008126636035740376,0.2316657155752182,0.033299632370471954
1789317033188905500,2.492905517578125,0.06406819820404053,-0.06375420838594437,0.14958256483078003
1789317033198861300,2.502861328125,0.11066632717847824,-0.20805573463439941,0.10919546335935593
1789317033208816600,2.512816650390625,0.1823413074016571,-0.20003642141819,0.08038591593503952
1789317033218772500,2.5227724609375,0.2344881296157837,0.1624128818511963,-0.12590360641479492
1789317033228727300,2.532727294921875,0.18300338089466095,0.25393322110176086,-0.20538750290870667
1789317033238683400,2.542683349609375,0.08541902899742126,-0.163629949092865,-0.006105296779423952
1789317033248638500,2.552638427734375,0.023559387773275375,-0.23221752047538757,0.09905334562063217
1789317033258593500,2.562593505859375,0.08989100903272629,0.022603578865528107,0.12500078976154327
1789317033268549400,2.57254931640625,0.23187343776226044,0.28246790170669556,0.02185230143368244
1789317033278504400,2.58250439453125,0.2361648678779602,0.2949504256248474,0.031747009605169296
1789317033288460500,2.59246044921875,0.1912088394165039,-0.13428190350532532,0.14027801156044006
1789317033298415400,2.602415283203125,0.16983510553836823,-0.2698914110660553,0.07128296792507172
1789317033308371500,2.612371337890625,0.21179987490177155,0.03074433095753193,-0.0787012055516243
1789317033318326500,2.622326416015625,0.28243783116340637,0.3154434263706207,-0.21172316372394562
1789317033328282400,2.632282470703125,0.26698777079582214,0.29056525230407715,-0.1289854198694229
1789317033338237400,2.642237548828125,0.2346295565366745,0.10842501372098923,-0.07360763847827911
1789317033348193300,2.652193359375,0.227029949426651,0.03374731168150902,-0.040815871208906174
1789317033358148600,2.662148681640625,0.2808516323566437,-0.11030226945877075,0.14558249711990356
1789317033368104400,2.6721044921875,0.3342331051826477,0.06856441497802734,0.20244364440441132
1789317033378060000,2.68206005859375,0.3845287561416626,0.41320115327835083,0.06908825784921646
1789317033388016000,2.69201611328125,0.4168834984302521,0.542004406452179,-0.3040509819984436
1789317033397971200,2.70197119140625,0.29180416464805603,0.23863227665424347,-0.39820730686187744
1789317033407927300,2.71192724609375,0.1085405945777893,-0.4128272533416748,0.20136001706123352
1789317033417882000,2.721882080078125,0.12227744609117508,-0.25782302021980286,0.5912696719169617
1789317033427838200,2.731838134765625,0.37817418575286865,0.737241804599762,0.3464812636375427
1789317033437793300,2.741793212890625,0.6392044425010681,0.9785394072532654,-0.1905137598514557
1789317033447749000,2.7517490234375,0.5490500926971436,0.06722643971443176,-0.3846643269062042
1789317033457704200,2.7617041015625,0.1866910457611084,-0.7426820993423462,-0.025922410190105438
1789317033467660300,2.771660400390625,0.04422258958220482,-0.4674185812473297,0.18486438691616058
1789317033477615000,2.781614990234375,0.2525339722633362,0.8016727566719055,0.017833592370152473
1789317033487571200,2.7915712890625,0.47077417373657227,0.9162434935569763,0.057378605008125305
1789317033497526300,2.8015263671875,0.37927061319351196,0.5408392548561096,0.08030229806900024
1789317033507481000,2.811481201171875,0.22764727473258972,-0.01500930916517973,-0.046902526170015335
1789317033517437200,2.821437255859375,0.24745480716228485,-0.25742992758750916,-0.27247360348701477
1789317033527392300,2.831392333984375,0.343178391456604,-0.18613871932029724,-0.18500261008739471
1789317033537348400,2.841348388671875,0.38032522797584534,-0.01811215840280056,0.3139699101448059
1789317033547303200,2.85130322265625,0.3624378442764282,0.7333746552467346,0.3467172086238861
1789317033557259000,2.861259033203125,0.3553740680217743,0.9406460523605347,0.056533850729465485
1789317033567214300,2.87121435546875,0.2656223475933075,0.23647218942642212,-0.14010091125965118
1789317033577170200,2.881170166015625,0.06125297024846077,-0.36199575662612915,0.012132829055190086
1789317033587125000,2.891125,0.10439751297235489,-0.45699283480644226,0.19658710062503815
1789317033597081000,2.9010810546875,0.40231069922447205,0.2926475703716278,-0.033725474029779434
1789317033607036200,2.9110361328125,0.6228787302970886,0.7494665384292603,-0.15072479844093323
1789317033616992300,2.9209921875,0.5192314386367798,0.4911138117313385,-0.18257540464401245
1789317033626947000,2.930947021484375,0.14329537749290466,0.02269625850021839,-0.05004585534334183
1789317033636903200,2.940903076171875,-0.03996605798602104,-0.30601903796195984,0.0680789202451706
1789317033646858200,2.950858154296875,0.13038437068462372,0.2110150307416916,-0.21281400322914124
1789317033656814000,2.96081396484375,0.3434132933616638,0.5323776006698608,-0.09661069512367249
1789317033666769200,2.97076904296875,0.3525561988353729,0.39691218733787537,0.2598515450954437
1789317033676725200,2.980725341796875,0.249181866645813,0.15454669296741486,0.36137497425079346
1789317033686680000,2.99068017578125,0.22045594453811646,-0.18205368518829346,0.28705573081970215
1789317033696636200,3.00063623046875,0.2380373328924179,-0.010296046733856201,-0.05534927546977997
1789317033706591200,3.01059130859375,0.20757529139518738,0.21558262407779694,-0.14717693626880646
1789317033716547300,3.02054736328125,0.13333861529827118,0.31284260749816895,-0.07463429123163223
1789317033726502100,3.030502197265625,0.08453698456287384,0.35982421040534973,-0.04583939537405968
1789317033736458000,3.0404580078125,0.12557123601436615,0.4140640199184418,-0.17800594866275787
1789317033746413300,3.050413330078125,0.18528969585895538,0.6333524584770203,-0.553124189376831
1789317033756368100,3.0603681640625,0.16518229246139526,-0.22763103246688843,-0.12438374012708664
1789317033766324200,3.07032421875,0.09199730306863785,-0.6637833118438721,0.3970738649368286
1789317033776279300,3.080279296875,0.14602617919445038,-0.24437671899795532,0.6115347743034363
1789317033786235100,3.090235107421875,0.31979984045028687,0.844224214553833,0.31480586528778076
1789317033796190200,3.100190185546875,0.3178812861442566,0.7545078992843628,-0.023319704458117485
1789317033806146000,3.11014599609375,-0.00276196445338428,-0.14629969000816345,0.1848936825990677
1789317033816101000,3.12010107421875,-0.2581804096698761,-0.4799881875514984,0.24851873517036438
1789317033826057200,3.13005712890625,-0.07399486750364304,-0.00018482338055036962,-0.09850020706653595
1789317033836012000,3.140011962890625,0.34205055236816406,0.6611286997795105,-0.5625064969062805
1789317033845968100,3.149968017578125,0.5060855746269226,0.7336670756340027,-0.7481551766395569
1789317033855923200,3.159923095703125,0.2945344150066376,0.08187568932771683,-0.3340088725090027
1789317033865879000,3.169879150390625,-0.0028506475500762463,-0.24398736655712128,0.06557421386241913
1789317033875834000,3.179834228515625,0.008648082613945007,-0.0020447750575840473,0.18546760082244873
1789317033885790200,3.189790283203125,0.24185630679130554,0.27167758345603943,0.14214248955249786
1789317033895745300,3.199745361328125,0.2649456560611725,0.33210310339927673,0.5051925778388977
1789317033905701000,3.209701171875,0.22148126363754272,0.2555990219116211,0.637852132320404
1789317033915656200,3.21965625,0.23892736434936523,0.20812870562076569,0.31497180461883545
1789317033925612300,3.2296123046875,0.281127005815506,0.2653685510158539,-0.1823998987674713
1789317033935567000,3.239567138671875,0.3100348114967346,0.0264838058501482,-0.4123913049697876
1789317033945523200,3.249523193359375,0.2492883950471878,0.045393846929073334,-0.4038388133049011
1789317033955478300,3.259478271484375,0.223536416888237,0.33631595969200134,-0.28682512044906616
1789317033965434000,3.26943408203125,0.326213538646698,0.4196116626262665,-0.09144788980484009
1789317033975389200,3.27938916015625,0.3763613700866699,0.25403282046318054,0.019035743549466133
1789317033985345000,3.289344970703125,0.24212367832660675,0.03652898222208023,0.3688632547855377
1789317033995300000,3.299300048828125,0.2049155980348587,0.12250594049692154,0.26601943373680115
1789317034005255200,3.309255126953125,0.26569879055023193,0.2073739618062973,0.1933596134185791
1789317034015211000,3.3192109375,0.28801074624061584,0.40342575311660767,-0.017372598871588707
1789317034025167000,3.3291669921875,0.22890588641166687,0.2872767746448517,-0.12135811895132065
1789317034035122200,3.3391220703125,0.1302461475133896,0.09417682886123657,0.016646621748805046
1789317034045077000,3.349076904296875,0.16205814480781555,0.271969735622406,-0.22345386445522308
1789317034055033000,3.359033203125,0.24369361996650696,0.20989437401294708,-0.21915045380592346
1789317034064988200,3.36898828125,0.16470026969909668,0.2626180350780487,-0.0288217943161726
1789317034074944300,3.3789443359375,0.03881504014134407,0.1865570992231369,0.2726200819015503
1789317034084899000,3.388899169921875,0.09478749334812164,0.038661107420921326,0.16208158433437347
1789317034094855200,3.398855224609375,0.1442202925682068,0.05597911402583122,0.05618710443377495
1789317034104810200,3.408810302734375,0.11332735419273376,0.0448918417096138,0.13265737891197205
1789317034114766000,3.41876611328125,0.021731926128268242,0.22453829646110535,-0.007851265370845795
1789317034124721200,3.42872119140625,-0.04322097450494766,0.049790460616350174,0.08901163190603256
1789317034134677200,3.43867724609375,0.03984168916940689,-0.1043786033987999,-0.18080146610736847
1789317034144632000,3.448632080078125,0.01606818288564682,0.02528112195432186,-0.16285602748394012
1789317034154588200,3.458588134765625,-0.03910186141729355,0.23087476193904877,-0.09048036485910416
1789317034164543200,3.468543212890625,-0.05522916838526726,0.24617888033390045,-0.15570011734962463
1789317034174499300,3.478499267578125,-0.06659180670976639,-0.044268928468227386,-0.02875974215567112
1789317034184454100,3.4884541015625,-0.06361386179924011,-0.20130221545696259,0.07732248306274414
1789317034194410000,3.498409912109375,-0.06732790917158127,-0.06127987056970596,0.21754829585552216
1789317034204365300,3.508365234375,-0.025002555921673775,0.1611715853214264,0.14730902016162872
1789317034214321200,3.518321044921875,-0.05242592468857765,0.18612299859523773,0.13970276713371277
1789317034224276000,3.52827587890625,-0.12420663982629776,0.08097340911626816,0.04887326806783676
1789317034234232000,3.538232177734375,-0.13885562121868134,-0.06184712052345276,-0.09079275280237198
1789317034244187100,3.548187255859375,-0.06690046936273575,-0.08107221871614456,-0.17466820776462555
1789317034254143200,3.558143310546875,0.015548866242170334,0.11619877815246582,-0.2869367003440857
1789317034264098000,3.56809814453125,0.021949507296085358,0.10896722972393036,-0.15858031809329987
1789317034274054100,3.57805419921875,-0.0054395063780248165,-0.017377391457557678,-0.07599010318517685
1789317034284009200,3.58800927734375,-0.06441707164049149,0.13923779129981995,-0.09852204471826553
1789317034293964000,3.597964111328125,-0.08916422724723816,0.13532373309135437,-0.0270736962556839
1789317034303920400,3.60792041015625,-0.1035895124077797,-0.39115044474601746,0.3731195330619812
1789317034313875200,3.617875244140625,-0.13783536851406097,-0.29792463779449463,0.6716383099555969
1789317034323831000,3.6278310546875,0.0046181874349713326,0.3013814091682434,0.3503068685531616
1789317034333786400,3.637786376953125,0.17460589110851288,0.6295201182365417,-0.2808127701282501
1789317034343742200,3.6477421875,0.06785468012094498,0.0828472152352333,-0.4733973741531372
1789317034353697000,3.657697021484375,-0.22418463230133057,-0.49915334582328796,-0.21931211650371552
1789317034363653000,3.667653076171875,-0.3123331367969513,-0.40535494685173035,0.036908481270074844
1789317034373608200,3.677608154296875,-0.0353689081966877,0.5707870721817017,-0.12918807566165924
1789317034383564000,3.68756396484375,0.2176942378282547,0.49487578868865967,-0.1895608752965927
1789317034393519000,3.69751904296875,0.06800168752670288,0.01332858856767416,0.1494579315185547
1789317034403475000,3.707474853515625,-0.14430418610572815,-0.28045135736465454,0.22707043588161469
1789317034413430000,3.717429931640625,-0.11738548427820206,-0.36079227924346924,0.06769941747188568
1789317034423386000,3.72738623046875,0.03578862547874451,-0.25535985827445984,0.06154245510697365
1789317034433341000,3.7373408203125,0.07197406142950058,0.10487049072980881,0.192749485373497
1789317034443297000,3.747297119140625,0.03274329751729965,0.45559707283973694,0.1508299857378006
1789317034453252000,3.757252197265625,-0.00199284334667027,0.3692624568939209,-0.10979334264993668
1789317034463208200,3.767208251953125,-0.05902470275759697,-0.2331584244966507,-0.20925495028495789
1789317034473163000,3.7771630859375,-0.16725583374500275,-0.41366827487945557,-0.10667131841182709
1789317034483119000,3.787119140625,-0.1269209235906601,0.22562167048454285,-0.1511484980583191
1789317034493074200,3.79707421875,0.10605879127979279,0.8703532814979553,-0.38676929473876953
1789317034503030000,3.807030029296875,0.16814054548740387,0.08026767522096634,-0.18583618104457855
1789317034512985000,3.816985107421875,-0.02708381600677967,-0.554695725440979,0.26729536056518555
1789317034522941200,3.826941162109375,-0.086653932929039,-0.4708964228630066,0.39954686164855957
1789317034532896000,3.83689599609375,0.09103909879922867,0.3148631453514099,0.1297643929719925
1789317034542852000,3.84685205078125,0.2201526015996933,0.2586909532546997,0.06766773015260696
1789317034552807200,3.85680712890625,0.0416443832218647,-0.03798626363277435,0.2660473883152008
1789317034562763000,3.866762939453125,-0.1825285255908966,0.03299470245838165,0.18120600283145905
1789317034572718000,3.876718017578125,-0.08772186189889908,-0.0018618159228935838,-0.1305156648159027
1789317034582674000,3.886673828125,0.14090491831302643,0.06934525072574615,-0.4603063464164734
1789317034592629200,3.896629150390625,0.16635462641716003,0.24201582372188568,-0.35339295864105225
1789317034602585000,3.906585205078125,0.10756001621484756,0.16855944693088531,-0.04324760660529137
1789317034612540000,3.916539794921875,0.092704638838768,0.11779320985078812,-0.0007123955874703825
1789317034622495200,3.9264951171875,0.11495241522789001,0.010182064026594162,0.07040918618440628
1789317034632451000,3.936451171875,0.11319499462842941,0.06428311765193939,0.13768702745437622
1789317034642406000,3.946406005859375,0.08036275207996368,0.24819515645503998,0.1798214316368103
1789317034652362000,3.956362060546875,0.13820447027683258,0.049366217106580734,0.2141684889793396
1789317034662317000,3.966317138671875,0.194713294506073,-0.039983633905649185,0.08875863254070282
1789317034672273200,3.976273193359375,0.1574207842350006,0.09724559634923935,0.06780674308538437
1789317034682228000,3.98622802734375,0.14332254230976105,0.32921090722084045,-0.19135797023773193
1789317034692184000,3.99618408203125,0.09122631698846817,0.34790390729904175,-0.32412081956863403
1789317034702139100,4.00613916015625,0.05078142136335373,-0.04601196572184563,-0.045708633959293365
1789317034712095000,4.016094970703125,0.1185745820403099,-0.06457766145467758,-0.023036077618598938
1789317034722050300,4.02605029296875,0.25695881247520447,0.317734032869339,-0.11925182491540909
1789317034732006100,4.036006103515625,0.35809555649757385,0.22588425874710083,-0.03675907850265503
1789317034741961000,4.0459609375,0.23296374082565308,-0.16578364372253418,0.3408939242362976
1789317034751917000,4.0559169921875,0.03761342167854309,-0.04688947647809982,0.47118616104125977
1789317034761872100,4.0658720703125,0.03075231984257698,0.3932916224002838,0.1654725819826126
1789317034771828200,4.075828125,0.16174308955669403,0.6211503744125366,-0.31088384985923767
1789317034781783000,4.085782958984375,0.16566166281700134,0.17939452826976776,-0.2705542743206024
1789317034791739000,4.09573876953125,0.056890182197093964,-0.16526591777801514,-0.0018282600212842226
1789317034801694200,4.105694091796875,0.05707979574799538,-0.06247136741876602,0.13230344653129578
1789317034811650000,4.115650146484375,0.25683286786079407,0.21138814091682434,0.00446905056014657
1789317034821604900,4.12560498046875,0.363309770822525,0.5764364004135132,-0.3951622247695923
1789317034831561200,4.135561279296875,0.15881973505020142,0.2571204900741577,-0.17277976870536804
1789317034841516000,4.14551611328125,-0.07221613824367523,-0.19860203564167023,0.06804589927196503
1789317034851472100,4.15547216796875,-0.13149677217006683,-0.3325430750846863,0.40357649326324463
1789317034861427000,4.165427001953125,0.0788721814751625,0.2166667878627777,0.3063008189201355
1789317034871383300,4.17538330078125,0.3366267681121826,0.7481306791305542,-0.12016156315803528
1789317034881338000,4.185338134765625,0.3050137162208557,0.3441168963909149,-0.017913753166794777
1789317034891294000,4.1952939453125,0.11686589568853378,0.09371424466371536,-0.05560067668557167
1789317034901249300,4.205249267578125,-0.0022916500456631184,-0.2066224217414856,0.19661958515644073
1789317034911205000,4.215205078125,0.05145919695496559,0.03217524662613869,-0.043359722942113876
1789317034921160000,4.225159912109375,0.11108231544494629,0.5057162046432495,-0.416136771440506
1789317034931116000,4.235115966796875,0.12282632291316986,0.31493425369262695,-0.3885490894317627
1789317034941071000,4.245071044921875,0.08122028410434723,-0.06916016340255737,-0.18744152784347534
1789317034951027200,4.255027099609375,0.08954107016324997,-0.48799869418144226,0.23463355004787445
1789317034960982000,4.26498193359375,0.19237476587295532,-0.12402847409248352,0.23403219878673553
1789317034970937900,4.274937744140625,0.24241423606872559,0.3221468925476074,0.48237118124961853
1789317034980893200,4.28489306640625,0.22744274139404297,0.5614044666290283,0.3852504789829254
1789317034990849000,4.29484912109375,0.11972373723983765,0.2830575406551361,0.21257485449314117
1789317035000804000,4.30480419921875,0.027960261330008507,-0.163426473736763,0.1796611100435257
1789317035010759200,4.31475927734375,0.10371547937393188,-0.02377084270119667,-0.19063732028007507
1789317035020715000,4.324715087890625,0.28374916315078735,0.14774098992347717,-0.31429988145828247
1789317035030671000,4.334671142578125,0.38196998834609985,0.427085280418396,-0.3971577286720276
1789317035040626200,4.344626220703125,0.33281391859054565,0.31415021419525146,-0.19620786607265472
1789317035050581000,4.3545810546875,0.24057692289352417,0.04454350098967552,-0.017131049185991287
1789317035060537000,4.364537109375,0.131521537899971,0.29528704285621643,-0.08131243288516998
1789317035070492000,4.374491943359375,0.13462145626544952,0.32409098744392395,0.0019049590919166803
1789317035080448300,4.3844482421875,0.18335969746112823,0.13913126289844513,0.1831969916820526
1789317035090403000,4.394403076171875,0.18768760561943054,-0.05470425635576248,0.60364830493927
1789317035100359200,4.404359130859375,0.2817502021789551,0.1159692108631134,0.6002160310745239
1789317035110314200,4.414314208984375,0.4269515872001648,0.4486462473869324,0.1396058350801468
1789317035120270000,4.42427001953125,0.424358993768692,0.376728892326355,-0.1913854032754898
1789317035130225200,4.43422509765625,0.24734614789485931,0.19236332178115845,-0.41561558842658997
1789317035140181000,4.444180908203125,0.09927572309970856,-0.060753628611564636,-0.29443830251693726
1789317035150136000,4.454135986328125,0.13580816984176636,0.11726696789264679,-0.10173408687114716
1789317035160092200,4.464092041015625,0.32464173436164856,0.6042275428771973,-0.08586803823709488
1789317035170047000,4.474046875,0.46068423986434937,0.675898551940918,-0.027899807319045067
1789317035180003000,4.484003173828125,0.3582409620285034,0.44488051533699036,0.03730955347418785
1789317035189958100,4.493958251953125,0.183149054646492,-0.12602530419826508,0.28979718685150146
1789317035199914000,4.5039140625,0.13344886898994446,-0.19491702318191528,0.3230150640010834
1789317035209869000,4.513869140625,0.2460515797138214,0.22279472649097443,0.2258557677268982
1789317035219825200,4.5238251953125,0.362638920545578,0.6295177340507507,0.12595446407794952
1789317035229780200,4.5337802734375,0.3170224130153656,0.6865613460540771,0.019402725622057915
1789317035239736000,4.543736083984375,0.22286956012248993,0.18180574476718903,-0.035295672714710236
1789317035249691100,4.553691162109375,0.12463274598121643,0.05345390364527702,-0.16969981789588928
1789317035259647200,4.563647216796875,0.18914009630680084,0.17662324011325836,-0.25354811549186707
1789317035269602000,4.57360205078125,0.36840254068374634,0.3193513751029968,-0.33921828866004944
1789317035279558100,4.58355810546875,0.3911682963371277,0.45313578844070435,-0.2175499051809311
1789317035289513200,4.59351318359375,0.3037455081939697,0.1570117175579071,0.1647804230451584
1789317035299469000,4.603468994140625,0.17143620550632477,0.11298087984323502,0.36153343319892883
1789317035309424000,4.613424072265625,0.08533993363380432,0.3465598225593567,0.43878453969955444
1789317035319380000,4.6233798828125,0.16463634371757507,0.4049709141254425,0.3096182942390442
1789317035329335000,4.6333349609375,0.23572304844856262,0.32660767436027527,0.15460528433322906
1789317035339291100,4.643291015625,0.21743884682655334,0.11003515869379044,0.23269928991794586
1789317035349246000,4.653245849609375,0.24926574528217316,0.0245511494576931,0.15700745582580566
1789317035359202000,4.6632021484375,0.29586413502693176,0.46924179792404175,-0.24734507501125336
1789317035369157000,4.6731572265625,0.2669779062271118,0.766001284122467,-0.6007894277572632
1789317035379112700,4.68311279296875,0.156102254986763,0.29915502667427063,-0.5683297514915466
1789317035389067800,4.69306787109375,0.023030750453472137,-0.19181284308433533,-0.13797731697559357
1789317035399023900,4.70302392578125,0.055991362780332565,0.06761366128921509,0.218453511595726
1789317035408978700,4.712978759765625,0.3139345049858093,0.5588241219520569,0.2962236702442169
1789317035418934500,4.7229345703125,0.3446234166622162,0.3772950768470764,0.3327119052410126
1789317035428889900,4.732889892578125,0.06397392600774765,0.23933029174804688,0.42233315110206604
1789317035438845700,4.742845703125,-0.031690552830696106,-0.22322535514831543,0.3261573314666748
1789317035448800500,4.752800537109375,0.0493377223610878,-0.21707665920257568,0.06853298842906952
1789317035458756600,4.762756591796875,0.12942829728126526,0.17944273352622986,-0.055277638137340546
1789317035468711700,4.772711669921875,0.18374000489711761,0.3458021581172943,-0.12194055318832397
1789317035478667800,4.782667724609375,0.1004222109913826,0.45896491408348083,-0.2306760847568512
1789317035488622600,4.79262255859375,-0.01636059768497944,0.3071436882019043,-0.35626837611198425
1789317035498578700,4.80257861328125,-0.08973947167396545,-0.08238755166530609,-0.34747886657714844
1789317035508533800,4.81253369140625,-0.16825531423091888,-0.1538904905319214,0.021258683875203133
1789317035518489600,4.822489501953125,-0.08680147677659988,0.1518547683954239,0.2659813463687897
1789317035528444700,4.832444580078125,0.13157081604003906,0.49430638551712036,0.20194457471370697
1789317035538400800,4.84240087890625,0.15876780450344086,0.09616275131702423,0.2971842885017395
1789317035548355600,4.85235546875,-0.0804133489727974,-0.1499929577112198,0.2722030282020569
1789317035558311700,4.862311767578125,-0.26630306243896484,-0.23758992552757263,0.18770891427993774
1789317035568266800,4.872266845703125,-0.2049480825662613,-0.019171297550201416,-0.10484226047992706
1789317035578222800,4.882222900390625,-0.10725268721580505,0.31499043107032776,-0.27520254254341125
1789317035588177700,4.892177734375,-0.13232554495334625,0.23891563713550568,-0.01805330254137516
1789317035598132700,4.9021328125,-0.16104641556739807,0.06549831479787827,0.05606326833367348
1789317035608088800,4.9120888671875,-0.09282287955284119,-0.046603456139564514,-0.12033093720674515
1789317035618044700,4.922044677734375,-0.009493636898696423,0.06398990005254745,-0.45807355642318726
1789317035627999700,4.931999755859375,-0.117940753698349,-0.4406586289405823,-0.032107867300510406
1789317035637955600,4.94195556640625,-0.3050224781036377,-0.33611568808555603,0.36304211616516113
1789317035647910700,4.95191064453125,-0.3080472946166992,0.4363139271736145,0.26918965578079224
1789317035657865700,4.96186572265625,-0.13301077485084534,0.6106926798820496,0.11137312650680542
1789317035667821600,4.971821533203125,-0.12673823535442352,-0.11605070531368256,-0.05158516392111778
1789317035677776600,4.981776611328125,-0.3604109287261963,-0.49551600217819214,0.19714875519275665
1789317035687732700,4.991732666015625,-0.28697264194488525,-0.4787900149822235,0.2352529913187027
1789317035697687600,5.0016875,0.06562907993793488,0.2683960497379303,-0.27648353576660156
1789317035707643600,5.0116435546875,0.20674465596675873,0.563591718673706,-0.6288157105445862
1789317035717598700,5.0215986328125,-0.03539607301354408,0.06768476963043213,-0.4199243187904358
1789317035727554600,5.031554443359375,-0.38915786147117615,-0.3609299659729004,0.04868151992559433
1789317035737509600,5.041509521484375,-0.4057767987251282,-0.27676793932914734,0.1835908740758896
1789317035747465700,5.0514658203125,-0.1257491409778595,-0.0175052247941494,0.2274256944656372
1789317035757420800,5.0614208984375,0.036367062479257584,0.22769494354724884,0.455627977848053
1789317035767376600,5.071376708984375,0.03670581802725792,0.2707177698612213,0.36042290925979614
1789317035777331700,5.081331787109375,-0.04699334129691124,-0.14872689545154572,0.2018875777721405
1789317035787287800,5.091287841796875,-0.15253974497318268,-0.3366225063800812,0.01071016862988472
1789317035797242600,5.10124267578125,-0.2104720175266266,-0.15508891642093658,-0.09062018245458603
1789317035807198700,5.11119873046875,-0.15436799824237823,0.38627099990844727,-0.3666115403175354
1789317035817153800,5.12115380859375,-0.0206323079764843,0.49927160143852234,-0.5071558952331543
1789317035827109600,5.131109619140625,0.05950620397925377,0.08091721683740616,-0.5329384803771973
1789317035837064700,5.141064697265625,-0.0830882266163826,-0.20936787128448486,-0.2643336355686188
1789317035847020500,5.1510205078125,-0.22554577887058258,-0.23507456481456757,0.3429328501224518
1789317035856975600,5.1609755859375,-0.1014227643609047,0.2871638536453247,0.39947575330734253
1789317035866931700,5.170931640625,0.0572824627161026,0.009891512803733349,0.5870121121406555
1789317035876886500,5.180886474609375,0.026701917871832848,-0.07118096947669983,0.5753740668296814
1789317035886842600,5.190842529296875,-0.07910893112421036,0.05844120681285858,0.3238973915576935
1789317035896797700,5.200797607421875,-0.07743141055107117,0.0555543377995491,-0.04905622452497482
1789317035906753800,5.21075390625,-0.031560856848955154,0.056772734969854355,-0.4447934329509735
1789317035916708600,5.22070849609375,-0.06954259425401688,-0.10747852176427841,-0.24034149944782257
1789317035926664700,5.230664794921875,-0.057011086493730545,0.18042117357254028,-0.32911717891693115
1789317035936619800,5.240619873046875,0.05312526971101761,0.2434600591659546,-0.3804040551185608
1789317035946575600,5.25057568359375,0.10734429955482483,0.0850571021437645,-0.30582648515701294
1789317035956530700,5.26053076171875,-0.0014743260107934475,-0.03530872240662575,-0.018912171944975853
1789317035966486800,5.27048681640625,-0.0862366184592247,-0.13780580461025238,0.4277271032333374
1789317035976441600,5.280441650390625,-0.03561445325613022,0.18587026000022888,0.4442794620990753
1789317035986397700,5.290397705078125,0.08533993363380432,0.16393807530403137,0.4827706515789032
1789317035996352800,5.300352783203125,0.13283102214336395,0.12991724908351898,0.22275371849536896
1789317036006308600,5.31030859375,0.0394267663359642,0.22359846532344818,-0.10851262509822845
1789317036016263700,5.320263671875,-0.001966211711987853,0.020352410152554512,-0.26736512780189514
1789317036026219500,5.330219482421875,0.03213157132267952,-0.025246767327189445,-0.39914578199386597
1789317036036174800,5.3401748046875,0.05724624544382095,0.050933755934238434,-0.1627926379442215
1789317036046130700,5.350130615234375,0.1251256912946701,0.34566232562065125,-0.07223398238420486
1789317036056085500,5.36008544921875,0.19169646501541138,0.6072028279304504,-0.17420002818107605
1789317036066041600,5.37004150390625,0.2140987068414688,0.17909039556980133,-0.10861143469810486
1789317036075996700,5.37999658203125,0.1290607750415802,-0.3659055531024933,0.15262629091739655
1789317036085952800,5.389952880859375,0.011283546686172485,-0.34805649518966675,0.6071996688842773
1789317036095907600,5.399907470703125,0.11004234850406647,0.3404824733734131,0.46068185567855835
1789317036105863700,5.40986376953125,0.2757114768028259,0.8350959420204163,-0.05798766762018204
1789317036115818800,5.41981884765625,0.2447895109653473,0.2363632619380951,-0.06226417422294617
1789317036125774600,5.429774658203125,0.08278542757034302,-0.3318868577480316,-0.03308684751391411
1789317036135729700,5.439729736328125,0.03189987689256668,-0.21925058960914612,-0.06568872928619385
1789317036145685800,5.449685791015625,0.2278885543346405,0.31737104058265686,-0.20191261172294617
1789317036155640600,5.459640625,0.36296355724334717,0.6142352223396301,-0.3048778772354126
1789317036165596700,5.4695966796875,0.23088380694389343,0.4422016441822052,-0.13778769969940186
1789317036175551700,5.4795517578125,0.0464058481156826,0.044070787727832794,0.09399653971195221
1789317036185507800,5.4895078125,0.060145627707242966,-0.19307439029216766,0.22644245624542236
1789317036195462700,5.499462646484375,0.23314909636974335,0.09480880200862885,0.11796898394823074
1789317036205418500,5.50941845703125,0.3250872790813446,0.36876392364501953,0.2558045983314514
1789317036215373800,5.519373779296875,0.30542248487472534,0.3598889410495758,0.39987123012542725
1789317036225329700,5.52932958984375,0.24398896098136902,0.30226612091064453,0.1833634376525879
1789317036235284500,5.539284423828125,0.21071675419807434,0.1486952006816864,-0.08318623155355453
1789317036245240600,5.549240478515625,0.21395330131053925,0.2615501284599304,-0.39470070600509644
1789317036255195600,5.559195556640625,0.2289104163646698,0.3372632563114166,-0.3392726182937622
1789317036265151700,5.56915185546875,0.318595826625824,0.17111581563949585,-0.10142222791910172
1789317036275106600,5.5791064453125,0.3580276370048523,0.21506117284297943,0.25327566266059875
1789317036285062700,5.589062744140625,0.4144509732723236,0.5850868821144104,0.2559010088443756
1789317036295017700,5.599017822265625,0.4491732716560364,0.852447509765625,-0.16054227948188782
1789317036304973600,5.6089736328125,0.32081183791160583,0.36048975586891174,-0.2561873197555542
1789317036314929000,5.618928955078125,0.12164707481861115,-0.09472784399986267,-0.09074375033378601
1789317036324884700,5.628884765625,0.12310941517353058,-0.11122559010982513,0.20170249044895172
1789317036334839600,5.638839599609375,0.34697845578193665,0.34688204526901245,0.3430026173591614
1789317036344795600,5.648795654296875,0.5213984847068787,0.7098780870437622,0.4145013093948364
1789317036354750700,5.658750732421875,0.5061630606651306,0.594589352607727,0.32176443934440613
1789317036364706800,5.668706787109375,0.30260035395622253,0.25788480043411255,0.2318500131368637
1789317036374661600,5.67866162109375,0.16185547411441803,0.01273097563534975,0.0868518054485321
1789317036384618000,5.688617919921875,0.20923976600170135,0.1287475973367691,-0.11828616261482239
1789317036394573000,5.698572998046875,0.2840791344642639,0.6614594459533691,-0.12073706835508347
1789317036404529200,5.708529052734375,0.3834083676338196,1.0752116441726685,-0.33520862460136414
1789317036414484000,5.71848388671875,0.3583562970161438,0.8695449829101562,-0.4695970416069031
1789317036424440000,5.728440185546875,0.20671296119689941,0.11965849250555038,-0.09892737865447998
1789317036434395100,5.73839501953125,0.18273891508579254,-0.38549336791038513,0.3481198847293854
1789317036444351000,5.74835107421875,0.34099939465522766,-0.02136547677218914,0.6157955527305603
1789317036454306000,5.75830615234375,0.5873071551322937,0.5988280177116394,0.6116588711738586
1789317036464262000,5.768261962890625,0.6025415062904358,1.0868256092071533,0.14879266917705536
1789317036474217000,5.778217041015625,0.2526008188724518,0.8295125961303711,-0.1188126727938652
1789317036484173000,5.788173095703125,-0.07431231439113617,0.009883256629109383,-0.10831236094236374
1789317036494127900,5.7981279296875,-0.10841595381498337,-0.009211075492203236,-0.26509663462638855
1789317036504084200,5.808084228515625,0.2008950263261795,0.46508166193962097,-0.2660471200942993
1789317036514039000,5.8180390625,0.5408595204353333,0.7566671967506409,-0.08927422016859055
1789317036523995100,5.8279951171875,0.5318630933761597,0.6506754755973816,0.27761003375053406
1789317036533950200,5.8379501953125,0.3141174614429474,0.30665260553359985,0.3685532510280609
1789317036543906000,5.847906005859375,0.09657474607229233,0.007429953198879957,0.2931482493877411
1789317036553861000,5.857861083984375,0.011679825372993946,0.0615089014172554,0.18366409838199615
1789317036563817000,5.86781689453125,0.051274374127388,0.291883260011673,0.11242188513278961
1789317036573772000,5.87777197265625,0.06723256409168243,0.39592576026916504,0.3820706605911255
1789317036583728000,5.88772802734375,0.08492261171340942,0.9123063087463379,-0.022647788748145103
1789317036593683000,5.897682861328125,0.0934218242764473,0.6110947728157043,-0.3560768961906433
1789317036603639000,5.90763916015625,-0.049132391810417175,-0.08075503259897232,-0.2865188419818878
1789317036613594000,5.917593994140625,-0.2390109896659851,-0.26002997159957886,0.07689904421567917
1789317036623550000,5.927550048828125,-0.16312314569950104,0.15413391590118408,0.08813705295324326
1789317036633505000,5.937505126953125,-0.016675915569067,0.5366738438606262,0.07809986174106598
1789317036643460900,5.9474609375,-0.03055844083428383,0.47581180930137634,-0.031252194195985794
1789317036653416200,5.957416259765625,-0.24917466938495636,-0.18135353922843933,0.10581830888986588
1789317036663372000,5.9673720703125,-0.5319427251815796,-0.608418345451355,0.4870367646217346
1789317036673326800,5.977326904296875,-0.5465243458747864,-0.3469821810722351,0.3818778693675995
1789317036683283200,5.987283203125,-0.3889261782169342,0.24334900081157684,0.001933721243403852
1789317036693238000,5.997238037109375,-0.3526882827281952,0.4227227568626404,-0.26423218846321106
1789317036703194000,6.007194091796875,-0.5216535925865173,-0.07720556855201721,-0.16505126655101776
1789317036713149200,6.017149169921875,-0.6754423379898071,-0.3890334963798523,-0.3086595833301544
1789317036723105000,6.02710498046875,-0.6761960387229919,-0.5274089574813843,-0.21676240861415863
1789317036733060000,6.03706005859375,-0.5117426514625549,-0.46329760551452637,-0.22814182937145233
1789317036743016000,6.047015869140625,-0.5060021877288818,-0.2960391044616699,0.038661107420921326
1789317036752971000,6.056970947265625,-0.6807231307029724,-0.21099932491779327,0.5747098922729492
1789317036762927000,6.066927001953125,-0.739935040473938,-0.18388114869594574,0.426301509141922
1789317036772882000,6.0768818359375,-0.8177156448364258,-0.22576521337032318,0.16200168430805206
1789317036782838000,6.086838134765625,-0.898553192615509,-0.39350682497024536,-0.00021358551748562604
1789317036792793000,6.09679296875,-0.8762255311012268,-0.485962450504303,-0.1742202639579773
1789317036802749200,6.106749267578125,-0.8150918483734131,-0.3351084887981415,-0.23249901831150055
1789317036812704000,6.1167041015625,-0.6594745516777039,-0.4409100115299225,-0.3218368887901306
1789317036822660000,6.12666015625,-0.647053062915802,-0.5913338661193848,-0.20986242592334747
1789317036832615200,6.136615234375,-0.7474590539932251,-0.6542699933052063,0.011147992685437202
1789317036842571000,6.146571044921875,-0.793414831161499,-0.4887702167034149,-0.06490762531757355
1789317036852525800,6.15652587890625,-0.8355843424797058,-0.23061910271644592,-0.23626713454723358
1789317036862482200,6.166482177734375,-1.0008829832077026,-0.39492014050483704,0.09013122320175171
1789317036872437000,6.17643701171875,-1.1024712324142456,-0.6118892431259155,0.3668336570262909
1789317036882393000,6.18639306640625,-0.9440866112709045,-0.5055236220359802,0.1226516142487526
1789317036892348200,6.19634814453125,-0.7221680283546448,-0.39283275604248047,-0.08211830258369446
1789317036902304000,6.206303955078125,-0.6039042472839355,-0.6481944918632507,-0.17482560873031616
1789317036912259000,6.216259033203125,-0.6958882212638855,-0.9422889947891235,0.10263210535049438
1789317036922215000,6.22621484375,-0.76459139585495,-0.7011250853538513,0.18222732841968536
1789317036932170200,6.236170166015625,-0.6072760820388794,-0.3756881356239319,-0.2818748354911804
1789317036942126000,6.2461259765625,-0.5896946787834167,-0.20450307428836823,-0.6116164922714233
1789317036952081000,6.256080810546875,-0.8580198884010315,-0.0323914960026741,-0.5868049263954163
1789317036962037000,6.266037109375,-1.0675965547561646,-0.49965137243270874,0.09594810009002686
1789317036971992000,6.275991943359375,-0.9012142419815063,-0.7277013063430786,0.4601718485355377
1789317036981948200,6.2859482421875,-0.4300200939178467,-0.4238165318965912,0.294162392616272
1789317036991903000,6.295903076171875,0.019466908648610115,-0.11418595910072327,-0.20463304221630096
1789317037001859000,6.305859130859375,0.035344406962394714,-0.2923801839351654,-0.49246880412101746
1789317037011814100,6.315814208984375,-0.40369951725006104,-1.0983390808105469,0.4538865387439728
1789317037021770000,6.32577001953125,-0.612162172794342,-0.9361919164657593,0.5442276000976562
1789317037031725000,6.33572509765625,-0.38000965118408203,1.0189582109451294,-0.27158090472221375
1789317037041681200,6.34568115234375,-0.051536425948143005,0.6430988311767578,-0.8015140295028687
1789317037051636000,6.355635986328125,-0.3556249439716339,-0.28450337052345276,-0.6722356677055359
1789317037061592000,6.365592041015625,-0.813072919845581,-0.8568358421325684,0.4695222079753876
1789317037071547100,6.375547119140625,-0.23292753100395203,-1.1047687530517578,0.10494505614042282
1789317037081503200,6.385503173828125,0.5018191933631897,0.17596250772476196,-0.2710306942462921
1789317037091458000,6.3954580078125,0.6084403991699219,-0.21795949339866638,0.12276054173707962
1789317037101414000,6.405413818359375,0.03237844631075859,-0.360993891954422,0.6289526224136353
1789317037111369200,6.415369140625,-0.3349606692790985,-0.5782622694969177,0.8282667994499207
1789317037121325000,6.425324951171875,0.002177666872739792,0.17292091250419617,-0.42573320865631104
1789317037131280000,6.43527978515625,0.2264712154865265,0.031248733401298523,-0.8309714794158936
1789317037141236000,6.445236083984375,-0.03632897883653641,0.05861937254667282,-0.4828590750694275
1789317037151191000,6.45519091796875,-0.2349933385848999,-0.07331789284944534,0.16245149075984955
1789317037161147100,6.465147216796875,0.10171837359666824,-0.4049528241157532,0.27943190932273865
1789317037171103000,6.47510302734375,0.533778965473175,0.04351845011115074,-0.20622481405735016
1789317037181058000,6.48505810546875,0.5212181806564331,-0.16522997617721558,0.1632283329963684
1789317037191014100,6.49501416015625,0.1939750611782074,-0.14583629369735718,0.3548816442489624
1789317037200969000,6.504968994140625,-0.025963423773646355,-0.1640603095293045,0.4364044666290283
1789317037210924000,6.514924072265625,0.11102612316608429,0.3762141168117523,-0.23020070791244507
1789317037220880100,6.524880126953125,0.2180662900209427,0.1561342030763626,-0.5655326247215271
1789317037230836200,6.534836181640625,0.0017305220244452357,-0.23124094307422638,0.05648964270949364
1789317037240791000,6.544791015625,-0.03935433179140091,-0.08791281282901764,0.1803836226463318
1789317037250747000,6.554746826171875,0.2690242826938629,-0.03656653314828873,0.12116983532905579
1789317037260702200,6.5647021484375,0.513681173324585,0.3180922269821167,-0.2679435610771179
1789317037270658000,6.574657958984375,0.4091576933860779,0.09672228246927261,-0.26058071851730347
1789317037280612900,6.58461279296875,0.051906608045101166,-0.31166255474090576,0.2843414545059204
1789317037290569000,6.59456884765625,-0.06575051695108414,0.1280471831560135,-0.09745225310325623
1789317037300524000,6.60452392578125,0.10525558143854141,0.15067926049232483,-0.2819584608078003
1789317037310480100,6.614480224609375,0.17320959270000458,-0.09581653773784637,-0.07058175653219223
1789317037320435000,6.62443505859375,0.04952281340956688,0.04250271990895271,0.28403279185295105
1789317037330391000,6.63439111328125,0.0897916704416275,0.1090729609131813,0.4388149082660675
1789317037340346000,6.64434619140625,0.2990913689136505,0.17576757073402405,-0.022527946159243584
1789317037350302000,6.654302001953125,0.27750831842422485,-0.0712060034275055,-0.04235012084245682
1789317037360257000,6.664257080078125,0.13080595433712006,-0.20294804871082306,-0.2091612070798874
1789317037370213000,6.674213134765625,-0.032040756195783615,-0.041061948984861374,-0.2127479463815689
1789317037380168000,6.68416796875,-0.029877204447984695,0.06107454001903534,-0.057802312076091766
1789317037390124000,6.6941240234375,0.06710793077945709,0.09930794686079025,-0.10523534566164017
1789317037400079000,6.7040791015625,0.10216312110424042,-0.05156039446592331,0.021865351125597954
1789317037410035200,6.71403515625,0.10217031091451645,-0.2610907256603241,0.060197826474905014
1789317037419990000,6.723989990234375,-0.10357033461332321,-0.16821511089801788,0.23524340987205505
1789317037429945900,6.73394580078125,-0.49599403142929077,0.41352421045303345,0.4700591266155243
1789317037439901200,6.743901123046875,-0.5997670292854309,0.7356836199760437,0.43183794617652893
1789317037449857000,6.75385693359375,-0.16918769478797913,0.14280588924884796,-0.17487114667892456
1789317037459811800,6.763811767578125,0.2261202186346054,-0.7108115553855896,-0.6786221861839294
1789317037469768000,6.773767822265625,0.13734027743339539,-1.1579536199569702,-0.32009783387184143
1789317037479723000,6.783722900390625,-0.055397745221853256,-0.884949266910553,-0.0011233213590458035
1789317037489679000,6.79367919921875,-0.18560367822647095,0.21063552796840668,0.03050491213798523
1789317037499634000,6.803634033203125,-0.2890579104423523,0.49043574929237366,0.1805969476699829
1789317037509590300,6.81359033203125,-0.5055393576622009,0.25148630142211914,0.059004731476306915
1789317037519545000,6.823545166015625,-0.689636766910553,-0.03663018345832825,0.18982400000095367
1789317037529501000,6.8335009765625,-0.3563852906227112,-0.6719458699226379,0.22642594575881958
1789317037539456300,6.843456298828125,0.19222989678382874,-0.7342697381973267,0.09524688869714737
1789317037549412000,6.853412109375,0.43681034445762634,-0.08391594141721725,0.002296177437528968
1789317037559367000,6.863366943359375,0.2707883417606354,0.1812390238046646,0.07213065028190613
1789317037569323000,6.873322998046875,-0.11148045212030411,-0.023633956909179688,-0.01864985004067421
1789317037579278000,6.883278076171875,-0.4994063377380371,-0.15660718083381653,-0.13233833014965057
1789317037589234200,6.893234130859375,-0.5596745014190674,-0.13738049566745758,-0.19085517525672913
1789317037599189000,6.90318896484375,-0.2859790325164795,0.09623279422521591,-0.2264251559972763
1789317037609144800,6.913144775390625,0.04652169719338417,0.14791542291641235,0.16378094255924225
1789317037619100200,6.92310009765625,0.3418484032154083,0.10567769408226013,0.12622611224651337
1789317037629056000,6.933055908203125,0.3722955286502838,-0.20256082713603973,0.10627051442861557
1789317037639011000,6.943010986328125,0.2134057581424713,-0.6495130062103271,0.16860578954219818
1789317037648967000,6.952966796875,0.059471581131219864,-0.6370672583580017,0.011787683703005314
1789317037658922000,6.962921875,-0.10162463039159775,0.042161568999290466,0.02509656548500061
1789317037668878000,6.972878173828125,-0.2216586172580719,0.9660118818283081,-0.1977788507938385
1789317037678833000,6.9828330078125,-0.258263498544693,0.633682906627655,0.032893236726522446
1789317037688789200,6.992789306640625,-0.13248135149478912,-0.2231190949678421,0.2562373876571655
1789317037698744000,7.002744140625,0.146407812833786,-0.6302972435951233,0.25541019439697266
1789317037708700000,7.012699951171875,0.4938374161720276,-0.3824717402458191,-0.06772258877754211
1789317037718655200,7.0226552734375,0.580630362033844,0.09848129749298096,-0.3839878737926483
1789317037728611000,7.032611083984375,0.2187882661819458,0.1751590371131897,-0.05711228772997856
1789317037738566100,7.042566162109375,-0.26436692476272583,0.4110027253627777,-0.0710318312048912
1789317037748522000,7.05252197265625,-0.4792448878288269,0.3028607964515686,-0.03976046293973923
1789317037758477000,7.06247705078125,-0.3037407100200653,0.08185438811779022,-0.15411126613616943
1789317037768433200,7.07243310546875,0.011625496670603752,-0.27659910917282104,0.0945720449090004
1789317037778388000,7.082387939453125,0.26454776525497437,-0.44318434596061707,0.6093395352363586
1789317037788344000,7.092343994140625,0.4489506185054779,-0.03555746003985405,0.3659428358078003
1789317037798299100,7.102299072265625,0.3797087073326111,0.0839066207408905,0.14465412497520447
1789317037808255000,7.1122548828125,0.05974775180220604,0.044504083693027496,-0.32345423102378845
1789317037818210000,7.1222099609375,-0.37705540657043457,-0.11329406499862671,-0.49719753861427307
1789317037828166000,7.132165771484375,-0.543117105960846,-0.2957616150379181,-0.36145541071891785
1789317037838122200,7.142122314453125,-0.3068009614944458,-0.26351073384284973,-0.155861496925354
1789317037848077000,7.1520771484375,0.0361018106341362,-0.029148031026124954,0.2945996820926666
1789317037858033000,7.162032958984375,0.26560264825820923,0.34634461998939514,0.3055439293384552
1789317037867988200,7.17198828125,0.16693519055843353,0.14058294892311096,0.37678882479667664
1789317037877944000,7.181944091796875,-0.06651697307825089,-0.37200233340263367,0.1121441125869751
1789317037887899100,7.191899169921875,-0.30925452709198,-0.6206943988800049,-0.034093521535396576
1789317037897855000,7.20185498046875,-0.38804173469543457,-0.28645679354667664,-0.024539964273571968
1789317037907810000,7.21181005859375,-0.1916554570198059,0.2052048146724701,-0.19449597597122192
1789317037917766100,7.22176611328125,-0.015294001437723637,0.19768324494361877,0.12170406430959702
1789317037927721000,7.231720947265625,0.10181663930416107,0.31718647480010986,-0.22773303091526031
1789317037937677000,7.241677001953125,0.018980082124471664,0.05428161472082138,-0.34662559628486633
1789317037947632000,7.251632080078125,-0.1513679474592209,-0.3693847060203552,-0.1370507925748825
1789317037957588000,7.261587890625,-0.09437070786952972,-0.5391764044761658,-0.159951850771904
1789317037967543000,7.27154296875,0.06012938171625137,-0.36774152517318726,0.109731025993824
1789317037977499100,7.2814990234375,0.23157623410224915,0.0851505771279335,-0.01871429942548275
1789317037987454000,7.291453857421875,0.09596221894025803,-0.07215461879968643,0.5140276551246643
1789317037997410000,7.30141015625,-0.17534172534942627,0.11892452090978622,0.5397971868515015
1789317038007364900,7.31136474609375,-0.26105743646621704,0.05590774118900299,0.23786263167858124
1789317038017321200,7.3213212890625,-0.19137901067733765,0.016087356954813004,-0.036135900765657425
1789317038027276000,7.331276123046875,-0.05026263743638992,0.1695658564567566,-0.42929357290267944
1789317038037232000,7.341232177734375,0.10299695283174515,0.09739286452531815,-0.5879213213920593
1789317038047187200,7.351187255859375,0.25327035784721375,0.028606077656149864,-0.9250847101211548
1789317038057143000,7.36114306640625,0.27544862031936646,-0.5827624797821045,-0.4818558394908905
1789317038067098000,7.37109814453125,0.09076106548309326,-0.4417973756790161,0.07301988452672958
1789317038077054000,7.381053955078125,-0.0849045068025589,0.1927361637353897,0.5067856907844543
1789317038087009000,7.391009033203125,-0.019411249086260796,0.46371838450431824,0.534600555896759
1789317038096965000,7.400965087890625,0.04956462234258652,0.4107811450958252,0.179939404129982
1789317038106920000,7.410919921875,-0.08343897014856339,-0.1487407386302948,0.46323901414871216
1789317038116876000,7.4208759765625,-0.11592074483633041,-0.3377665877342224,0.4708077311515808
1789317038126831000,7.4308310546875,0.20458057522773743,-0.22479556500911713,-0.07110666483640671
1789317038136787000,7.440786865234375,0.5173293948173523,-0.06042845547199249,-0.5428992509841919
1789317038146742000,7.450741943359375,0.3458218574523926,0.2899484634399414,-0.6549102067947388
1789317038156698000,7.460697998046875,-0.09996335208415985,0.28960785269737244,-0.30039072036743164
1789317038166653200,7.470653076171875,-0.32849904894828796,0.30480995774269104,-0.23706580698490143
1789317038176609000,7.480609130859375,-0.2422294169664383,0.8483028411865234,-0.31962671875953674
1789317038186564000,7.490564208984375,-0.016529440879821777,-0.10820183902978897,-0.17522108554840088
1789317038196520200,7.500520263671875,0.027526166290044785,-0.49551013112068176,0.14177951216697693
1789317038206475000,7.51047509765625,0.13581295311450958,-0.6260191798210144,0.5276758074760437
1789317038216431000,7.52043115234375,0.2840743362903595,-0.5619829297065735,0.8179305195808411
1789317038226386200,7.53038623046875,0.17424024641513824,0.4405515491962433,0.478864848613739
1789317038236342000,7.540342041015625,-0.08296173065900803,1.0099084377288818,-0.21510538458824158
1789317038246297000,7.550297119140625,-0.36896178126335144,0.489176869392395,-0.8478671312332153
1789317038256253000,7.5602529296875,-0.6797524094581604,-0.37794196605682373,-0.6119161248207092
1789317038266209000,7.570208984375,-0.665885865688324,-0.6550902128219604,0.03543415665626526
1789317038276164000,7.5801640625,-0.15128405392169952,0.14835777878761292,0.01085664238780737
1789317038286120000,7.590119873046875,0.3874284029006958,1.7972968816757202,-0.25947338342666626
1789317038296075000,7.600074951171875,0.39206525683403015,0.17502374947071075,-0.06995618343353271
1789317038306031000,7.610031005859375,-0.33904942870140076,-0.8256928324699402,0.24352610111236572
1789317038315986200,7.619986083984375,-0.6912809610366821,-0.8079207539558411,0.006530603393912315
1789317038325942000,7.62994189453125,-0.3244132399559021,-0.3792541027069092,-0.08788298070430756
1789317038335897000,7.63989697265625,-0.11274146288633347,-0.27446112036705017,0.25673457980155945
1789317038345853200,7.649853271484375,-0.30834612250328064,0.54655522108078,0.680518627166748
1789317038355808000,7.65980810546875,-0.27765825390815735,0.4301556348800659,0.5485550165176392
1789317038365764000,7.66976416015625,-0.1507253348827362,0.01025849673897028,-0.1401376724243164
1789317038375719200,7.67971923828125,-0.21230000257492065,-0.22769494354724884,-0.7137444615364075
1789317038385675300,7.68967529296875,-0.32742738723754883,-0.5985736846923828,-0.7037667036056519
1789317038395630300,7.69963037109375,-0.3607310354709625,-0.3941832482814789,-0.3972403109073639
1789317038405586200,7.709586181640625,-0.2631749212741852,0.17891542613506317,-0.028619926422834396
1789317038415541500,7.71954150390625,-0.1767026036977768,0.31755638122558594,0.12308171391487122
1789317038425497300,7.729497314453125,-0.3567253649234772,0.19207143783569336,0.21397513151168823
1789317038435452200,7.7394521484375,-0.5701396465301514,-0.2386019229888916,0.26167023181915283
1789317038445408300,7.749408203125,-0.6540609002113342,-0.569937527179718,0.35183075070381165
1789317038455363300,7.75936328125,-0.5773229598999023,-0.3345327079296112,0.3163081705570221
1789317038465319400,7.7693193359375,-0.35501134395599365,0.02003416232764721,0.019593674689531326
1789317038475274200,7.779274169921875,-0.21487314999103546,-0.13433250784873962,-0.1135643795132637
1789317038485230000,7.78922998046875,-0.35506540536880493,-0.40451526641845703,-0.08876342326402664
1789317038495185400,7.799185302734375,-0.5753466486930847,-0.5141682624816895,-0.14767414331436157
1789317038505141200,7.809141357421875,-0.6239586472511292,-0.4705190360546112,-0.39050355553627014
1789317038515096000,7.819095947265625,-0.615739107131958,-0.44152894616127014,-0.16994376480579376
1789317038525052400,7.829052490234375,-0.5843223333358765,-0.2871268391609192,0.03585680201649666
1789317038535007200,7.83900732421875,-0.5652703046798706,-0.1991216242313385,0.11049056053161621
1789317038544963300,7.84896337890625,-0.5045915246009827,-0.5043449401855469,0.0840887799859047
1789317038554918400,7.85891845703125,-0.5417836308479309,-0.9913417100906372,0.28587594628334045
1789317038564874500,7.86887451171875,-0.5990418791770935,-1.0546727180480957,0.30665579438209534
1789317038574829300,7.878829345703125,-0.634801983833313,-0.6716593503952026,0.31248199939727783
1789317038584785200,7.88878515625,-0.6703125834465027,-0.07933983206748962,0.2633826434612274
1789317038594740500,7.898740478515625,-0.6594005227088928,0.11927153170108795,-0.10341320931911469
1789317038604696300,7.9086962890625,-0.639659583568573,-0.2634023427963257,-0.46711233258247375
1789317038614652400,7.91865234375,-0.690908670425415,-0.9415470361709595,-0.08035316318273544
1789317038624607200,7.928607177734375,-0.560227632522583,-1.099011778831482,0.22672422230243683
1789317038634563300,7.938563232421875,-0.22960682213306427,-0.4745848774909973,0.10339110344648361
1789317038644518400,7.948518310546875,0.06178640201687813,0.4780736267566681,-0.352070152759552
1789317038654474200,7.95847412109375,-0.15241430699825287,-0.1345258504152298,-0.37783437967300415
1789317038664429300,7.96842919921875,-0.7518500685691833,-0.698392927646637,-0.0968831330537796
1789317038674385400,7.978385498046875,-1.0275607109069824,-0.94367915391922,0.3791196346282959
1789317038684340200,7.98834033203125,-0.6409807801246643,-0.6622961759567261,0.5772199034690857
1789317038694296300,7.99829638671875,-0.014962970279157162,0.0687556266784668,0.34151819348335266
1789317038704251400,8.00825146484375,0.3135315477848053,0.11215636879205704,0.35086801648139954
1789317038714207500,8.01820751953125,0.22182586789131165,-0.42184844613075256,0.3230086863040924
1789317038724162300,8.028162353515626,-0.006972155533730984,-0.8728023171424866,-0.06159785017371178
1789317038734118100,8.0381181640625,-0.13200411200523376,-0.7318307757377625,-0.5638697743415833
1789317038744073500,8.048073486328125,-0.13221876323223114,-0.20315471291542053,-0.8169196248054504
1789317038754029300,8.058029296875,-0.15216955542564392,0.06551216542720795,-0.37927860021591187
1789317038763984100,8.067984130859376,-0.15999366343021393,0.26616722345352173,0.16535460948944092
1789317038773940200,8.077940185546876,0.03399099037051201,0.0025063008069992065,0.5451541543006897
1789317038783895300,8.087895263671875,0.3456974923610687,-0.2253100872039795,0.3364272713661194
1789317038793851400,8.097851318359375,0.42277735471725464,-0.1900349110364914,0.13004162907600403
1789317038803806200,8.10780615234375,0.2453272044658661,-0.28568020462989807,0.37330299615859985
1789317038813762300,8.11776220703125,0.09217919409275055,0.049855973571538925,0.12387214601039886
1789317038823717400,8.12771728515625,0.11001252382993698,0.23932044208049774,-0.26186037063598633
1789317038833673200,8.137673095703125,0.15145370364189148,0.0974607765674591,-0.23156557977199554
1789317038843628300,8.147628173828124,0.13193246722221375,0.10652191191911697,0.09255283325910568
1789317038853584400,8.15758447265625,0.2759737968444824,0.05451783537864685,0.37412992119789124
1789317038863539200,8.167539306640625,0.6200898885726929,0.14424265921115875,0.07449021190404892
1789317038873495300,8.177495361328125,0.7165629267692566,0.17942248284816742,-0.09320877492427826
1789317038883451100,8.187451171875,0.46035322546958923,0.17767038941383362,-0.14087696373462677
1789317038893406500,8.197406494140624,0.25396889448165894,-0.08401660621166229,-0.14826563000679016
1789317038903362300,8.2073623046875,0.330177366733551,-0.03616253286600113,-0.48668256402015686
1789317038913317000,8.217317138671875,0.4448906481266022,0.2959491014480591,-0.5514216423034668
1789317038923273200,8.227273193359375,0.4960033595561981,0.32496771216392517,-0.1293361485004425
1789317038933228300,8.237228271484375,0.6147238612174988,-0.001324123702943325,0.24045388400554657
1789317038943184400,8.247184326171874,0.6651798486709595,-0.2013605386018753,0.5506263971328735
1789317038953139200,8.25713916015625,0.6327870488166809,-0.30239421129226685,0.8139864206314087
1789317038963095300,8.26709521484375,0.5111806988716125,0.07324705272912979,0.7051123976707458
1789317038973050400,8.27705029296875,0.35544463992118835,0.625840961933136,0.30388373136520386
1789317038983006200,8.287006103515624,0.24833737313747406,0.7352649569511414,-0.23182737827301025
1789317038992961300,8.296961181640626,0.20692814886569977,0.35931476950645447,-0.6133521199226379
1789317039002917400,8.30691748046875,0.24183286726474762,0.06058318540453911,-0.7747215628623962
1789317039012872200,8.3168720703125,0.4204827845096588,0.04390673711895943,-0.8089317083358765
1789317039022828300,8.326828369140625,0.699421226978302,-0.33930137753486633,-0.38669097423553467
1789317039032783400,8.336783447265624,0.743736207485199,-0.3608234226703644,0.1250777542591095
1789317039042739500,8.346739501953126,0.5259793996810913,0.17644160985946655,0.42692920565605164
1789317039052694300,8.3566943359375,0.27557966113090515,0.802384614944458,0.31788501143455505
1789317039062650000,8.366650146484375,0.029631661251187325,0.24671711027622223,0.1288330852985382
1789317039072605400,8.37660546875,-0.2912699282169342,-0.24022752046585083,0.25548529624938965
1789317039082561300,8.386561279296876,-0.2886675000190735,-0.4177634119987488,0.489848256111145
1789317039092517400,8.396517333984375,0.1853645294904709,-0.0527055561542511,0.15150323510169983
1789317039102472200,8.40647216796875,0.6528214812278748,0.21764791011810303,-0.22822731733322144
1789317039112428300,8.41642822265625,0.6552627682685852,0.0716632679104805,-0.17920517921447754
1789317039122383400,8.42638330078125,0.38424408435821533,-0.23062628507614136,-0.21794511377811432
1789317039132339200,8.436339111328126,0.24168425798416138,-0.484281450510025,-0.49510374665260315
1789317039142294500,8.44629443359375,0.22478064894676208,0.9376444220542908,-0.8527990579605103
1789317039152250400,8.45625048828125,0.17089425027370453,0.009891512803733349,-0.6731171607971191
1789317039162205200,8.466205078125,-0.08001361042261124,-0.22861160337924957,-0.08011294156312943
1789317039172161300,8.476161376953126,0.01768498681485653,-0.6775217652320862,0.8710739016532898
1789317039182116400,8.486116455078125,0.45286548137664795,-0.612463653087616,1.196882963180542
1789317039192072400,8.496072509765625,0.7065795063972473,1.6472162008285522,0.3402300179004669
1789317039202027300,8.50602734375,0.6568441987037659,1.0046324729919434,-0.1375402808189392
1789317039211983000,8.515983154296874,0.12717686593532562,-0.16310369968414307,-0.7806977033615112
1789317039221938400,8.5259384765625,-0.4136919677257538,-0.9789735078811646,-0.6295979022979736
1789317039231894300,8.535894287109375,-0.2059720754623413,-1.5098943710327148,0.055815327912569046
1789317039241849000,8.54584912109375,0.38388562202453613,0.25038668513298035,0.052913814783096313
1789317039251805200,8.55580517578125,0.7318949699401855,1.856669306755066,0.3494618535041809
1789317039261760300,8.56576025390625,0.4850393831729889,1.1273627281188965,0.35892006754875183
1789317039271716400,8.57571630859375,-0.38465872406959534,0.46151089668273926,0.1477886587381363
1789317039281671200,8.585671142578125,-0.7844828367233276,-0.6886039972305298,-0.07638824731111526
1789317039291627500,8.59562744140625,-0.5217646360397339,-1.3110345602035522,-0.055582303553819656
1789317039301582300,8.605582275390624,-0.05560467392206192,-0.5028567314147949,0.5504351854324341
1789317039311538200,8.6155380859375,0.4812135100364685,1.3747466802597046,0.014401043765246868
1789317039321493500,8.625493408203125,0.42764854431152344,2.086611032485962,-0.6943992972373962
1789317039331449300,8.635449462890625,-0.23831084370613098,-0.8466511368751526,-0.9466142058372498
1789317039341404200,8.645404052734374,-1.280744194984436,-3.1212563514709473,-0.42936867475509644
1789317039351360300,8.6553603515625,-1.8697856664657593,-2.4286346435546875,0.5964673757553101
1789317039361316000,8.665316162109375,-1.029140830039978,0.9634669423103333,0.6826353073120117
1789317039371271400,8.675271484375,0.1394905149936676,-0.010936536826193333,0.9915883541107178
1789317039381227500,8.6852275390625,0.26854729652404785,-0.5481097102165222,0.5981318354606628
1789317039391182300,8.695182373046874,-0.2566815912723541,-1.1496530771255493,-0.06155843660235405
1789317039401138400,8.705138427734376,-0.6082436442375183,-2.074777603149414,-0.5336559414863586
1789317039411093500,8.715093505859375,-0.6809694766998291,-1.189961314201355,-0.9869989156723022
1789317039421049300,8.72504931640625,-0.631135880947113,1.2235687971115112,-0.8270089626312256
1789317039431004400,8.73500439453125,-0.7223542332649231,1.0846292972564697,-0.31012219190597534
1789317039440960500,8.74496044921875,-1.0829824209213257,0.8597802519798279,0.010098440572619438
1789317039450915600,8.75491552734375,-1.0960394144058228,-0.47066977620124817,0.6548771858215332
1789317039460871400,8.764871337890625,-0.5441498756408691,-1.6050797700881958,0.8632458448410034
1789317039470826500,8.774826416015625,0.08121762424707413,-0.8384994864463806,0.5580616593360901
1789317039480782600,8.784782470703124,0.5293706655502319,-0.20193445682525635,0.37082573771476746
1789317039490737400,8.7947373046875,0.3980861306190491,-0.13184112310409546,0.08975305408239365
1789317039500693500,8.804693603515625,-0.2968441843986511,-0.06306205689907074,-0.44833943247795105
1789317039510648600,8.814648681640625,-0.8975577354431152,-0.6880761384963989,-0.6663433909416199
1789317039520604400,8.8246044921875,-1.05522882938385,-1.1936115026474,-0.43675175309181213
1789317039530559500,8.8345595703125,-0.7218894958496094,-0.6170360445976257,-0.21153807640075684
1789317039540515300,8.844515380859375,-0.11229404807090759,-0.01534912921488285,0.404337614774704
1789317039550470400,8.854470458984375,0.36915674805641174,0.31720566749572754,0.5066882371902466
1789317039560426500,8.864426513671875,0.32027068734169006,-0.12544474005699158,0.5254377126693726
1789317039570382300,8.87438232421875,-0.02269466035068035,-1.0988788604736328,0.48368650674819946
1789317039580337400,8.88433740234375,-0.2652982473373413,-1.38772451877594,0.03987551108002663
1789317039590293500,8.89429345703125,-0.3324679732322693,-0.7368040084838867,-0.05825585126876831
1789317039600248600,8.90424853515625,-0.12457308918237686,0.2879534959793091,-0.292182594537735
1789317039610204400,8.914204345703125,0.03814658522605896,0.9398679137229919,-0.4662278890609741
1789317039620159500,8.924159423828126,-0.024564731866121292,0.7071603536605835,-0.4494502544403076
1789317039630115600,8.934115478515626,0.018488729372620583,-0.44000133872032166,-0.5847870111465454
1789317039640070400,8.9440703125,0.08539905399084091,-1.1703975200653076,-0.30001094937324524
1789317039650026500,8.954026611328125,0.19784623384475708,-0.3384004235267639,-0.16330237686634064
1789317039659981600,8.963981689453124,0.4241446256637573,0.27143365144729614,0.10337352752685547
1789317039669937400,8.9739375,0.4841059446334839,-0.07342761009931564,0.5655006766319275
1789317039679892500,8.983892578125,0.3139004111289978,-0.5908235907554626,1.0213440656661987
1789317039689848300,8.993848388671875,0.20776598155498505,-0.6554324626922607,0.9189844727516174
1789317039699803400,9.003803466796874,0.24255910515785217,-0.17803364992141724,0.39831727743148804
1789317039709759500,9.013759521484374,0.2255665510892868,0.37130776047706604,0.013803696259856224
1789317039719714300,9.02371435546875,0.2673925459384918,0.31368201971054077,-0.3086901903152466
1789317039729670400,9.03367041015625,0.3846949338912964,0.2061728686094284,-0.8444297909736633
1789317039739625500,9.04362548828125,0.4835911691188812,0.07525879889726639,-1.0754380226135254
1789317039749581600,9.05358154296875,0.5813097357749939,-0.3005334734916687,-0.7596246004104614
1789317039759536400,9.063536376953126,0.649215817451477,-0.2759474217891693,-0.4041959345340729
1789317039769492500,9.073492431640625,0.5485177040100098,0.018570488318800926,0.3726412057876587
1789317039779448600,9.083448486328125,0.43170320987701416,0.45320478081703186,0.7727150917053223
1789317039789403400,9.0934033203125,0.2982143759727478,0.5944234132766724,0.9238324761390686
1789317039799359500,9.103359375,0.21916164457798004,0.4088847041130066,0.866714596748352
1789317039809314600,9.113314453125,0.37495604157447815,0.20513556897640228,0.11837564408779144
1789317039819270400,9.1232705078125,0.5755115151405334,-0.11145941913127899,-0.3298508822917938
1789317039829225500,9.1332255859375,0.7553630471229553,-0.004512726329267025,-0.8215090036392212
1789317039839181300,9.143181396484374,0.8251828551292419,-0.07704471796751022,-0.7829546928405762
1789317039849136400,9.153136474609376,0.7023608088493347,0.1354033648967743,-0.5153597593307495
1789317039859092500,9.163092529296875,0.488056480884552,0.6962442994117737,-0.3471478521823883
1789317039869047300,9.17304736328125,0.3164817988872528,0.2726278007030487,0.20332862436771393
1789317039879003600,9.183003662109375,0.22409754991531372,0.0256973747164011,0.47500860691070557
1789317039888958500,9.19295849609375,0.26565083861351013,0.1391506940126419,0.5898773670196533
1789317039898914600,9.20291455078125,0.46538206934928894,0.2760225236415863,0.43367448449134827
1789317039908869600,9.21286962890625,0.5403575301170349,0.5867657661437988,0.029157353565096855
1789317039918825500,9.222825439453125,0.4675549566745758,0.22133851051330566,0.11548345535993576
1789317039928780500,9.232780517578124,0.48776060342788696,-0.2941807508468628,-0.05589202791452408
1789317039938736400,9.242736328125,0.36681821942329407,0.06360907107591629,-0.005745237227529287
1789317039948691500,9.25269140625,0.3411400020122528,0.7185450792312622,-0.15574245154857635
1789317039958647600,9.2626474609375,0.45687219500541687,0.7709689140319824,-0.4623950719833374
1789317039968602400,9.272602294921874,0.3420276343822479,0.702785313129425,-0.4311436712741852
1789317039978558500,9.282558349609374,0.23030483722686768,0.41136038303375244,-0.34323540329933167
1789317039988514300,9.292514404296876,0.2724014222621918,0.16953736543655396,-0.18772169947624207
1789317039998469400,9.302469482421875,0.41835305094718933,0.21475757658481598,0.04669187217950821
1789317040008425500,9.312425537109375,0.5551380515098572,0.4191884696483612,0.25140026211738586
1789317040018380300,9.32238037109375,0.6228758096694946,0.4771313965320587,0.3259642422199249
1789317040028336600,9.332336669921874,0.6807284951210022,0.029739253222942352,0.23350143432617188
1789317040038291500,9.34229150390625,0.487793892621994,-0.14362773299217224,0.2546791732311249
1789317040048247600,9.35224755859375,0.18972918391227722,0.06589086353778839,0.3413655757904053
1789317040058202600,9.36220263671875,0.11363735049962997,0.3481220304965973,0.11585815995931625
1789317040068158500,9.372158447265624,0.12295734882354736,0.4249110817909241,0.13329121470451355
1789317040078113500,9.382113525390626,0.12910312414169312,0.724013090133667,-0.16011349856853485
1789317040088069400,9.3920693359375,0.18512432277202606,0.6273531317710876,-0.3900684118270874
1789317040098024400,9.4020244140625,0.2936955392360687,0.0613831989467144,-0.39284661412239075
1789317040107980500,9.41198046875,0.28776174783706665,-0.3028821051120758,-0.0031047132797539234
1789317040117935400,9.421935302734376,0.35040995478630066,-0.4430519938468933,0.43127521872520447
1789317040127891500,9.431891357421875,0.44430527091026306,0.045997053384780884,0.562403678894043
1789317040137846500,9.441846435546875,0.38186320662498474,0.7286722660064697,0.5801565647125244
1789317040147802400,9.45180224609375,0.2156425416469574,0.9225741028785706,0.06942594796419144
1789317040157757400,9.46175732421875,-0.16743852198123932,0.48377278447151184,0.11454229056835175
1789317040167713300,9.47171337890625,-0.26301059126853943,0.0353768989443779,-0.07295170426368713
1789317040177669600,9.481669677734375,0.025135712698101997,0.02143232151865959,-0.316650390625
1789317040187624400,9.49162451171875,0.39880889654159546,0.4773031771183014,-0.39618197083473206
1789317040197580500,9.50158056640625,0.6966632008552551,0.26688602566719055,-0.26804235577583313
1789317040207535600,9.51153564453125,0.6074851751327515,-0.2002582550048828,0.2651842534542084
1789317040217491500,9.521491455078126,0.29553738236427307,-0.0424976572394371,0.39835962653160095
1789317040227446500,9.531446533203125,0.07958297431468964,0.19574260711669922,0.22903957962989807
1789317040237402400,9.54140234375,-0.14147697389125824,0.2726949155330658,0.33342671394348145
1789317040247357400,9.551357421875,-0.338092565536499,0.3494240343570709,0.670436441898346
1789317040257313500,9.5613134765625,-0.24093671143054962,0.7282576560974121,0.3083786070346832
1789317040267268400,9.571268310546875,0.06707543879747391,0.9702588319778442,-0.451402872800827
1789317040277224400,9.581224365234375,0.3359023630619049,0.5208919048309326,-1.1918058395385742
1789317040287179500,9.591179443359374,0.2700005769729614,-0.32489126920700073,-1.0965754985809326
1789317040297135400,9.60113525390625,0.11157872527837753,-0.8925485610961914,-0.38055241107940674
1789317040307090400,9.61109033203125,0.10337699204683304,0.05872563272714615,0.24627289175987244
1789317040317046500,9.621046630859375,0.2193877398967743,0.7447159886360168,0.7544101476669312
1789317040327001600,9.631001708984375,0.01980646140873432,0.18559490144252777,1.0923540592193604
1789317040336957400,9.64095751953125,-0.45521944761276245,0.15841840207576752,1.1412127017974854
1789317040346912500,9.65091259765625,-0.4922530949115753,-0.12037088721990585,0.6706771850585938
1789317040356868600,9.66086865234375,-0.2216959148645401,-0.05403074622154236,0.07176047563552856
1789317040366824400,9.670824462890625,0.10423079878091812,0.2314273715019226,-0.42501333355903625
1789317040376779500,9.680779541015625,0.2759482264518738,0.1676585078239441,-0.5569295883178711
1789317040386734800,9.69073486328125,0.2238416224718094,0.09179170429706573,-0.5534908771514893
1789317040396690000,9.70068994140625,0.09317494928836823,0.3832744061946869,-0.9507567286491394
1789317040406646000,9.71064599609375,-0.16242672502994537,0.7854671478271484,-0.8032304048538208
1789317040416600800,9.720600830078125,-0.30183520913124084,0.21093115210533142,-0.5321994423866272
1789317040426557000,9.730556884765624,-0.329918771982193,-0.23969914019107819,0.15069442987442017
1789317040436512000,9.740511962890626,-0.17533187568187714,-0.1388697326183319,0.8438803553581238
1789317040446467800,9.7504677734375,0.15985916554927826,0.19667871296405792,1.0477906465530396
1789317040456423000,9.7604228515625,0.3656885027885437,0.35960930585861206,0.960720419883728
1789317040466379000,9.77037890625,0.25050172209739685,0.26009097695350647,0.4510452151298523
1789317040476333800,9.780333740234376,-0.16153377294540405,-0.19018085300922394,0.19786381721496582
1789317040486290000,9.7902900390625,-0.4721510410308838,-0.21115565299987793,-0.1809612661600113
1789317040496245000,9.800244873046875,-0.4265230894088745,0.3051985204219818,-0.6655905246734619
1789317040506201000,9.810201171875,-0.026265425607562065,0.23034799098968506,-0.8912689089775085
1789317040516156000,9.820156005859374,0.29026803374290466,-0.07467503845691681,-0.8865106701850891
1789317040526111700,9.83011181640625,0.2764957845211029,-0.45282259583473206,-0.22423124313354492
1789317040536067800,9.84006787109375,0.1923510730266571,0.8032413125038147,-0.21423959732055664
1789317040546023000,9.85002294921875,0.0008700547041371465,-0.12058606743812561,0.29054662585258484
1789317040555979000,9.85997900390625,-0.44763901829719543,-0.9720460772514343,0.7866575717926025
1789317040565933800,9.869933837890626,-0.6000834107398987,-0.5544160604476929,0.7198218107223511
1789317040575890000,9.879889892578126,-0.19175425171852112,0.12616166472434998,0.38661989569664
1789317040585845000,9.889844970703125,0.2662503123283386,0.7906408309936523,-0.21371281147003174
1789317040595800800,9.89980078125,0.3134543299674988,0.23967544734477997,-0.1762799620628357
1789317040605756000,9.909755859375,0.07658931612968445,-0.43156763911247253,-0.3158927261829376
1789317040615712000,9.9197119140625,-0.23449426889419556,-0.22292309999465942,-0.5943956971168518
1789317040625666800,9.929666748046875,-0.242793470621109,0.32297325134277344,-0.7741739749908447
1789317040635623000,9.939622802734375,-0.08383417874574661,0.08096569031476974,-0.5262840390205383
1789317040645578000,9.949577880859374,-0.07010771334171295,-0.0062491074204444885,0.23058155179023743
1789317040655534000,9.9595341796875,0.04306704178452492,-0.1112373098731041,0.6510645747184753
1789317040665489000,9.969489013671875,0.21108081936836243,-0.32142356038093567,0.7646989822387695
1789317040675444700,9.97944482421875,0.24909797310829163,-0.1230231299996376,0.39126071333885193
1789317040685400000,9.989400146484375,0.025172997266054153,0.10521110892295837,0.08967023342847824
1789317040695356000,9.99935595703125,-0.2746206521987915,0.13806812465190887,-0.14373372495174408
1789317040705310700,10.009310791015626,-0.376650333404541,0.1006709486246109,-0.3794698119163513
1789317040715266800,10.019266845703125,-0.17323224246501923,-0.37277063727378845,-0.1682358831167221
1789317040725223000,10.029222900390625,0.08923932909965515,-0.38997307419776917,0.15529504418373108
1789317040735178000,10.039177978515625,0.2960881292819977,0.06070142984390259,0.17407752573490143
1789317040745133800,10.0491337890625,0.24000726640224457,0.47399526834487915,0.09458056837320328
1789317040755089000,10.0590888671875,-0.03700302541255951,0.4605604112148285,-0.25965607166290283
1789317040765045000,10.069044921875,-0.22172920405864716,-0.6460850238800049,-0.18202492594718933
1789317040774999800,10.078999755859375,-0.26901814341545105,-0.991193413734436,0.17221170663833618
1789317040784956000,10.088955810546874,-0.033904705196619034,-0.104249969124794,0.13840022683143616
1789317040794911000,10.098910888671876,0.38184988498687744,0.23851723968982697,0.19314415752887726
1789317040804867000,10.1088671875,0.4969716966152191,0.11422164738178253,0.05915120244026184
1789317040814822000,10.11882177734375,0.12333844602108002,-0.38275110721588135,0.5162095427513123
1789317040824777700,10.12877783203125,-0.14818041026592255,-0.39775481820106506,0.2391393482685089
1789317040834733000,10.138733154296874,-0.18465639650821686,0.4420807361602783,-0.2815113067626953
1789317040844689000,10.14868896484375,-0.1426575481891632,0.5223204493522644,-0.3588572144508362
1789317040854643700,10.158643798828125,-0.1488747000694275,0.5644873380661011,-0.5848325490951538
1789317040864600000,10.16860009765625,-0.10946603864431381,0.12063320726156235,-0.21473786234855652
1789317040874556000,10.178555908203125,0.14567597210407257,-0.1708255410194397,-0.17989173531532288
1789317040884511000,10.188510986328126,0.2953847646713257,-0.25859612226486206,0.08936316519975662
1789317040894466800,10.198466796875,0.24413463473320007,-0.3018629252910614,0.48963600397109985
1789317040904422000,10.208421875,0.02046852372586727,0.01948981173336506,0.6391298770904541
1789317040914378000,10.2183779296875,-0.24790380895137787,0.5812258720397949,0.4720844626426697
1789317040924332800,10.228332763671874,-0.3198821246623993,0.3786892592906952,0.19955597817897797
1789317040934289000,10.238288818359376,-0.2778438627719879,-0.2373632788658142,0.21058200299739838
1789317040944244000,10.248243896484375,-0.03137017413973808,-0.4734882116317749,-0.021635254845023155
1789317040954200000,10.258199951171875,0.3261461555957794,-0.3878454566001892,-0.25859108567237854
1789317040964155000,10.26815478515625,0.5100550055503845,0.06497607380151749,-0.6610559821128845
1789317040974110700,10.27811083984375,0.282466858625412,0.20989491045475006,-0.599016547203064
1789317040984066000,10.288066162109375,-0.09485327452421188,0.08171270787715912,-0.434999942779541
1789317040994022000,10.29802197265625,-0.2834354341030121,0.2814095616340637,-0.4795103967189789
1789317041003976700,10.307976806640625,-0.2514306306838989,-0.36409565806388855,-0.033190976828336716
1789317041013933000,10.31793310546875,-0.1229778528213501,-0.49739646911621094,0.487454891204834
1789317041023888000,10.327887939453126,0.09571001678705215,-0.2112688273191452,1.0508575439453125
1789317041033844000,10.337843994140625,0.4140850603580475,0.18710970878601074,0.8938748240470886
1789317041043799000,10.347799072265625,0.4116378724575043,0.5280052423477173,0.37254586815834045
1789317041053755000,10.3577548828125,0.059064120054244995,0.19912108778953552,0.09594517201185226
1789317041063711000,10.3677109375,-0.2003842294216156,-0.2068336009979248,-0.6139760613441467
1789317041073665800,10.377665771484375,-0.2686658203601837,-0.6457443833351135,-0.4296746850013733
1789317041083622000,10.387621826171875,0.005241101142019033,-0.11569730192422867,-0.5580582022666931
1789317041093577000,10.397576904296875,0.2577649652957916,0.6875725388526917,-0.21230320632457733
1789317041103533000,10.407532958984374,0.3257930278778076,1.176198959350586,-0.047201868146657944
1789317041113488000,10.41748779296875,0.16296841204166412,0.752036988735199,-0.23995055258274078
1789317041123444000,10.42744384765625,-0.18118469417095184,-0.2815469801425934,-0.1164613664150238
1789317041133399000,10.43739892578125,-0.3270915746688843,-0.5948130488395691,-0.13873843848705292
1789317041143355000,10.44735498046875,-0.042501918971538544,-0.5637422204017639,0.09869275242090225
1789317041153309700,10.457309814453126,0.36299365758895874,-0.25326529145240784,0.4704756438732147
1789317041163266000,10.46726611328125,0.4946904182434082,0.49444806575775146,0.4457433819770813
1789317041173220900,10.477220947265625,0.2810590863227844,0.8832035660743713,0.12816941738128662
1789317041183177000,10.487177001953125,-0.09257867187261581,0.7018739581108093,-0.6398558616638184
1789317041193132000,10.497132080078124,-0.4990263283252716,-0.18773101270198822,-0.5340303778648376
1789317041203088000,10.507087890625,-0.4766903817653656,-0.7998804450035095,-0.11880920827388763
1789317041213044000,10.5170439453125,-0.0015014902455732226,-0.3072872459888458,0.15687642991542816
1789317041222998800,10.526998779296875,0.4660228192806244,1.1471891403198242,0.2198234349489212
1789317041232955000,10.536954833984375,0.6452634334564209,1.6976075172424316,-0.3493494689464569
1789317041242910000,10.546909912109374,0.23140446841716766,0.2292046844959259,-0.09949170053005219
1789317041252866000,10.556865966796876,-0.3378547430038452,-0.8904374837875366,0.11697588860988617
1789317041262820900,10.56682080078125,-0.40918484330177307,-0.8607315421104431,0.2143586277961731
1789317041272777000,10.57677685546875,0.04193546622991562,0.27377936244010925,0.2240951508283615
1789317041282732000,10.58673193359375,0.5783533453941345,1.3902665376663208,-0.016210395842790604
1789317041292688000,10.59668798828125,0.675000786781311,1.1562169790267944,-0.08127860724925995
1789317041302643000,10.606642822265625,0.2698266804218292,0.269359290599823,-0.08964333683252335
1789317041312599000,10.61659912109375,-0.04334214702248573,-0.9132311940193176,0.14106763899326324
1789317041322553900,10.626553955078125,0.0845569595694542,-0.899669885635376,0.15293069183826447
1789317041332510000,10.636510009765624,0.38488322496414185,1.107917070388794,-0.08319954574108124
1789317041342465000,10.646465087890626,0.5049737095832825,1.3673795461654663,-0.021588649600744247
1789317041352420900,10.6564208984375,0.25353825092315674,0.5181150436401367,0.25582510232925415
1789317041362377000,10.666376953125,-0.022002236917614937,-0.5154145956039429,0.47888004779815674
1789317041372331800,10.676331787109374,0.0120675815269351,-0.5016980171203613,0.3027620017528534
1789317041382288000,10.686287841796876,0.30964627861976624,1.4071522951126099,-0.42310118675231934
1789317041392243000,10.696242919921875,0.39310601353645325,0.7535017728805542,-0.46418124437332153
1789317041402199000,10.706198974609375,0.08326346427202225,0.08848166465759277,-0.3566715717315674
1789317041412153900,10.71615380859375,-0.06351346522569656,-0.7011112570762634,0.11626376211643219
1789317041422110000,10.72610986328125,0.11388342827558517,-0.17517341673374176,0.27837249636650085
1789317041432065000,10.73606494140625,0.2697609066963196,0.749710738658905,0.23738059401512146
1789317041442020900,10.746020751953125,0.1036294549703598,0.586757481098175,0.5517587661743164
1789317041451976000,10.755975830078125,-0.22650930285453796,0.44090256094932556,0.4383262097835541
1789317041461932000,10.76593212890625,-0.39041247963905334,0.03362986445426941,0.347920686006546
1789317041471886800,10.775886962890626,-0.3272750675678253,0.16145919263362885,0.001264735241420567
1789317041481843000,10.785843017578125,-0.11442404985427856,0.386591374874115,-0.20490014553070068
1789317041491798000,10.795798095703125,0.1278008371591568,0.3407309651374817,-0.3265687823295593
1789317041501754000,10.805754150390625,0.14921531081199646,0.296213299036026,-0.3837530016899109
1789317041511710000,10.8157099609375,-0.04651929810643196,0.009120527654886246,-0.07770944386720657
1789317041521664800,10.825664794921876,-0.2111561894416809,-0.06730979681015015,-0.03762167692184448
1789317041531620900,10.835620849609375,-0.39541923999786377,0.38915228843688965,0.14353080093860626
1789317041541576000,10.845575927734375,-0.4133763909339905,0.9255645871162415,-0.06338083744049072
1789317041551532000,10.855531982421875,-0.3568041920661926,0.6561786532402039,-0.09519735723733902
1789317041561486800,10.86548681640625,-0.2572539150714874,-0.24455595016479492,0.22212281823158264
1789317041571443000,10.87544287109375,-0.0809640884399414,-0.6109440922737122,0.30859750509262085
1789317041581398000,10.88539794921875,0.1167103722691536,-0.16081631183624268,0.06716439127922058
1789317041591353900,10.895353759765625,0.1735672652721405,0.025827335193753242,0.0979023277759552
1789317041601309200,10.90530908203125,-0.0548347532749176,-0.11291563510894775,0.3741650879383087
1789317041611265000,10.91526513671875,-0.35553041100502014,0.04964584857225418,0.16769099235534668
1789317041621219800,10.9252197265625,-0.5657283663749695,0.2320478856563568,0.11753355711698532
1789317041631176000,10.935176025390625,-0.47930213809013367,0.626653254032135,-0.5946958661079407
1789317041641131000,10.945131103515624,-0.4159338176250458,0.30767980217933655,-0.3624192178249359
1789317041651087000,10.955087158203124,-0.2566682696342468,-0.2393348217010498,-0.11128497868776321
1789317041661043000,10.96504296875,-0.06203966960310936,-0.5608084797859192,0.20435553789138794
1789317041670997800,10.974997802734375,0.17823071777820587,-0.4553941488265991,0.1322603076696396
1789317041680953900,10.984953857421875,0.16424433887004852,0.02918504923582077,-0.02569843828678131
1789317041690909000,10.994908935546874,-0.08518733084201813,0.1463092714548111,-0.07685589790344238
1789317041700865000,11.004864990234376,-0.43076950311660767,-0.008094144985079765,-0.12278158217668533
1789317041710819800,11.01481982421875,-0.7441596388816833,0.009770872071385384,0.09401731193065643
1789317041720776000,11.02477587890625,-0.6370337009429932,-0.17009982466697693,0.4011452794075012
1789317041730731000,11.03473095703125,-0.2419138252735138,-0.07039054483175278,0.40831905603408813
1789317041740686800,11.044686767578124,0.04241403564810753,0.2603711187839508,0.33820176124572754
1789317041750642200,11.05464208984375,0.20222286880016327,0.37631452083587646,-0.2729516327381134
1789317041760598000,11.064597900390625,0.07748520374298096,0.03225407749414444,-0.8181601166725159
1789317041770552800,11.074552734375,-0.2839078903198242,-0.4329269230365753,-0.969912052154541
1789317041780509000,11.084509033203124,-0.5726174712181091,-0.45276641845703125,-0.7606357932090759
1789317041790464000,11.094464111328126,-0.5193393230438232,-0.2314734309911728,-0.1472216695547104
1789317041800420000,11.104420166015625,-0.2359297126531601,0.18854674696922302,0.44435587525367737
1789317041810376000,11.1143759765625,0.05288984626531601,0.5915831327438354,0.6067962050437927
1789317041820330800,11.124330810546875,0.16582731902599335,0.2958340644836426,0.4992726445198059
1789317041830287000,11.134287109375,0.00806165486574173,-0.4717334508895874,0.10479272156953812
1789317041840242000,11.144241943359376,-0.329878568649292,-1.1737011671066284,0.22919777035713196
1789317041850198000,11.154197998046875,-0.3192325830459595,-1.1736156940460205,0.17605385184288025
1789317041860152800,11.16415283203125,-0.12564314901828766,0.3600335419178009,-0.2343296855688095
1789317041870109000,11.17410888671875,-0.08842307329177856,1.091021180152893,-0.395479679107666
1789317041880064000,11.18406396484375,-0.20178824663162231,0.1431121528148651,-0.38999515771865845
1789317041890019800,11.194019775390625,-0.43262919783592224,-1.0365369319915771,0.08100563287734985
1789317041899975200,11.20397509765625,-0.4121206998825073,-0.6254332661628723,-0.1436365246772766
1789317041909931000,11.213930908203125,-0.11858736723661423,0.7116179466247559,-0.3746955692768097
1789317041919885800,11.2238857421875,0.02149330824613571,-0.25642964243888855,-0.27039259672164917
1789317041929842000,11.233842041015626,-0.4510982036590576,-0.26218315958976746,0.11263493448495865
1789317041939797800,11.2437978515625,-0.6210273504257202,-0.5639001131057739,0.42358800768852234
1789317041949753000,11.253753173828125,-0.2866509258747101,-0.7555691599845886,0.19749389588832855
1789317041959709000,11.263708984375,-0.11714233458042145,-0.23364737629890442,0.20854388177394867
1789317041969663700,11.273663818359376,-0.13410267233848572,-0.08091109246015549,0.45559096336364746
1789317041979620000,11.2836201171875,-0.15874037146568298,-0.09523064643144608,0.1391323208808899
1789317041989575000,11.293574951171875,-0.24841487407684326,-0.15588174760341644,-0.24092845618724823
1789317041999531000,11.303531005859375,-0.2752488851547241,-0.5511994957923889,-0.44166314601898193
1789317042009486000,11.313486083984374,-0.292559415102005,-0.530867874622345,-0.42438989877700806
1789317042019442000,11.32344189453125,-0.28942516446113586,-0.22897326946258545,0.12252325564622879
1789317042029397000,11.33339697265625,-0.10671979188919067,0.1636136919260025,0.22345972061157227
1789317042039352800,11.343352783203125,-0.10385981947183609,0.5031459331512451,0.19037021696567535
1789317042049308200,11.35330810546875,-0.2235955446958542,0.39940810203552246,-0.14466184377670288
1789317042059264000,11.363263916015624,-0.2718765139579773,-0.46711260080337524,-0.2816343307495117
1789317042069220000,11.37322021484375,-0.24923326075077057,-0.8582169413566589,-0.0821571871638298
1789317042079175000,11.3831748046875,-0.030307838693261147,-0.4589768946170807,-0.026039855554699898
1789317042089130800,11.393130859375,0.2365235835313797,0.033544644713401794,0.11045966297388077
1789317042099086000,11.403086181640624,0.23255415260791779,0.6007992625236511,-0.10572083294391632
1789317042109042000,11.4130419921875,-0.09278612583875656,0.32742738723754883,0.027596473693847656
1789317042118996700,11.422996826171875,-0.2863342761993408,-0.5131477117538452,0.06890183687210083
1789317042128953000,11.432953125,-0.26449957489967346,-0.7560080289840698,0.23488494753837585
1789317042138908000,11.442907958984375,0.008611598052084446,-0.1269180029630661,0.22784647345542908
1789317042148864000,11.452864013671874,0.4063161015510559,0.4380521774291992,-0.08021148294210434
1789317042158819000,11.462819091796876,0.4799825847148895,0.4651668965816498,-0.28281545639038086
1789317042168775000,11.47277490234375,0.22272814810276031,-0.19523340463638306,-0.2871555984020233
1789317042178730000,11.48272998046875,-0.03771808370947838,-1.029232382774353,0.07876724749803543
1789317042188685800,11.492685791015624,-0.028448419645428658,-0.8833979368209839,0.36540886759757996
1789317042198642000,11.502641845703126,0.22635191679000854,0.2334471046924591,0.26866263151168823
1789317042208597000,11.512596923828125,0.28589725494384766,1.1993372440338135,0.23357947170734406
1789317042218553000,11.522552978515625,0.14523762464523315,0.7733156681060791,0.10070423781871796
1789317042228508000,11.5325078125,-0.07743300497531891,-0.36319631338119507,-0.006432333029806614
1789317042238464000,11.542464111328124,-0.20427723228931427,-0.547010600566864,-0.21495677530765533
1789317042248419000,11.552419189453126,0.046899065375328064,-0.2844114899635315,-0.4437979459762573
1789317042258375000,11.562375,0.2864610552787781,0.08437853306531906,-0.15538425743579865
1789317042268330000,11.572330078125,0.3468919098377228,0.5214943289756775,-0.09364313632249832
1789317042278286000,11.5822861328125,0.2085801064968109,0.36286503076553345,-0.04107366502285004
1789317042288241000,11.592240966796876,-0.04808070883154869,0.12905864417552948,-0.3640565276145935
1789317042298197000,11.602197021484375,-0.3747245967388153,-0.2227150946855545,-0.0977577194571495
1789317042308152000,11.612152099609375,-0.35311412811279297,-0.39032354950904846,0.1399989128112793
1789317042318108000,11.62210791015625,-0.0705878809094429,0.16266082227230072,0.2230173647403717
1789317042328064000,11.63206396484375,0.2913479506969452,0.7204253077507019,-0.0004889564006589353
1789317042338018800,11.642018798828126,0.35107120871543884,0.13130316138267517,-0.12651559710502625
1789317042347975000,11.651974853515625,0.053110089153051376,-0.741712749004364,0.1646169126033783
1789317042357930000,11.661929931640625,-0.20726770162582397,-0.7034249901771545,0.17709781229496002
1789317042367886000,11.671885986328125,-0.1940554976463318,0.47289058566093445,0.017469272017478943
1789317042377841000,11.6818408203125,-0.044495563954114914,0.8489917516708374,-0.2639581561088562
1789317042387796500,11.69179638671875,-0.1945367306470871,0.44092172384262085,-0.0187824759632349
1789317042397751300,11.701751220703125,-0.3297973573207855,0.04458824172616005,-0.06578380614519119
1789317042407707400,11.711707275390625,-0.22928352653980255,-0.0873628705739975,-0.2979182302951813
1789317042417662500,11.721662353515624,0.010793792083859444,-0.06763363629579544,-0.37926289439201355
1789317042427618300,11.731618408203126,0.16277799010276794,-0.1676585078239441,-0.12297199666500092
1789317042437573400,11.741573486328125,0.06525330245494843,0.07532031834125519,0.2273617833852768
1789317042447529200,11.751529296875,-0.011270231567323208,0.4370836019515991,0.1102767065167427
1789317042457485300,11.7614853515625,-0.03062981367111206,0.08941110223531723,-0.12706208229064941
1789317042467440400,11.7714404296875,-0.2202940136194229,-0.4123223125934601,0.10293810069561005
1789317042477396200,11.781396240234375,-0.3197298049926758,-0.7135359644889832,0.6652810573577881
1789317042487351300,11.791351318359375,-0.055937834084033966,-0.48897287249565125,0.7046061158180237
1789317042497307400,11.801307373046875,0.21662844717502594,0.2548392117023468,0.34998568892478943
1789317042507262200,11.81126220703125,0.21200253069400787,0.4873614013195038,-0.09753561019897461
1789317042517218300,11.82121826171875,-0.17885097861289978,0.10288243740797043,-0.20741844177246094
1789317042527173400,11.83117333984375,-0.5324510931968689,-0.31111234426498413,-0.2127692550420761
1789317042537129500,11.84112939453125,-0.44200509786605835,-0.25784993171691895,-0.44136035442352295
1789317042547084300,11.851084228515624,-0.058932557702064514,0.3774769902229309,-0.7289639115333557
1789317042557040400,11.861040283203126,0.1252836138010025,0.3296716511249542,-0.3942660689353943
1789317042566995500,11.870995361328125,0.05231007561087608,0.054188936948776245,-0.03737267106771469
1789317042576951300,11.880951416015625,-0.1344078779220581,-0.365029901266098,0.5397647023200989
1789317042586907400,11.890907470703125,-0.17394037544727325,-0.2874474823474884,0.5017176866531372
1789317042596862200,11.9008623046875,-0.18605002760887146,-0.048947568982839584,0.4978358745574951
1789317042606818600,11.910818603515626,-0.2227582484483719,0.18284492194652557,0.5075923800468445
1789317042616773400,11.9207734375,-0.2369859218597412,0.4326725900173187,0.1419622004032135
1789317042626729200,11.930729248046875,-0.1978939026594162,0.06924272328615189,-0.06617902219295502
1789317042636684500,11.9406845703125,-0.2314220368862152,-0.15235385298728943,-0.19598016142845154
1789317042646640400,11.950640380859374,-0.18806444108486176,-0.35498765110969543,-0.22085541486740112
1789317042656595200,11.96059521484375,-0.08191563934087753,-0.20899608731269836,-0.25365543365478516
1789317042666551300,11.97055126953125,0.012989302165806293,0.2800111472606659,-0.614173173904419
1789317042676506400,11.98050634765625,-0.05017209053039551,0.1401403248310089,-0.5533851385116577
1789317042686462500,11.99046240234375,-0.22201469540596008,-0.3845639228820801,-0.18432191014289856
1789317042696417300,12.000417236328126,-0.31531214714050293,-0.6122777462005615,0.2846660912036896
1789317042706373400,12.010373291015625,-0.2156289666891098,-0.08375748246908188,0.4284251034259796
1789317042716329200,12.0203291015625,-0.07626627385616302,0.048470862209796906,0.4281233847141266
1789317042726284300,12.0302841796875,-0.1579800397157669,-0.06966989487409592,0.5650655031204224
1789317042736240400,12.040240478515624,-0.24981196224689484,-0.5681116580963135,0.7717406749725342
1789317042746195200,12.0501953125,-0.20581653714179993,-0.3934823274612427,0.2920808494091034
1789317042756151600,12.060151611328125,-0.14286766946315765,0.19262750446796417,-0.2939511835575104
1789317042766106400,12.0701064453125,-0.12153255939483643,0.3114878535270691,-0.7482036352157593
1789317042776062200,12.080062255859374,-0.22498278319835663,0.1278647482395172,-0.9327002763748169
1789317042786017500,12.090017578125,-0.3152245283126831,-0.191144660115242,-0.6824552416801453
1789317042795973400,12.099973388671875,-0.1473146229982376,-0.5233473777770996,-0.4273492097854614
1789317042805928200,12.10992822265625,0.01575632579624653,-0.37648868560791016,0.03972664102911949
1789317042815884300,12.11988427734375,0.10205046832561493,-0.016199477016925812,0.407694011926651
1789317042825840000,12.129840087890624,0.07503189891576767,0.08321712911128998,0.5304566621780396
1789317042835795500,12.13979541015625,-0.06688395887613297,-0.13229624927043915,0.39729514718055725
1789317042845751300,12.149751220703125,-0.22448396682739258,-0.4833562672138214,0.25679025053977966
1789317042855706400,12.159706298828125,-0.3509971797466278,-0.3955659568309784,0.30137261748313904
1789317042865662500,12.169662353515625,-0.24133485555648804,0.13590110838413239,-0.016328373923897743
1789317042875617300,12.1796171875,0.04132373631000519,-0.05393087491393089,-0.00863290298730135
1789317042885573400,12.189573486328126,0.25132039189338684,0.06590843945741653,-0.4961317181587219
1789317042895528200,12.199528076171875,0.23891191184520721,0.13817624747753143,-0.8837372660636902
1789317042905484500,12.209484619140625,0.2028319388628006,-0.42353636026382446,-0.9288994073867798
1789317042915439400,12.219439453125,0.09082257747650146,-0.8947046995162964,-0.38991206884384155
1789317042925395200,12.229395263671876,0.06942541152238846,-0.7493216395378113,0.26639679074287415
1789317042935351300,12.239351318359375,0.16754718124866486,0.5774574875831604,0.6368736624717712
1789317042945306400,12.249306396484375,0.21375009417533875,0.6775124669075012,0.5385135412216187
1789317042955262500,12.259262451171875,-0.04537786915898323,0.01113414391875267,0.5051292181015015
1789317042965217300,12.26921728515625,-0.26391687989234924,-0.7042529582977295,0.5882803201675415
1789317042975173000,12.279173095703126,0.012052934616804123,-0.9843405485153198,0.3372608423233032
1789317042985128400,12.28912841796875,0.4779979884624481,-0.26296666264533997,-0.16914002597332
