seconds_elapsed,z,y,x
0.0,-2.257448087888956,-2.340978604012728,-1.9315186821997168
0.01,-1.3102430674468963,-1.243096416990256,-1.8749946541746911
0.02,2.607445497600921,1.9585015034164364,-0.25598952361070215
0.03,3.1095539388023563,-0.1702757158394985,-1.8646198773169707
0.04,0.12102805255763081,-1.2087155000355494,-2.9264885596680705
0.05,-4.126978358026653,0.6911669735246418,-0.02359624746484365
0.06,-2.836221157440599,-0.34927066521151945,-0.02695806819109012
0.07,3.500859783121533,-1.18648589408363,-0.2438970666757643
0.08,5.130642509762886,2.3068448159641726,0.6016404190552023
0.09,-0.6174359425588498,-2.159549965172931,0.3769531461868209
0.1,-0.6708441905611263,1.3230467181739238,-0.37223140154738094
0.11,1.2156574657341386,0.3369155871352841,-1.0881970746494478
0.12,-0.8081469267801675,-1.4094013629264213,-2.427862245395971
0.13,-3.3417808083348945,2.2670090680297137,-1.5854280647061127
0.14,-4.402799891506105,-1.0996227576201179,1.0352509599667097
0.15,-0.4083338726915728,0.7342935125669988,0.9089580921751734
0.16,1.444648315333647,0.13682006224277662,-0.9709269964711756
0.17,0.3822358318214109,-0.7472188198203994,-0.46867556633983876
0.18,0.9929846689611674,2.1475545746328306,-0.16559148301955112
0.19,2.9448687244151235,0.4650369355690426,-0.7621929881075149
0.2,2.785343257621355,2.343066818579691,0.08584402872228153
0.21,-1.8584883656564215,-0.11234670663299773,1.4902531503802583
0.22,-4.062981375146844,-0.07650764490055174,2.4979818808685486
0.23,-0.9155489888119709,-0.22807981085460327,0.7108685885183424
0.24,0.09046424600560302,-2.3633119057808414,-2.052015036376678
0.25,-1.4905704570981007,-1.0780960332868748,-1.1620341912334298
0.26,0.37515454680542765,0.8425234121296997,-0.31720448811675767
0.27,3.19803788169032,1.818074627097879,-1.2969166495891387
0.28,0.7553679983997591,1.7525471140076048,-0.37027868312619633
0.29,-2.4805280458469854,-3.221940478799655,2.2116176907981373
0.3,2.9033535287848697,1.1139765748309445,0.8299892625903648
0.31,1.9568685795631877,1.6176395827148644,-2.0144581396143324
0.32,-6.704184848265625,-3.4708249730371783,-0.9916760490826451
0.33,-6.931748358871957,-1.9708552533656407,1.2843009000266052
0.34,3.2646243803307256,1.4591828801274143,-0.22786007258724256
0.35,10.025303347543572,1.676140206706433,-1.9436748613988937
0.36,3.61816269515288,1.191876265096559,0.013655536265399844
0.37,-8.013812250180061,-0.08580880779989632,1.982665372270553
0.38,-7.5440167855937625,-1.2963552494721176,1.4075196056316337
0.39,2.578984628264455,-0.20659851836348964,-0.46529027329112266
0.4,5.852192984902939,0.40883967571905583,-1.0770695761737366
0.41,1.9105669459317947,1.3634142518890282,0.7278662997148404
0.42,0.19539266575488676,1.0352817465449444,0.3314777941842678
0.43,-0.9806736601833117,-0.3983822422831718,-0.46167375497623064
0.44,-4.2645216794396825,-0.8160264760791933,1.2782396866729582
0.45,-1.7453414315645646,-0.4605036350256726,1.6266456696481704
0.46,4.333048668921922,1.2839745463735142,-0.025293904932388235
0.47,3.723235754184058,2.2268360351468917,0.23187096092707862
0.48,-1.4520588171094675,-0.7421049215970756,1.0261709085345785
0.49,-0.4103259256551586,-0.2943876803530295,-0.023796885258571772
0.5,2.867173237488793,0.8685340369629653,-0.31936448861301014
0.51,-0.15731191448327284,-2.537207072257551,0.07478931604274715
0.52,-4.308276392774783,0.8501303268701431,0.3479602783675591
0.53,-4.017977910736697,0.873320334198452,0.8494627067640256
0.54,0.2811266405815666,-3.554819830465267,-0.09458247810858969
0.55,3.230746965396247,-0.2614111945403392,-0.2885973070016964
0.56,0.8421182862419738,3.1609784727146253,-0.262352724479797
0.57,0.48537699358730024,-1.470527602960122,-0.11605027048791605
0.58,3.87170590195548,0.5493205680114311,0.47227446514805316
0.59,0.6621568991388471,3.0484307249756437,-0.04115391867445584
0.6,-7.489312007057125,-2.985094934539901,0.0952717733372449
0.61,-5.578234079579706,-1.5107572705634449,1.1020039432805566
0.62,4.707361610656796,0.49624286527518363,0.4301175662522301
0.63,6.520573912663718,-1.4606368699817787,-1.6289544269633554
0.64,-2.0176286010751223,-0.36542007548678257,-0.7835846448735744
0.65,-6.226266371538714,1.3259797455259972,1.0584858828237533
0.66,-0.0006760303872166418,-0.8640942859631124,0.4406796166604039
0.67,7.372178407630299,0.5491008628858536,-0.49531941884198794
0.68,3.4706304559033008,1.7336508922587928,0.2724223078198174
0.69,-6.011445682580187,-0.7951521408479229,1.3562123131490078
0.7,-6.591118683613472,-1.9913417361229504,0.2928040594172229
0.71,0.6476612318606109,0.6053291690695282,-0.49308928382258266
0.72,4.207428649033697,1.6129908320018134,-0.728606739101035
0.73,1.6918814568682146,-0.9132194459964823,-0.8103263231423234
0.74,-2.7601928831575875,1.879452642421207,1.6748766254394523
0.75,-4.064729432633403,1.3719249351537386,2.6590744112550033
0.76,-2.6351830100601266,-1.8724459356439114,0.6763965762434773
0.77,0.4688674648326582,1.4546104171079208,-0.3651635533184178
0.78,0.0927844470001077,-0.3439939274935343,-0.2356129079777335
0.79,0.045606074433562085,2.028135204868621,-1.2216542420649827
0.8,2.2374883586633896,1.530503793497226,-1.263129711414224
0.81,2.5626532735775203,0.16096862855899724,0.05757172776553447
0.82,-2.034738839939456,-0.04216455072655279,0.8258699529472798
0.83,-3.5816544758736213,-0.8954718364690407,1.133439189320274
0.84,0.8188462082039606,0.11400519745587732,1.255932112166935
0.85,2.881482114500264,1.38257794696247,0.21813433861068326
0.86,1.7288768694395804,-0.46554396968170353,0.32953868840978173
0.87,1.6436700884419002,-1.5347661077153671,1.4832148922160084
0.88,1.6893657160400184,1.0896834863798137,0.8969439950378355
0.89,-0.9472923327382685,-0.7972312275767324,-0.642571127369557
0.9,-2.3389621166557424,-2.3426093182010135,0.0529139191283603
0.91,0.8614488851677057,3.0080442298497547,0.5932830095149975
0.92,0.9612610847730344,-0.6602721843419324,-0.5794689903142629
0.93,-1.2433965256076052,-2.325980641887305,-0.16410064511338904
0.94,0.09713139723683578,2.7731519706730436,0.6246468620521447
0.95,1.4251791487721532,0.6892750855764788,0.047893886470060015
0.96,0.5975362259941388,-0.2545279440742766,-1.270570616259316
0.97,-0.7360874795906545,2.0520735177845935,-1.9395989359467425
0.98,-1.9859364691866839,1.1857977710156247,-0.6961335495563481
0.99,-2.083637268187536,-0.8079865813748448,0.46837137538649604
1.0,0.2660798850442504,-1.5884948439893802,-0.6949635300601373
1.01,0.3027111338531375,-1.1751748034143714,-0.6155811606574988
1.02,-2.390245213493015,0.02782919674968498,0.354707500265309
1.03,-2.5366369739012278,-0.7321338187299806,-0.7552592540822975
1.04,1.7196079677747984,0.6076108775231173,-0.7787354831585407
1.05,4.948208773188076,1.7237241749224528,-0.23270430285197272
1.06,1.9019601474301697,-3.236467291321253,-0.33697902242994227
1.07,-1.863813857075742,0.5121054051895253,-0.6281667369991424
1.08,-2.380964002644539,0.01243465247706857,-0.43955333787190826
1.09,-0.38083407407929676,-2.7912564362837924,-1.048573799071451
1.1,0.9345353031609825,0.9945817274982246,-2.0901214436898643
1.11,1.3447101383114164,0.4574308861692337,-1.2393133306172206
1.12,1.1083717984097563,-0.28186032167603875,0.16172559904763323
1.13,-1.7726689169876875,-0.4683699772088551,0.20194328915066295
1.14,-4.372783760628843,-0.9911825475073217,0.03994134302335951
1.15,-0.9593287193038603,-0.11812440408829569,0.018752873272988288
1.16,5.077310761306563,0.7924889653893555,-0.7034259822934683
1.17,6.323980071715466,1.715127973915478,-1.5389526988296947
1.18,0.611851385507111,-0.37528507876154044,-1.411450764163058
1.19,-3.8236381419104255,0.3126522529608129,-0.46306337086661425
1.2,-3.093483570682815,-1.3932721241673756,-0.0537343342514886
1.21,-0.40372396718546,-1.4870172600068516,0.31294710290331706
1.22,1.052714236163241,1.5688868678183612,1.1736014509735413
1.23,1.7985352175047844,0.6193215502500493,0.8140824863528526
1.24,4.629453213446777,1.1923969083129196,0.15329605340823088
1.25,2.6078549513643163,2.5274394107629803,0.13788560496335672
1.26,-4.2566842500865825,-1.2900765634498061,0.21050011370686483
1.27,-4.078463267608935,-2.838697121496796,-0.4635713357988114
1.28,0.1788701575707392,1.4859411828087037,-0.37593394909742084
1.29,-0.6394853058454586,1.135266727253984,0.1685389391979697
1.3,-3.04250253681234,-2.65762308491968,0.19321724011789781
1.31,-1.7425981246522366,1.2431519670958275,0.4598602217476906
1.32,-0.23923875717997076,2.837057544820764,0.4103905014420232
1.33,1.7310730830607157,-0.974943478911177,-0.24682180237570744
1.34,2.5318249049789174,3.289728163834192,0.3686867008663214
1.35,-1.89979461586358,2.4149698632902767,1.3194878304170967
1.36,-4.036593394261247,-2.7789684895786966,1.86025429547292
1.37,-2.1497614610094082,0.8753770456764989,1.256934525502065
1.38,-1.0677499445279133,-2.4831661262320686,-0.23939310674224856
1.39,2.6367787012446846,-1.5444320263568805,-0.15472800673055956
1.4,4.59569525405337,3.9572086017361925,0.5613601164748538
1.41,0.9104179351629106,1.619405784839021,-0.432758614844236
1.42,-1.8811776375860743,-0.7540553564839938,0.40268674552912787
1.43,1.7902741215309868,0.8929333607432501,1.8654052110590822
1.44,3.8301704204879536,-1.4132590438729487,0.6067895556162077
1.45,-2.36674931522371,-1.8980189679226778,-0.43617373836677964
1.46,-8.563414836289912,0.05898758545970656,0.42604362547490776
1.47,-5.098968013995199,-3.6125101894553753,0.4666190483082616
1.48,5.328855912296992,-0.4119295661359658,-0.6937377494701716
1.49,7.863119004571063,2.3510010362340297,-1.5504693415609982
1.5,-0.11655907479049563,-0.11595070080906597,0.8042848392229089
1.51,-3.0386549104710525,0.49537776498545705,1.9530891528884273
1.52,0.26969870478488744,-0.13686948917221384,0.028057833061284634
1.53,-1.4583379971304395,-1.1254381286678865,-0.43783431095246467
1.54,-2.5072517404489547,-0.15355846481752305,0.3452185749727494
1.55,0.9319945645834037,0.9158273618392334,-0.7204478600021398
1.56,1.955519488201234,-0.22917829643454382,-2.309948480383646
1.57,1.8592021753786692,1.3864227627302372,-0.7702789748899053
1.58,0.7684179260076263,2.431550451894622,1.2141030104039725
1.59,-1.3002096489419797,-0.7874323486416149,1.9148565674350029
1.6,-2.001862866931309,-1.5540147581403734,1.702280771583273
1.61,0.8231579460463958,-0.1845364989612744,1.0836135655148083
1.62,3.355785413983573,2.671541874487953,0.00934425323788965
1.63,1.1181341068849227,-1.9575299313934913,-1.7305696298062638
1.64,-0.4098295549163258,-3.8212067747067935,-1.284849231730014
1.65,-1.0488435467380723,2.157740597974289,0.5988583062917088
1.66,-4.206980905953648,0.12540162021267848,1.2987221824194286
1.67,0.13180667575595595,-2.861070309108319,0.8245691917852489
1.68,6.913072196754874,2.849244690303586,0.1895767170627768
1.69,1.5611510891757956,0.7749155046274157,-0.056261365571517945
1.7,-5.795084651384231,-2.072816679207334,-0.4008099846681096
1.71,-3.6990473044361556,0.06776218293551224,0.8229624920400465
1.72,4.128633079807882,0.7789375815735133,0.368404775925138
1.73,7.803356860789639,1.8335954175459606,-1.178057739284246
1.74,1.468211835934635,0.9047243349643395,-0.12907347881443598
1.75,-8.16523495217274,-0.2647437956580577,1.6154721372707606
1.76,-8.703994077835734,-2.79135000949688,0.7934632945779341
1.77,1.52842336958502,-2.67024708015144,-0.9716506782454806
1.78,7.7575956346461865,3.9750610483989792,-0.8049445947982694
1.79,2.8604635263081564,3.5976717550931268,-0.7630908302360675
1.8,-3.278059687058201,-3.329574250244545,0.207697910602123
1.81,-0.6496216550920256,0.850372865848628,0.812441138961263
1.82,3.1668750001709975,1.008518684033055,-1.0426922874869202
1.83,2.9417900288248875,0.06395517429743296,-0.37239535463220363
1.84,-2.625932536899408,0.6469161750710387,1.6363548524123106
1.85,-7.3399872810275415,-0.7133216842903873,0.8064748614590214
1.86,-4.0654680199802815,0.007438979456713235,-0.9430610889905239
1.87,1.3393386565070073,-2.13550003163558,-1.2288548447507517
1.88,2.432986193535072,2.64733105368644,-1.3941745555604539
1.89,-1.435877302697012,0.7836390460813323,-1.2339813827767443
1.9,-3.631060590871603,-1.5148569472184372,0.1442105221273094
1.91,-1.0429381031596463,1.1921112135218952,0.5091031670042419
1.92,2.926209199867031,1.2747604763681624,-0.5368405272935706
1.93,4.067347974423282,-0.31619080990089476,-1.4118983725563061
1.94,0.6313464381829499,-0.9938343690369666,-1.8280794044839452
1.95,-2.19911354099382,1.878090793607526,-1.2675353112938128
1.96,-0.8134703697684795,0.7413634684275147,-0.4411531031322738
1.97,1.0909542417658937,-1.2984221537508929,0.7917010162877125
1.98,0.27471919815347134,-0.11492312149603581,1.648138275295506
1.99,-3.1785492043992134,-1.9088119178370464,1.025911566174763
2.0,-3.079496098974884,-1.27887128610851,-0.495016875484774
2.01,2.2198131239616528,-0.12675260862836069,-0.9807660168917578
2.02,7.243479891824617,0.9188859117880172,-1.0448797983264289
2.03,5.6755068313848085,0.12456014413473568,-1.004491048569546
2.04,-2.133320174132543,-0.8739259549741583,-0.6899608288985193
2.05,-3.740943879426978,-1.0516166172375385,0.017162865278966544
2.06,3.5623942735253395,0.9230955798430188,-0.17696070257859248
2.07,3.1925145832520565,0.6641902930360601,-0.891882495863196
2.08,-7.823362552118591,-2.978682048788363,-0.23912814253268405
2.09,-8.55071205037862,0.09084731069439211,0.4746410576017124
2.1,3.0001312592461096,4.301151044608547,-1.2055250348418687
2.11,7.280114703495384,0.33191741093508753,-3.3630165282491853
2.12,0.7445665116597515,-1.5286859298027595,-2.0837594214802606
2.13,-5.880416155544258,1.4237555953428283,1.406086512231584
2.14,-1.053146824927747,-0.7292108728986433,1.0950448493325051
2.15,8.934646573170621,-2.2910110922680156,-1.0565216730989386
2.16,5.3863120660259325,3.4709105233953332,-0.6634669915581035
2.17,-9.601390480709858,-0.9667566466196176,0.7761049172725822
2.18,-8.026277737410222,-3.202436689684376,-0.7392097987517823
2.19,6.785576572966414,2.8339184978266627,-3.272595540950316
2.2,7.219438068782366,3.0593175634445484,-2.5918779385209367
2.21,-3.273856770224944,-2.0438509805503697,-0.09222847086348651
2.22,-8.134169911728,-2.4545999435330206,1.8618975171161918
2.23,-3.248199941018513,3.3142764418888975,1.0424791124032726
2.24,4.110183722261543,-0.7094627806921141,-1.5985743489200772
2.25,7.195071826853519,-1.3231473191367735,-1.7069825701139498
2.26,0.3958054045377082,3.602923329384295,-1.1223984784978223
2.27,-7.25268608639854,-1.9052145350198497,-2.3200027343374843
2.28,-2.144185614173675,-2.286654554389237,-2.222361837463804
2.29,4.70136452271219,1.6136552150967574,-0.8220470134316544
2.3,1.084481579329561,-2.9049906560228616,-1.259498130002351
2.31,-2.3348585997715263,-1.8122063777806838,-2.575997424468141
2.32,0.020460635584087283,3.250593294647963,-2.06862580712636
2.33,2.3972380253664016,0.0680663256907329,-2.4025680539648286
2.34,0.9112218896383728,-4.609585048136262,-2.900985890811748
2.35,-1.744799028392681,-0.3673115261092945,-0.5237194746289919
2.36,-0.2925107782183022,-0.053058511389297736,0.7625144010338434
2.37,5.225130818203655,-1.684091901635288,-0.9039970337782343
2.38,5.709757038824107,2.487096936399246,-1.5182097785752489
2.39,-1.7651292984597502,-0.44059921320118406,-0.8705692321405929
2.4,-4.046953992397687,-0.8925218752390132,-1.4439130007044243
2.41,0.9241488224104812,2.719420123330168,-2.3296801078299945
2.42,1.7640519898186608,1.1693642431386406,-0.566638821660426
2.43,-2.611961029596591,0.4748866707346362,1.330463561198182
2.44,-4.4339335714667145,-1.217670441346724,1.4338177231475213
2.45,-0.6658754840661083,1.7888657978649494,1.2427679863425158
2.46,2.506040234563912,2.5557902774552463,1.1538948640207465
2.47,2.372965290491359,1.099094598886092,1.6205065938938465
2.48,0.05246536622766329,2.8680504073448123,2.682976069094226
2.49,-2.4293351278125708,2.066635813390666,2.798796591259552
2.5,-1.5866950994633167,0.3907122774040436,1.9154323611960204
2.51,-0.0966970446251905,-0.8271091571988596,0.9332922346677547
2.52,-0.25593308571979906,-0.9492134850757914,0.40579422542914245
2.53,-1.1796377163722136,0.21393719298740654,0.544152943446962
2.54,-1.9130456152531348,1.5275797352029246,0.26100522208392013
2.55,-0.5435081452611503,1.2289488290836097,0.767915529824666
2.56,2.300943951711467,0.8211639884716229,2.3763794643596836
2.57,2.6824741651432786,0.45574357057999504,2.4360873076444647
2.58,0.09247407546268083,0.5173808362723777,1.5806517308749783
2.59,-2.127456853561566,-0.05698898858574347,2.162489634141691
2.6,-1.3183843150688135,-0.6291229514266052,2.703287602867483
2.61,-0.2967707798468044,0.30938224639460055,1.0323142819762472
2.62,-0.7375843437219877,-1.7804386354594863,0.6774863114060572
2.63,-0.2535809040339511,-0.7747831529277904,2.1487130565527806
2.64,-1.8262566454829443,0.6451789584644406,1.1147806588945595
2.65,-2.083602975871421,-0.29767983994752756,0.028258910131340798
2.66,1.529257420242764,-0.15271695251884546,1.1003165312255023
2.67,1.9641337589464127,-1.3968987726605566,0.7930347965461817
2.68,-1.728461203826744,0.10437457230706382,0.3428247811950297
2.69,-1.6444121513317018,-1.1708381289517282,0.979823231368893
2.7,3.0580023497692523,1.138762785947427,0.9191601297230656
2.71,4.49341180548666,3.3139813230920634,0.08569840870328832
2.72,0.24470470756336204,-1.9538943651630762,1.0972253773119718
2.73,-3.6073956387459205,0.45192686265543935,2.7808607698194536
2.74,-5.919340844659519,0.544690604728644,2.2510801563905254
2.75,0.4214002490630355,-2.671019864211076,2.1999322243801274
2.76,7.907512848289418,2.225623729562461,1.4949640458195725
2.77,2.3188224773340247,0.1461125569223216,0.28330593087011113
2.78,-6.488513370679542,-3.0873844437847224,1.003819943928799
2.79,-2.2173355241173516,-0.2303285128571878,1.2729441415089462
2.8,5.591241677595071,2.2405350840597937,0.3557584939427758
2.81,2.4401250944978923,-1.1838391773955057,0.23088881240461523
2.82,-3.380247312992658,-3.3345275456454555,1.9296677822697323
2.83,-3.1496092357651677,2.1143302192256774,1.655038417756237
2.84,-2.0472723677317,-0.9872571814263009,-0.39291796975382476
2.85,0.20248854273026579,-3.3674508009123634,-0.45942135586958166
2.86,1.9609184108703455,2.0050366794480166,0.14339536286332535
2.87,-0.5982729753332385,1.280783825380195,0.018488193903611602
2.88,-1.844506427397731,-2.351448900284299,-0.2662315655948927
2.89,3.3046375974007542,0.3387436446372024,0.5982855963204292
2.9,3.309645170475319,0.4666029525855222,0.7767735761482355
2.91,-3.20794155742841,-2.104185051071558,-0.07659579163406656
2.92,-3.8953950332513445,2.5774219235282847,-0.24249085679756838
2.93,-1.6037364284812001,1.4065880583723058,-0.49847391807091407
2.94,-1.5263794962486994,-3.705171866373788,-0.6553723967987756
2.95,0.9511762050006087,-0.21582619438019157,-0.5847719774556193
2.96,3.9469780766058573,3.1426931626230563,-0.7073775191722302
2.97,2.335402467302316,1.574581323060584,-1.1730413721824904
2.98,-3.1370073326260033,-3.563959369610052,0.1003711610874354
2.99,-3.588906410381658,1.1489015113997798,1.2087248439397054
3.0,-1.0850693779630576,2.120494455090496,-0.7584994204706725
3.01,-0.38109682677837065,-3.510816057548226,-1.3340748504294015
3.02,-0.47541340978747854,-0.04094458323201966,0.43403479131888567
3.03,-0.844780284116228,3.1584395923808164,-0.4264210980516704
3.04,-0.942381317632137,-1.4459374117330448,-1.4570511405915334
3.05,0.9874036285262834,-1.456814150847901,0.060915316816844936
3.06,1.0622146284168992,1.2725588334368023,0.36996475797432155
3.07,0.14437676393133334,-0.05246853031385973,-1.4126943707102322
3.08,0.23290627312506332,-1.5740901781298609,-1.286959983464148
3.09,-0.34782050040527956,0.4141731595309033,0.47531792964825514
3.1,-1.1436383424824792,0.943326230545239,0.8287701492632535
3.11,-0.336773959045104,-1.647978959080362,0.8103704667074383
3.12,1.7642246934195012,0.47635555579437894,0.7929996298829862
3.13,2.082745068075031,0.9601611262886837,0.3944862629583074
3.14,0.26317474343216457,-0.4143403069742679,0.5079054371604502
3.15,-0.5858276163453751,0.05310675892010411,0.4135439990874442
3.16,0.7296128762864155,-0.2764638717500899,-0.044065950219242436
3.17,1.2748053420199532,0.06689750796109767,0.25826979539398975
3.18,0.5154229693175738,1.330731690984571,-0.035239381349475504
3.19,0.20518586342058778,0.7276331579188295,-0.6197785143751207
3.2,-1.014514897283798,0.9601224350520168,-0.6828572637856479
3.21,-4.396729743225784,0.0983513898995477,-0.4296271335795437
3.22,-4.0520790866648175,-0.4490824452087777,0.09854404289209427
3.23,0.7013041429019402,0.721491620676051,-0.30363745583618873
3.24,3.460453919419877,1.5980375853379376,-1.3626041333792411
3.25,1.302570708560385,1.1559563074891748,-1.1334514571363514
3.26,-1.5378133219765453,-0.8014860669517705,-0.09896079606062828
3.27,0.7262210203463346,-0.5958846393432236,-0.698961314420183
3.28,3.269613304417052,-2.6558975678054,-0.7560857385943824
3.29,-0.11599412416349186,0.4061023859538258,0.2831334445298751
3.3,-5.549507951787636,1.1322659471379208,0.15704846862371263
3.31,-3.2619928048229734,-2.203387433367647,0.1115007621804046
3.32,5.223005325347062,-0.5721902919525341,-0.36898934928442073
3.33,5.209321037279533,-0.43437906826672457,-1.4304252851221884
3.34,-2.9260816049287905,-0.9646982869792515,-0.12000370439551244
3.35,-4.67985770603414,-0.7380836535084838,2.164558961394369
3.36,4.347393949664176,1.3332655791116044,1.2617783821863582
3.37,7.836627098735821,2.3714446870749017,-0.833156119760579
3.38,-1.6776856815047074,-1.6566593837833525,0.005799431420950629
3.39,-9.13274134661314,-2.4548232666270193,0.7195526915763142
3.4,-3.226716681567229,2.0125668851615286,-0.6545278918863764
3.41,5.901033295271995,3.013684034469314,-1.7544001180933764
3.42,5.562474730384856,0.9034298978770405,-0.610988448716839
3.43,-2.4281096616316518,0.8833398404790588,1.5664681602395052
3.44,-7.219523534263935,0.2460567862995236,1.4251970954336897
3.45,-3.0910485579927656,-1.1396757041163443,-0.6104646114184605
3.46,4.550591412331085,0.5480700795193236,-1.0538795819759137
3.47,5.880168694350354,0.9537879717334369,0.023823328618855652
3.48,0.45154391629834456,-0.47296581348746747,0.5142310293697527
3.49,-5.53333687138299,-2.3015460832003094,0.7616493994511213
3.5,-4.131245099057115,-0.7245120488453975,1.5090002335172004
3.51,4.360653085266972,1.166245836542056,0.9302336901593441
3.52,6.756025493791656,1.359078626084096,-1.2409022341599674
3.53,-1.2068484531385186,0.04060439421895842,-1.8934063477641216
3.54,-7.328057751220353,-0.2687625434592531,-0.8045173048543836
3.55,-0.6315572369725468,0.27995160254738943,-1.30658430447246
3.56,5.137065411392744,0.3087980872571422,-1.962604692558917
3.57,-1.332107460396565,-0.8564411927877592,-1.0086306251493302
3.58,-7.803880477330933,-1.1911073234819258,1.4947818426215873
3.59,-3.622033518912861,1.6141489271619813,1.6878244965334983
3.6,2.8513523882509375,0.06999093250861751,-0.42286009004117636
3.61,2.842132437190644,0.7725144505751395,-0.6530545691067264
3.62,-0.2350211288115434,1.6311857764305797,0.7079453155212256
3.63,1.0456747473607666,1.3303013690470347,0.38329483242343254
3.64,2.508024940664209,0.15592231611899388,-0.4338276447777234
3.65,-0.005133647056437013,-2.463915013563135,0.38997710572609096
3.66,0.6474362568485398,-2.6032777894794537,1.7048576869555159
3.67,3.62156027829084,1.4513092201555062,0.7061817507240203
3.68,-2.4263785648179717,1.6019231113808896,-1.065443471129321
3.69,-8.964325103213248,-1.647160318660457,-0.266143322132477
3.7,-1.4790024399872195,-0.11985733356156524,0.8861449229289426
3.71,7.987309194764702,0.1292808595172963,-0.7447219400218668
3.72,5.183008665896871,2.0691179299132294,-1.680549557805623
3.73,-4.965563003951374,0.06961194428608253,0.9635707193611311
3.74,-3.8045154575143303,-2.178216887873856,3.04788469764103
3.75,4.97394691901923,0.9845650568075699,0.9526010297818442
3.76,1.8749995326496016,0.08333279436541319,-1.127243196336229
3.77,-5.228775461760917,-0.5380019186694033,0.2000072642697307
3.78,-2.5993573117696176,0.8165864197337473,0.8571310092127059
3.79,1.6281332310860221,-0.09060492539559517,-0.7639102369236497
3.8,1.0900127823640944,0.329167436711152,-1.367393855488253
3.81,-0.7062957406390016,0.4379137075511577,0.7503043437995526
3.82,-0.2698937396863569,-0.24239092346501506,1.5985032454595793
3.83,-0.3564423861790485,-1.3311161143887495,-0.41213454855666765
3.84,-0.9327787288357088,0.9838743178569248,-0.6695170203297881
3.85,-1.5371604519361886,2.1357438376879516,0.7937676368222132
3.86,1.991273867214601,-1.6798765327807028,1.108393575457587
3.87,8.493554895579658,1.2551214648869295,0.2989526518518034
3.88,4.926663296759848,3.6342164794542864,0.8224629256547602
3.89,-6.344137159420558,-1.3089423810218326,2.7306372270057255
3.9,-6.860844857025508,-4.00182099960952,1.7094445264322262
3.91,2.662066420830037,0.13054369624279105,-1.046041610567684
3.92,5.711020973785616,3.3722155790364727,-1.4358659076644826
3.93,0.6096289515692446,-0.6718534808930412,0.0137693655584874
3.94,-4.126194709941545,-2.4211682505128733,0.4213147548995556
3.95,-3.9240798316998866,-0.33087613282139183,0.21386935470437096
3.96,-0.4664762440397907,-0.6643414653571027,0.9749385973093065
3.97,4.115260070789272,-0.18438073795009802,0.8521771825517239
3.98,4.930972005149558,1.8940102112033976,0.0003604838488238671
3.99,-2.6420503412173755,0.568306369458261,0.18460640153127683
4.0,-7.550371510097307,0.3899660411546372,0.1064647384345575
4.01,-1.8056879204533969,-0.47947969542540475,-0.4163651745597812
4.02,5.413764107655188,0.8422091854871575,-0.15386446756442362
4.03,4.903552593846176,-0.1022349387197723,-0.12846269657742282
4.04,-1.0900296412543262,-4.2249084856537795,0.4126104110311929
4.05,-2.848499095108432,2.9200826872782395,0.6005087518961304
4.06,-1.093424504716206,2.9100812516914596,-0.5599183071834932
4.07,0.7149313509111292,-1.5916871706802218,-0.759278292227605
4.08,0.9345489171702354,0.3689193363056727,0.19219041595682537
4.09,-2.344833100024595,0.21383469430362148,-0.03179315199813289
4.1,-3.6135504039606277,-0.0093191214735137,-0.27143832998312467
4.11,0.8889980671144943,-0.3848642674316197,0.3016514644049908
4.12,4.866476078629658,0.10397349432057001,0.39071105155319763
4.13,1.8624467750261562,1.88088724441538,0.3010483372516791
4.14,-3.4587520666141605,-0.5187840417652294,0.7120873204531017
4.15,-2.414650619023367,0.6775633486885089,0.4944781192602972
4.16,0.2954680039763523,1.7492703525410023,-0.3617402854003318
4.17,-1.3662863766382745,-0.9057323963276745,-0.5399797800400472
4.18,-3.299087081826209,-1.7350374926148973,-0.04854527249578282
4.19,-0.3606573128237929,1.4276649063141402,0.08163741614165285
4.2,2.8058992253635555,1.6546436357569787,-0.47225335438517124
4.21,0.5697726692063099,-1.9534979268291512,-0.9082850910409624
4.22,-2.3184388852539484,-1.1155407059733213,-0.43929642655950224
4.23,-1.1497128036791622,1.9225944264809751,0.10615761022336731
4.24,2.3708296469240735,-0.5196140593689571,-0.29164457606320376
4.25,4.397936540495085,-0.18699601327166626,0.05138810283486667
4.26,0.7097320356554582,0.7016744094027842,0.9026608567632768
4.27,-4.612658430962021,-1.753986869307741,0.6732707780101254
4.28,-3.355713211143548,-2.6007449652507075,-0.42102147097720627
4.29,2.348159762924198,-0.7057629394595095,-0.77505923515965
4.3,3.6128789713801037,2.9975575105281953,-1.080657420625033
4.31,0.009378906505867035,-0.8835773854447819,-1.0688970154253994
4.32,0.10616894426178725,-0.7771620055327724,0.14271758870395207
4.33,3.639581391084975,3.6315742161175426,0.05414605452906629
4.34,1.9617598426054654,-0.29568438875232295,-1.9683898398212074
4.35,-3.5715394740651414,-2.3994588312974487,-2.0451593061144786
4.36,-5.161846474511198,0.765725059745219,-1.1144956246962903
4.37,-1.4974223584392534,0.6095428029161456,-2.150339228088357
4.38,1.6742059305418462,-1.4860552822285134,-2.0698993329135447
4.39,1.3630778877784908,0.14493066299980717,0.7560243918507921
4.4,0.5785845299440683,0.20541186394885041,2.710300892754299
4.41,2.896217975660969,-0.05333482016729868,1.8077478837190728
4.42,3.9965147670961834,-0.8776700867831437,0.467274426168477
4.43,0.3575955267221982,1.233794874537749,0.601145021678346
4.44,-3.826000245543907,2.752444998058971,0.3241420805484606
4.45,-3.156058355120151,-0.6911030195334518,-1.38724331400154
4.46,0.13308500228045747,-0.08241986026225506,-2.448784158513989
4.47,-0.4044224663743259,0.7223799595661422,-1.5254173426135869
4.48,-3.7912208978066735,-0.4248568620287401,0.022527665808561192
4.49,-3.387073929948058,-0.378607892881643,0.6166958151445738
4.5,2.3006021611506537,0.8958944944469369,1.0161163517433236
4.51,7.10164475887881,2.9902165386095567,0.8258599572459598
4.52,3.3791033245948987,0.5630511523581205,-0.05799916792989103
4.53,-6.246828756956266,-2.9568754155224184,-0.09652487845218855
4.54,-8.278462395729052,-2.780163018214144,-0.08762332875708467
4.55,0.4871631215315648,-0.16337316205743874,-1.169653318685558
4.56,6.000619701346011,0.2963563320945005,-1.5717425096295334
4.57,2.8837076265301493,-0.9788461379468096,-0.42030101628442834
4.58,-1.6900353326328172,0.4329430345413281,0.5386413938489543
4.59,-2.421958059365443,0.24104510445519045,-0.5584090604814551
4.6,-0.0662992177033892,-2.7487692460997626,-2.1200968583535205
4.61,3.4298139392699034,-0.07158868322583412,-1.9568178012893582
4.62,3.4788558334099537,2.872614073044579,-0.5013309482390187
4.63,0.08908664604417627,-1.0452716285554227,-0.30027358874366966
4.64,-0.21046719551389903,-2.9542172734781333,-1.0900601766522113
4.65,1.8053717717481597,2.311732902600457,-0.38636371895566746
4.66,-1.2525605643379176,1.356259193488436,-0.2004544413189506
4.67,-3.567669623327432,-4.085036662365335,-1.33514879700185
4.68,-1.2789939490037732,1.69687455395974,-1.185383707261995
4.69,-1.3690443682298814,2.843906032390636,-0.2801945807385414
4.7,0.020605948026148013,-1.4440190584064536,-0.2640167445549969
4.71,4.226723363651431,0.005173648411048504,-0.6054196858450386
4.72,2.5995907014285007,2.725065155410073,-0.4778438281043898
4.73,-4.471480042293088,0.05110962260507246,0.01566545689075205
4.74,-6.119018830320639,-2.291044413035735,1.5374781065747265
4.75,0.9753294119961263,2.4864166643410326,2.153340285358223
4.76,3.9492169337269094,1.3956140666750312,0.6381704882036381
4.77,-0.6777848996101848,-0.48569280066187337,0.5976250577180351
4.78,-3.5917948461185802,0.7860605807421711,1.1273722715020242
4.79,-1.5663627776626026,-0.4896691167901629,-0.8366715513017394
4.8,2.2619918161583192,-0.5203638800461923,-1.6429158770471877
4.81,3.535831758900161,0.3566130000366722,0.029232287166582382
4.82,0.7249423477534644,1.152254179001496,0.5357818590647272
4.83,-2.022376830046055,2.330002095200353,0.15262356082426748
4.84,-1.6730183382537231,-0.9534792736574742,0.6948873789999266
4.85,0.8340180513193969,-2.534179558822112,0.7044364763464304
4.86,0.7344471647767543,0.4915518148179243,-0.5626509962991605
4.87,-1.242007041987747,-1.0104331599801977,-0.176026562920505
4.88,0.5928909475890015,-0.4796922935686536,1.3629931930201367
4.89,3.1108314325570467,1.7664474089411542,0.8126278855553764
4.9,1.777258651391109,-0.6341328407436422,-0.5932454705315924
4.91,-1.0720145525648381,-0.29050916940838434,-0.30360843475803573
4.92,-3.30960954797258,0.9276183902816613,0.010423245305446277
4.93,-4.937750171940404,-2.063932533199339,-0.28038514977170004
4.94,-1.3735020701375098,-0.8116578999940212,0.26057435707727455
4.95,4.8099854078903,1.0819254580094624,0.4812495036795601
4.96,6.019734166963184,1.325253494860392,0.8032017188546551
4.97,2.1713429122120367,1.442030072423217,0.46789663916123075
4.98,-1.772244217172947,-0.3731212562262849,0.20819380059245762
4.99,-2.958416129904919,2.2406597389001806,0.580466049803315
5.0,-2.432944646209773,0.17183652429797625,0.7713808189228311
5.01,-0.8722354867287452,-0.44667107644315585,1.20969707381969
5.02,0.05923471847311841,1.9603796509410145,1.185481909080194
5.03,0.5585609271958154,0.06263831627515382,0.6307205257964416
5.04,-0.4217250116944148,-0.12687892934135636,0.3221492541790958
5.05,-3.161570700567102,-1.8247367557471967,0.9365077536591808
5.06,-1.0324279631622157,-0.8213624078754472,1.9747948090036935
5.07,3.331365514474965,0.7287714947254368,1.8001078143325762
5.08,3.1359551057210515,0.4455344994840579,1.5027930886188907
5.09,0.9962750474164418,0.6982543857133965,1.4536957992131427
5.1,1.4016876708087755,0.3512364956582892,1.1103824115860828
5.11,2.874224047065012,1.0655117986470357,0.21307564503513876
5.12,0.8692716488561281,0.8370207552589553,0.10356406139137753
5.13,-3.386100419843796,0.12207119374645614,1.3486195983436715
5.14,-4.743881297094885,-0.1485480678084427,1.1596737968283406
5.15,-1.6150605659906114,-0.6447174946482157,0.005792092078384353
5.16,1.605442028414009,0.6052546209744236,-0.1881679752599047
5.17,0.9234096605980449,0.5939387309889546,0.4714345025236635
5.18,-0.9897483713735851,-3.751945943417764,0.9029679174058226
5.19,1.6413542446001919,-2.5348409945832198,0.520429606422752
5.2,5.235430262052548,4.330151890714601,-0.26630078724304623
5.21,2.117898916047497,1.5944930723233752,-0.30609827080458524
5.22,-3.1611322497098553,-2.4720301216106924,0.4620228713445539
5.23,-5.1820189363275775,-0.9042393990506593,0.4411889600774683
5.24,-4.781917497981014,-0.8403328023634367,-0.4070456515100115
5.25,-1.3477350430023922,-0.5928920793963519,-0.6486184411588014
5.26,2.464106287680805,-0.2862741415899406,-0.3520752895978806
5.27,4.091996131607489,2.5372546091929293,-0.8078612254812396
5.28,0.32801945195350735,2.6044042461703523,-1.597539489792638
5.29,-5.135323024607394,-0.7759968651878998,-0.4067179321342349
5.3,-3.9243250774795806,1.4570667512348578,1.2789729637812108
5.31,-0.6742921911763677,0.2714235537654959,0.7120338195695097
5.32,-2.308994911873846,-1.8087860918460352,0.12702328223213302
5.33,-3.558915462304004,0.6212681872028941,0.7553070111038857
5.34,1.3605191639060068,0.9390311469199473,0.058666910783562565
5.35,7.2478217441676325,2.09617131379576,-1.3541480144761688
5.36,4.854279483619537,1.0511681087964448,-1.3480801771893223
5.37,-3.936118651223661,-2.216197664384409,-0.23203113852553492
5.38,-6.392140476830576,-1.3347182343275137,0.3495815608279813
5.39,1.158253399612316,-0.8885933594587289,0.6866358216499164
5.4,7.344259096648026,-0.895957695877757,0.6772979221023507
5.41,4.138172141034955,0.010427266684996897,-0.004165602272087433
5.42,-2.8902605942041872,-0.5562344653879333,-0.08288808632704003
5.43,-4.506549460733937,-1.7041856360635643,-0.43117021061367367
5.44,-0.7863201288884227,-1.7082238143940076,-1.2053760579803463
5.45,1.9433460782486094,0.3616097605074682,-0.9154413800705181
5.46,1.9782251970770715,-0.21537501563518544,-0.1204573476353267
5.47,2.6829229585034415,0.04997084763008863,-0.2193900837898674
5.48,3.2225889265075742,2.1055831230937723,-0.8749514114126358
5.49,0.5111143231245943,0.39422046526778787,-1.0054966519132806
5.5,-4.456191347495803,-1.2390688315600342,-0.42519531769612295
5.51,-6.050204334548116,-0.7482593566147319,-0.35662651110442706
5.52,-2.0356739422359635,0.005381758880525611,-0.987062696888964
5.53,1.4873402295546336,1.4054246952081977,-1.250944615826861
5.54,0.2782629065851242,-0.26627745715566203,-0.7994582219923203
5.55,-0.28521567052204366,-0.928018386367361,-0.18196758168683735
5.56,2.9577867268721874,0.49298651712070346,-0.39880810994235144
5.57,4.185900582944186,1.050934631924186,-0.31167721467778803
5.58,1.1986512281467316,0.8885631012933014,-0.05895602740529649
5.59,-1.7622781720333776,0.27751244723682655,-0.13528592210709203
5.6,-1.7075880631954243,0.6356096347634861,-0.335456755418189
5.61,0.16382217589518552,-2.1606968112283655,-1.799813043227909
5.62,-0.6096820229756366,-1.4764138835377496,-2.5638044539911604
5.63,-4.621266469171843,1.5036327104187097,-1.2836973343959097
5.64,-4.754578463449354,-1.164967173700128,-0.5264961550130258
5.65,3.482255345896101,1.3368103663817714,-1.1471893345735578
5.66,8.773489679863266,4.67154351785581,-1.2079442331425891
5.67,3.4735030096587693,0.610941940524012,-0.6916094077815221
5.68,-4.2237716553370435,-2.559073532354777,-0.3585176208980747
5.69,-4.811205785245214,-0.6363678637049894,-0.012554745437045808
5.7,0.1736057465595593,-0.9594995126133846,-0.18145568978157264
5.71,2.328661397040232,-0.35343626450953064,-0.6547923408802218
5.72,-1.31472821504382,0.7265969805084518,0.605316989384707
5.73,-2.6040217085739767,1.333148842800463,1.740583842374834
5.74,1.0599814248752961,1.1755166105353672,0.20417042352534498
5.75,2.4289063362978816,1.1624146356484573,-0.6267472280430477
5.76,-1.1482520451024287,-0.13996868469411683,0.7112145334703746
5.77,-2.1401617830696074,-1.231997551614907,1.5727989727451932
5.78,1.1973946014555115,1.5749268833582821,1.4769934479455027
5.79,1.6327048871353145,-0.2896231502150972,1.5336308595160246
5.8,0.90595014439772,0.019682234568195067,2.2257132512882314
5.81,-0.38875489328182766,2.89524578827556,1.6189661088798255
5.82,-4.526589196495443,-1.1137625778299467,0.3038964234632697
5.83,-2.9520338203346337,-0.35082991864607815,0.5115077118676069
5.84,3.389600864207633,2.6660382819076998,0.7308323916312667
5.85,3.740005608803194,1.0779909912062862,-0.49171682187326754
5.86,-1.586881268871605,-2.208209641289536,-0.43387831312022485
5.87,-2.731812165953756,-1.0680636834046204,1.353368042691411
5.88,0.9187387683697875,2.3865221040207887,1.2689650607168723
5.89,0.983520259475404,-0.6771588174787153,-0.3245403261473588
5.9,-1.5881668602802048,-2.331690872039663,0.9435251313435198
5.91,-1.5783963272922052,2.4827196595310683,3.0343458361625006
5.92,-0.824624192519013,-0.19461644505597553,1.1933956734443631
5.93,-1.3196596039404502,-3.3611304954893755,-1.0529620083013425
5.94,-1.701206373360894,-0.9825766287555153,-0.5438802278899825
5.95,0.581146216615817,-1.119969779205779,-0.7353611871538837
5.96,5.3619300484778964,0.23422727683237077,-2.3586464699413807
5.97,6.196373110773392,2.8756446066009262,-2.2066280038435986
5.98,-0.17068411070538403,1.9478094616629658,0.037556789217650266
5.99,-5.710093910248785,-1.2231505659727366,1.31968987580924
6.0,-2.6998883431067586,-1.923621329549988,-0.2896718468889369
6.01,0.7283108462825864,-0.21666913510427066,-2.1219579370036006
6.02,-3.5946364090139724,0.14855941580921295,-1.599389489178419
6.03,-6.014506771515759,-3.852656065043574,-0.8203283424319731
6.04,1.8383938373438742,-0.6261644410180569,-1.2386528707080728
6.05,8.229258920866725,3.9730437020629426,-1.547095358035633
6.06,4.857049327633071,0.14866005342114752,-0.8026503778298858
6.07,-1.3753705590948768,-0.29351126029765195,0.47497425891159917
6.08,-4.604809285187301,1.7386242031023291,0.7305313442271939
6.09,-3.955342314486812,-0.9247993223495815,0.35990016732710184
6.1,-0.5721553817321776,-1.1592554295256177,0.15083548429383123
6.11,1.7843164301841383,0.234304918059874,-0.4130405324416263
6.12,2.2924672763112843,0.7620365497636131,-1.0345748574907776
6.13,2.744593206633623,1.405387840971841,-1.1897516310758203
6.14,0.11736234541118407,0.47313491119091244,-0.6979905434108356
6.15,-4.554984390302791,-0.9748430517344091,-0.03525544347037873
6.16,-3.362330565609518,-0.57747065454426,0.7444574383115834
6.17,2.8445005420173315,0.5637393189798614,0.9555464372980009
6.18,4.27303308382271,-0.0269407943998477,0.1961032834794125
6.19,0.5721754836709949,-0.6740409096174211,-0.2574973048668066
6.2,-0.9820897376571553,-1.1701128146058726,-0.5779856070039902
6.21,0.4964392268623196,-1.1572298278889679,-0.9930008617910238
6.22,1.2642018047221382,-0.006653152463587664,-0.6499396982721932
6.23,1.2696364755913723,0.5346822734292578,0.34698443419062414
6.24,1.1567109544357563,0.12160429217977778,1.1532763422356123
6.25,0.7108830697144456,0.1591299422394784,1.2539229131897203
6.26,-0.9715558917489537,-0.09970556028547999,0.5707335656153945
6.27,-2.402376282743571,0.12743810928170257,-0.271427857540838
6.28,-1.5198989714096243,0.240592722623664,-0.14137082363896786
6.29,1.3330200950256617,0.6416639393312931,-0.2303427049181864
6.3,2.169563668179997,2.4055307195798057,-0.5319883231263429
6.31,-2.6343661599792276,1.1508926601730824,0.8891367600555613
6.32,-5.154844209155262,-0.8220177142701985,1.7022881097673501
6.33,0.9307854264076938,-1.258477439976319,0.23067933430376553
6.34,5.496116368533794,0.45414041478077505,-0.5311436964482419
6.35,1.844660643649373,2.75274898543357,-0.1392955952272749
6.36,-2.7817747633948393,-0.2706725575005756,-0.08469854363856233
6.37,-2.642803985436604,-0.23427230636375107,0.5450234291194511
6.38,-1.6025315294137725,0.9557482843864307,0.7575583138717593
6.39,-0.507385886249883,-1.379660908100216,-0.06531963562473987
6.4,1.7660348026426718,1.6310095317221627,-0.10396499793631239
6.41,-1.1024733704667014,0.07039641321344225,-0.29311289447891276
6.42,-4.820161977093615,-3.024973000674054,-0.8317359105533043
6.43,-0.3459825645884069,1.0741747068478638,-1.060068747413216
6.44,5.482974125732999,0.838223361184017,-1.5483235200192504
6.45,4.059886424030598,0.23240663490926705,-1.3695756866400632
6.46,-3.9239101849962985,-0.20280489516438283,0.06703789799157234
6.47,-8.216966145502571,-1.4848983950299444,1.2284497024817946
6.48,-1.7162063946937423,0.41383517508033174,-0.002403613389279524
6.49,5.625164141232134,0.08996364645487565,-1.29643681238025
6.5,5.216725032549238,1.4969476120457212,-0.6705747423955015
6.51,-0.838931894128361,1.400861284352557,-0.49546181584512733
6.52,-3.7015893298231086,-0.35149104748747906,-1.0074170821495188
6.53,-0.5783330699310414,0.2933745480172413,-0.6549840153373521
6.54,0.45764848312382456,-0.8572942724564118,-0.13282281137775143
6.55,-2.178251770866983,-1.3512533374514757,0.33815739410033724
6.56,-1.9871950146694322,0.2468453276174067,1.0818062017422645
6.57,2.523975627425,0.718702027822864,0.8785437462063205
6.58,5.99264888654892,2.0794454844033465,-0.15276775632100098
6.59,3.0592392627865035,1.1136124693985148,0.06039599615961355
6.6,-3.642545707396243,-2.1814981799221416,0.8061192430878446
6.61,-6.128714294847988,-1.8486797324934543,-0.08145862143666405
6.62,-1.8036833339213119,0.4509913666638619,-0.9538934239119633
6.63,3.110850953828419,0.606733299181299,-0.7835902187328594
6.64,3.3207449131821365,-0.16222925215936845,-0.8547814507684939
6.65,0.3386388108958165,0.7964676802512606,-0.575460611733394
6.66,-2.4511060489262455,0.6871115471316298,0.40157499105306205
6.67,-2.689806366289118,-0.03466666196399726,0.07114366242590242
6.68,0.25148649953178315,-0.027721159185474464,-1.0615357682488045
6.69,3.3834595297265437,2.31455769157784,-0.8774598331657895
6.7,1.1681004559714374,0.37907842130781866,-0.6699087149846008
6.71,-4.664170189102389,-3.4414659437725836,-0.5210039797999725
6.72,-3.7166861315366186,-1.552568547376814,-0.3406889609623135
6.73,4.348390244738543,0.33460378532334667,-0.7151690622185525
6.74,7.680637049859297,2.182718177602471,-1.0716765309559548
6.75,1.4201778265999607,2.396769403558774,-1.2359901530535877
6.76,-5.407505259290985,-1.5284223465919498,-0.49339521436186773
6.77,-3.9700965689088648,-1.074140779889228,0.010184709914509371
6.78,0.6335071217773276,-0.6334048292326453,-1.21075156707478
6.79,1.544504023853222,-0.6972409730950617,-1.8607440586387294
6.8,-0.7051683681225278,0.5446790729988406,-0.7139506863943831
6.81,-2.2305054964144744,-0.31581851762099017,-0.22797075350799578
6.82,-1.4507112998416345,-1.095147883195922,-0.8410396559118737
6.83,1.0050474913072807,-0.46421676403756695,-0.49425457453869226
6.84,4.675276137391009,0.405990763464825,0.5905313311264232
6.85,5.925205734040554,0.8416312522541803,0.3729880160355167
6.86,0.2798552685440887,0.7663383729306786,-0.5301203163288357
6.87,-7.089418146663736,-0.9025009883898002,-0.1678894359807076
6.88,-4.962977536261686,-1.0364592285562342,0.0776098068174007
6.89,2.7863827231587317,0.042848413321397605,-1.5821035644376642
6.9,4.053861729007107,0.5517375149863016,-2.4718159034683795
6.91,-0.11081367761074179,0.6630046781789163,-1.1226018185495654
6.92,-1.9181061084080222,0.057569538882599414,-0.12877145211674282
6.93,-0.34739944991865324,0.6409554702053146,-0.28028245707801047
6.94,0.9974344170235814,-0.8796634280981388,-0.3159464860520679
6.95,1.9628012682845692,0.31042073952963145,0.08249168095682648
6.96,1.3832439433549937,2.895560439938589,0.2194119475264394
6.97,-1.4836754739522444,-0.7460626759886635,-0.3936659715150915
6.98,-1.0077390107439075,-0.7348287393527575,-1.1388862940873978
6.99,0.6082659237721572,2.4423826260099926,-1.043557758574787
7.0,-1.391565899742706,-0.9095923934049795,-0.515816685254306
7.01,-2.679324186666957,-2.2986138652072956,-0.25222842572039206
7.02,-1.573928919504851,1.0262027347927232,0.4463182660657176
7.03,0.011876726740588595,1.6072796456604777,1.1327964607189644
7.04,1.871827152926719,-1.0880651481852546,0.4927630085528014
7.05,2.7349717298954372,0.45101581497189724,-0.5325213508852943
7.06,-0.590185364528224,1.9660129347236361,-0.37934656959521207
7.07,-4.335810992914284,-0.9821129761576259,-0.2433586729841157
7.08,-1.8812959516125427,-1.1914585666767055,-0.6107010378188737
7.09,1.846789209212155,1.3014666921883726,-0.3644288460154021
7.1,-0.674716947228484,-0.7887966617216537,0.30428219023360653
7.11,-3.5392963045692007,-3.095004743055163,0.7336794139611307
7.12,0.7914259400956873,-0.9028395984959994,0.4066926753994952
7.13,6.718632516908196,2.646303675350021,-1.3090026388269884
7.14,4.663558933035352,3.267055447137354,-2.69554833700152
7.15,-2.388014810433329,-0.8604164504245146,-1.085230878305369
7.16,-4.275140593349672,-2.6595858063404583,0.7514882680695383
7.17,-0.9582559360693226,-0.26238958667057977,-0.2390256298671436
7.18,0.268707018091747,0.3059414837645108,-0.7028659739866168
7.19,-1.012568490024747,-0.822122758515657,0.7777552038138814
7.2,-0.829652611716739,-0.28769395659845043,1.0200028073225678
7.21,0.9054090936847796,1.9012195093596962,-0.0027500520509389226
7.22,2.1957588917327073,0.7718837551880009,-0.023678088427677824
7.23,3.152726267298344,0.11298715703047935,0.49926485727390046
7.24,2.44707362854934,1.4577961422473698,-0.1039998443770418
7.25,-1.406240021231005,0.49205795802681784,-1.1881937514407566
7.26,-4.9167528964200145,-1.2881589821728392,-0.868717897487222
7.27,-4.14972690413144,-0.6326388059635843,0.14514521220916388
7.28,-0.08577441137959818,0.7477550913917919,-0.02700327632660432
7.29,3.0728798055344395,0.4706553402059746,-0.6343927981092893
7.3,2.135045464190507,0.7970780469024034,0.3033871616704288
7.31,-1.6945619522321267,1.2833817575662154,1.200745521521674
7.32,-3.034156665887827,-0.5858216033090358,0.46557988533899836
7.33,-0.5578732604743781,-1.1729754318458423,0.5920237302941764
7.34,1.9472509720592548,0.005552636790577187,1.4079757898631144
7.35,2.968939706434211,0.5357190423341739,0.8254992567862498
7.36,1.985052415089536,1.1604889215120668,0.3723256241341074
7.37,-0.04120702263706155,0.2866288613380239,0.7591536061414637
7.38,-0.30497842572261324,-0.19704087745386667,0.445699251642404
7.39,0.41544685912436286,1.232336263472598,-0.12914074747796658
7.4,-0.5365553054149086,-0.3670982695354055,0.8499967155996389
7.41,-0.869933067936497,-1.6343462143202814,1.7374618727866193
7.42,0.8470864747791622,0.4890948353297263,1.110842775627716
7.43,0.7065838900969656,-0.3912869517170203,0.7447142003141655
7.44,0.13863912582338167,-1.0452844884282213,0.9693979681163605
7.45,1.5349207742407907,1.248039475638273,0.7697538465662772
7.46,0.7739768178165696,1.1043174802629285,0.5162597102135912
7.47,-0.9720279493566107,0.11727492137785027,0.8781810540892874
7.48,1.2355877865844502,0.88772748232117,0.7786620143758226
7.49,3.15437003375163,0.6955055621141857,-0.07794240275645234
7.5,-0.7715949631830212,-2.9815930179611794,-0.23515726400753453
7.51,-3.4304335732830786,-2.769627153046348,-0.09846368665382946
7.52,1.3552015825008912,3.317648996611867,-0.3643531830794428
7.53,5.345699837945888,3.1198336051621762,-0.36249225332994517
7.54,1.4254689993668102,-0.11008085094371517,0.7408823009758083
7.55,-4.873098713868131,0.4934348916179544,1.732953015382298
7.56,-5.4181325861455925,-0.012004600075521843,0.8798839433451906
7.57,-1.1268663515294568,-0.375802635294586,-0.880614267240913
7.58,-0.22878704153114815,0.6450863083266234,-1.2213280506739168
7.59,-3.046909234286743,-0.0406267753847096,0.28094315207878773
7.6,-2.067967884082921,-0.14884576028302265,1.129967702951042
7.61,3.4302842971017897,1.721047647288424,0.3290693643358498
7.62,5.400782809737416,3.191296425293498,0.24594379953489495
7.63,-0.9873139659670875,1.4388262431181822,0.8022388305749951
7.64,-7.312624367201513,-0.6381855250064974,1.0331444837486354
7.65,-4.046491521629932,0.17892181779130875,0.7959930559161805
7.66,1.91219170615155,0.02836775371172473,0.050380710909737725
7.67,0.11239426702257704,-0.46131007641375393,0.04236311778988738
7.68,-5.163808134207224,-2.0250827419436885,0.7398180123211491
7.69,-2.543208726037972,-2.0874119458459313,0.37316582895422823
7.7,4.848724332911768,1.8824585595696472,-0.9438660368330031
7.71,4.8479167475470195,1.726222931691385,-0.5294664421912666
7.72,-0.2880557063683562,-1.8413307151525455,1.7115350537994534
7.73,-0.44137464502811286,-1.948089343354681,2.5171424728757374
7.74,2.9040187402269333,0.5724200206644664,1.2054343915104067
7.75,1.7231134509249886,-0.4070098833486273,0.5750263721301153
7.76,-0.5264039736738091,-2.429523072942344,0.8177638503123509
7.77,0.3377785239196162,-0.49294302426534853,0.500865187907881
7.78,-0.3871770900799991,0.030476075060791974,0.54585395466611
7.79,-1.877870135330339,-1.493442184124166,1.2292858525257429
7.8,0.8391741481952129,0.148413837251268,1.2213408963099612
7.81,2.799654798515504,1.4937027734189545,0.28651713802229173
7.82,-0.7661939375439819,-1.4031051241692156,-0.6464947699917305
7.83,-3.0706288616359347,-1.9202643639906714,-0.4047704572805785
7.84,0.06524605450867105,3.274693232502562,0.40567800819518274
7.85,2.683820806963727,2.4375166642231156,0.0741482976268194
7.86,1.5254166147488974,-1.415236814417805,-0.34457678335777253
7.87,-1.9718966779380027,1.7036993330481989,0.6527461210484429
7.88,-5.472727055754943,1.6067069414787136,0.8983583847215125
7.89,-3.6747724659046788,-2.7534360757327234,-0.20845601330193736
7.9,1.651570346167407,-1.50213977133813,-0.1377760722898449
7.91,1.9940704082235428,1.3639374542839091,0.8085383021658417
7.92,-1.2802042296163303,0.7364339290027049,0.7607877031189086
7.93,-0.658346350006211,-0.2505895908976544,0.5504370308225452
7.94,3.3047666729198992,0.2743969809059624,0.14399179286880237
7.95,3.212655504472055,0.40243571186959654,-1.0309175116649998
7.96,-1.9807496004846465,-0.6471784773809238,-0.42606528762004525
7.97,-4.481890557271813,-1.8059598575425437,1.5754111179454333
7.98,-0.6368659710274951,-0.44467933153631445,1.6301397669159319
7.99,3.180009461439172,0.3660817950495935,0.3069448603819227
8.0,1.98242214865453,-1.704656767894118,0.30929142399161247
8.01,-0.5001252215158443,-0.6668405356604556,0.8042849688892799
8.02,-0.3098275942168589,0.8846642760184049,0.1398547825505596
8.03,1.127026414222905,-1.1220864279860407,0.09883146160589124
8.04,1.5023012997954746,-0.5453386290945257,1.2330318652532728
8.05,-0.8374279492586663,0.8709750542348131,1.771062251065308
8.06,-2.695129338259782,-0.7390333698316036,0.9965323576511868
8.07,-0.891002796262776,-1.3388026337413614,-0.4180594963678189
8.08,0.020413345452580778,-0.25658240948481215,-1.1319811503564146
8.09,-0.6561004021603736,0.26879977184096654,-0.6378763217819263
8.1,1.7592505581796816,0.0817711236560634,0.31914618092812486
8.11,4.283171437589058,0.7784516523315653,1.2854957865767926
8.12,0.5568699985839354,0.19304872220365188,2.152285903817345
8.13,-3.795253536198955,-1.556457543866026,1.7814784496783638
8.14,-2.1235028466063324,-0.09341229664215289,0.4311869969244203
8.15,0.1904872334058309,1.1000016717045675,-0.8910055072697803
8.16,0.46565436681690886,-1.1893647088850448,-1.6953588140093685
8.17,1.1944012696476494,0.4322529545184297,-1.1800141237945192
8.18,-0.3989209334534092,2.4372994342860266,-0.1443929122228228
8.19,-3.070391633987507,-1.849960706848394,0.16240344689161673
8.2,-1.3814385361954455,-1.5356867659875837,0.4480035932319967
8.21,1.0115087049740832,1.994297643689144,1.0315426255580342
8.22,0.45300069999173453,-0.2009644463334599,0.8785761451884555
8.23,-0.37779401955296593,-0.33534761930938917,0.4667336652172169
8.24,-0.9791545355860523,2.051062059424719,0.2669608199845517
8.25,-1.5350589894077533,0.045112353912969194,-0.5508611861613016
8.26,-0.27444431272768544,-0.2367310957437343,-1.389380692346906
8.27,0.24525717017715265,1.2555159413960115,-1.0001739574211284
8.28,-1.1599501986466643,-1.0479663418409304,0.059948099079836725
8.29,-0.5292062719936501,-2.446092061850547,0.526239960744541
8.3,1.5013442840836517,-0.5234652231414008,0.14652349529346848
8.31,2.054151854127946,1.203001322576143,-0.5832353045790442
8.32,1.2485680011852156,-0.012259949600908815,-0.9712743373127355
8.33,1.925465014680678,-0.8447080302364277,-0.6557093813366077
8.34,3.375731333770617,1.0252523528779263,-0.40789024858855605
8.35,0.6325286216091963,0.004367620923706461,-0.0027152311231791737
8.36,-3.6956664211196504,-1.6704808703388485,1.4394589350150109
8.37,-1.847924103362053,-0.41237355369916706,1.8923815822586088
8.38,2.5080464066844153,0.7610280475623421,0.3471672324535451
8.39,0.5867210460610219,-0.22002402095776752,-0.7639330733205886
8.4,-3.640007198853333,-1.611759058354617,0.02539921951322499
8.41,-1.2555846878954173,0.29364898292245356,0.3342259046623607
8.42,4.242258351200261,1.1326197719916289,-0.6664312697592991
8.43,3.3172268054342338,-0.14429500265561976,0.14107676990157714
8.44,-2.7208547266793097,0.4319749928729767,1.7164430027823456
8.45,-4.138509918219615,0.7936965740602441,1.0376448114042929
8.46,0.2921046422697948,0.8993953030053676,-0.48654715438748625
8.47,1.2680812514360895,0.8616257356717535,-0.55741580586851
8.48,-3.2271839445709007,-0.7335628901100435,0.421558654408788
8.49,-3.100251706512088,0.0792659754263636,1.179503606841146
8.5,4.691822078449817,1.4325874457201868,1.3166660120799871
8.51,7.866137947197107,0.9006865743934344,1.1892635586320937
8.52,-0.5737357508744765,0.5494116540898786,2.0407911156012624
8.53,-8.251162781870045,-0.25591701657241,2.8796621887973197
8.54,-2.8639052559212796,-0.9825563088413652,1.3190659307055153
8.55,6.9911230667582505,1.2248904463486092,-0.34959112491505495
8.56,6.951993976355457,2.6215616961673827,-0.12153177105907875
8.57,-2.836306191326093,-1.5949610347047911,0.6020650285243874
8.58,-9.147578228369506,-2.9361085408850665,1.2083787387495117
8.59,-2.9185011294566197,-0.7960279832924622,0.8344093098848652
8.6,6.549180010589154,0.3339254336644536,-0.07134776204380805
8.61,6.654921202466912,2.0539084026643244,0.2992389384787753
8.62,-1.6422960402430822,-0.5777043027544515,1.7093661102310485
8.63,-5.684110090430943,-1.0239269944769935,1.6282412206510795
8.64,-0.3484086120324106,2.374465819792311,-0.2119705183763394
8.65,3.1562209441267193,-0.0965890521257009,-0.9431131960016221
8.66,0.41213991385325954,-1.718105877127174,0.018027005402495244
8.67,-2.220902293944888,-0.1681148288295004,0.8068083774353787
8.68,-2.5828888347919485,-1.5736836269920698,0.8290191114271148
8.69,-1.143210254134477,-0.7931388770088854,0.6482152812519673
8.7,1.4667406053684624,1.3193588987497948,0.28489090405769824
8.71,3.4387928787096085,1.1339953607464959,0.1449468376624202
8.72,2.5421753710381303,1.0513454221041592,0.44462287643369647
8.73,-1.2736484924114222,-0.499296005204799,0.1361136498252868
8.74,-3.010838972253132,0.22992359053193834,-0.28951792746216476
8.75,-0.8883478312689537,0.9347985359353619,-0.4039592862943988
8.76,1.2536235704056145,-1.0167272595452017,-0.5846754833788725
8.77,-1.0598483211140357,0.47405835583812395,-0.16397427870199532
8.78,-5.997965930251922,-0.1538319015152898,0.5379196447950343
8.79,-3.2648069405775253,-0.4781661671745794,0.37203643539150877
8.8,4.324606751447926,1.3629405478876335,-0.7490597062800254
8.81,3.626820854810752,0.27953138885694484,-1.556836058932505
8.82,-2.4143461137015927,-0.3892600564711246,-1.0380126190259247
8.83,-2.535730608738953,0.42069354898848077,-0.3062523171443776
8.84,1.477437871208405,0.9604438216052928,-0.5803621089285441
8.85,1.389893920898169,-0.33384613181010003,-0.978432920377195
8.86,-1.6295616162526585,-0.3857281766726506,-0.6891684150211683
8.87,-2.181677920994198,0.04336644686337021,-0.7454810263913343
8.88,0.365509576640769,-1.3417880608535573,-1.9533503410023154
8.89,2.0336099634623244,-0.5176820198867804,-2.025546273765203
8.9,0.013956644966899745,0.4586212268037594,0.035552769957591046
8.91,-1.9458051428289083,-1.8546807458634158,0.8984595471589362
8.92,0.07611703746290832,-1.9737734755662806,0.23764016393131426
8.93,3.233274204221126,0.9272000334754027,-0.2932389086850322
8.94,2.8758303250461026,0.9646011344513938,-1.1156836130589145
8.95,0.2456569028323743,-0.26733764492754536,-1.6550145424337848
8.96,-0.2722749290973572,-0.15240382158934063,-0.9991382948754315
8.97,0.9096539402203456,0.9115983148676781,-0.40464329733837406
8.98,-0.5135300666822182,-0.47551798597683614,-0.4104532894099278
8.99,-2.212982526407424,-1.0130408059990312,-0.21721471246022142
9.0,-1.3699518661787728,0.6257394857784875,-0.21234959960831626
9.01,-0.9612392204756809,0.34107251935652394,-0.6678489979116928
9.02,0.35139264717005525,1.1835701305029218,-0.9953487035299455
9.03,2.8356008231573298,2.3769268711941547,-0.8152074306884542
9.04,1.145395234227569,1.3542674222922089,-0.8333902901668563
9.05,-3.620611378060236,-0.6567768207373392,-0.8138987396133888
9.06,-3.0216685293942853,-0.6703032800904214,-0.03815081090396111
9.07,3.0502082638507617,0.04959337501354018,0.19061116494157676
9.08,4.478216943761238,-0.26529613836697247,-0.29844298136535113
9.09,-2.1979510488003027,-0.43233099562863736,0.7671824128599295
9.1,-5.352948915635761,0.6791657621705083,2.192331494013966
9.11,1.5943133051746958,0.7404567641752254,0.39387333462953844
9.12,6.842086279816738,0.5401289495604813,-2.4344525332731974
9.13,0.9619562654102785,0.06395361585269788,-2.1964805647613908
9.14,-7.009064346997269,-1.5623434951561181,-0.6436091957388982
9.15,-4.415240227112575,-0.49561837162961964,-0.40584536933285753
9.16,3.797257651672806,0.8099152258301267,-0.8930710419531043
9.17,4.23870197503329,-0.6758509528853822,-0.7879013505658105
9.18,-2.90907758585648,-0.5007009925830674,0.43682171240524137
9.19,-5.557947774888713,-0.5999961297573236,0.6312718438805613
9.2,0.8343486140192313,-1.5207334735420974,-1.062136445923094
9.21,6.081092433458896,1.2392578365046065,-1.9371821561610216
9.22,2.0650274612200947,0.591262613252225,-0.6056547152368998
9.23,-2.6431013944866795,-1.6725944335161684,0.8988226813741944
9.24,0.6940588839434798,0.9814728902033514,-0.3095398132821967
9.25,3.256031771956973,1.423303416548808,-2.337606123528258
9.26,-0.9712834754182853,-0.43976502091594155,-1.9733750002366646
9.27,-4.729337999338219,-1.2314926170862934,-1.0797139154238806
9.28,-2.946718548820652,-1.1197656042174882,-1.0077971754127293
9.29,2.381745080828168,0.1254454481148456,-0.6771076403960936
9.3,4.988666185847383,-0.45918068689156355,-0.2041348115509417
9.31,1.801323771528876,0.1265870106283331,-0.07294208813670824
9.32,-2.560464689447004,-0.0894298913443825,-0.749370655025325
9.33,-2.6960967995237883,-2.2941557350662376,-1.7944949532964927
9.34,-0.8512995749305072,-0.4404167464004374,-2.027480456331387
9.35,0.3812467045536978,0.9532417020238502,-1.6314001701883336
9.36,2.806053727200137,-0.6699844954736702,-1.612229260867619
9.37,3.116355126792447,0.8376485346661073,-1.2515467453874445
9.38,-1.623353114748995,1.730197026437573,-0.3971746197628521
9.39,-3.7767331785599634,-0.6894018544138192,-0.07638563354048603
9.4,0.09640762921169976,0.6723342391013305,-0.29898572091721093
9.41,2.0170146704119793,1.9613238587330786,-0.275712776926755
9.42,-0.3388158181071419,0.3609630164875033,-0.042048605347772675
9.43,-2.841866139894959,0.8672751230145141,-0.34179273888507716
9.44,-2.430638871809192,1.5854699265298382,-0.9411103602088333
9.45,-0.3754307133625656,-0.6524130374417787,-1.4038990301682608
9.46,0.43839307047835097,-0.7555988609859694,-1.1516972216609322
9.47,0.36501066346333877,0.8951083248708808,0.19239342262349413
9.48,-0.010895719113598934,-0.8782321342646491,0.9422416683118012
9.49,1.5086577829376164,0.8404041977603467,0.18090345061975155
9.5,3.7426860488837623,3.665857582466265,-0.34013437902839816
9.51,0.8385429253545222,-0.4524590697722304,-0.14009736041980186
9.52,-4.239859844074377,-2.170578819627856,-0.8826148321102799
9.53,-3.8411212199059332,-0.9090904152419088,-1.7903912288646848
9.54,1.5402322935809871,0.3692938896535596,-0.9749900214243992
9.55,3.8541075940895757,2.1396478557823024,0.6238378662809652
9.56,0.27439514517650654,0.11899585211884656,2.1228381559160585
9.57,-4.788412728408275,-1.901180142721109,2.711966398293068
9.58,-4.7128082262403215,-0.22357012673304189,1.0531060202932752
9.59,0.6311969297150877,0.5220436134679872,-1.5061436750894641
9.6,3.996904255752529,1.3900306614101672,-2.4929680770882827
9.61,2.14883075799709,1.5054809560110645,-2.1888158415146397
9.62,0.6590860798714439,-1.2088740435394496,-0.7440739105222565
9.63,4.184891341942236,1.4806439731753032,0.8309591832370236
9.64,3.5287317067976365,2.13308406798171,1.1467471312484132
9.65,-7.525148534840133,-2.04314364340888,1.4689606603760552
9.66,-14.00432546984806,-1.723083729138117,1.4204708230693517
9.67,-6.108543026144256,-1.479831084509024,-0.7611491419440894
9.68,5.474792021564185,-0.9378324444540227,-2.5398399691414313
9.69,3.343974620202423,-1.3015147610024929,-0.7123774278779629
9.7,-5.842053036852164,-4.4921311107439035,1.5758275773791186
9.71,-0.15458986523101537,-2.013182325535883,0.8516559312866787
9.72,12.805968234383759,3.68195834545838,-0.8877855655622735
9.73,14.429279103164859,5.38617189848339,-0.6735963980555881
9.74,7.780030799807469,3.4083392737678464,0.4463239878483319
9.75,3.4308764684959385,2.683963418910011,-0.4295099229641387
9.76,-0.9055626457310679,0.8884632786909585,-1.664535213825342
9.77,-10.575576415312643,-4.442765264738396,-0.3179727585051877
9.78,-14.85574672103035,-2.6613455164831477,1.5354160035587052
9.79,-5.504125277861164,0.9672113542591437,0.19903998107707532
9.8,5.162305817718803,-0.627832682811563,-2.159853221572479
9.81,0.6097799297198039,0.058978534780197656,-1.1848525039833557
9.82,-10.57858685997622,-0.18735800322874896,1.9269271948082787
9.83,-6.113316053773323,-1.6221567136795265,2.000805236169005
9.84,9.002370763751431,-1.178205374605419,-0.5115684479784659
9.85,15.117196369149472,1.6335193804472388,-0.7727739709229129
9.86,10.635311874802383,2.907259025156246,0.39986765001206914
9.87,4.232263440203994,1.6065226824026597,-0.4846477257288312
9.88,-0.5736033096784323,0.3626300823195988,-1.9305407051553654
9.89,-8.369847936221582,-2.25270665708109,-0.7570417870698478
9.9,-12.293891931508893,0.37349712207775454,1.9534861809481754
9.91,-5.534316113672615,2.934254428683551,1.147298405692943
9.92,-1.2768729479162226,-2.591828386971846,-1.4149808819264533
9.93,-6.565077513341451,-0.7943572127651288,-1.3497678425223296
9.94,-13.13958587701012,-0.5837513499812084,-0.430597206453663
9.95,-8.989998153282073,-5.2946150335979585,-0.5168340202614274
9.96,8.35356605669639,-0.9632389975098343,-0.629744170086579
9.97,28.754844759756622,8.630641664102338,-0.2288546531803572
9.98,40.30642555428969,18.2359135866485,0.8655167470482198
9.99,29.94140073357886,18.536928882998065,1.1714843769585037
10.0,-29.19456149749096,-7.972934495384344,-0.36359059187565923
10.01,-66.21282159052545,-29.718977014932022,-2.566863817325875
10.02,-13.037804766548518,-5.741305587865838,-0.8837020295199043
10.03,33.04107062258946,11.6303715971612,0.4281897599423477
10.04,32.61786157424451,7.574226349234528,2.1878027428149003
10.05,-1.6966421806959069,1.1036126001631636,1.8488835475598129
10.06,-54.408560029316504,-7.545445346282957,-1.3346571266327603
10.07,-22.97338836027931,-4.396650968765468,-2.120608327050191
10.08,27.617975485868342,5.764950726592845,0.2790831880668663
10.09,32.50091645806776,5.810604292510857,0.22551846512765583
10.1,9.90142276041577,-0.3044055135666275,-1.994566334609566
10.11,-20.096577222467143,-8.630017283617105,-2.4705450484837286
10.12,-12.307031311282266,-11.275249218141127,-0.617504032536182
10.13,13.901799203436827,-0.52978841631416,3.3751337175768032
10.14,19.203509270525664,4.668364429840766,5.2790354783329505
10.15,1.5665824717289158,4.056379667152358,3.7085665889196875
10.16,-21.49371727601917,9.981336430230307,1.570118735267595
10.17,-21.426078512419615,7.367969223255674,-1.597587331822284
10.18,-3.2796434786177677,-3.7475589255563215,-3.5452729811937544
10.19,10.140602358977926,-6.919151173920322,-4.8033950993280135
10.2,9.497139875451055,-0.5000857745072329,-5.373453423475081
10.21,-0.5883219076301627,0.7579007568641409,-2.279847723908862
10.22,-2.505239782447849,-6.517869769782412,2.2704155721939214
10.23,10.731926337769018,-3.5735185676937853,4.590564680141325
10.24,19.719979116606336,7.5381196674671,4.662805966202352
10.25,6.7446271406432565,3.0393229557408983,4.228078328073161
10.26,-13.622900309151266,-7.016843770006763,3.6294085803243257
10.27,-12.914019007973492,0.32716507933804095,1.1239524551563282
10.28,0.9810764394299349,4.783761831534888,-3.5250262242643116
10.29,3.382832525831084,0.27137662254653705,-6.662839537284056
10.3,-6.775874946519149,0.16527275908691963,-4.884210634603781
10.31,-11.560215531122113,0.9095500119284139,-1.9111747772762875
10.32,-2.841307958417712,-2.111312305421649,-1.7294257743298738
10.33,7.018194844878755,-0.04566279553277264,-1.2704920511018074
10.34,5.096826851183262,1.054780753258774,1.6899288513754518
10.35,-3.079759561448522,-3.01035696150297,4.6429643977641675
10.36,-3.340788109034268,-2.226606393365291,4.146968455374635
10.37,3.284231391787247,-0.5717583095701307,0.6409314924818563
10.38,6.029689982650537,-0.8425358678747342,-1.7771627356677062
10.39,3.0021023121694355,1.299373839757086,-2.406237276760307
10.4,0.8935245102466642,1.8150790164135502,-3.1770862770296926
10.41,3.112281003441438,1.267531769556601,-3.7909112197158343
10.42,2.379222024158896,1.41690679134391,-2.1938501615340007
10.43,-3.4525169006412035,-0.3705299873584653,1.0960303692224345
10.44,-5.442383714260746,-2.227597654259765,1.480002159418011
10.45,-2.054773831851553,-2.1880377721113975,-1.822276068579613
10.46,0.8283771391294567,-2.2738725383817293,-4.082782190916769
10.47,0.6891986419615939,-1.7979717714447774,-3.637492020138796
10.48,-0.6863993988746746,-0.058965326022101916,-3.493601013727578
10.49,1.1260358606019227,-0.73989522110511,-3.447464429915706
10.5,6.17762319883164,0.8895883429063973,-1.832004310340954
10.51,6.23927420985498,3.1558533241009754,-0.5381481211059176
10.52,-2.100772713778861,-0.4290099058355521,-0.2042373414561784
10.53,-7.451512124575871,-2.50699049200694,-0.5571213897717483
10.54,-3.237808370657386,-0.22242003787958575,-1.9381646447148633
10.55,2.61961841007263,1.3162910982764158,-2.608102106097086
10.56,3.568651412009169,0.7920930285671004,-1.2774608429262604
10.57,0.6273819568620436,0.5867730742405481,-0.01355236271538418
10.58,-3.5720860766414275,1.5939637392525348,0.5494692384322637
10.59,-5.509307091743667,0.908736762174867,0.8547120010285059
10.6,-3.024576441628684,0.05808230082676752,0.21051218469042188
10.61,0.8505814946621606,2.1472883024581724,-0.7304018728275772
10.62,1.7322431584062867,1.5352321134225635,-0.8035654410855402
10.63,1.307050978243239,-0.4653256406166642,-0.14438876913048349
10.64,1.7150940212091517,1.2937490934215727,0.5626900268345804
10.65,1.2157728276790256,1.8555512242685133,0.9199057130909054
10.66,0.24653649876512362,-1.362145459018076,1.0168186786776472
10.67,0.5019279091421606,-1.1127392167852639,2.0419495256382487
10.68,-0.7246345279689115,1.8775953366193336,2.839178338326964
10.69,-3.0697719776773864,0.8906381245866588,1.733283351848883
10.7,-2.914673743704952,-0.037156512342685494,0.09512402252168517
10.71,-1.156586852920153,0.24785564069774974,0.07610000968946529
10.72,-0.09268694291754542,-0.24680590501139726,-0.26341604125988577
10.73,0.586457447541664,0.052808575034074434,-0.8817044441719072
10.74,3.05936530929545,1.5656598092479055,1.1353677356279734
10.75,4.556037582491286,1.6566567566578825,3.9339816943185753
10.76,0.7989833617413757,0.7571204440304542,4.088640286279789
10.77,-4.109037018411785,-0.5563940050807097,2.6735396922352086
10.78,-2.9782588260256433,-0.536449321036418,1.7651186882311871
10.79,0.9807196689088102,0.18030388672948142,0.324359551067559
10.8,0.05449195615222768,-0.3236880827415356,-1.9252732706475177
10.81,-4.434276770250547,-0.9643593904263418,-1.1365505793501152
10.82,-3.8312498041800658,-0.3577836124838205,1.524334038058781
10.83,3.8667448745317503,0.27088888362316377,1.694972727311693
10.84,8.371859021118029,2.1192173149432194,0.22494482759808343
10.85,1.9161544594340532,1.9672402578567727,0.18288984505000822
10.86,-6.4768750442096525,-0.5373484699612456,1.1513318032822684
10.87,-5.559692176681949,-1.3974809679631788,0.646813628767363
10.88,1.7191285576292477,-0.8310217530445756,-0.8341101651056052
10.89,5.2872105434653935,0.20423468260800404,-0.3921599702706271
10.9,1.9084541452318025,-0.8502546589799828,0.9107385315048344
10.91,-2.0052290942276114,-1.4397556613116556,1.1246371717026078
10.92,-2.9168220638610256,-0.7432238916487167,0.15612998292161562
10.93,-1.5970848774563062,-1.6562144234590601,-0.44497284800020687
10.94,2.1122302898321452,0.23665730899250859,0.5136067932270462
10.95,4.7344918369917,1.5078950530487452,0.5654265571117094
10.96,1.566948254877368,-2.1095537685721615,0.01603664363888857
10.97,-1.2638043277005553,-1.3656037326738102,0.056426366769216224
10.98,0.34254289052745546,0.19347576379626813,-0.7869807652011829
10.99,1.3159944818116274,-1.654088807423027,-1.696298511472456
11.0,0.10421605791060062,-0.08948316727458572,-0.643966737846368
11.01,-1.6028988774459534,-0.36551885452986066,1.1743456557524772
11.02,-0.5562481516410287,0.3158864521586384,1.6315811658104684
11.03,2.2941276965066866,2.294274655890892,0.8129504878613293
11.04,2.262424559242381,0.3537544517797433,-0.404030707779436
11.05,-0.4252950840070162,-0.39614810606052864,-0.5130963510902025
11.06,-2.6841365794258087,-0.4028981481198129,0.21550189602220454
11.07,-1.0650405974844248,-2.683175751800511,0.5491899424245371
11.08,4.0569267856526405,1.2248531816094381,0.7268398853675608
11.09,2.7277136727087243,3.2870137220081403,1.081708705898919
11.1,-4.822584963247289,-1.7686981138425768,1.3842439523521977
11.11,-5.963381689130701,-1.385147930097911,1.2090369462989061
11.12,0.36775398299150996,1.0241214204154905,-0.23223948136726547
11.13,5.4436599894796975,2.132775312995257,-1.1463594618673818
11.14,2.8581597592855914,0.9577716882644012,-0.5810236529303427
11.15,-3.2161925465935566,-1.7065823287437276,0.7981469364922638
11.16,-3.7946481313118827,1.8862261489643561,1.2827947327192857
11.17,-0.48012759501950386,1.497357340473279,0.006275358861225433
11.18,0.9352083457915733,-0.5461365680811243,-0.9773748204582013
11.19,-2.9115606987560305,-0.066062233366598,0.08584116268609576
11.2,-6.80323306574995,-0.1485896414709552,1.0699361214898686
11.21,-1.5580488159173136,-0.9051019810718466,-0.3498916543840578
11.22,5.735870211211488,0.06432788265155631,-1.6752128079305746
11.23,4.3096525082305135,1.8306544732644268,-0.6254974888287148
11.24,-1.3307695292493507,-0.1192094160416719,0.2147755251005812
11.25,-1.633873257533719,-0.5039649482655167,-0.4364964092187699
11.26,1.1374949090015203,0.9390879864784599,-0.4213094166775699
11.27,0.5239764061717425,0.20637921629910538,0.2908885833895576
11.28,-1.7555600486657539,-1.3141695925454704,0.7694389198270573
11.29,-0.951922509355581,-1.5839517737212936,1.076752930763593
11.3,2.0847252210024583,0.03350603491423154,0.5109568850695424
11.31,2.7386697441924825,0.8692591001328566,-0.43209446674751606
11.32,0.5187242505316578,-0.009791064827235796,0.5220308769295824
11.33,-0.06527770107926978,-0.15223363566228593,1.8404049535867546
11.34,0.6564409808373239,1.076457221833334,0.7556951553218347
11.35,-0.5537654699020209,-0.1689938181396924,-0.39463662694849866
11.36,-1.500805530441292,0.17190941526788794,0.06761751500680613
11.37,0.09691349254598247,0.8853911495288934,-0.3229924824801216
11.38,0.5903920508303291,0.6648891330101565,-1.341358375215004
11.39,-3.663907107704592,-1.1346180878047383,-0.1506145791395952
11.4,-4.759841094165267,-1.7681851730583789,1.8806055838920912
11.41,1.1935363395737992,1.9437318854581513,1.7555206672724861
11.42,3.7214109325312767,1.8373434814666736,0.1891246899096073
11.43,-0.37806698844706466,-1.3142682071962486,-0.6278270941930679
11.44,-2.226122662290552,0.48660505337373294,-0.6020441413998321
11.45,0.4731715082175696,1.601200367706497,-0.6222033931912827
11.46,3.3572150143181556,-0.5563679844407299,-0.6898471069551283
11.47,2.502645269313313,-2.533551950463697,-0.11446058019573369
11.48,-1.5073270739350753,-0.8000321025878496,0.996667407470554
11.49,-2.5239935922528534,0.23732930460030724,0.689809740299957
11.5,1.0986327520393346,-0.1283093225886871,-0.4806591868703505
11.51,2.468173814720543,0.5468786034414268,-1.0088217290328152
11.52,-0.8219464744098706,-1.1578499519908236,-0.7336460892308535
11.53,-1.8485085356386464,-0.7763306012749078,-0.699773860808301
11.54,1.5563870108578948,-0.6518177142046286,-1.1194246916025945
11.55,3.365608974665753,-0.0741781870219047,-0.6422850341471484
11.56,0.6066637636254395,0.141269562170187,-0.4616262868292352
11.57,-1.9915168999683581,-1.492011436223087,-0.35298767060657243
11.58,-0.07635420154866113,0.04024742633425493,0.6395885082239157
11.59,2.6578219382109154,0.6757574165023128,0.10948677561881404
11.6,0.6450972248702009,0.8101851275498186,-0.5387214157475502
11.61,-3.5791079525379246,-0.4339812212402586,0.1952048839979127
11.62,-3.250781382526786,-2.3722289167203714,0.22374027319734863
11.63,1.591286029294869,2.608916025426566,-0.9456989504815055
11.64,3.2937164153548975,3.2706414292716994,-1.2019825755835873
11.65,1.1707384074562115,-1.6639740476976206,0.3010125119269482
11.66,-0.8353220485726185,0.9237139869020385,1.062960583517305
11.67,-3.789642579990762,0.8422314210832764,0.2400553681287073
11.68,-3.6850232935672844,-1.5962944182356622,0.7330243454914571
11.69,1.087929965403791,0.4148879233323348,1.6634194392907735
11.7,2.830779593867536,0.14392512507858468,0.7006903771078066
11.71,0.4111011047368871,0.36491105960861625,1.0462862690877477
11.72,-0.34429077483638315,1.6990143380063278,2.3972377505995217
11.73,1.3773440752339985,0.2167312184109842,1.2155101897786835
11.74,0.8315398054142609,-0.029705056549700903,-0.40925858369297297
11.75,-2.4112254378026945,-0.1728330606474466,0.19255975689831217
11.76,-2.478963490374426,-0.30613737410459047,0.8121859663949142
11.77,0.32680747485701467,0.8026402400856687,0.2719267864069831
11.78,1.2877159411335932,0.024436852870870718,-0.019086584978188888
11.79,0.24946317601817958,0.08897542782393364,0.8706454924642942
11.8,-1.3109266447001557,1.2407567876852468,1.959087337721163
11.81,-1.4412397774664583,-0.7142609103231612,1.7618164283845523
11.82,1.1622337869077357,0.35381640937310377,1.2741479659882047
11.83,1.7938101189286644,2.1011358234302904,1.3602835691603081
11.84,-0.640265303606701,-0.16760462730959524,1.2616944698890344
11.85,-1.790429386681716,-0.37299308610132154,0.6781724877896174
11.86,-0.31196743998096554,0.2692011908743278,-0.2890652416612487
11.87,0.6626487416256169,-0.7639850519679278,-0.002648899859286624
11.88,-0.17776687275433534,-0.49172731646256107,0.6914428323065118
11.89,0.14379963164916887,0.62229684012104,0.7448036132950588
11.9,1.018475994413946,2.7321494462928433,0.8464479168066432
11.91,-1.3919173802708122,-0.7399305982378528,1.2520158581411382
11.92,-2.6147373883694245,-0.8724687161260734,1.3983686839390337
11.93,-1.1581547022990217,0.7982982623909418,0.4167524280799131
11.94,-0.7324606932874043,-1.7461138823036098,-0.39706789121290953
11.95,-0.5825886307139896,0.20369233250100605,0.11771848290594789
11.96,1.371047845365182,0.2665785164567793,0.9774249638781565
11.97,2.941236453299647,0.260833841072746,1.139006181774149
11.98,-0.07472800404252444,-0.0837125393874536,0.8876673749522848
11.99,-3.775768756427023,-0.5477785504975892,0.892346155754443
12.0,-3.0191481058891694,0.7702047727555432,0.016933415768044746
12.01,-1.3523071514777605,-0.990834166249859,-1.084791302500259
12.02,-0.37975172321249917,-1.9205023466063633,-0.9821396462595607
12.03,0.6408355469552334,0.5815514616780084,-0.0898092566386427
12.04,2.875149827469806,1.6263185756944025,0.3691835659590036
12.05,4.403141478626309,-0.22072155846658736,0.42889474639334013
12.06,2.17756515188329,0.0614375231775236,0.09968085926403203
12.07,-1.5556750596220685,-0.4753815788180921,0.21945640754111964
12.08,-2.603234783611311,-1.287224928538384,-0.1584318515600776
12.09,-1.0936824018139173,-1.3875144352589908,-0.7680350661603619
12.1,1.0358789958207164,-0.48862615887906147,-0.19035809929964598
12.11,2.76798012871567,-1.1688982935082557,0.6237668768387564
12.12,1.7404573632466667,-0.8468332601566656,0.49408431270238473
12.13,-2.152422170452877,-0.4267757839509637,0.12599172447216853
12.14,-2.079921461776458,-1.6324657057075993,0.2131618087276281
12.15,3.1514168068719055,-0.9090338752714184,-0.3679970863331775
12.16,4.988656170096635,2.545189388079585,-1.245861021508568
12.17,0.4977957408155289,-1.4317981863084959,-0.7836969592108363
12.18,-0.9009383871328772,-1.822843260655141,-0.1425433471438849
12.19,1.6448150587670258,3.0403380632776202,-0.5934315374945959
12.2,-1.598316340586913,-0.6621905215071484,-0.4305112001056001
12.21,-6.043042520661487,-0.6959622707157107,0.866454052655852
12.22,-4.19176007578306,1.1072694196846495,1.1807192805513729
12.23,1.0927772340182211,1.259032225385567,-0.370110581807912
12.24,3.723396631012643,2.316519119199593,-1.4007512301277594
12.25,-0.22382853244487588,-1.4664363554487436,0.09953626737089794
12.26,-2.7379300405944433,-0.3671493744523726,0.4812246437050357
12.27,2.2444434473677437,0.5705913637497134,-1.0510643143467018
12.28,6.225715984428756,0.10943874233162976,-0.8578034513855949
12.29,2.1231108038600386,0.7595246415629878,0.42538244598354324
12.3,-4.4450977283678395,0.5135011087607488,0.6521173271973314
12.31,-3.7396858253092007,0.9288644131235294,0.349102803220315
12.32,1.3699124383803833,-1.8529517624594287,-0.010652699174308167
12.33,1.9274822748794236,-2.0133064305664528,-0.5858267847386434
12.34,-1.4230309356148303,1.8805175633769158,-1.4640896190076926
12.35,-3.6587071869072565,-0.997331090826798,-0.9218871149846979
12.36,0.46935040560599983,-0.7251827102700799,0.7831939764285032
12.37,5.491075082712556,2.085537324771668,0.8998040428027698
12.38,2.729698126898008,0.36314744384316633,0.13485534162490054
12.39,-3.288132854456527,0.25709617602926543,1.2392167092479238
12.4,-3.3084544547115984,0.2167009794022467,0.37071145272019757
12.41,-0.7139726075472805,-0.029657860720506815,-2.4272038231213693
12.42,-1.4662088908439908,1.4237955671872247,-2.475693038896942
12.43,-4.70815677113225,-2.6704018455626675,-0.5934522613546807
12.44,-1.6946595558553073,-0.3298879224790525,0.3751342870154683
12.45,5.278049264616051,3.908976110324748,-0.16311514184395826
12.46,6.686458992971226,0.6727358738725293,-0.8596290738660171
12.47,1.7563893950537999,1.6080547193586163,-0.4869895053955682
12.48,-5.285384352115529,0.7408008753349642,-0.2918960673672471
12.49,-5.700939592945928,-3.2375329249744507,-0.6486897816592235
12.5,0.5101663986621237,-0.5515739637693544,-0.8609150335043557
12.51,2.611472364845661,-0.4452321007146761,-1.397253216346908
12.52,-0.3761343580859773,-2.226023186010284,-1.101136478934821
12.53,-0.01900129185978683,0.27665148501979075,-0.6435072122229281
12.54,2.3648526044409652,0.020911939350628073,-0.9849171489169084
12.55,2.4094288524358665,-0.35430054202628314,-1.3225186513000113
12.56,-0.0730488816942425,-1.4309415883944117,-0.553069178778086
12.57,0.8841419693194172,0.7893005912033217,0.06456325359107168
12.58,2.8585315631492882,0.7113764895253044,-0.8962788216325106
12.59,1.3898350606418535,-1.9602428636091696,-1.6722529387895342
12.6,-2.2074731938559413,0.7012343697665062,-2.212468095054809
12.61,-4.590649161941121,-0.11098534418525152,-1.4826238720135474
12.62,-1.3565095138377994,-0.36950639048359707,-0.17449669347204866
12.63,2.0202078587157883,-0.009125162724058916,-0.6621494539256092
12.64,-0.2504022909358117,1.5220374753509152,-0.5251871392237315
12.65,-2.8078610700477102,0.754175283896813,0.6327237827800343
12.66,-0.42591505845466937,-1.7094858914159723,-0.0013695013651200405
12.67,4.3879253123582656,0.127471909312189,-1.1009968564461357
12.68,5.146522645896016,0.3014010539753468,-1.0775495392435688
12.69,1.9977112601359068,-0.5094264058587039,-0.17349706609567117
12.7,-0.3640561942068652,2.386719022167286,-0.14056738344047792
12.71,-3.1086109059378515,1.1107181447193595,-0.13467053508819343
12.72,-4.783874999946464,-1.6942054892283813,0.6090373568928381
12.73,-1.7597257088314522,-0.9438395506920654,-0.31125692442689246
12.74,0.4094287450516465,-0.9718956636776874,-1.2793527780636889
12.75,-0.3639360207192541,2.0285813272977142,-0.7397640383463956
12.76,-0.17283645702584838,0.39756212350016007,0.13349369645538056
12.77,3.5496024324942153,0.6521301038858096,0.08268171371207769
12.78,4.994245368705731,2.7524926856787575,-0.5731204404041065
12.79,0.423814617890252,-0.23447058223723571,-0.2246283151487134
12.8,-4.820551453561002,-0.9013037621249315,0.36955379442699016
12.81,-5.437442020522715,-0.9091969006910989,-0.006147006131271615
12.82,-0.5310684044800986,-0.9088236515942585,-1.3990882455630906
12.83,2.9429276057203797,-0.7137218380151988,-1.9073147318346333
12.84,0.5799423457538859,-0.44596445528012546,-0.6958281713162953
12.85,-2.624960863826172,0.19744070767484623,-0.31546760816286373
12.86,0.04220530491578334,0.09590547857200127,-0.9775264166172652
12.87,5.446860076833678,1.1649466961861799,0.08238485889066394
12.88,7.086454270383559,2.1443178778484695,0.36409090418515805
12.89,1.2649657457589525,-0.39980001276664634,-0.7994883471231046
12.9,-5.682355054340108,-1.0788254918663238,-0.2517104657039114
12.91,-5.037624798808631,-2.72294380467032,0.6668097899451476
12.92,0.8330779298722764,-2.1095357770163865,-0.5176897650931963
12.93,3.2853222759123475,2.2768698240365346,-0.7419711635119638
12.94,1.9045513098389177,0.9362032670239913,0.9725312444864057
12.95,1.6149276066732128,1.0073672756719259,1.6147187127202416
12.96,0.20883114040171646,2.0658993790600593,0.15822354447049758
12.97,-3.960548734034225,-0.648271068709259,-0.17283815261738916
12.98,-3.677354008288443,-0.6092623277067192,-0.03605824967448619
12.99,-0.9572456047699762,0.526004964408111,-0.44156135391944024
13.0,0.3123343085942098,0.3162280653569913,0.1429235394280235
13.01,1.831462619583962,0.6552815822688547,1.8772034187411029
13.02,1.918891982603049,3.041354664134797,3.125861688738872
13.03,-1.437242120857668,1.3811541925319255,3.6633469952392104
13.04,-3.0410717482252396,0.33500159800637397,3.4011232129133564
13.05,-0.16314831671191454,2.1498625571661716,1.9464908276798039
13.06,1.1375447373086156,1.2402526643618699,1.2107745631446656
13.07,-1.8289749323467746,0.3130152325378043,2.153641744630632
13.08,-2.340329381182956,-1.109652124290977,2.147261468437455
13.09,2.001585383845237,-0.6720482860392963,1.4467349289954723
13.1,2.9714673934147444,0.49467679402586107,1.2710355425998605
13.11,-1.4075222319320688,-0.5119039614502213,1.1382027103151244
13.12,-2.7750127394335364,1.9580293519581704,1.5478571696615995
13.13,0.5317104285833483,0.556420563922448,2.493698960025978
13.14,2.567833527493402,-1.327452169129482,2.2762321441485867
13.15,-1.072716930075321,-1.1274865154921345,1.3288077858267369
13.16,-3.8874547323079325,-0.40195751310483574,1.0821528524263098
13.17,0.4930809346071401,-1.4151092289331857,0.8597662257324299
13.18,6.852968812610031,1.3635608895919338,-0.12274042380048056
13.19,3.1695495030385645,0.9575933403190302,-0.247215687927683
13.2,-6.9929427806406075,-2.3646792193854083,2.381052968146379
13.21,-6.479774186948016,0.23964847487474827,3.2459874520851573
13.22,3.0853923303732804,-0.16889317250312708,0.30325668622678936
13.23,4.671120819797031,-1.202589255176962,-1.0917024294481281
13.24,-5.148743871536105,-1.4171274832485752,0.015717732363635273
13.25,-9.18974891994965,-2.484523642727828,0.15935259602076585
13.26,1.9684586421483825,-0.9009758461328226,-0.7014798020457806
13.27,11.981320329325207,1.9762920390353451,-1.707924372457635
13.28,7.071496693915169,1.8614005800394215,-0.8715834381579779
13.29,-6.00508435947424,-0.9468864040899507,0.9092084048911745
13.3,-8.274132376875148,-2.285332065710797,0.947766983639743
13.31,0.563673732599824,-0.45008275434444345,-0.9572789973368194
13.32,3.145874618038121,-1.0653078244389145,-1.3612754541770444
13.33,-0.8357728861289613,-1.4151208251559069,0.17043636048651756
13.34,0.7170776308209748,-0.8553027696522708,-0.41556774435395305
13.35,5.802319092526558,1.1987192092397052,-1.6473960927317908
13.36,3.0134634615008307,1.1527352982032206,-1.0779436157325737
13.37,-5.666960524992513,-2.900845751886945,0.28110464377882505
13.38,-5.952075469059629,-1.5906050530705187,0.7698451326368032
13.39,2.7665727529251907,0.08608084098906121,-0.46462436677829
13.4,8.247109759359837,-0.17335056473354749,-1.1020998532303947
13.41,3.9082789003042597,1.0543363735993205,-0.05263954299020046
13.42,-3.638768068094074,-0.3303336410472004,0.2467514480958804
13.43,-4.321902910855867,-0.8539938595499477,-0.20263374193671346
13.44,0.8869936920769605,-0.09727937771703121,-0.5285657436253297
13.45,3.665911012395278,2.0958612213416226,-0.6222216370917113
13.46,0.6451522723893905,1.5421518104777956,-0.20132628372653838
13.47,-3.164050742114607,-1.1712048472710883,0.5536619683113455
13.48,-0.14604699744255756,-1.274694016170999,0.10662042241477931
13.49,3.5965743050669174,-0.6332585924683856,-1.030638492534404
13.5,1.2064290216458473,0.913425695091462,-1.345185241765698
13.51,-3.182865922614741,0.8528366318605891,-0.2880923685134704
13.52,-2.967333449982015,0.0884377090931473,1.1029672265628558
13.53,-0.0984030825177653,0.2811124745033323,1.3334086653150379
13.54,1.142771064211578,-0.3905869667685602,0.17156761206491122
13.55,-0.5543114832012241,-0.1691505599940153,-0.3004873245006346
13.56,-2.58926041289479,-0.475485362048086,-0.5674961948055084
13.57,-0.15767328294889094,-0.9003124077484405,-1.4914527795340793
13.58,4.3556944326457865,1.8119638711239863,-0.41863897403323147
13.59,4.277712346917593,3.0354639374777843,0.39417467593006544
13.6,-1.3426513607431367,-0.721152429504436,0.26258575322476324
13.61,-4.668445926928328,1.1473665668638484,0.6629137881864046
13.62,-3.9374256269465233,0.4178051595521306,-0.07566643733979128
13.63,-1.6918780978567547,-0.8181793318122926,-2.3556186593336994
13.64,-1.8733200878567027,-0.3555424447541212,-1.7634344111490317
13.65,-3.0126202556920223,-0.9511005534492796,0.7497316168261805
13.66,1.1000191688524859,-0.5641310262678103,0.277765108250997
13.67,6.523790733006896,1.7114757383256516,-0.869141731618258
13.68,5.849495542468239,1.384949057081152,-0.41524794688577604
13.69,0.59125733893325,-0.38596484812641996,-0.2642825695584543
13.7,-3.5922134073913754,-0.040985150378531454,-0.7073050285940815
13.71,-3.4625403496541107,-1.6898327343330355,0.17565644117262436
13.72,1.064741785820019,-2.6617468007619713,-0.15315106296215059
13.73,3.332532746774886,0.6038234497744894,-0.8488138129661698
13.74,-0.6340502032407076,0.570502374947072,-0.1322126833078937
13.75,-2.8344231946813574,-2.8290383996286708,0.4279480561231836
13.76,1.8356930913624363,1.5094888180813113,-0.45341165881397894
13.77,3.427302644959712,2.1831177946629152,-1.0084199509188294
13.78,-0.2732868213348909,-1.0292293848971004,-0.18036419033907425
13.79,-0.8773216533646923,-1.1920289264447947,0.05920955522052978
13.8,1.1386815997130246,0.9467341261469655,-0.7818664531237216
13.81,-0.3912596866787148,0.8544994463141161,-1.3473732832243994
13.82,-1.1656624570290186,-0.89019081984556,-0.1988642625131456
13.83,0.4590091606808284,2.1130730215770375,0.06647717706536463
13.84,-1.1876190416653887,0.59424060711827,-0.47270887526749683
13.85,-3.3589461659629256,-0.7347284603370033,0.3266691535586457
13.86,-0.4547197550229103,0.9486670182387413,-0.5527848705109515
13.87,2.9202036347294196,0.8125895066874816,-1.324178682778082
13.88,2.9520065555427184,0.7802952048287254,-0.7489276096876513
13.89,0.9511123563740309,-2.787334821788307,-1.0074180212504327
13.9,-0.6673331159911567,-0.17881233091457327,-0.8587935433627045
13.91,-2.9071703205901267,2.475106332262237,-0.048272353856842254
13.92,-2.5399299652394602,-2.3988945089906526,0.24575012239622235
13.93,2.881545483505752,-0.07679034652305106,-0.37307630687789045
13.94,4.314825125666951,1.7432687928806474,-0.9892581098743989
13.95,-1.7111870055703182,-3.0863960174391023,-1.1486152771304963
13.96,-5.148840325158766,-1.9677107272517795,-0.698914646305
13.97,-0.5308403907755723,-0.10838006770829733,-0.08419108633267147
13.98,7.027402899754442,1.122996820521071,-0.1737886253419066
13.99,7.722480987497349,0.4071100243015594,-0.843796973573507
14.0,-1.2249730218341437,-0.13723583544015697,-0.26609988858000966
14.01,-8.026741623737863,-1.604184967590251,0.47600909367742905
14.02,-2.820850106422009,-1.988970939141426,-0.5348978582440097
14.03,5.449091217416282,2.8256061852769565,-1.7191723610172471
14.04,2.317962437841638,0.8159732054799802,-0.3634145414836014
14.05,-5.916116164792481,-2.644049442691041,2.5572110660026524
14.06,-3.290914435827169,2.256008244550793,1.971384919000981
14.07,3.458366946184295,-0.7155160155050919,-0.46728223809845515
14.08,5.252394461428043,1.2179782765478122,-0.49424537676881714
14.09,0.5203619179868859,1.375644298084889,0.004016092860042841
14.1,-3.9144280346332936,-1.3430990852220757,1.2609107341196184
14.11,-0.9795419847880611,2.977093017999971,2.0760463484247693
14.12,1.998254585701255,0.25193774455134266,1.0888786189917892
14.13,-0.35608001949549317,0.42032238634904784,1.794088413298656
14.14,-4.846272451153301,1.9947636559472905,2.3098609647658064
14.15,-5.112972740032898,-3.1930995108452245,0.9288072833018481
14.16,2.7680708021876415,2.013273438485035,0.5625969686912151
14.17,5.496025617422993,2.434089575487467,2.0411246259771536
14.18,2.577559850247231,-1.0838875294443615,2.7001611003130406
14.19,-0.11445791522141358,0.02163177563059593,2.192896772218119
14.2,0.11162442666335765,-0.3277031391983021,2.165370752477909
14.21,0.6590062075110479,1.0958835067799615,2.278087340916046
14.22,-1.2347209020031569,0.10245249809477053,1.7238574328869642
14.23,-2.375266012924487,-0.3838113028454949,1.3849451259552548
14.24,-2.390080689563086,0.773111185263867,1.7441256214218854
14.25,-4.121625630603644,-1.431638646472359,1.5038108641233443
14.26,-2.9719764204098955,-1.5854068502422276,0.26534057551282597
14.27,0.6930016498821128,0.2966557442368831,-0.4836811383655595
14.28,3.2677105856402386,0.28300608965797197,0.9143951554421266
14.29,4.835750571663935,-0.8561201450573682,1.676480611592459
14.3,3.3161187729721044,0.11477158252568187,0.737392346780726
14.31,-1.010334232245972,2.08383342213153,0.1297159824690064
14.32,-4.220820439756839,-0.6064722328749177,0.6879821435157703
14.33,-2.852473005499358,-3.697493468569597,0.2799888118242351
14.34,0.17015549497314542,0.3857858299219137,-1.1923551354292152
14.35,-0.3927428083200645,-0.5285174546731122,-1.3354257775507556
14.36,-1.87373826335151,-3.3699799089629536,-0.1653639232108104
14.37,-0.5013217897578206,-0.8624205817487751,0.22556151199062371
14.38,3.499763784279136,0.8074842892753731,-0.6170957374343968
14.39,6.040262765271804,1.2160849818162387,-0.9543468033623226
14.4,2.738750086816788,0.20981113518467542,-1.0487313608479918
14.41,-1.9863283317400766,-0.6818257543447968,-0.9464707001671847
14.42,-3.252241024643377,-0.01320038284984515,-1.6055006029262109
14.43,-3.447850033423856,-1.8122551530676245,-2.2201767645593566
14.44,-2.4340737151872,-2.3344041120974937,-2.1355815351388134
14.45,0.42367524029103754,0.16218526803567412,-2.1116305927126646
14.46,2.2522644573552384,1.3796201032032491,-2.580438482268593
14.47,2.5936776611787096,-1.2868820672935535,-1.9949783174912739
14.48,2.0341481292712533,1.4966181953573505,-0.5526904166022764
14.49,0.26572548652078853,2.3568284719295445,-1.2718318556499244
14.5,0.0592933684001182,-1.3694338924553322,-1.3798250618861307
14.51,1.3628291185462214,-1.012115356544808,0.08875537558072977
14.52,-0.6368584489035789,-0.6244676680977923,-0.6482302695940475
14.53,-2.603698897761215,-0.22466660318109366,-1.663524061957875
14.54,-1.998183093929853,-1.1012238388779154,-0.629723417521999
14.55,1.4530893031550065,-1.3124600178390713,-0.008939358795673258
14.56,4.89392832881314,1.8164812507864738,-0.8568683191757689
14.57,3.5325699939119417,1.9212407060614092,-0.8687427404923661
14.58,-1.3201683660802308,-0.398929359216986,0.22022786326694133
14.59,-4.014932269263672,-1.0303051785937223,-0.11668663921916683
14.6,-1.3965738290628136,-0.6417751497645132,-0.9173318999431417
14.61,2.3565052732051703,-1.2674944648501287,-0.7377465369598328
14.62,4.437178312478304,0.8433343500973247,-0.6865716731614837
14.63,3.2818464642575336,2.2421285535871522,-0.12658074120972895
14.64,-2.28104055800414,-0.03924360175825958,0.9322157612463501
14.65,-5.283115148569773,-0.034760780169201866,0.9784910031233673
14.66,-2.487246102609625,-0.13828350925119423,0.6227959628838371
14.67,2.755268420919357,-0.18371012823115362,0.6113743148149128
14.68,4.2604713478474165,1.4185744648521197,0.6145888275838837
14.69,0.9077390004326182,-2.398387065235404,0.59898888126359
14.7,-0.12383388468240897,0.49461281770176013,0.6581152978742483
14.71,-0.2510885061918518,4.653074978815324,-0.2829200551808797
14.72,-1.725961080864241,-0.8884854021358519,-0.24575484654519314
14.73,-0.07173297441388504,-0.9583794187643202,1.7777557902045793
14.74,-0.06312092410132664,1.9466353514456674,2.1039078112834484
14.75,-3.2233682659881184,-1.0206547579683156,0.9726598317780564
14.76,-3.23225572046108,-0.6905931689406898,0.5640418612003857
14.77,0.5727600963119857,-0.24762723010549031,0.137263605393802
14.78,3.633802880097183,2.2811250790859607,-0.5245989344861652
14.79,1.1902938660949056,1.4488937546071403,-0.22827102447870973
14.8,-1.7526983198775512,-0.04189645529004604,1.3992887858924328
14.81,0.43970442582719027,2.7771792239535897,1.9670526096679912
14.82,-0.947652881713329,1.1265555292914167,0.3710174477497703
14.83,-4.381012704346265,-0.99914113072187,-0.42667030988748106
14.84,-3.550678882646384,0.10357903630217069,-0.908363116238214
14.85,-3.2201384977875662,-1.7525898078227007,-1.6914469911059642
14.86,-1.65560393302462,-0.167991384636742,-1.3491381768971489
14.87,2.463382221733001,-0.43796809097651546,-0.8629476828301893
14.88,5.8170957556614855,0.7048625920490156,-0.5193898029936408
14.89,3.9284838224151386,2.359283601157391,-0.630396536946531
14.9,-0.8509743683520643,-2.1206193917770753,-0.22948458812446637
14.91,-0.6616539631831113,-0.13179524571363155,0.5464012925939723
14.92,2.0902658260728226,-0.18181859333465653,-0.20819278365407823
14.93,0.8564807940210173,-2.9705450043099377,-1.0741704807910843
14.94,-2.760175794405697,-2.584820456743452,-0.31148272483428996
14.95,-2.9354429873866024,-2.163712111425113,-0.3915302953768742
14.96,2.21336251667145,0.5996002605191753,-1.5999411280463511
14.97,6.034033042848498,1.5347905820852685,-1.6863641821470292
14.98,3.412162451145085,0.9839271223373816,-0.05304781897244859
14.99,-4.031161737393887,-1.0528075539648074,0.8294022785211703
15.0,-5.31090214347862,-1.6908115426610977,-0.3073019381085884
15.01,0.41683540348250947,0.3820630872691251,-1.4552815177689313
15.02,2.7873770077294946,-0.2077211229849214,-1.4412673690845192
15.03,2.890378644905297,2.7713260650339393,-1.918930163965251
15.04,0.1668396497398823,1.161721402193087,-1.7351220512498076
15.05,-4.533736861177364,0.9486410917819746,-0.23142898737186401
15.06,-4.959941366436672,-1.3311115270673208,0.338194381087475
15.07,0.6461552179174497,0.18582082710821068,-0.22153448069135462
15.08,4.425434691017496,-0.22102324347257496,-0.8767396279115586
15.09,2.8861896444516795,-3.4959339304102337,-0.907589530802491
15.1,-0.5752517392934378,2.383884797483532,-0.6268212696237614
15.11,-4.220044311899201,2.0591317311610045,-0.07805376171481448
15.12,-1.4646886733925242,-3.1792140225165983,0.21410023190777636
15.13,5.470600848233264,-0.8542214860915229,-0.9798857813955043
15.14,4.486322129541119,3.0897614475265467,-1.7948208324109938
15.15,-4.700982266077491,-1.1530322274586546,-1.222264324574144
15.16,-8.29838153287411,-4.1793516201947485,-0.3634225611461558
15.17,0.4635593696667506,0.5255141372754899,-0.3110132266417359
15.18,8.584839333520517,2.3259202650679374,-1.2558877285896828
15.19,5.658888172143275,-0.7336249426312045,-1.2344860895250533
15.2,-2.3377863711494236,0.47194203443713967,0.3573246985420062
15.21,-5.408916001201437,2.2008240505023973,0.6380885963242886
15.22,-1.2689348860236347,-0.7944999557175949,-0.8313300189552687
15.23,2.6562502280506344,-0.3853800248138006,-1.1113707621761413
15.24,0.8475109364049098,1.3449087735284193,-0.1691500965015026
15.25,-3.5231017951462746,-0.9303259494777081,0.07596756232772404
15.26,-2.2659346172449455,-0.6231196205153591,-0.599081208617325
15.27,2.9568749239864727,0.3320249976941093,-0.7608447619049379
15.28,3.112755641280727,1.1687905056929342,-0.18014907554256676
15.29,-0.5076647808411536,-0.49110811986573544,0.945877687538099
15.3,0.5412946023814289,-0.25854024458458447,2.5306422190026803
15.31,3.416995288289166,1.5249354325287185,2.5180693235273486
15.32,1.0152886083104171,0.8000191809466357,1.6037225395999202
15.33,-4.175251093788947,-0.33140577669465854,0.5524944749168942
15.34,-4.42646620819811,-1.312368389256402,-0.17717136253166543
15.35,-0.8433527265886167,0.5074673491955981,-1.0201488084681427
15.36,0.19485365002447286,0.9226163489515891,-1.1113848440957488
15.37,0.07479210109817516,0.24726511191736766,1.0534948603347087
15.38,1.5404195577302513,0.7836468465459858,1.9532333302255487
15.39,0.6357877878853757,-0.44376342211309483,1.1231866067290763
15.4,-0.5474871860839848,0.26877238700137995,1.2804848569628866
15.41,-2.074097494710224,-0.2693089980585046,1.956459887609344
15.42,-1.5513004877223473,-0.02709185958068122,1.908719997246665
15.43,2.707110715224271,2.188863097871535,0.9901357488383707
15.44,4.429331230467678,2.0606520344188155,0.37833253689240287
15.45,-0.5389514635351214,1.531623394318753,1.009454271340326
15.46,-8.527104054555215,-0.40130268080074494,1.0032815018121293
15.47,-5.831819959744372,-4.047242721080717,0.19334531273816602
15.48,4.413366201443419,-0.8802583082282411,0.03676192097538272
15.49,7.0255160637958145,1.7221926707256545,0.42251679183925533
15.5,1.9090737897944656,0.08776428556265681,-0.4591515296167298
15.51,-3.0596784762600304,-0.04717756693888048,-0.24761700219861998
15.52,-2.0264432539039876,-0.08010019830150034,0.6627698699262213
15.53,1.7682676397748864,-2.2060850035428965,-0.7069335194138348
15.54,2.3058448969680634,0.49349452080945877,-1.73636771184073
15.55,-2.652334656568263,0.6890372088991732,0.07445514095773964
15.56,-5.249340139951088,-4.1898214798919975,2.0513725735115806
15.57,0.5428861198947281,0.9789635774250556,0.889099704939609
15.58,4.789907143703522,0.4999560639936703,-1.6036354796448795
15.59,3.4571002756536755,-2.088601257408515,-0.9327417472271329
15.6,1.9290547129148148,3.0794180568238527,-0.30581368112309504
15.61,0.17299625212218395,-0.3648751917574433,-1.4313991158026105
15.62,-3.4832496258521,-0.7982674223237415,-0.19666651588880701
15.63,-5.800212003034771,-0.36747176806948467,1.0018675815703577
15.64,-0.21742597246202067,-2.871908976375419,0.11687123764523022
15.65,5.376607923869438,0.698519009501025,-1.453195046983592
15.66,1.486539439985532,1.0612759299964698,-2.5528519434474304
15.67,-3.7074391846219505,-0.5115651848143847,-1.0167107406744031
15.68,-0.4052560588018399,1.1441400591237127,0.9064065383924662
15.69,5.346073546957762,1.615156086475928,1.3523677537544203
15.7,5.445865736231543,0.5291886322438819,1.7722941954078308
15.71,-1.0844916579243282,1.1518328456899989,2.9187199878025476
15.72,-6.6950698079922795,-0.33829100653483835,1.557718862545707
15.73,-3.123075286472576,-2.761874112374562,-0.941154459750408
15.74,4.4487288229142585,1.216752496791056,-1.1148404545696302
15.75,4.329346139219942,2.16672261613068,0.1767993652581621
15.76,-0.5447864066126442,-1.6738916692078405,1.4368343548983291
15.77,-1.2485304557485026,0.9809002671250184,2.670152118612456
15.78,1.264734870860533,1.2383587867666321,2.253248421424317
15.79,-0.07220076611949033,-1.7404876455697866,1.2750868028729876
15.8,-3.7857731547723086,-1.0030298777589577,2.00531031970944
15.81,-2.429853141127135,0.6923935795254115,2.416897968997409
15.82,1.5645484992399985,-0.4562347827853853,1.2620517076241196
15.83,3.5749050456357616,0.22866813575035738,1.049698894989218
15.84,2.0716697496688505,2.5941658702505537,1.7075052376139286
15.85,-4.766153776555281,-1.1763537042025276,1.4464284830385556
15.86,-4.162243983105338,-0.20349634855614673,1.7077885577950411
15.87,3.9590947834608263,-0.2061087064402064,1.985385865591018
15.88,5.596575304396735,-0.7297976501976637,1.2074618158393777
15.89,-1.8094619668802476,1.2100658548555816,0.7287010896167662
15.9,-5.207712301653732,0.059302222821957074,0.7904803082984447
15.91,0.4703019923917129,0.3494700264612537,-0.06504091296113923
15.92,2.7837236947527497,-0.5091017316408541,-1.7159182958742691
15.93,-2.354040402924454,-1.6473692871530923,-0.5612286996863805
15.94,-3.9921384639324047,0.3276133006462274,1.262061108778612
15.95,0.760733157174041,-0.3911315084657081,0.2778114202624331
15.96,3.282671461590562,-0.30464493973549245,-0.24460491219891634
15.97,1.4742429610182937,0.5057074234083639,-0.14096294490242578
15.98,-2.8714530369128313,-0.06712077311921405,-0.6574399190137277
15.99,-3.833056132632937,-0.8554390043340891,-1.0993045648516877
16.0,0.6710496143897964,-0.5441426940951971,-1.6580481976402048
16.01,5.024156181202607,0.9269856052994695,-1.9261283790331913
16.02,0.7420665212437108,2.627126950284043,-0.9936623823439853
16.03,-6.514993270981889,-2.775431486599644,-0.5601832635256594
16.04,-3.7853949647669833,-1.1608711705458208,-0.6382501016230437
16.05,4.034262187290691,3.7376252216106707,-1.7920029484983089
16.06,2.774893542598964,-2.13619531056141,-3.173519328535081
16.07,-3.1758574951664804,-2.335129234048044,-2.338819709538285
16.08,-4.544851285431307,0.9103021230776291,-0.8641221982629499
16.09,1.9892365492519994,-2.1818667864994525,-0.7995402663064513
16.1,9.087569109525226,0.8145885668817416,-1.249782560007063
16.11,4.973228311206079,1.7615937614999966,-0.5602002905938903
16.12,-6.741538871103607,-2.3201424753377706,0.06243857619515991
16.13,-6.6855745294201085,-3.1267588669275512,-0.4953381544568245
16.14,4.072139000858365,1.355475972496793,-2.3301173761325424
16.15,4.879211911021721,-0.22026331673117228,-2.998441300376883
16.16,-1.2419827295132952,-0.3549564716910261,-1.6240166694396283
16.17,-1.9634217261973128,-1.2659540810021237,-0.42096284071629997
16.18,2.7677546483680064,1.8650485333759517,-0.5521447254612069
16.19,0.6060027144450908,0.8482916759128976,-0.8479766637476861
16.2,-4.2299195736535395,-2.137995537515397,0.49440967818366666
16.21,-0.057077214077671634,3.163641130591091,0.924112035643839
16.22,3.9924937403224634,0.5984912263389845,-2.0277780864586825
16.23,1.6467124920218765,-0.05768252256909301,-3.0144402424797683
16.24,-4.097967160779384,3.278478767092707,-0.657461460419773
16.25,-6.494644598360507,-2.8705665683321007,0.3790713298895939
16.26,2.5359331349688743,-2.362274415433263,-1.5245833669471314
16.27,8.97547265433379,2.613531747118003,-1.1411947151642383
16.28,0.5903682158437906,2.3524923615694076,0.9516235075372457
16.29,-7.894164227282359,-1.395106759375996,0.7724056810899209
16.3,-0.325333741641499,1.2085732973250043,0.10581523888768929
16.31,7.405557626903434,1.5935371440680337,-1.1767103695082293
16.32,0.8723518565891926,-2.0842978838313373,-2.5733243195324986
16.33,-8.021888088891044,-1.6045949577985152,-1.650650535371732
16.34,-4.366797257673042,-0.050194916040552595,0.39419389446404285
16.35,3.455242308721372,0.3743367065722003,0.43618428962407574
16.36,4.519745372087999,-1.672559087755633,-0.3824431114606621
16.37,-1.2798313215820398,0.043906164762020694,2.500280053298877
16.38,0.3338366366179921,2.209648942051286,2.532847731193944
16.39,7.101679321042058,-1.2452327848397702,-1.1803637729327123
16.4,6.186297375889676,3.9452360655302385,-1.3343892678290106
16.41,-4.272107685258383,0.3886651733459576,0.19687532100496652
16.42,-10.892405406872747,-6.6665456179459985,1.6559507040516266
16.43,-0.9213958049309259,4.32903313051096,0.9085494118269978
16.44,6.8327003667451125,-0.08759963507531143,-1.0055252663024128
16.45,2.050096606706931,-1.0222090282002265,-0.41411211493317623
16.46,-7.5071708773470665,2.525926258293576,0.3240292476568737
16.47,-5.409173639373522,-1.2958949652361125,0.12007862521946283
16.48,6.643713401921409,1.106761695317978,0.4857875682992759
16.49,10.776753687993164,3.833013185512701,0.3310815308074817
16.5,1.457371332170137,-1.687192901072991,1.291349405771618
16.51,-8.965659544977086,-1.6390143594106032,3.0628183351356593
16.52,-7.147974013323653,-0.09811071048076014,0.6972681422462301
16.53,1.7916005706250218,-2.9912451811916574,-1.5364970703688645
16.54,3.710898314940591,3.426138078523938,-1.300901183091956
16.55,-3.477077622141695,-0.7430586913558725,-0.4869297877141996
16.56,-2.9974125477290925,-1.196694634271916,1.7122704935991502
16.57,4.406156522550242,4.489857035477058,0.9869310499072006
16.58,3.7909724892090093,-2.0535108184316986,0.04367365828558534
16.59,-2.520706826884226,-0.1854146171781561,2.102515584832469
16.6,-4.822701124294106,0.2608655192502746,1.619642248684926
16.61,-0.6652131401164842,-0.8789378314695158,0.17007336258532435
16.62,2.6756711839482685,2.5060830840098043,0.2719334135889035
16.63,0.2879029233951229,-0.4738895439849946,0.6206200856895702
16.64,-0.5432194213905843,-0.5419876320649882,0.299582127946668
16.65,0.5257931704877856,0.9104861916736511,0.0554059616428245
16.66,2.387365369966152,-1.9569225035568565,-0.09785415273009651
16.67,1.360826150226631,-0.5483326402086218,0.5448926470277045
16.68,-2.8355397373694164,2.368877485745041,0.9961982256353548
16.69,-2.9742588425067344,0.6393182244000558,0.4615410816900546
16.7,2.9401285162449446,-2.1987034955288967,-0.259235629572086
16.71,3.4991439877300663,0.02453013489673706,-0.43577782930042647
16.72,-2.8339880660558494,0.33358590107580544,-1.2305875813766547
16.73,-4.5657998645393345,-2.1406846570023137,-0.6976669437648035
16.74,1.3943577867036816,-0.9044087556697374,1.0322022459565208
16.75,2.857036742145415,0.7748315277785729,1.997327757679331
16.76,-1.1571871877909592,-0.5781760869204267,0.8882111427404895
16.77,-0.8573913873098711,-1.089014853374902,0.25092960537906717
16.78,0.9535124730372359,2.217978257868736,0.3575746139868745
16.79,0.1025650721895898,-0.845434984799169,-1.5284101277673379
16.8,1.1325073636604075,-1.2574380399677918,-1.6758437484180169
16.81,1.3236238403552785,1.2337494971964802,0.8470073739719525
16.82,-1.0070878741759153,-1.3001740725379358,1.1054620719672203
16.83,-1.1315267603224932,0.4671997989214559,-0.8452660132918094
16.84,-1.5705637886973132,1.4423609928751273,-1.8380051550965546
16.85,-1.5496769045059182,-0.9126271658794862,-1.2293329103502977
16.86,0.3755350311395809,0.0635773984451804,-1.1886989004063673
16.87,1.069980360709361,1.1323572225525713,-0.30283192343574455
16.88,2.0343273388413126,-0.9989003478988328,1.333539012657479
16.89,4.958452039207412,0.3572273144489532,1.842753828161398
16.9,1.8191644542003635,2.191410420852995,0.8354863825482649
16.91,-4.52962260098896,-2.2438240482566725,0.42853093138202064
16.92,-1.2665852239336648,-0.18541634477080876,0.5038859705249833
16.93,1.0009189248823307,0.8854829682830178,-0.09454532260170591
16.94,-0.5368874569544199,-1.339513654892556,0.4978426000063237
16.95,2.7668927366421365,1.2692379197232408,0.9487504902457555
16.96,5.506418831235388,0.9049702115122751,-0.8905911258337209
16.97,-2.207834322261643,-0.6197224648687738,-0.031076772074088654
16.98,-10.371510123110598,-2.9818963519214714,1.6178128921221946
16.99,-3.3791049222676977,0.08707535822723321,1.0540741381811802
17.0,7.842236017311576,3.3441517384615302,-0.3734852347196566
17.01,5.947571599116145,-1.1644481593419502,-0.019826520063217015
17.02,-0.9587573617788865,1.052739012171679,1.7510792854384185
17.03,-2.927153110227837,2.970626177929374,0.9139382584831486
17.04,-0.632895205150657,-2.535201531672156,-0.5398787611559138
17.05,1.8571452740055976,-2.767894296459474,0.24033914631484238
17.06,-0.12213497270199132,0.8737804426908736,0.9559390449230027
17.07,-1.7846451167639592,2.0307392541634903,0.34495892540246187
17.08,0.3687428707702595,-0.7990516387336247,-0.20873070709833086
17.09,3.0564087085318974,-0.842954867091213,-0.6771846199362089
17.1,1.05010394271499,1.43398805767076,-0.9421115017174445
17.11,-5.220823830167472,-1.365906391501516,-1.7307715326364266
17.12,-4.454707988010343,-3.431060284992242,-0.5093983548351656
17.13,1.8919532370358585,2.271935579314885,0.8409528289269989
17.14,3.6154290723912923,0.4428533624246903,-0.5400808715489087
17.15,-0.41743387587581765,-1.5318956495684102,-0.3367530847795067
17.16,-3.8438721858541003,-0.008416032730116277,1.6489165502586955
17.17,1.9499776146692827,2.495895705222299,-0.059817280592662024
17.18,4.223498337190254,0.7957459349797271,-3.29838918591351
17.19,-1.2983813248501868,-0.43498561758478915,-1.5163370854446159
17.2,-4.1871831592720765,0.9148166999648519,-0.2346744454958008
17.21,-1.3244314886559447,-0.7531354745581691,-1.7895865417347323
17.22,2.0818636399946078,1.8633790986902568,-2.148230535476659
17.23,-0.46220165553122416,-0.4410494017525621,-1.3289699555403531
17.24,-4.892285377668359,-2.981122275379162,-0.3393400188888205
17.25,-2.8529081180637528,0.5113306027264011,-0.47422057012101093
17.26,3.2790527302219403,-0.9430734337662956,-1.3949118352290224
17.27,6.454762136817278,0.37719887173352146,-0.18552190337953223
17.28,2.0566572530087828,0.4593185544329523,1.0495266390790225
17.29,-1.4417249949922142,-1.4735648441611104,0.38555262808381746
17.3,0.688468565768906,0.7367913439717406,-0.8750772648744931
17.31,3.6497630681519473,-0.6584471383345986,-0.6188406894645012
17.32,0.8918554221409855,-0.229808332669015,-1.7975977561595669
17.33,-3.997446274436205,-2.0421118480552902,-2.167088621281307
17.34,-4.206451343022293,0.34919353766908895,-0.13019794350392802
17.35,1.6242746293866022,-0.009845360465329286,-0.7896943000797979
17.36,7.2579697289339595,-1.6068867087692427,-2.5841365542606796
17.37,2.238678129153705,1.98094507675487,-1.021940832030042
17.38,-9.259745314895794,-1.2542107812147925,0.8614995099458455
17.39,-6.2119003438754605,-2.169575436835098,-0.2231417741787261
17.4,6.540180437451157,2.688199956658202,-2.3789733476361863
17.41,9.400282123532657,3.00033299180506,-2.195716525816724
17.42,1.1975912151143664,-0.7360525655346831,-1.22430330821686
17.43,-4.865829809278338,-1.2624471096146501,-0.4539883523088196
17.44,-3.7925721193085207,0.39034812001197383,-0.49643878964697324
17.45,-1.3985549992890254,-4.109848313978476,-0.7072179060169934
17.46,0.7057786292091267,0.6653080126660693,-0.4385271155369722
17.47,1.696956934945578,4.295517759868914,-0.7595034442046344
17.48,2.1048269510501667,0.35297241079906566,-1.358096094052575
17.49,1.1437363183079847,0.7613512963037442,-1.4094704001446627
17.5,-1.6088838844718496,2.348804302674197,-1.046904730870859
17.51,-4.627415082816483,-1.7463960062372113,-0.8795205048669853
17.52,-4.0711887220064416,-0.2657776362514936,-1.2451911094692274
17.53,-0.5301455320297574,-0.06558041393648618,-2.1351422262601094
17.54,2.861302579098709,-1.1255156586670705,-1.9289263431833852
17.55,3.6717908840584648,-0.5885274272018652,-1.680191735909797
17.56,2.62632236389214,-1.3599068578690232,-0.6812151307800293
17.57,2.1646598783346196,0.6362419272046939,0.50286404780609
17.58,0.32602124573459235,0.035220604544048274,0.7493907821691
17.59,-1.7595113367617718,-0.15684150879789283,1.832236242388565
17.6,-1.504874632897268,-0.29857289547366417,2.3588726762390535
17.61,1.4998686245162045,-0.7409931039023929,-0.06045009779615643
17.62,3.185940179531948,1.5182411510549643,-2.048847385249607
17.63,-0.6968293848781233,-1.4858798662820065,-1.6840141623105214
17.64,-5.953066098928726,-3.0682849737162385,-0.6522440524631858
17.65,-1.7749704556174373,0.7324786050733714,0.21834376110597692
17.66,5.967333132370739,2.9719067570695614,1.218648193748368
17.67,5.44914412857556,1.415864130107259,2.23556965729989
17.68,-0.9466609963879239,1.3903643787909652,2.2859786440765673
17.69,-3.8716370319530835,1.231069042704506,1.497330862200029
17.7,-1.0470541763721453,0.24045588932673706,-0.10784521197577615
17.71,-0.8450867904335402,-1.1580282491014493,-1.1251362178488482
17.72,-3.7683129460918314,-0.24184526488961577,-0.12065320265160101
17.73,-3.4639618780578223,1.047063994269305,2.1598098671076325
17.74,2.846795008074322,0.9910150195954753,2.3892375789116675
17.75,5.028192137806641,1.197282466339645,1.10573784995649
17.76,-2.4452252496342224,2.6271243397752166,1.891806594544812
17.77,-7.911709281264285,-0.5627344678123425,3.0193411538702803
17.78,-1.3235093773633069,-1.4160822673245232,1.6263624044817013
17.79,4.654403469220818,1.083226644817505,-0.8582813176201759
17.8,1.5260592987669501,2.2896038198212296,1.1541510393700385
17.81,-2.0896495284112415,-0.3716138053563223,3.8325409386878193
17.82,2.0642213252015256,-2.267902698545652,1.9698986138394272
17.83,3.6593209001564118,0.7459440028352069,1.1074324373891349
17.84,-1.969917174253226,0.3076168717727148,2.5867312893577448
17.85,-2.11137532834481,-0.3512198765204022,2.7241937337974633
17.86,2.4442753521974683,1.8199556826410712,0.25430123531263443
17.87,1.7759568115537148,-1.8609183404143157,0.07762042765359672
17.88,-1.0553426472471887,0.3070802146781593,1.4871672462958663
17.89,-3.089016840074347,-0.9553191450786437,-0.35767932044027995
17.9,-0.702496242196562,-2.5968953424773122,-1.5928375079830532
17.91,2.0648231202948795,0.3091684137812925,0.04560721523414479
17.92,0.637350542415809,0.7726779062181907,1.793660232364731
17.93,-2.27036561982355,-1.5815025950601764,0.9427051487363176
17.94,-1.1025070217981847,-3.57431374913618,1.2456458716986842
17.95,4.4484044341569255,2.5803651758127404,0.7693675780533635
17.96,3.7335269210730218,-0.11536839269517447,-0.9005902207994984
17.97,-1.3299664355972003,-0.7505167200510039,-0.8559264100823891
17.98,-4.765667221888322,-2.0063473554112057,0.5436516757921449
17.99,-0.9338115184455607,0.77651245665484,1.0920770703159124
18.0,3.890719082252576,0.821732944499839,-0.5249503386010169
18.01,0.9613863756594755,-1.018243561574063,-1.419800260388746
18.02,-5.372804632707797,2.2383565437626975,-0.9159659891788927
18.03,-5.74282910852073,-2.399435549648613,-1.3858747742400563
18.04,1.406188772865254,-1.7768189218275392,-2.1523666145333724
18.05,6.1915081512791215,1.8627393903883156,-1.2710390965072553
18.06,3.687949884556029,0.09733919033477864,1.3976568561227118
18.07,1.0757267964203285,0.37328302368773353,2.768262794618898
18.08,1.289915465500609,0.5589665092806573,1.24595684035177
18.09,0.18468023555874846,-0.39273046905571635,1.4005800753143953
18.1,-2.999217769668397,-0.3030334888293584,1.2297665984106019
18.11,-3.0599368576417825,-1.0012645382190761,-0.09393080758861067
18.12,0.21798284811558694,1.2244884743489328,0.3478212044151565
18.13,1.8906729262598854,-0.709546855910149,0.6338312615525343
18.14,2.333037502480767,-1.0339469881019276,1.029695838014704
18.15,-0.6086304600994795,1.395836738587651,1.283442274205084
18.16,-4.5835222971016085,-0.7649096420755286,1.8981527362669197
18.17,-0.9979538947499107,0.2408976927620463,1.9224094522140533
18.18,4.258976528411288,2.5757182335573434,1.4798965833182438
18.19,2.876571013359088,2.1074557690868367,1.605089674452851
18.2,-2.147536028745462,-1.1985461792180927,1.674634343265121
18.21,-0.13506660191223768,-0.9764691532664309,1.938472077835884
18.22,2.2217598931653986,-0.3791985902411383,1.448246202337271
18.23,-2.565909335878454,0.09952411609459234,0.2537251523190081
18.24,-4.201775789820306,0.9852304163479177,1.465703619876701
18.25,0.6867059154862496,1.4691739678950502,2.214944081860053
18.26,2.6027899225695745,-1.090843741803444,0.11424343451315074
18.27,-0.8294929323638183,-1.0789418469510754,0.006299797211213237
18.28,-4.544460025045024,-1.167813256799455,1.56076552443189
18.29,-0.9168828047363679,-1.073698001896676,0.2735561227379727
18.3,5.1635268320450605,0.5729466171984728,-0.4488561881043282
18.31,3.1461310518078625,1.2574990312391838,1.6136385292879087
18.32,-3.325962323068984,-0.6406964781387475,1.972379212261177
18.33,-4.791032755478847,-1.2962560067843358,0.5202357439656873
18.34,-0.38579311679462946,1.2753659997934168,-0.36867908110547687
18.35,1.2812136066529995,-0.2624332122130671,-1.2954683558847497
18.36,-0.5792922400661056,-0.31653108376046557,-1.349516179038567
18.37,-0.17531696522186535,0.8746890425935592,-0.3373390432831771
18.38,2.1629636184299406,0.5433013637043403,-0.39837483605703083
18.39,0.20021337797030242,0.9796080124152982,-0.6338959036606819
18.4,-2.279346242495018,0.5686796954663244,-0.053360468994397295
18.41,-2.071557946649569,-1.15515284535589,-0.6830380198456873
18.42,-1.3196463459531902,-0.2852138807578344,-0.43586282746649363
18.43,0.142553676859846,0.3414737479978058,0.4829253225211207
18.44,2.4061253148450046,-1.992259225701106,-0.22860994160168766
18.45,3.11867889492842,0.9418794175152163,-0.8409876686781175
18.46,0.10938746327566858,0.058851003502270405,-0.7550153958578442
18.47,-0.574055522592986,-1.5948385556749876,-0.9340637937718428
18.48,-0.3355088637458402,2.181875329252908,-0.9421598840829433
18.49,-3.331298141589679,-1.5391798335324358,0.37558078843442183
18.5,-1.6614539366642642,-2.9582837753301328,0.7884986385565019
18.51,3.4689769337805276,1.7126771567919294,-0.7934137224954917
18.52,2.9695658297478427,-0.788723427269414,-1.5135623273354972
18.53,-1.1593666237402822,-0.26283836961242224,-0.28628773025739485
18.54,-2.896197753169415,-0.6569727538965102,0.25950710934833565
18.55,0.31236966645039066,0.8844594710288012,0.38991220090901385
18.56,2.9829441863868613,0.9833133257574445,0.02116248698320905
18.57,0.9713855861872835,-1.3341193132757563,-0.3003278111971612
18.58,-0.7521876858981225,2.964403878261031,-0.4896329323223086
18.59,-0.14365588192937317,-1.3291353147115685,-1.3301783848236401
18.6,4.059317289153456,-2.890274104423315,-1.4738962690690025
18.61,2.9446862991746245,1.5731941544776216,-0.3440680755968022
18.62,-6.755749981086128,-0.6844602616780756,1.4353506864394152
18.63,-5.704657031464479,-1.1225979203851955,1.9315179814643215
18.64,7.49914288653808,1.64218535604454,-0.21819475473534322
18.65,10.874763766678873,2.702016006898401,-2.9057564281048744
18.66,-1.354146646788534,-0.05446510010403133,-3.0646163001298254
18.67,-12.368550384465555,-1.8868645928576475,-0.6487846676016731
18.68,-6.690118027429099,-0.8414096843605419,0.4601293906015512
18.69,7.0324322034678595,0.19097232495296285,-1.6454159786985525
18.7,8.08877683574896,0.34897185361204147,-1.3156062070261776
18.71,-2.493059260569318,0.37878296933219596,1.6874930288651562
18.72,-8.018517914705711,-2.5076774571535276,0.9382179784640232
18.73,-0.8574506257124124,-0.239374154738747,-1.6921860303130345
18.74,6.132377249612887,2.64517821410662,-1.4788111197531546
18.75,5.213903234227985,-0.56082102972431,-0.5253516703927248
18.76,1.3649241996997172,0.11838014957547245,-0.23699911316113398
18.77,-1.5976032851746826,1.1610663634415548,0.3313220663754149
18.78,-3.6068819030671655,-1.9621348475045093,0.4663769244001249
18.79,-1.0924989866485557,-1.0967205424688191,-0.4483711927015295
18.8,2.2589531515642127,-0.3687891478053935,-0.5271164928098738
18.81,0.2692234426699396,-0.578580907836322,0.20997015604429978
18.82,-2.513308338711114,-0.21565125806683175,0.6543228147514634
18.83,-0.25693126893057106,1.0499619615285443,0.9589316573191299
18.84,4.013757696263921,1.125784179277249,0.28774322110557904
18.85,3.137249947393856,-0.00490573129664712,-0.6921666272783814
18.86,-1.7057749790119554,-0.6780385229938316,-0.4283242688066614
18.87,-4.980567533089507,1.6138341728619747,0.43347514041658836
