seconds_elapsed,z,y,x
0.0,-6.186152979463339,-7.5750564843356605,0.7213993805944919
0.01,-6.186245227041577,-7.573616742836001,0.7355825367524059
0.02,-6.181067578421846,-7.5735175991703185,0.7788519917058608
0.03,-6.169781393739455,-7.581961402907339,0.7861558998038894
0.04,-6.159933371533747,-7.591941420390488,0.7668264689187002
0.05,-6.159311386445929,-7.590190304083723,0.7888469419829712
0.06,-6.153149132856992,-7.589411206886415,0.8425988402772865
0.07,-6.143662143420446,-7.5918270925031806,0.8888042729082721
0.08,-6.146998324916964,-7.589474042840453,0.8858122557549409
0.09,-6.1586345789305685,-7.585344936438849,0.8391304956597819
0.1,-6.181893191432576,-7.569376537346748,0.8118616291866413
0.11,-6.189771525300116,-7.561488510612696,0.8252249524153686
0.12,-6.191722702919662,-7.556571369112787,0.8550880302894024
0.13,-6.1984540555733645,-7.547254705627693,0.8879669760552763
0.14,-6.197504635746298,-7.543543328300579,0.9253538766281417
0.15,-6.193224103285551,-7.545886588398276,0.934853292044394
0.16,-6.180528979290588,-7.559478786075509,0.9086947338178907
0.17,-6.161597711784037,-7.575268284820019,0.9057587661501897
0.18,-6.147425274941171,-7.582122100904692,0.9438987475314347
0.19,-6.142535760652634,-7.579919202201695,0.9921858051293034
0.2,-6.16165773960126,-7.561118931775759,1.01677210123968
0.21,-6.190485726273291,-7.53881256773879,1.007257800608351
0.22,-6.215408433992706,-7.520775504942606,0.9884367073411636
0.23,-6.21452633868781,-7.525082879762877,0.9608058071417978
0.24,-6.184528238934621,-7.552260817542137,0.9409061342739384
0.25,-6.14591857760512,-7.5797649105512255,0.9722084715467044
0.26,-6.124322156590056,-7.589819926321343,1.0284402875008638
0.27,-6.142995617049124,-7.572964697085714,1.0412200791836113
0.28,-6.1807573684613235,-7.546932129067902,1.0061970980035524
0.29,-6.195653328441785,-7.537442029589837,0.9855058607792947
0.3,-6.193714805967468,-7.539961652183974,0.9783892192725665
0.31,-6.1844152546130635,-7.551455862814806,0.9480967727819016
0.32,-6.165934302528312,-7.568775407963547,0.9301846700721981
0.33,-6.152355816452735,-7.574537473376456,0.9722410192822112
0.34,-6.1485470203829875,-7.572492092990806,1.0114876720494284
0.35,-6.155119295059217,-7.5698320985982255,0.9912058043435855
0.36,-6.171780266598444,-7.562224428286312,0.9445942614130883
0.37,-6.191738797355419,-7.54926704631265,0.9172436981637672
0.38,-6.196192304231609,-7.544561714497924,0.9258285609764776
0.39,-6.177724322343389,-7.5580281653582935,0.9393037233223666
0.4,-6.151333517337371,-7.579552471866735,0.93907282580402
0.41,-6.139323223225429,-7.589749994689282,0.9352939394656766
0.42,-6.147844521131292,-7.585239010105312,0.9156977831676825
0.43,-6.165480062075597,-7.573816052946735,0.8913701680959242
0.44,-6.17655840330015,-7.564343653683583,0.8951030532450417
0.45,-6.171483957524865,-7.56622840637088,0.9139724785424943
0.46,-6.160998266884869,-7.575834685507991,0.9050829796585349
0.47,-6.154305971312963,-7.585591399857569,0.8681440149128997
0.48,-6.148911091144963,-7.594070690409936,0.8314842538102781
0.49,-6.149379229450222,-7.594976765623318,0.8196662614670082
0.5,-6.150241491401208,-7.593248468994109,0.8291541883712258
0.51,-6.154344746351234,-7.590027112736742,0.8281647388936514
0.52,-6.181806746233863,-7.570739740603911,0.7996727902420232
0.53,-6.20499894429241,-7.555806369897377,0.7603479008887071
0.54,-6.192709229835359,-7.568093614063407,0.7380126303894599
0.55,-6.168005725960493,-7.587547889925981,0.7451220122335569
0.56,-6.157884168711927,-7.594972093994388,0.7531620105803016
0.57,-6.151781942325974,-7.600414792378235,0.7480910797202465
0.58,-6.16274642503552,-7.593280844486793,0.7300105258461121
0.59,-6.193013511940135,-7.572525057144322,0.6882824115659204
0.6,-6.211788012348706,-7.5611963803945645,0.6421643284583153
0.61,-6.207829351409893,-7.563639273114587,0.6515348385861379
0.62,-6.172723993809061,-7.589671686477492,0.6816334048988251
0.63,-6.131778447025625,-7.624450921059348,0.6628217276220071
0.64,-6.125846323140745,-7.633221413376853,0.6150205142616726
0.65,-6.157694445621288,-7.608684220143442,0.6008646770150259
0.66,-6.185498541401822,-7.584937780159043,0.6153942373648631
0.67,-6.192936695823158,-7.578721236384141,0.6171462637172258
0.68,-6.185664258976439,-7.587110065295754,0.5861447965518477
0.69,-6.16935397207098,-7.604371613991012,0.5319171157574842
0.7,-6.151750009019093,-7.620674308066801,0.5016581547865622
0.71,-6.142537935504357,-7.627069982885764,0.5171049783962975
0.72,-6.143926570241643,-7.624807429650045,0.5337051248064493
0.73,-6.154301763230604,-7.617376851876842,0.5200551300340682
0.74,-6.181677786132499,-7.596448101405717,0.5011687980160122
0.75,-6.196128188727356,-7.586415358609525,0.4739223273620012
0.76,-6.184630706090319,-7.598172865452954,0.434060016157932
0.77,-6.156882443423902,-7.621969449664242,0.4107324638800704
0.78,-6.13000843388135,-7.643474908187023,0.4131185965347444
0.79,-6.129437054758461,-7.643973638145191,0.41234159250705416
0.8,-6.143439780327132,-7.6334008099171475,0.39963395455987305
0.81,-6.157380540733639,-7.622768181934532,0.38787093199349515
0.82,-6.163970154420155,-7.6180276441695955,0.37617604449379316
0.83,-6.157414041594226,-7.623508508493744,0.3724706052506613
0.84,-6.143307206358038,-7.634739547836599,0.3753666778679393
0.85,-6.133776865694299,-7.643043503062684,0.3619781887794732
0.86,-6.1266763984618695,-7.649518498660683,0.3450838536213106
0.87,-6.124297145290208,-7.651330601103957,0.3471209761125458
0.88,-6.1404761687262654,-7.638733087660174,0.338478679072706
0.89,-6.158049830391577,-7.626401740419739,0.2945533568902879
0.9,-6.171711333858859,-7.616243550936325,0.2705061453089885
0.91,-6.1860461849508726,-7.604074328099896,0.2850630557457027
0.92,-6.181674673330115,-7.607263851699741,0.29461412988575436
0.93,-6.171529920425724,-7.6157237457652505,0.2887041470788649
0.94,-6.175954517835948,-7.612288711486044,0.28463974711544665
0.95,-6.183035324016059,-7.606998770280263,0.27197393410370924
0.96,-6.1936588371433485,-7.5993792377483835,0.24155504029758207
0.97,-6.212058131230253,-7.584915066853575,0.22297409795318024
0.98,-6.226523488520103,-7.572178185076262,0.25061695917483623
0.99,-6.221647406773551,-7.574801019569236,0.28953477743305733
1.0,-6.199089313670646,-7.593468312451689,0.2843358301191398
1.01,-6.179200003839407,-7.610450175711193,0.2625245408149702
1.02,-6.180150689221975,-7.609698786266606,0.26189193904121044
1.03,-6.19594322786456,-7.59626416134024,0.2781430633306816
1.04,-6.216860873149366,-7.578243386892927,0.30205894608078265
1.05,-6.22128628950513,-7.574038615109201,0.3160461611775425
1.06,-6.203426786868067,-7.58912045162518,0.3051423562640664
1.07,-6.197091434836593,-7.594804012452795,0.29221482011888056
1.08,-6.197219568289133,-7.594185653035714,0.3052268307281955
1.09,-6.199626756260244,-7.5912633542226216,0.3281971306267892
1.1,-6.21270476578532,-7.580048055270331,0.33988823018520603
1.11,-6.222280714094418,-7.57139819149027,0.35704963629974606
1.12,-6.219901435246339,-7.571957237227116,0.38555370889873763
1.13,-6.208028177297258,-7.581164699186155,0.39583576321790165
1.14,-6.195550904157258,-7.5916794634701175,0.38976040166403386
1.15,-6.1823641542954935,-7.601929837433405,0.39922494194856334
1.16,-6.170312985547763,-7.61065252512342,0.4190347540385421
1.17,-6.167583250103888,-7.612291136276761,0.4293102116744228
1.18,-6.180967775413092,-7.601350625403458,0.43059337182105106
1.19,-6.207121647917437,-7.579661907572805,0.4367166383657424
1.2,-6.216970544101945,-7.570516652315111,0.45480907668932374
1.21,-6.2064907263988465,-7.576945343425598,0.4895461236398692
1.22,-6.187830006177521,-7.590138192450298,0.5204945550511925
1.23,-6.1681112410504255,-7.606038335857117,0.5224303292138711
1.24,-6.160042033067774,-7.613651902079894,0.5064979832957603
1.25,-6.17485365700898,-7.602523406161542,0.49310199942110683
1.26,-6.195161022601711,-7.586548331263598,0.4843691547383491
1.27,-6.211690998207575,-7.572819857411115,0.487438393661658
1.28,-6.227699979770322,-7.558154592905192,0.5103128722267022
1.29,-6.230709103878904,-7.555027417648414,0.5197647243295384
1.3,-6.211715911448668,-7.571408929863393,0.5086413814858058
1.31,-6.198103823893572,-7.582239225933503,0.5133336403431997
1.32,-6.190696003535843,-7.587109202399509,0.5304974583294719
1.33,-6.185052764421581,-7.590953971881129,0.5411834193165436
1.34,-6.204324804737935,-7.5750771716183145,0.5430014643743072
1.35,-6.22882136859602,-7.555701664569179,0.5324639953326109
1.36,-6.235243191212727,-7.551112905629798,0.522295232640314
1.37,-6.222660122209932,-7.56208254399508,0.513361970624836
1.38,-6.178987315265191,-7.598371478373127,0.5048775954631703
1.39,-6.13038813136752,-7.636628883764521,0.5201372102869384
1.4,-6.119266686365447,-7.643750652875551,0.5458092521308903
1.41,-6.151760834168579,-7.617537757423972,0.5467848339338529
1.42,-6.202721692299392,-7.577206181310421,0.531416420893097
1.43,-6.234785436264646,-7.551312424400425,0.5248462832087651
1.44,-6.222315332745329,-7.563032387739197,0.5034613333963983
1.45,-6.19076584915813,-7.59100432415254,0.47049280584563796
1.46,-6.166144397715905,-7.610942290623156,0.4715280733951017
1.47,-6.141902871886174,-7.627422947459364,0.5193146569455405
1.48,-6.130014783785545,-7.634518532646049,0.5544527629468631
1.49,-6.1399643753835536,-7.62733728862274,0.5429954183658969
1.5,-6.165786234801704,-7.607558521362568,0.5276416684317804
1.51,-6.19218238893987,-7.585921659612538,0.5301270105627269
1.52,-6.200501362573199,-7.579434161989876,0.525659717537846
1.53,-6.189770696871302,-7.588836747409124,0.5163610884749499
1.54,-6.174042495843466,-7.600652368947789,0.5306777122038293
1.55,-6.164119666252111,-7.607608018050757,0.546175066745953
1.56,-6.160709736446231,-7.610395355272494,0.5457911364182513
1.57,-6.168470915289261,-7.602640752700532,0.565651390561068
1.58,-6.178981134112214,-7.590351500670323,0.6140367243245173
1.59,-6.178836333011207,-7.588109647076271,0.6425768290025252
1.6,-6.167447801009105,-7.59906573791831,0.6221530052892945
1.61,-6.156760904308278,-7.6099468037179046,0.5944502050012588
1.62,-6.15564465671415,-7.611864136875405,0.581325189592124
1.63,-6.147263487394727,-7.618668785133907,0.5808265389569371
1.64,-6.140659807852404,-7.6217739085152605,0.6090517702323615
1.65,-6.1643019768089005,-7.598887546659414,0.6546181062855395
1.66,-6.191431326992458,-7.576236140256021,0.6611438490106729
1.67,-6.197532698594245,-7.573806486173662,0.6311378556185847
1.68,-6.1869989294678565,-7.5844596110830595,0.6060763709919089
1.69,-6.16739174052244,-7.6006845245850325,0.6026680361160616
1.7,-6.15478739543997,-7.609532282260556,0.6195422096890542
1.71,-6.158069602954849,-7.6035831903897275,0.6588132659045506
1.72,-6.168445578173009,-7.5939807570351165,0.6722850341866508
1.73,-6.18151102196541,-7.586669018823661,0.6336825046052644
1.74,-6.193894741433482,-7.57981145244412,0.5937098492009003
1.75,-6.203242512615546,-7.572175342457327,0.5935199805187915
1.76,-6.190206105994493,-7.581092652633021,0.6152355500831886
1.77,-6.157441557395332,-7.60584875236869,0.6382063691536813
1.78,-6.144373157259515,-7.615945868716163,0.6437255614992484
1.79,-6.155062922835612,-7.608869541284068,0.6250280708185667
1.8,-6.167034743806873,-7.599819411569535,0.6170500922376387
1.81,-6.181238601152749,-7.587083918317232,0.6315274782413718
1.82,-6.184833662151691,-7.583658702724546,0.6374448438791044
1.83,-6.1828650738624225,-7.584889252563468,0.6418857804953233
1.84,-6.1874946823842505,-7.581106148327433,0.6418729902166462
1.85,-6.206736868917629,-7.56760323229808,0.6148377448724661
1.86,-6.220551358791996,-7.5587380754608136,0.583609809581896
1.87,-6.212958832040806,-7.564636277036281,0.5879462105620125
1.88,-6.203519207066789,-7.569775671713597,0.6205838757359659
1.89,-6.193342566649523,-7.575809470188952,0.6480581436622563
1.9,-6.186141501286883,-7.580791504685048,0.6585101701821379
1.91,-6.188434059688525,-7.5792031994226665,0.6552308310301059
1.92,-6.190361820869559,-7.578912885216302,0.6401880596297844
1.93,-6.1823675439524,-7.586867438348549,0.6230169212991394
1.94,-6.178067756511897,-7.590034507239938,0.626948049631166
1.95,-6.195068992311113,-7.5731563752519895,0.6622098289388673
1.96,-6.212034221500604,-7.5553067148071005,0.7058817295300537
1.97,-6.2116311255024685,-7.553214428120207,0.7313957268254839
1.98,-6.19643007002743,-7.566578926599552,0.7220021217636943
1.99,-6.173992998798297,-7.588063216875453,0.6880250074099662
2.0,-6.154650996055277,-7.605093143631894,0.6731337099674861
2.01,-6.134790741044263,-7.619265073585213,0.6937910351203581
2.02,-6.116546645501744,-7.631008855813984,0.7251872845805705
2.03,-6.116966027856358,-7.628891850576059,0.7436320685437015
2.04,-6.146625974166308,-7.60565958787475,0.7368911710946958
2.05,-6.186300544088459,-7.574215430589049,0.7288156290465093
2.06,-6.212784519912656,-7.551880382822941,0.7353812804514293
2.07,-6.216163637819612,-7.549011360887977,0.7362416440903612
2.08,-6.201926741047948,-7.561715868182107,0.7258806815938575
2.09,-6.193999148372069,-7.566580093406905,0.7426619165076146
2.1,-6.189881393317203,-7.567962628529127,0.7626310137753449
2.11,-6.172445758180099,-7.583692250800543,0.7475439215081577
2.12,-6.154854998290442,-7.597959715606215,0.7475295364908128
2.13,-6.155880855962502,-7.591430008698822,0.8033298796912849
2.14,-6.151461472744942,-7.589850860160442,0.8508797781164632
2.15,-6.142525126436131,-7.59932790603778,0.8303464500662276
2.16,-6.162023014463922,-7.590138620825304,0.767571921426225
2.17,-6.19173275794011,-7.570492579658033,0.721378347758871
2.18,-6.210117620267727,-7.5548036888715,0.7277693271852943
2.19,-6.2103677238034685,-7.551382861691785,0.7603531304701723
2.2,-6.1986373468732,-7.556931420588877,0.7999151112864891
2.21,-6.177412422309157,-7.570997717178976,0.8306068146737613
2.22,-6.1727117199378645,-7.57321836438249,0.845142217653814
2.23,-6.1941174899584635,-7.557262132978614,0.8311639827203415
2.24,-6.197900232756188,-7.55881368611197,0.7877634422271305
2.25,-6.182754842381008,-7.573596146637056,0.7645449429216794
2.26,-6.184823201388486,-7.569926800336513,0.7838733821348091
2.27,-6.1961934375201,-7.5580872617415515,0.8079392064629942
2.28,-6.2098459074627455,-7.544136675611119,0.8331168537327225
2.29,-6.215510437913538,-7.536849470384946,0.856551690266636
2.3,-6.205542112613864,-7.546651502855358,0.8423295737274683
2.31,-6.201478677358343,-7.55328740993226,0.812331199456456
2.32,-6.208006537607213,-7.547125496046579,0.8196357292709642
2.33,-6.198965246686325,-7.5508321727047045,0.8531462645209726
2.34,-6.174066393828514,-7.5667498060640535,0.8917944764998048
2.35,-6.166083615721353,-7.567729092633409,0.9376238652118378
2.36,-6.170314305249294,-7.561118294016864,0.9628344049994988
2.37,-6.1792625620465484,-7.556362074877973,0.9424607049899427
2.38,-6.196700937073904,-7.546759382463777,0.9042404180407243
2.39,-6.207724792972155,-7.539302722971427,0.8907395196989906
2.4,-6.218028015502121,-7.529288070645336,0.9034663943382499
2.41,-6.229753443445866,-7.5169768455018025,0.9249450763828638
2.42,-6.237619306049048,-7.5077956289216194,0.9463075556200435
2.43,-6.239971369288061,-7.506390450211557,0.9418807867938013
2.44,-6.233728419093369,-7.5147969875545195,0.9158581238228436
2.45,-6.2241781976249255,-7.524168215183457,0.9037819082717586
2.46,-6.208171089493677,-7.536634969542996,0.9099750030687414
2.47,-6.194278389009358,-7.547129573088043,0.9176738740923283
2.48,-6.203599262307207,-7.541414136389341,0.9012842710402175
2.49,-6.2303636365202655,-7.5260508650188065,0.8429758133197258
2.5,-6.250735823735046,-7.51735056833982,0.766606244138977
2.51,-6.2451024720734525,-7.527131885499021,0.7149700830346756
2.52,-6.219614683157922,-7.549401225379354,0.7022796727581966
2.53,-6.201169690745745,-7.564841554808226,0.6992371734129462
2.54,-6.208780806125978,-7.5615934251736805,0.6658362922788555
2.55,-6.230565706682959,-7.547463090626832,0.6213757942267691
2.56,-6.244301089578323,-7.538020028209524,0.597737952768018
2.57,-6.243356945561622,-7.540730239738278,0.572591122970931
2.58,-6.238012607664491,-7.549080077984835,0.5182629272016792
2.59,-6.232000856130817,-7.557136096108352,0.4713663405514349
2.6,-6.230390746983484,-7.559772268280057,0.4497913390206908
2.61,-6.237640275009164,-7.555755597297382,0.41534789775573966
2.62,-6.240310446687961,-7.555792527286763,0.3726047934925799
2.63,-6.243676410141212,-7.554247907828328,0.34645954310219956
2.64,-6.249504698450644,-7.551106524499132,0.307468106128245
2.65,-6.250750720173301,-7.551801317338059,0.2620993115087553
2.66,-6.235555828912923,-7.565000740369154,0.24258979893248944
2.67,-6.213902328986487,-7.583147172245446,0.23146532915772958
2.68,-6.206818905770937,-7.589711946254442,0.20475523137589371
2.69,-6.209286250230402,-7.5884781851527086,0.17326610316930144
2.7,-6.223048024629755,-7.577798481232338,0.14420690459708385
2.71,-6.236777803893037,-7.567070491179615,0.11129533682527719
2.72,-6.233623918812843,-7.569885937378746,0.09561940002298136
2.73,-6.237056702097739,-7.567123727051547,0.08973964803461236
2.74,-6.235943639267636,-7.568304593068298,0.06317835315213176
2.75,-6.215489521468482,-7.5852729876913285,0.03817625892619489
2.76,-6.190464970155873,-7.605793336494991,0.009682407710250774
2.77,-6.172809592544302,-7.620083018516976,-0.030985561253869927
2.78,-6.172649575205775,-7.620040453477742,-0.060832735443018066
2.79,-6.191779018015693,-7.604499756345996,-0.060531105713348285
2.8,-6.215881954938511,-7.58479150130122,-0.06327363881729059
2.81,-6.221984880261688,-7.579516125909568,-0.09003094342032196
2.82,-6.217759969442149,-7.582639304821277,-0.11557105822661173
2.83,-6.2249223166922825,-7.576420183956414,-0.13585381333818192
2.84,-6.218466322000569,-7.581163591386164,-0.16389875967757575
2.85,-6.197263940761568,-7.598298438368378,-0.17349295980914564
2.86,-6.189319962069769,-7.605157897722474,-0.15567979069902477
2.87,-6.1936280304479805,-7.601858975216148,-0.14512771941152786
2.88,-6.193396970508843,-7.6017996599484805,-0.15762210949811112
2.89,-6.18910674194234,-7.605234543903165,-0.16039876857438345
2.9,-6.181519068170021,-7.611440213385169,-0.15862430045520146
2.91,-6.184150597369279,-7.609049097189524,-0.16961505792363446
2.92,-6.215478362592728,-7.5831627362531355,-0.1833615161223749
2.93,-6.238672044496881,-7.563864721564408,-0.19311467459173176
2.94,-6.225080275305042,-7.575142567260021,-0.18868383501788244
2.95,-6.1932506149948585,-7.601853974815944,-0.1596591831740256
2.96,-6.170628802849561,-7.620864161129821,-0.12696114686242613
2.97,-6.161808164952293,-7.628148588599208,-0.11769984706531804
2.98,-6.164904995564292,-7.62572649345691,-0.11094842696636766
2.99,-6.199111936049981,-7.59813284440889,-0.09677242588648487
3.0,-6.231745630761125,-7.571226409800662,-0.1104831149278913
3.01,-6.229209411410464,-7.573159463135753,-0.11962351169566
3.02,-6.213473175928414,-7.586591878112241,-0.07967255279963133
3.03,-6.200795742436134,-7.597310482083534,-0.03533630123215327
3.04,-6.179125226471437,-7.615001269043595,-0.019630395088353243
3.05,-6.160025811108962,-7.630487644411554,0.0006039476731922469
3.06,-6.1597380652144595,-7.630684227481722,0.025111755278042956
3.07,-6.171144177188501,-7.6214529503681545,0.0282228670547468
3.08,-6.181630614678543,-7.612888071488873,0.03803583288774199
3.09,-6.194295449836076,-7.602229156248816,0.08232026732380567
3.1,-6.1985805328297525,-7.598115970979981,0.1285031395850131
3.11,-6.184008413729731,-7.609685086020983,0.14494927252783235
3.12,-6.163823165118858,-7.6260569251083705,0.14433101404574078
3.13,-6.145958739534971,-7.640306410780875,0.15209444226701793
3.14,-6.136168943313144,-7.64755740318032,0.18034509293863188
3.15,-6.139012814514458,-7.644579083662403,0.20804199477752858
3.16,-6.14747296906807,-7.637603082420897,0.2143626968052366
3.17,-6.158911245837772,-7.628579154982411,0.20718419155361792
3.18,-6.170515688072043,-7.619402831577243,0.19952904155700743
3.19,-6.175073532265718,-7.615663180473857,0.2012761717681085
3.2,-6.175337198263817,-7.61521309924612,0.21002936379419082
3.21,-6.170144342014128,-7.61917580036692,0.21863758445991244
3.22,-6.160395072983508,-7.626572716499906,0.23493796889957214
3.23,-6.146421271299323,-7.637400671460947,0.24891256605549458
3.24,-6.137043835556984,-7.645101990906974,0.24384378453479919
3.25,-6.132564468553942,-7.648897542307048,0.23745829892837308
3.26,-6.130374346567915,-7.650255692161758,0.24980463252432827
3.27,-6.121579706922474,-7.656601683819417,0.2700201284386644
3.28,-6.105949285617522,-7.66836062528024,0.28977335138875127
3.29,-6.118553774228916,-7.657957282064634,0.2982691166371495
3.3,-6.154521167169566,-7.629734332187946,0.2813907995848848
3.31,-6.175640150054764,-7.612958011882288,0.27327731347266354
3.32,-6.162235755114623,-7.62318574008589,0.289528089550897
3.33,-6.126401989552445,-7.650939344140679,0.31662651407066095
3.34,-6.09925471226344,-7.670806539157174,0.357333231806465
3.35,-6.094018942932301,-7.672528054858381,0.406791484949385
3.36,-6.110408378515316,-7.658891882136464,0.41729611832993063
3.37,-6.137347533421585,-7.639872552365116,0.36733572836230494
3.38,-6.157772681956487,-7.625796565583301,0.31525615716133776
3.39,-6.17297991181337,-7.613211407626123,0.3212337189167501
3.4,-6.184691736397006,-7.60135613505932,0.37287550798745
3.41,-6.177716175105483,-7.605130018244426,0.40993325516235934
3.42,-6.153361634758624,-7.624748340418795,0.41180681118833223
3.43,-6.136219288354918,-7.639460689159571,0.39462591547175235
3.44,-6.135028483700604,-7.641663182818403,0.36975611849002166
3.45,-6.1391349074574775,-7.639123703342793,0.35382524849510183
3.46,-6.136531141235236,-7.640783318135902,0.3627766835457401
3.47,-6.13057050219,-7.643925008265768,0.3959173204694471
3.48,-6.133000695662356,-7.640922670517077,0.41580448351934185
3.49,-6.145970874273435,-7.631493586342057,0.3969639955559099
3.5,-6.161513428023466,-7.619665143710944,0.3831628837360228
3.51,-6.163520283712653,-7.61786183038126,0.3867054040682449
3.52,-6.154567161999917,-7.625674398582515,0.37501544720714536
3.53,-6.15224507032624,-7.628651172025549,0.3519777932558633
3.54,-6.16479037057397,-7.618449162028625,0.3532151925046915
3.55,-6.176332461692586,-7.607609667249494,0.3839632883985795
3.56,-6.179539595350119,-7.603740138436769,0.4084372980682231
3.57,-6.1781077827106445,-7.604505441126944,0.4157310438653748
3.58,-6.181435193883917,-7.600613209479598,0.4366378970155623
3.59,-6.184638713252012,-7.596046327326584,0.4697455059399975
3.6,-6.172547701190808,-7.6055040070181805,0.47560906579789647
3.61,-6.154344061158032,-7.620865433843628,0.4655912361923735
3.62,-6.141657669898921,-7.630312030755314,0.47813946723342315
3.63,-6.138134261542004,-7.631522009141448,0.5035115704880434
3.64,-6.137977619308097,-7.630966794641199,0.5137556961824447
3.65,-6.129279873381095,-7.637647111472267,0.5181584570797472
3.66,-6.1156809421172875,-7.646945585198359,0.5412910870945329
3.67,-6.122848694979056,-7.6407708598369934,0.5469488339641917
3.68,-6.156026111886796,-7.6171521256501284,0.5019052902065986
3.69,-6.186105241010142,-7.594983987035354,0.46751129718754186
3.7,-6.181993603771566,-7.596140660058193,0.5010248917026769
3.71,-6.141628861142616,-7.6257508906882485,0.5461786928446722
3.72,-6.110939304666924,-7.649897857742146,0.5529808056244587
3.73,-6.102277609989506,-7.657215623003586,0.547310541172429
3.74,-6.106124799402095,-7.652579801488385,0.568840905698508
3.75,-6.118885756409455,-7.642325901245727,0.5692057259934631
3.76,-6.1384545857430615,-7.6300989069918135,0.5203735673364955
3.77,-6.15988183967124,-7.61511477295437,0.48594691636479476
3.78,-6.17054348144176,-7.605071998386027,0.5073821933226637
3.79,-6.164045077360746,-7.608532527643762,0.5339761722009865
3.8,-6.152213617459147,-7.618238338586363,0.5320342890105435
3.81,-6.1406062178015555,-7.627169089782329,0.5380716119376061
3.82,-6.1291154346314,-7.63551439109619,0.5506124331941522
3.83,-6.121995162064932,-7.642300153517178,0.5354206822474608
3.84,-6.132355951297009,-7.635180226232775,0.518174507874597
3.85,-6.144301364889112,-7.624524562264401,0.5332137400975657
3.86,-6.1318704903600185,-7.632274419865408,0.5645982873521311
3.87,-6.1158747841185495,-7.644578600708956,0.571689511709704
3.88,-6.1232768724983515,-7.640034569155433,0.5527080968462824
3.89,-6.141511877117025,-7.627344919964771,0.5250485430248721
3.9,-6.151176825289074,-7.621170820122236,0.5010850031985074
3.91,-6.153441249870318,-7.620475150709812,0.48361071327273514
3.92,-6.150474784773725,-7.622997103244383,0.4814762447517235
3.93,-6.137786850437115,-7.63177174092129,0.5039027175962325
3.94,-6.132960434677054,-7.634704785137924,0.518087692144685
3.95,-6.146456548876751,-7.624377279468988,0.5101228567051528
3.96,-6.160933755859788,-7.61311684918134,0.5037086518077908
3.97,-6.16408885694364,-7.610684795201141,0.5018570443681248
3.98,-6.162770243087173,-7.612565745603533,0.48926889875134116
3.99,-6.166533750460764,-7.611186089619556,0.46246685489310335
4.0,-6.176161114002826,-7.604792894245703,0.43879588590667823
4.01,-6.171622107531259,-7.607972981609764,0.4471473648458449
4.02,-6.153294218323276,-7.620899864451207,0.47844225604695056
4.03,-6.124922680254939,-7.642680612539438,0.4948330420477073
4.04,-6.1093955767524815,-7.655828727221291,0.4833577808371644
4.05,-6.144885864053111,-7.628802254869461,0.45931656267373794
4.06,-6.19591575245356,-7.589138283357296,0.4308666935483532
4.07,-6.217501607650735,-7.572058389759522,0.42063105528086925
4.08,-6.205841861182914,-7.580768189314404,0.4354436782996921
4.09,-6.179260858258411,-7.602027616528277,0.44284544269101034
4.1,-6.155785162486125,-7.62130593100337,0.43844233469066607
4.11,-6.135117875899293,-7.637503922244307,0.44623986902455215
4.12,-6.126461777910091,-7.643678991034487,0.4593196114228683
4.13,-6.142431815204219,-7.6311175668572,0.45454209300999854
4.14,-6.171864171332638,-7.608919662895551,0.42693982802289804
4.15,-6.204142694088642,-7.584237410289935,0.39758719951647964
4.16,-6.222267734100458,-7.570254327294534,0.3807974211196454
4.17,-6.2131687329446565,-7.577775340248477,0.37945105552645547
4.18,-6.187517626810006,-7.597847042004223,0.396751857408835
4.19,-6.169223815845709,-7.6113028315497555,0.42317246431505545
4.2,-6.158411288663198,-7.619969684413305,0.4244830237738473
4.21,-6.14806720244934,-7.629847864285932,0.3962199068770944
4.22,-6.15109872338331,-7.627950002430831,0.3854216162983395
4.23,-6.167198437836996,-7.613556122807429,0.4116944821540887
4.24,-6.175312999914857,-7.605090624501902,0.44543902704992244
4.25,-6.17768744407778,-7.602484683344951,0.4569041552202574
4.26,-6.181203660448139,-7.60077803170946,0.4370314931993452
4.27,-6.1789895494710745,-7.604370697119127,0.4048486728463853
4.28,-6.160380777132407,-7.6195308974031635,0.4029344490833918
4.29,-6.135223348328606,-7.637803791668081,0.43930653575167194
4.3,-6.128210198687016,-7.641328026016568,0.4748679418337652
4.31,-6.134675526211456,-7.635567147309807,0.48390052416598867
4.32,-6.157364386519674,-7.617316042613898,0.48303799250924934
4.33,-6.189031891506074,-7.5922717733102925,0.47262642281280653
4.34,-6.200888921304885,-7.584455733386065,0.4418715744848043
4.35,-6.193171874748644,-7.5913293614974755,0.43183585192568846
4.36,-6.183458458263974,-7.596928893852143,0.4705056329506573
4.37,-6.169685561442861,-7.6052671393320015,0.5147994587344794
4.38,-6.148993175396292,-7.6201566115191754,0.5415092095612413
4.39,-6.132793015827448,-7.630815699395347,0.5740368752130007
4.4,-6.124808200420438,-7.634745887677301,0.6064283944344306
4.41,-6.123125909582306,-7.636625258061026,0.5994150314372718
4.42,-6.126444619712417,-7.63710016895979,0.5580171224618193
4.43,-6.1529139221913285,-7.617852197172078,0.5288478838997424
4.44,-6.1955376770126165,-7.583919836623263,0.5190848154955322
4.45,-6.222396530904097,-7.563107300650921,0.5014485484805528
4.46,-6.222427648608582,-7.564131519087909,0.485342413138348
4.47,-6.198760102310259,-7.582525112476405,0.5004058080263227
4.48,-6.166118771675402,-7.606428049224266,0.5395313368483966
4.49,-6.1395758418343105,-7.625732845846899,0.5692718073771514
4.5,-6.1291116350512915,-7.633671910955397,0.5756452141865327
4.51,-6.137020982316067,-7.629317982055064,0.5479126284044549
4.52,-6.155907786885384,-7.617869186889921,0.4923424097824556
4.53,-6.17843786111908,-7.602509963391915,0.4460473088323406
4.54,-6.197153755822236,-7.5870401743411096,0.44958275987940893
4.55,-6.201413154195225,-7.58111743814605,0.4890841432614778
4.56,-6.183766809881591,-7.593616900797535,0.517774404853021
4.57,-6.156986157663306,-7.615312305831176,0.5184497082461033
4.58,-6.145210059352598,-7.625942175251554,0.5016579144358196
4.59,-6.145236855019804,-7.627504233506199,0.47695607484583313
4.6,-6.137907808103175,-7.634466499859676,0.4597423397561119
4.61,-6.132659630659564,-7.637648280859315,0.4760310529230097
4.62,-6.141865568390839,-7.626808225203611,0.5282782021683065
4.63,-6.153619034052599,-7.615079348828805,0.5602384849950202
4.64,-6.161863704811364,-7.609653355071353,0.5429418317281796
4.65,-6.177986442057735,-7.597867659067434,0.5246170111893185
4.66,-6.182418991160215,-7.594231938187718,0.5249628162935749
4.67,-6.166137996714015,-7.6063500997405065,0.5407018834056199
4.68,-6.162773400201953,-7.606863555385734,0.5709518359554284
4.69,-6.171829444306718,-7.597878732503082,0.5925677551745427
4.7,-6.16974829940519,-7.599938212668727,0.5877222940894569
4.71,-6.1591638895759475,-7.609279585030015,0.5778754661348583
4.72,-6.157940215682508,-7.609998370262651,0.5814073026954635
4.73,-6.162922292047082,-7.604372094270148,0.6016284274965111
4.74,-6.168649286760047,-7.596050049923837,0.6461213104308596
4.75,-6.180127746701645,-7.583686982679292,0.6811951352249469
4.76,-6.18570055952072,-7.581739490106702,0.6509575099382497
4.77,-6.184057553950239,-7.587837109000917,0.5936170198083287
4.78,-6.177957867139138,-7.593936780001857,0.5789898619359815
4.79,-6.163430993313973,-7.603928253902075,0.6020256582342157
4.8,-6.143803243377678,-7.61706522765735,0.6356346635297825
4.81,-6.133113795449379,-7.623482550115937,0.66165827938952
4.82,-6.149959237409434,-7.61068174361147,0.6519204968522913
4.83,-6.18658481800968,-7.584321591390807,0.6116905927044944
4.84,-6.198688741513872,-7.576172532210949,0.5900027020254086
4.85,-6.176569161844346,-7.593092172657205,0.6041165084111098
4.86,-6.147838752060673,-7.615042484596089,0.6207720181689993
4.87,-6.127341032921274,-7.63058608179021,0.6325688528512283
4.88,-6.128722522334889,-7.628218605625053,0.6475086265267065
4.89,-6.15190511531009,-7.610565162704714,0.6348433694218957
4.9,-6.176572710214142,-7.594519787723652,0.5856733423066297
4.91,-6.193889612325572,-7.583003634309331,0.5514717407327401
4.92,-6.198863415493842,-7.578510873796468,0.5572226870114245
4.93,-6.184331631388483,-7.588485732354858,0.5822214874127862
4.94,-6.161528462189521,-7.604921858856239,0.6089358803146063
4.95,-6.138542864103969,-7.622339219345401,0.6233212533232155
4.96,-6.12899701197226,-7.6307393852541034,0.6143142854701952
4.97,-6.138429837170495,-7.625723623295221,0.5814055886164355
4.98,-6.162939887246044,-7.608009341659392,0.5533586556010379
4.99,-6.197864568781735,-7.579832781834234,0.5502293513624449
5.0,-6.215642213674136,-7.564632347970001,0.5590239963061882
5.01,-6.214209344203996,-7.565868060947056,0.5581448668590717
5.02,-6.201582216217466,-7.577818794421102,0.5357731677340002
5.03,-6.179709905606256,-7.5975893944061434,0.5078673771045522
5.04,-6.157160244394835,-7.6166443031420945,0.4962878494518194
5.05,-6.138153243710456,-7.630716215416646,0.5150743388561098
5.06,-6.131857539950281,-7.633780174526453,0.5441464725507552
5.07,-6.139958605673434,-7.6279513726695125,0.5337791927418059
5.08,-6.160102414443143,-7.615795132501911,0.4707823923697676
5.09,-6.180827900372227,-7.603005906618823,0.40205385531178695
5.1,-6.18972838638797,-7.597236673898849,0.37367471081759085
5.11,-6.189667321627628,-7.597063785825047,0.378130561495473
5.12,-6.1912985473622095,-7.595408656039194,0.38463231227582856
5.13,-6.202636948048808,-7.587099906523782,0.3646966508718248
5.14,-6.216837357252306,-7.577758456532762,0.31335336396244107
5.15,-6.2191298419201235,-7.57764630016229,0.26829829141466627
5.16,-6.2071374790863025,-7.5875828706231205,0.26481404215495075
5.17,-6.182707149674558,-7.606442564999162,0.29302862155610127
5.18,-6.144813285694759,-7.636535653395766,0.3074512954166472
5.19,-6.127265609892596,-7.651470062977808,0.2853585087930794
5.2,-6.157146738933398,-7.62897188353224,0.2394941412344185
5.21,-6.205806282551898,-7.590505836439277,0.2046957303332987
5.22,-6.242967071116363,-7.560142809719514,0.199452117390829
5.23,-6.258476647381828,-7.547402162644235,0.19619085713861578
5.24,-6.248531279663077,-7.556093488804595,0.17716212604076126
5.25,-6.217540858047168,-7.581733439556933,0.17070989235594922
5.26,-6.1808357565448375,-7.611189227395029,0.19259826136374708
5.27,-6.171658835839609,-7.6182348507323985,0.20817518914894106
5.28,-6.196624474353082,-7.598468192185577,0.18624037896415924
5.29,-6.236219851039962,-7.5665702300158975,0.16206219987425938
5.3,-6.269739910031333,-7.538560383141542,0.17507384483155064
5.31,-6.26834909554147,-7.5393536909450924,0.1896349111506351
5.32,-6.235778725999366,-7.566601824041623,0.1772602582910707
5.33,-6.199201942394828,-7.596785832896879,0.16921678331265763
5.34,-6.166130846419959,-7.6234693839170005,0.1779134190739135
5.35,-6.143197011701018,-7.641883930294274,0.18181475913843642
5.36,-6.135740254874786,-7.647814296958748,0.18432205448444935
5.37,-6.151971540079395,-7.634391050113999,0.19793060497517584
5.38,-6.18588800297965,-7.606361914733322,0.21891913387115566
5.39,-6.205824488734285,-7.589355720286445,0.2443750811660035
5.4,-6.197841712483662,-7.595551738951332,0.25403729521092977
5.41,-6.178584301601481,-7.6117954061121935,0.2361905742337956
5.42,-6.1659077869608065,-7.6226583096736,0.21688426114185325
5.43,-6.160095016068122,-7.627030070728732,0.22754998507817858
5.44,-6.158395767755305,-7.627159820312318,0.26553161053401975
5.45,-6.1629085893729965,-7.621957766818691,0.307357776117396
5.46,-6.167394917720895,-7.617411322589876,0.32965186760998477
5.47,-6.173561228449274,-7.612599560188553,0.3251952812790988
5.48,-6.182751122109691,-7.605705966872223,0.3117507771529625
5.49,-6.187474440124116,-7.601622751213723,0.31732892509012406
5.5,-6.190093648952108,-7.5981588521850405,0.3476121362372341
5.51,-6.195258486796854,-7.59257491113156,0.3766567562748957
5.52,-6.202196391865756,-7.586202652386139,0.3906846149381058
5.53,-6.205220275527837,-7.583344643988769,0.39806603378068633
5.54,-6.19098954946637,-7.593946161595323,0.4165417837261375
5.55,-6.160365420268803,-7.616698456712922,0.45313118767049326
5.56,-6.1271655463063075,-7.641054699982575,0.4920046040511344
5.57,-6.112974015426552,-7.650841220154481,0.5162570407719146
5.58,-6.132617988354868,-7.634852310195181,0.5193809924764404
5.59,-6.1802755862026935,-7.596740957496228,0.5126867888715446
5.6,-6.2261922489066786,-7.559616929595551,0.5068841744134654
5.61,-6.234391999538297,-7.553154099695362,0.5024750398654465
5.62,-6.215436499571406,-7.567671566640687,0.5182282595878089
5.63,-6.19101870965351,-7.584309849519087,0.564679708737542
5.64,-6.162586908133218,-7.603344964271506,0.617623555451447
5.65,-6.145311820123505,-7.614907229705648,0.6470842457600258
5.66,-6.147294439779481,-7.613531640759975,0.6443629742096312
5.67,-6.159021540553908,-7.605341863796261,0.6288759601672733
5.68,-6.177890259336891,-7.590301990573901,0.6253394345534381
5.69,-6.199021652463245,-7.571115565761076,0.6483556481737872
5.7,-6.206083624982422,-7.563016386278599,0.6750329393167773
5.71,-6.2013139107031705,-7.566661585668141,0.6779919748963222
5.72,-6.195176768710432,-7.571990265586683,0.6746156675331212
5.73,-6.191676648006595,-7.574533921066597,0.6781881875640896
5.74,-6.187425295711691,-7.579268742818602,0.6637635326082989
5.75,-6.184097438237558,-7.584607469792845,0.6331511787127834
5.76,-6.179769958147045,-7.58937156913493,0.6182582834834193
5.77,-6.179724618848683,-7.5884970173496615,0.6292699919359624
5.78,-6.189792422496714,-7.5799343075247885,0.6335129980494018
5.79,-6.194246720130282,-7.578423943400729,0.6073644523403949
5.8,-6.196638706419195,-7.579286492663913,0.5710873018287521
5.81,-6.202293891903696,-7.577733957817606,0.52842987217381
5.82,-6.199384588646345,-7.582940590127003,0.48674966415232307
5.83,-6.192801357381431,-7.588490044524412,0.4839554949037082
5.84,-6.188856104033354,-7.590454537336737,0.503434312348373
5.85,-6.188262475654193,-7.592229908134759,0.48263015635593093
5.86,-6.185471271642425,-7.597626446534213,0.4314985853710463
5.87,-6.185466924025268,-7.598042100127075,0.4240936522705335
5.88,-6.19029601634326,-7.592558398280756,0.4512413671793705
5.89,-6.18593092968575,-7.595822829422918,0.4560663612264651
5.9,-6.181259228120545,-7.599922605413076,0.4511196996843918
5.91,-6.193574240083466,-7.589720252327814,0.4539249457299225
5.92,-6.200934265858812,-7.585588808692317,0.4201557391168916
5.93,-6.191590320442066,-7.596121736867856,0.36499884181422104
5.94,-6.171251870392711,-7.612847663029147,0.3604496623966945
5.95,-6.142766452077428,-7.633767970470262,0.40209453730350825
5.96,-6.123634987199479,-7.647612592627645,0.4306936727486244
5.97,-6.136117830798947,-7.637339972377746,0.43470249037084757
5.98,-6.176124206478566,-7.604504281978454,0.44328363029083917
5.99,-6.213486392997018,-7.573742047194025,0.44854537321751203
6.0,-6.224448466281728,-7.565952244729955,0.42736930710115323
6.01,-6.214464816313145,-7.575642992143286,0.4004274108084154
6.02,-6.193109370731422,-7.592550855155421,0.40999453798667845
6.03,-6.158201834140972,-7.617727803473179,0.46421060975684725
6.04,-6.132859815577309,-7.6341977167894965,0.5263291413851661
6.05,-6.129105566686098,-7.635477346212983,0.5512949034347041
6.06,-6.136523361960182,-7.629916994483942,0.545654679788359
6.07,-6.159420782249437,-7.61146125025116,0.5449980211666892
6.08,-6.191810821206373,-7.584196501243519,0.5581439308878187
6.09,-6.205832349729308,-7.571461921002926,0.575254243024121
6.1,-6.1942563767104675,-7.579681775063494,0.5913954839059101
6.11,-6.169592791536693,-7.598958294441615,0.601742685848758
6.12,-6.148496084087424,-7.615369212341447,0.6102800073799911
6.13,-6.140998171833259,-7.619948620142655,0.6282719704589212
6.14,-6.14913086351379,-7.6109977217575935,0.656483267203554
6.15,-6.167750032114469,-7.5935191189747915,0.6836498535188908
6.16,-6.1829945105775845,-7.578636432342542,0.7106362228770106
6.17,-6.1808279388262966,-7.578309400956731,0.7327125136458503
6.18,-6.161866632661307,-7.593816378750925,0.7317250006841283
6.19,-6.139078820464518,-7.613624368680462,0.7173844492326642
6.2,-6.121812845225265,-7.627233291704721,0.7203723947149893
6.21,-6.11630379011461,-7.628681718840583,0.7509730644703122
6.22,-6.1289795231372945,-7.614304797480549,0.7923183169936759
6.23,-6.154426225509732,-7.591057973665053,0.8178953610640034
6.24,-6.178387466757158,-7.572271995794853,0.8113835125510593
6.25,-6.189525451008875,-7.566317168835344,0.7814717806719383
6.26,-6.186643683554934,-7.571493302510276,0.753812809248816
6.27,-6.177510865704158,-7.578723855433128,0.7559425276725145
6.28,-6.16644877632,-7.584406894060783,0.7884757623528046
6.29,-6.163206424773232,-7.584710386065046,0.8108117903369528
6.3,-6.175867337104386,-7.576128818063836,0.7942833676253598
6.31,-6.1912405033429065,-7.566779884850735,0.7633111087552368
6.32,-6.188100961568035,-7.570376531623194,0.7529858668062723
6.33,-6.157498664588493,-7.594116331030225,0.7643482350189083
6.34,-6.127487163015678,-7.616898795548093,0.7791649829315695
6.35,-6.13180632736317,-7.61375436078294,0.7757042399863869
6.36,-6.163074606698043,-7.590721058469998,0.7530711596092666
6.37,-6.203158013008428,-7.5592115031282425,0.7409271717401503
6.38,-6.224770955268824,-7.54180517749251,0.7374076173663238
6.39,-6.212451727066053,-7.552476425298763,0.731913186819322
6.4,-6.186417376636944,-7.5740245568033115,0.7296989245596172
6.41,-6.159294356499986,-7.597001078949971,0.7202151111593511
6.42,-6.146664874791474,-7.608306272435727,0.7089089787957528
6.43,-6.156340865379601,-7.600209144897452,0.7117559924126615
6.44,-6.167469544503999,-7.590560231819148,0.7183788017875795
6.45,-6.177600151791535,-7.582028159976462,0.7214062774565857
6.46,-6.1889832049815094,-7.572450346212987,0.7244435144155671
6.47,-6.199111868097528,-7.563794244445761,0.7282631347047238
6.48,-6.1989160519650675,-7.564131016329116,0.7263715212294066
6.49,-6.179040354943928,-7.580814710408655,0.721684589051989
6.5,-6.159661814137147,-7.596138251057017,0.7263507654957465
6.51,-6.1584041413992665,-7.596880182043072,0.7292402098941149
6.52,-6.17266444601609,-7.585915730060323,0.7227173214335403
6.53,-6.186030248543789,-7.575030308335941,0.7227018539716985
6.54,-6.183566890165002,-7.576327037451001,0.7301188796952964
6.55,-6.1714736423761964,-7.585444617039096,0.7377417602184347
6.56,-6.160064164782284,-7.593860002733447,0.7464645587059352
6.57,-6.151111087521767,-7.601068654681939,0.7469411006246485
6.58,-6.149649021893392,-7.604034834496806,0.7284801501831151
6.59,-6.152340417329095,-7.603920702067747,0.7066991602926256
6.6,-6.156566777514936,-7.601989920317931,0.6904410341216719
6.61,-6.168247747052581,-7.5940287979324355,0.673544041543799
6.62,-6.182139806495323,-7.583338639531351,0.6666930381568169
6.63,-6.181203360619366,-7.583756828560731,0.6705685008889943
6.64,-6.166361008446949,-7.595928063883751,0.6694277484648765
6.65,-6.154960696474003,-7.6057386170499575,0.6630072148922973
6.66,-6.155892076755127,-7.605288406895522,0.6594897470401149
6.67,-6.166744359665276,-7.597593410526328,0.6465534182288803
6.68,-6.17973703716007,-7.5887085659113085,0.6265938646280768
6.69,-6.189963866443871,-7.580996620048859,0.6190508543360488
6.7,-6.183336245028101,-7.586491430245936,0.6178025106630554
6.71,-6.1589127323590676,-7.606480697646043,0.6159128547108477
6.72,-6.130574130119802,-7.6286098749842886,0.6247682639643235
6.73,-6.104569517262639,-7.648383864513922,0.6377177867159413
6.74,-6.103860017125447,-7.6491583410238295,0.6350730621270451
6.75,-6.1407101936862185,-7.6209401077830705,0.6182472633582555
6.76,-6.191169883893434,-7.580718647928606,0.6095222916606632
6.77,-6.226692616082244,-7.55116963983211,0.6151514155681064
6.78,-6.225569436187862,-7.552368219109181,0.6116027070673091
6.79,-6.1940773246165834,-7.578926646902847,0.6025074693170924
6.8,-6.156756626692734,-7.6080453553203515,0.6178006274757035
6.81,-6.1333735540151855,-7.624529168899243,0.646945709956861
6.82,-6.134731887501297,-7.62266770650092,0.6559526650363326
6.83,-6.153569065377446,-7.60803636601543,0.6492663194864801
6.84,-6.171028775482145,-7.593899003546985,0.6491839007343024
6.85,-6.182142286572467,-7.58513282872924,0.6458663756582106
6.86,-6.197652462658925,-7.574580749344886,0.6202499965608103
6.87,-6.214830392219837,-7.562499553968526,0.5956414829241472
6.88,-6.221302408372718,-7.5564215113226965,0.6050567575281387
6.89,-6.210538639183232,-7.563591978924243,0.6256966990606371
6.9,-6.192867523814316,-7.577486832254893,0.6327519268159063
6.91,-6.180611111991329,-7.586938531317803,0.6393117467759892
6.92,-6.1786595985519295,-7.5870372520743645,0.6567256432874652
6.93,-6.184541884536539,-7.581037316751677,0.6705895915114073
6.94,-6.186892311938383,-7.579098484716421,0.6708241543102993
6.95,-6.193544792174813,-7.573791782617315,0.6692764290247011
6.96,-6.210062495928179,-7.560657311505381,0.6647033856871823
6.97,-6.219723739218966,-7.554297972974649,0.6464173720107905
6.98,-6.2234376855844245,-7.552412031662903,0.6326622984421785
6.99,-6.224643554176135,-7.550266134320729,0.6461018106421265
7.0,-6.21310793030903,-7.55739860341255,0.6731503385932325
7.01,-6.199437823424234,-7.566928516022081,0.6920195552699984
7.02,-6.2031335265604035,-7.562650049979196,0.7054689507329943
7.03,-6.215252032859231,-7.552231927067596,0.71048852599931
7.04,-6.216823496475711,-7.55231667560572,0.6955576109892169
7.05,-6.216928342255138,-7.554160839807848,0.6743742496766597
7.06,-6.224796341824861,-7.548038030116179,0.6703451726907121
7.07,-6.231160085240074,-7.5415840311738584,0.6836924436855902
7.08,-6.233063376046997,-7.537859682253275,0.7069603129407364
7.09,-6.231217179215684,-7.537520401845006,0.7266820320639301
7.1,-6.216204657764965,-7.549809652471845,0.7274926242591546
7.11,-6.185543434296504,-7.575301469904014,0.7236623668627891
7.12,-6.151870732051575,-7.602230505221206,0.728433056457324
7.13,-6.139610509589076,-7.613020551539558,0.7192215992296058
7.14,-6.1624305997998325,-7.595967160992989,0.7039025161628226
7.15,-6.2001911476564135,-7.563074604179037,0.7256985556424097
7.16,-6.230945938572016,-7.533749536213978,0.7667306194944348
7.17,-6.246236587032271,-7.521399800667543,0.7635626673717412
7.18,-6.235206271543489,-7.533962935380565,0.7289960918968529
7.19,-6.194850587031428,-7.566789787532664,0.7323877345923806
7.2,-6.151045531879665,-7.597999945088945,0.7774773790885678
7.21,-6.136122871579226,-7.607231866166166,0.8052234064098736
7.22,-6.150285450797645,-7.59779719661868,0.7856096202356362
7.23,-6.179719663920481,-7.578156277767245,0.7430385724952678
7.24,-6.21294867905194,-7.554668540742186,0.704265822764345
7.25,-6.2359592504908745,-7.537843687943753,0.681197186863226
7.26,-6.237471393539486,-7.5358707789869985,0.6889857601097988
7.27,-6.221981832399651,-7.545308479487577,0.7246249536338992
7.28,-6.1999832463688325,-7.5612274406222575,0.7471302927823801
7.29,-6.179246738991094,-7.579315862104481,0.7355167766059553
7.3,-6.172014709901174,-7.586848950607298,0.7185553174530245
7.31,-6.183567168283575,-7.57825916074501,0.7097163029328023
7.32,-6.199810346095549,-7.565972458191602,0.6990812303217796
7.33,-6.206402868096643,-7.560683520060356,0.6978394956031215
7.34,-6.201539962131057,-7.563937910082918,0.7057455406022562
7.35,-6.19380119935943,-7.571198821067657,0.6956670265815477
7.36,-6.192166875980309,-7.575329473034537,0.6644821058552464
7.37,-6.193757810638056,-7.576343870208919,0.6377220309328077
7.38,-6.199607718509187,-7.572619732309229,0.6249867140399421
7.39,-6.21253212451516,-7.562567089464309,0.6183254587742318
7.4,-6.220299744954528,-7.556709945509038,0.6118598212453291
7.41,-6.220614913531415,-7.557796808238061,0.5948499879719656
7.42,-6.220887106431971,-7.560262433970314,0.559346464663705
7.43,-6.215285269257948,-7.567614372026966,0.5210932244970274
7.44,-6.205378132649396,-7.576904206977099,0.5041416876571159
7.45,-6.203927628900457,-7.5783339442065625,0.5004919399638741
7.46,-6.2145293727231286,-7.570913691682699,0.48047868784003006
7.47,-6.229820163760151,-7.560789354706057,0.4400105954452946
7.48,-6.239538483272851,-7.555195388097077,0.3964119383390353
7.49,-6.23302871853241,-7.562450550312603,0.3586633516842129
7.5,-6.20732328594848,-7.584743464042635,0.33263963798649854
7.51,-6.18994438240944,-7.599282383406558,0.32538195528158426
7.52,-6.20691298509763,-7.585365809810244,0.32610122966487004
7.53,-6.240272769020515,-7.558558830172695,0.31139974431969075
7.54,-6.270895586051603,-7.534537167431144,0.27597671559096565
7.55,-6.2942373666275,-7.516641137109868,0.22877652697579426
7.56,-6.2987393029354,-7.51410325244097,0.18477599684378065
7.57,-6.284013003219472,-7.527025345785842,0.15885077535425263
7.58,-6.2659269655725,-7.542090490801747,0.15895392669142933
7.59,-6.256055251641444,-7.549901159244052,0.17621518207737527
7.6,-6.256977202042791,-7.549115422976089,0.17704719993567858
7.61,-6.266395136073592,-7.541992489218868,0.14255607873522746
7.62,-6.2813044156872895,-7.530345167507544,0.09414339532137272
7.63,-6.297303997114732,-7.517367319832212,0.05724999311512337
7.64,-6.311978531185558,-7.505148375591685,0.04425550804185603
7.65,-6.319874611101003,-7.498471378733085,0.049736846605460475
7.66,-6.313403654759369,-7.50395136276779,0.04224853663926025
7.67,-6.2987474680362325,-7.5163377576404224,0.003555912527963796
7.68,-6.2793986161852935,-7.532463853309473,-0.0347600124596408
7.69,-6.259301999615329,-7.549153925284237,-0.04057234658267989
7.7,-6.248266136176124,-7.558358578750543,-0.026254600342258474
7.71,-6.246888973376976,-7.559534131738041,-0.003989236219682781
7.72,-6.248504940065772,-7.558187409068517,0.017823587117146607
7.73,-6.253243338553241,-7.554266268678113,0.012836348675554768
7.74,-6.263500137309828,-7.545667423906188,-0.029998674948064658
7.75,-6.268102513804173,-7.541567722047882,-0.07610703959583676
7.76,-6.261245959691602,-7.5471980983078195,-0.08264220706706414
7.77,-6.255130548447269,-7.552509161052018,-0.05493800924375358
7.78,-6.253869450702269,-7.553686169208089,-0.03650754729179833
7.79,-6.254011183645235,-7.553479275846778,-0.04996865416530951
7.8,-6.256853928454947,-7.550878511061973,-0.07858479618706132
7.81,-6.258038880528565,-7.549505889280781,-0.10969186882140744
7.82,-6.247442096147033,-7.557887686396936,-0.1341039276118318
7.83,-6.2385498554327645,-7.565361360383398,-0.12610066462402775
7.84,-6.250854504453534,-7.555664877289723,-0.09304162540073743
7.85,-6.263212283204522,-7.545420464628675,-0.09393029262943939
7.86,-6.262054968872233,-7.54567106825513,-0.1386218719828646
7.87,-6.267368383768142,-7.5406267345470726,-0.1711947811336651
7.88,-6.270730624250147,-7.537799842162168,-0.17276104616944046
7.89,-6.2481656194867785,-7.556796835542638,-0.157824733701551
7.9,-6.212534861744863,-7.586619946907955,-0.13145369498214302
7.91,-6.193903214871759,-7.602118551470405,-0.11715928270719653
7.92,-6.201383010513873,-7.595593060258842,-0.13994124179318745
7.93,-6.221149925767341,-7.5786394482323844,-0.1773915498918424
7.94,-6.236204575834439,-7.565724578801508,-0.19969635197207078
7.95,-6.241299272890534,-7.561447797284997,-0.20262146171522852
7.96,-6.239602307193217,-7.563349721952907,-0.18212069044618256
7.97,-6.232082575513126,-7.570274509028385,-0.14891974854192666
7.98,-6.223972793034514,-7.577104999150527,-0.14118353436196734
7.99,-6.213692343383937,-7.584784473611266,-0.1752600624370386
8.0,-6.200377586150633,-7.59485329174801,-0.20925082463093872
8.01,-6.200472958867709,-7.594869336954223,-0.20557601009261078
8.02,-6.214781794616071,-7.583744252844623,-0.1829983338695107
8.03,-6.22637825058887,-7.574533148267493,-0.17038906360650574
8.04,-6.235253332679084,-7.567132570659974,-0.17440669271755826
8.05,-6.243410373989501,-7.559841393897783,-0.1967860251919019
8.06,-6.240997587003562,-7.560927770703275,-0.22896054625332532
8.07,-6.2262448764414495,-7.572555548635746,-0.2459908059817311
8.08,-6.210088878853491,-7.586295880368794,-0.23002977252935977
8.09,-6.2001304744912655,-7.595593425964423,-0.18718612357074374
8.1,-6.194433065680156,-7.601195929268382,-0.14461200432496044
8.11,-6.194979589083887,-7.601021649441169,-0.13059421801426177
8.12,-6.2017920831794955,-7.594941734777388,-0.15637862061892116
8.13,-6.211003486613184,-7.586461113029102,-0.19761246372154653
8.14,-6.223521464256544,-7.575709331715132,-0.21610431452589202
8.15,-6.229829692273731,-7.570718562961254,-0.2092135223478933
8.16,-6.219215022302435,-7.579881222013563,-0.19207963574827888
8.17,-6.21026861054639,-7.587797861059144,-0.16754675420964132
8.18,-6.21258178372198,-7.586317371364746,-0.1482774964358837
8.19,-6.20953689083221,-7.588894307868833,-0.14385025816867586
8.2,-6.205493632124158,-7.5924335979134385,-0.13038772443879282
8.21,-6.206518208280581,-7.592044608484246,-0.10062061115951162
8.22,-6.202793106366577,-7.595299587702932,-0.08446371253481082
8.23,-6.203141953713943,-7.594931410565802,-0.0913226200771893
8.24,-6.215579450695908,-7.5845958585577264,-0.10358293317245527
8.25,-6.225492719779269,-7.57641565356932,-0.10746125629770058
8.26,-6.227195606171397,-7.575215767028956,-0.0911599705906624
8.27,-6.219738975187151,-7.581681530613723,-0.05108272758908284
8.28,-6.194821301767008,-7.6022074746360975,-0.004431613498851045
8.29,-6.159884425564659,-7.630525939605328,0.02658337271278124
8.3,-6.140264279758759,-7.6463263072854835,0.03487997960740143
8.31,-6.149673398223461,-7.638768169982601,0.02963407305183449
8.32,-6.1728240723231265,-7.620052896512573,0.03398855913697831
8.33,-6.191873316377939,-7.604346402253369,0.06595810221567776
8.34,-6.202575721554882,-7.595112697684518,0.11066943080945381
8.35,-6.201546418102219,-7.595479870770146,0.14066091585205517
8.36,-6.19177144690367,-7.6030456663176675,0.1608026088938819
8.37,-6.1804958466307625,-7.61170115305262,0.18350650152400352
8.38,-6.173086949582285,-7.617515326041845,0.19191076509210522
8.39,-6.172025668626401,-7.618584347965503,0.1834030274894913
8.4,-6.1781585727880355,-7.613317624825503,0.19448804435140432
8.41,-6.189941092694258,-7.602629563624506,0.23336276011950868
8.42,-6.195351072935176,-7.59711957617005,0.2676579086007794
8.43,-6.192678500941365,-7.59870436829158,0.2842247491347687
8.44,-6.194762844095264,-7.596973551174078,0.28505773257266287
8.45,-6.201886657154888,-7.59152786340434,0.27502240267256456
8.46,-6.205391958945573,-7.5888156392636965,0.2708805577629377
8.47,-6.20059655661954,-7.592104451426878,0.28756821534826554
8.48,-6.190942103429813,-7.5986806287663216,0.3198766467666926
8.49,-6.182472704548248,-7.604030273364681,0.3547275370499776
8.5,-6.169439581131236,-7.613558071073483,0.3767889863980415
8.51,-6.155820571857514,-7.6247707746645,0.3728637415223544
8.52,-6.160097917344287,-7.622334777448817,0.3511744652423013
8.53,-6.179449547707512,-7.607529563646947,0.33172822480101727
8.54,-6.189082302524431,-7.600174190859709,0.32091477959982073
8.55,-6.180680196966888,-7.607264886038058,0.3146494526227723
8.56,-6.1670043634265745,-7.618391913413415,0.31380136177558426
8.57,-6.159095097591315,-7.624887523056601,0.31145592714153203
8.58,-6.166501917492319,-7.618985611019542,0.30914208785995684
8.59,-6.177073539978356,-7.61024462477255,0.3135387497754419
8.6,-6.1745650988595235,-7.612217217261058,0.31503592174053213
8.61,-6.16535100434345,-7.61973770130485,0.31367081221445053
8.62,-6.156849578671297,-7.626717817250397,0.311016962487807
8.63,-6.165861095189866,-7.619964013689973,0.29721981631039684
8.64,-6.190100039810441,-7.601330272318213,0.26887269664061203
8.65,-6.199113797041181,-7.594801181459139,0.24558664957182863
8.66,-6.188568917781382,-7.603109614463138,0.2538404007752789
8.67,-6.170598622582315,-7.616741588789253,0.2810789633161958
8.68,-6.151704597925286,-7.631613465113227,0.29198203913789444
8.69,-6.145173961601077,-7.637350226127672,0.2792625712698356
8.7,-6.153967395048052,-7.630899393077254,0.2613692093875828
8.71,-6.167942936218707,-7.6196889150696965,0.25900754147523586
8.72,-6.180332480619179,-7.60928455335359,0.26939745961958195
8.73,-6.1885483338893055,-7.602694189804205,0.26687617212126924
8.74,-6.1980257764207725,-7.595443565900822,0.2529838939288759
8.75,-6.199384254855464,-7.59440227472042,0.251053201275643
8.76,-6.187197350885146,-7.603731440676799,0.2682985315187965
8.77,-6.180334867283623,-7.608640390454852,0.2870567256956983
8.78,-6.184180395219981,-7.605398398550668,0.29014483029544424
8.79,-6.190953623544484,-7.600028661044752,0.28638346236800327
8.8,-6.190662584176404,-7.600438909632156,0.2817496200126588
8.81,-6.18303656140492,-7.606748805000371,0.27890998417080265
8.82,-6.179969074587732,-7.6086118395034426,0.2952331916379197
8.83,-6.186106205146405,-7.602015319835546,0.33357831322317666
8.84,-6.193752712977762,-7.594698023409018,0.358261004207742
8.85,-6.194557592023475,-7.594625185835916,0.3453617601764742
8.86,-6.192252097425017,-7.597266051139279,0.3285399400035119
8.87,-6.186225436259884,-7.601556303941447,0.34217145712231656
8.88,-6.172599296485082,-7.610997864075598,0.3763785759818986
8.89,-6.163249682091267,-7.616290746197955,0.419832917801691
8.9,-6.164689515550003,-7.612650337936975,0.46277407371982754
8.91,-6.165414216325141,-7.611046590591954,0.4796034464892532
8.92,-6.160904179522733,-7.61503858778349,0.47414005184717656
8.93,-6.155552729946888,-7.619412625050066,0.4733828858864526
8.94,-6.151478943308655,-7.621897182835669,0.48610055261961255
8.95,-6.15183300450201,-7.619920198379762,0.5117600958193543
8.96,-6.159825994479943,-7.610840106935033,0.549116568951712
8.97,-6.174272542868638,-7.597120657104101,0.5764788368184381
8.98,-6.183273196670762,-7.589803821337423,0.57651046690287
8.99,-6.182527131909337,-7.590492666137727,0.5754547271930618
9.0,-6.174453295725885,-7.595287568480149,0.5981490530463904
9.01,-6.162410175932449,-7.602526658142438,0.6296218603686875
9.02,-6.155546207477893,-7.606394681448712,0.6498804599417235
9.03,-6.1585433714903255,-7.6035592971454,0.6546642620316634
9.04,-6.16882253335072,-7.5962304336360225,0.6427648137571866
9.05,-6.177071803949753,-7.590122680184513,0.6357631390950409
9.06,-6.171096624480043,-7.592052715096744,0.6691650932190847
9.07,-6.145734812667422,-7.607401059774499,0.725679879571161
9.08,-6.118332790594618,-7.627085357746303,0.7508441955287478
9.09,-6.115357807185229,-7.630456085564587,0.7407978986073641
9.1,-6.140104069889428,-7.611375335567842,0.7321048659440234
9.11,-6.1682873722174225,-7.589777728955618,0.7194268877426083
9.12,-6.184007149129082,-7.579625164613924,0.6909626022411608
9.13,-6.188792998094539,-7.576712179156513,0.6801835057088383
9.14,-6.1879009576685915,-7.574193593730857,0.7148814167025451
9.15,-6.18463639319051,-7.570911364083112,0.7752199911633094
9.16,-6.174830826584896,-7.575457439879513,0.8088191276058051
9.17,-6.1610354615398775,-7.588259101548403,0.7936916075592441
9.18,-6.158287012112701,-7.592970569893399,0.7698203198287719
9.19,-6.162361658073898,-7.589122495668799,0.7751048716512021
9.2,-6.161666231683936,-7.58737650994995,0.7973945156208269
9.21,-6.164696603081523,-7.582935810751541,0.8160187784361977
9.22,-6.171582679855555,-7.575512078559846,0.832744966070346
9.23,-6.179730435785507,-7.567146537213296,0.8482425035254463
9.24,-6.192135700794914,-7.557771647150231,0.8412622012400213
9.25,-6.200550718742133,-7.553990176865327,0.8127288936466877
9.26,-6.1977841765097335,-7.556752948285401,0.8082385726151786
9.27,-6.1851822161581635,-7.562513053388481,0.8493275864586624
9.28,-6.169880479931078,-7.568170355340429,0.9082191271174326
9.29,-6.155636478714256,-7.575123372282398,0.9464917412952367
9.3,-6.144004956348595,-7.584415579069367,0.9476980418425397
9.31,-6.1461939113042225,-7.585647118598356,0.9232340363626589
9.32,-6.156763688771971,-7.579753743577647,0.9010493863620375
9.33,-6.161216564970075,-7.575219453279448,0.9086703958921258
9.34,-6.164373820114001,-7.567548277329739,0.949913673933973
9.35,-6.16629919908679,-7.560437516710361,0.9932846368662288
9.36,-6.160285345348503,-7.563118191697202,1.0101849712391613
9.37,-6.157315188027876,-7.565554565264196,1.010068392529639
9.38,-6.161357731050453,-7.5615641659606725,1.015266179399264
9.39,-6.161531558054741,-7.558113939600471,1.039486102360985
9.4,-6.161644127846243,-7.552996555337496,1.0753676988414407
9.41,-6.16733451957623,-7.545618827153835,1.0945201226943986
9.42,-6.179242430504371,-7.53801615124511,1.0795144053708687
9.43,-6.197525171075773,-7.526808159088019,1.0525842434268473
9.44,-6.206358146181929,-7.519825799894526,1.0505571654458814
9.45,-6.186883442825042,-7.5315699630107,1.0805028039203755
9.46,-6.151430378168035,-7.553857723917219,1.1262737383780628
9.47,-6.123787524608697,-7.570832128574715,1.1626682080925028
9.48,-6.115356107984762,-7.577675470845184,1.1625587935592157
9.49,-6.138503905183127,-7.564035328989015,1.1284929997910957
9.5,-6.1773195015160125,-7.537467882298657,1.0940644335830496
9.51,-6.198432801195124,-7.5224330250919875,1.078323708841274
9.52,-6.199565725655204,-7.52307861802761,1.0672384891064481
9.53,-6.186939988125906,-7.533416102173218,1.067535239915055
9.54,-6.16804023434628,-7.543956670750205,1.101647997161583
9.55,-6.156987964924793,-7.545382521111667,1.152581836073355
9.56,-6.158217307231219,-7.542617107812577,1.1642935773249532
9.57,-6.1723372925013935,-7.539220738436083,1.109511579364141
9.58,-6.192321559982007,-7.534762710332109,1.0251874696039236
9.59,-6.197666476619422,-7.538260845230781,0.9661990879767629
9.6,-6.18677347178147,-7.547277921328737,0.9656908071505628
9.61,-6.170506861484501,-7.553530215940626,1.018865532626079
9.62,-6.15903779905847,-7.553698962176826,1.0850390078425962
9.63,-6.171590679618876,-7.5401470639272254,1.1080338632483289
9.64,-6.203446235600258,-7.522031752916709,1.0507703287212966
9.65,-6.233782842398422,-7.509725805748291,0.9549284221546858
9.66,-6.246114258784569,-7.505033195455176,0.9115424944808098
9.67,-6.221199202783247,-7.522296929290407,0.938508383381801
9.68,-6.166130639643005,-7.561416035025778,0.9860194993629328
9.69,-6.1100961290216445,-7.603823644405482,1.008927151773623
9.7,-6.074723789365383,-7.633655648681108,0.9975010968341367
9.71,-6.063210244922358,-7.647250407109664,0.9627971737013143
9.72,-6.060443251202023,-7.655489050850974,0.9133177081315494
9.73,-6.0522124555887356,-7.664989950140549,0.8882414573040849
9.74,-6.048617283738523,-7.664297561659122,0.9178452962148737
9.75,-6.082782926379301,-7.631698175131803,0.9620757541498196
9.76,-6.1606270037977415,-7.571550920061665,0.9404809505489289
9.77,-6.245968587615005,-7.511755440237688,0.8525485088063829
9.78,-6.307730332062692,-7.465924944148018,0.8011722647599424
9.79,-6.31129126736527,-7.4600789330742225,0.8271851938227613
9.8,-6.245498615152253,-7.509631772402832,0.8751038118832108
9.81,-6.156016909714693,-7.580667707056666,0.8968009940392427
9.82,-6.090429456846325,-7.633060340317282,0.9013573352735585
9.83,-6.054296531059501,-7.661960752969665,0.8999679417543914
9.84,-6.027816767301485,-7.686050026520928,0.8715623919859349
9.85,-6.009514125440114,-7.70482678458137,0.831477219918008
9.86,-6.0166950013842975,-7.700730644512709,0.8175201315822066
9.87,-6.06754555125677,-7.659617427417954,0.8267022185193207
9.88,-6.162843488511703,-7.5836182120846445,0.8206708109670573
9.89,-6.271074689598711,-7.498138818437525,0.7855141187028643
9.9,-6.3640866605584465,-7.422207313568051,0.7593871289529517
9.91,-6.39709905118535,-7.395707133032397,0.7422392361070527
9.92,-6.343758858947365,-7.443935921246317,0.7150599945530136
9.93,-6.250243157526967,-7.523750891308815,0.7029822714839687
9.94,-6.155327353608143,-7.599160796251549,0.7289047963277504
9.95,-6.0631896393881135,-7.667659485511879,0.7817902425498922
9.96,-5.970016585694989,-7.737545762331158,0.8100991745258135
9.97,-5.883086629965623,-7.807602143638903,0.7727986462417864
9.98,-5.843292541785474,-7.845500382284259,0.6870473352297999
9.99,-5.907633763627686,-7.799112617221512,0.6624673540282952
10.0,-6.0617066989292345,-7.674160640608341,0.7202364582682748
10.01,-6.246766061714553,-7.526908986411492,0.6912644651253225
10.02,-6.409689617076464,-7.396467343851231,0.6072243269104857
10.03,-6.47302727798967,-7.344322447697395,0.5754953010160787
10.04,-6.411565910496705,-7.392656963247475,0.6354476735089873
10.05,-6.312951551288171,-7.4744012839570235,0.6683894536031025
10.06,-6.2501581714351095,-7.5327706705843065,0.5997600667846172
10.07,-6.185865620594887,-7.590595230500156,0.5342487003877439
10.08,-6.062909934304713,-7.68866039921207,0.5356477495844838
10.09,-5.901512136499647,-7.809860677589891,0.5810046523021385
10.1,-5.824629563601668,-7.860269528764394,0.6758243480554906
10.11,-5.900375864793308,-7.7947040124389035,0.7680284659090222
10.12,-6.066533189259663,-7.662338139023282,0.8017561035447408
10.13,-6.233975827967962,-7.527558411871586,0.7963207403329863
10.14,-6.355959301335675,-7.428535479923911,0.764619114610979
10.15,-6.4461911836141885,-7.36007953959573,0.6626080466710166
10.16,-6.532386875769791,-7.295854600913458,0.5096523486319867
10.17,-6.559093961211624,-7.279417008895877,0.3962835987957432
10.18,-6.443408153726461,-7.380937308726229,0.40019887949614047
10.19,-6.204928215554111,-7.576548323863683,0.4831370709255613
10.2,-5.980695589654042,-7.7493214701708535,0.5779892689029165
10.21,-5.870852689892348,-7.825777391944736,0.6761401242870091
10.22,-5.8542847163581815,-7.829850005859824,0.767712816993269
10.23,-5.897057240243385,-7.79385397532225,0.8058463621275357
10.24,-6.003891075160452,-7.7162011041559335,0.7589007530765385
10.25,-6.139937220569672,-7.619103059849226,0.6397526899500651
10.26,-6.259122174969483,-7.5320689106977845,0.5032809343244518
10.27,-6.353138032461343,-7.4583180425029,0.42198478139669104
10.28,-6.394764378773133,-7.424663087018603,0.3893089814118473
10.29,-6.367583770493256,-7.448997482072834,0.3680089792900934
10.3,-6.305925317972065,-7.500531224479545,0.38166147504848735
10.31,-6.2359759621195066,-7.554591838276202,0.454991856214394
10.32,-6.156908181735003,-7.613224030271236,0.5453400746544101
10.33,-6.0909443095585765,-7.662165312327283,0.6004888713325343
10.34,-6.061036381848995,-7.6838332378566445,0.6267112898507509
10.35,-6.071463539164118,-7.674523788391842,0.6396262542453045
10.36,-6.119979212208977,-7.637764404889464,0.6155590114233749
10.37,-6.181304689436586,-7.594108443840017,0.5363906989645252
10.38,-6.227075593447781,-7.562400882558361,0.4495471235523697
10.39,-6.253402853658503,-7.542096385769616,0.42653063211660236
10.4,-6.257716825093867,-7.535341119752699,0.4781437060020415
10.41,-6.243415430958422,-7.541823623898489,0.5562852666510778
10.42,-6.2228285571866255,-7.553877407106939,0.6203787769802743
10.43,-6.202681304490517,-7.567705772453248,0.6532435689874206
10.44,-6.185789623344944,-7.582557263731576,0.6409998357324531
10.45,-6.174428703856625,-7.595631401224248,0.5936313781374973
10.46,-6.161455934097739,-7.608509748870101,0.5632852516962001
10.47,-6.152114043717359,-7.613087590553954,0.6013701246993037
10.48,-6.16056658164373,-7.598423117499538,0.6921541187298568
10.49,-6.181358558045021,-7.573467465041264,0.7760618866907091
10.5,-6.2076569986719985,-7.547730250090174,0.816512410495049
10.51,-6.233297902699834,-7.527617490272589,0.8068248350020656
10.52,-6.241390687434395,-7.524808093073866,0.7695812777135477
10.53,-6.230173422787726,-7.535127355035036,0.759639672939254
10.54,-6.211964728766454,-7.545700360424667,0.8020587842808576
10.55,-6.19831064133211,-7.549125203219401,0.8721868917708587
10.56,-6.196912708976136,-7.543734198169757,0.9275047139251394
10.57,-6.216417053911411,-7.526896354863175,0.9338218421091545
10.58,-6.253276446583908,-7.499822601517299,0.9047955398091143
10.59,-6.281931163345915,-7.477784099762213,0.8889910802407909
10.6,-6.284259711267852,-7.473174841444784,0.9109316970978728
10.61,-6.266746052034066,-7.483705864410073,0.9444643368788411
10.62,-6.234012658425423,-7.509605596085838,0.9553581858269766
10.63,-6.196013509902042,-7.54120553528455,0.9536581641758277
10.64,-6.173361065964732,-7.558411524271019,0.9645060220368049
10.65,-6.171347481644589,-7.557957492283912,0.980851553645153
10.66,-6.175882874329468,-7.553725609406711,0.9849274719785741
10.67,-6.189730651391456,-7.542928275638066,0.9806692553900392
10.68,-6.221269298402721,-7.5200833742236695,0.9558929264807009
10.69,-6.25921521825562,-7.49656189454099,0.8900352560616
10.7,-6.281910445957708,-7.485541240515949,0.8208122637786087
10.71,-6.273039398682263,-7.494992665871223,0.8026533683318601
10.72,-6.235183036535901,-7.524847764382461,0.817703191477595
10.73,-6.190820558789133,-7.560274783101367,0.8280458072801249
10.74,-6.157780439312037,-7.585374468345061,0.8448820065251815
10.75,-6.147740432497064,-7.591326103681275,0.8645038076244634
10.76,-6.17006711537432,-7.577611883927848,0.8239392991780295
10.77,-6.213026210957826,-7.553596255833448,0.712135734449612
10.78,-6.2480856974485315,-7.5336295587241935,0.6119178461423394
10.79,-6.258792811277788,-7.528112203549555,0.5703813262586839
10.8,-6.250566204697422,-7.535291414872162,0.5657916307337136
10.81,-6.237699217055046,-7.544710027599498,0.5819548444922302
10.82,-6.223608507827688,-7.553803487408182,0.6138099028391388
10.83,-6.206099072294473,-7.567501483248146,0.6224906803936668
10.84,-6.195895915664061,-7.579567741132076,0.5746913793625477
10.85,-6.201471531932704,-7.580219705431894,0.5010782371323884
10.86,-6.216853810595083,-7.570175613250776,0.46191790903552193
10.87,-6.22995634261296,-7.559048415632294,0.46763982778506513
10.88,-6.2322374315950775,-7.556343259370373,0.4808825121383298
10.89,-6.22687233602259,-7.561024713890716,0.47675014026214335
10.9,-6.21793337317618,-7.569834158738076,0.45281110946114816
10.91,-6.214049885635067,-7.574709318985274,0.42374592187291926
10.92,-6.215434413898492,-7.574744810652779,0.4023966308639497
10.93,-6.211007217123953,-7.578197956279838,0.4057280323984995
10.94,-6.203439685175377,-7.58280962203413,0.43406415240034957
10.95,-6.196309341292518,-7.588046412474422,0.44458759105078505
10.96,-6.189416632082798,-7.595648333209597,0.4085974448989901
10.97,-6.195554287154987,-7.593032812355915,0.3617535398480543
10.98,-6.207913311248268,-7.5839060063975285,0.3413248213588952
10.99,-6.213769717603856,-7.578408893650592,0.35637145696531564
11.0,-6.215843336016757,-7.574582355048722,0.39852469624716
11.01,-6.214029584632764,-7.5742320518281545,0.4325262419901607
11.02,-6.215555818887931,-7.573396705193091,0.42517779612240025
11.03,-6.221367777296954,-7.571160986858454,0.3763389387373714
11.04,-6.219502215507891,-7.57514858722821,0.323669219146238
11.05,-6.21359258639047,-7.580300264136412,0.3172451858737479
11.06,-6.203473327476601,-7.586742767790173,0.3577173788891149
11.07,-6.18622060196503,-7.59886875559702,0.3973526671151303
11.08,-6.185249209109656,-7.599644553412155,0.39800047122901905
11.09,-6.2034050850935785,-7.5870577965466826,0.3516692705450673
11.1,-6.2199426470453485,-7.57591928979318,0.2957321599083334
11.11,-6.22832059630586,-7.569740626282623,0.27823661414487383
11.12,-6.224843642990174,-7.572037731438313,0.29294594430936155
11.13,-6.215351852168946,-7.579436803671558,0.30311973921322893
11.14,-6.203838697352214,-7.589400816362739,0.28912221298881013
11.15,-6.202166565384522,-7.591380336206492,0.27280218289905356
11.16,-6.223598879072432,-7.573947615896074,0.2686827553203875
11.17,-6.245699278349952,-7.5563013191906165,0.2523840119304223
11.18,-6.250239519258014,-7.553559159971288,0.2198556816356836
11.19,-6.243711276819532,-7.5593983529647995,0.20474436884989247
11.2,-6.234152047933706,-7.566961934050653,0.21611189121972754
11.21,-6.2166167074453265,-7.581142853297174,0.22398068471367613
11.22,-6.19803502679096,-7.596639320699899,0.21365193834876833
11.23,-6.193130773348247,-7.600855834919957,0.2061683606349654
11.24,-6.200880245709771,-7.594537837805302,0.2059654864846026
11.25,-6.214503582287503,-7.583455809319647,0.20358654416034389
11.26,-6.226648128588894,-7.5735265562189875,0.20220575714126543
11.27,-6.228893191121701,-7.571605983080348,0.2050606302634373
11.28,-6.217718200440671,-7.58063533225518,0.21031306555963833
11.29,-6.198641502968778,-7.595955662654205,0.220225772604816
11.3,-6.183870700929412,-7.607930080944459,0.22242564436304205
11.31,-6.181783092659421,-7.609900350803842,0.21288760479628238
11.32,-6.1868780009617055,-7.605585959811484,0.2189127919635795
11.33,-6.195566183401817,-7.597889772688828,0.23929390337553497
11.34,-6.20686354204768,-7.589110126166513,0.22440438005590413
11.35,-6.214454595654821,-7.584205306775997,0.17315039334832302
11.36,-6.218892704966435,-7.581211783049088,0.14472628844047208
11.37,-6.219740833476982,-7.580295935846304,0.15561931085521313
11.38,-6.218722346162785,-7.580787872563574,0.17176306662750362
11.39,-6.212323336229681,-7.585895163357368,0.1777395181194801
11.4,-6.203635255180697,-7.592625004190258,0.19291098221737468
11.41,-6.201670054157431,-7.593958439588753,0.2036279359821175
11.42,-6.1994230737630796,-7.5965771894988094,0.17023760216929662
11.43,-6.1950659436828515,-7.601233180767875,0.10887304926822389
11.44,-6.199924446636098,-7.597659478931976,0.08281761772051321
11.45,-6.207224337068574,-7.591279265065698,0.11288538881382329
11.46,-6.199413945868676,-7.596867046357314,0.1574645077115349
11.47,-6.18094674845858,-7.611655743548252,0.1698070722702451
11.48,-6.176319201030463,-7.615881007476565,0.14695865974891312
11.49,-6.188599827389155,-7.606431370843867,0.11632724574774865
11.5,-6.203218006715908,-7.594735962695699,0.10184795626693019
11.51,-6.210600598275297,-7.58858130921577,0.11043479966200602
11.52,-6.2069098877956,-7.591302824360756,0.12913573205840304
11.53,-6.198460078568937,-7.598068978474969,0.13708864730396902
11.54,-6.184821613156949,-7.609197074948734,0.135614928117234
11.55,-6.175146124005393,-7.616960534539275,0.14080596013720698
11.56,-6.176827694626642,-7.6153973342628705,0.15121704704594008
11.57,-6.186926830657542,-7.606860626564957,0.1669540829098734
11.58,-6.201049443358383,-7.594880634281531,0.18704302057344643
11.59,-6.2120118034117935,-7.585989424241183,0.18438073642193817
11.6,-6.221336940786477,-7.5789768282412595,0.15544671766693804
11.61,-6.221212373224468,-7.579453133760239,0.13699846105901298
11.62,-6.210721433178963,-7.587743076656804,0.15255545685609614
11.63,-6.212745156856267,-7.5855525362361425,0.1772866671283413
11.64,-6.218315102739868,-7.580816226116063,0.18482126179953254
11.65,-6.213972998303088,-7.584371875041376,0.1849478501779443
11.66,-6.217599892821479,-7.58157559784088,0.17747838904510677
11.67,-6.227076506726592,-7.574299787949179,0.15387526901993098
11.68,-6.229513986053704,-7.572331223047872,0.15271451328109714
11.69,-6.222248810987918,-7.577616046975677,0.1827687006037215
11.7,-6.207403054689894,-7.5894806650372315,0.19551568470924033
11.71,-6.201185313155598,-7.5949069251582815,0.18161970748888387
11.72,-6.2065217522809935,-7.590934167925671,0.1646829874088252
11.73,-6.212089413882222,-7.586921822188057,0.13680623084799437
11.74,-6.2177199410017385,-7.582888803594556,0.0990349964357995
11.75,-6.2268861414813435,-7.575559157024822,0.08452660445001552
11.76,-6.238714537256176,-7.5656320856378345,0.09938672219006879
11.77,-6.247479206060519,-7.558336795571324,0.1044624285333743
11.78,-6.242973754458204,-7.562332016695299,0.08094820184143751
11.79,-6.232024791042298,-7.571505929133794,0.06706313762175423
11.8,-6.22288811124969,-7.578866171643383,0.0818620716119744
11.81,-6.2135913690588085,-7.586342657865944,0.09496877333926416
11.82,-6.215207563393721,-7.5851351978306125,0.08501642004189776
11.83,-6.229947967910786,-7.57329390272989,0.054677069454741205
11.84,-6.24267519736942,-7.562984253850195,0.01923854378859217
11.85,-6.2469027553504235,-7.559532457950738,-0.002839269816469077
11.86,-6.237702973559547,-7.567124410300303,-0.0026693703676072726
11.87,-6.2175391045957396,-7.583666246173308,0.017089258596607402
11.88,-6.201516632061808,-7.596733523594384,0.03343395252456943
11.89,-6.20843923526579,-7.591090678041803,0.030103946661991374
11.9,-6.237296500345519,-7.567423054367993,0.007158439596459794
11.91,-6.259032083842113,-7.549456054260846,-0.01941628415389629
11.92,-6.267349329915359,-7.542531609916433,-0.03031056784681882
11.93,-6.2581248514871115,-7.550164235845974,-0.03461661578086088
11.94,-6.233874257269147,-7.570180388666817,-0.03601541374655957
11.95,-6.216608411139971,-7.584434760235446,-0.018148487815688494
11.96,-6.210546182208835,-7.589392319615667,0.01738846096703896
11.97,-6.2193066258713525,-7.582182892409235,0.03222721518138996
11.98,-6.23831684601523,-7.5665844720175,0.00024477597328936244
11.99,-6.263517378713507,-7.54561049501819,-0.04348399556226447
12.0,-6.284171087125274,-7.528356371154643,-0.057533994939291115
12.01,-6.280878239385251,-7.531225223895274,-0.03722265260514373
12.02,-6.255085455642809,-7.552714224567806,0.004812945418216606
12.03,-6.230969591336177,-7.572469489235892,0.05051251112622319
12.04,-6.21513518901452,-7.585262431579642,0.07827836742616959
12.05,-6.2045058596991876,-7.593973142009943,0.0775724890465729
12.06,-6.205069661055396,-7.593641342525148,0.06366531641694588
12.07,-6.218080373293478,-7.582980168403009,0.06459913779528727
12.08,-6.235958085945065,-7.5681153284483065,0.08154559386548661
12.09,-6.249899703951841,-7.556319501008021,0.10495842681802135
12.1,-6.250687431688124,-7.555156198885812,0.13662740892504657
12.11,-6.23114308774162,-7.570564581086108,0.171295202361724
12.12,-6.205018635352157,-7.591695920011667,0.18453494049607086
12.13,-6.186235630929935,-7.60712254101421,0.1801941057301734
12.14,-6.170740858754507,-7.619463555264017,0.1897162239848241
12.15,-6.161353453685581,-7.626425829872479,0.21351074892722843
12.16,-6.1734636943718675,-7.615935588506935,0.23673350494886602
12.17,-6.192864911871346,-7.599577049154841,0.25507303463432024
12.18,-6.2201203396385045,-7.5767073593211745,0.2713687777968821
12.19,-6.249973635725521,-7.551890059312832,0.27725906696410424
12.2,-6.2581748061896105,-7.545122414039851,0.2770472785996578
12.21,-6.2496447226569405,-7.551128682970617,0.30408347071659436
12.22,-6.2305787112888815,-7.5646540847987325,0.35432448224551366
12.23,-6.211716573147237,-7.578954919095097,0.37981223025028804
12.24,-6.19706868783205,-7.591431586329613,0.36980985112682907
12.25,-6.183038810289885,-7.602949788604893,0.3681087019138297
12.26,-6.17976705060289,-7.60441747159635,0.3918113705152318
12.27,-6.178356877550679,-7.604163566530692,0.41816298846956224
12.28,-6.175479027077797,-7.60523388224814,0.44063730387618305
12.29,-6.185835445314686,-7.595966917451955,0.4549804214911379
12.3,-6.216223855815198,-7.571364389703279,0.4505170212260433
12.31,-6.24567180828864,-7.547479668062075,0.44415577052220606
12.32,-6.238692121693298,-7.552578709303499,0.4555045438709041
12.33,-6.210612738724038,-7.574557013915043,0.47369937619751074
12.34,-6.194951123056341,-7.5871412350759435,0.47772311624704217
12.35,-6.188540191364044,-7.591352357204053,0.49358956438111634
12.36,-6.188005537566339,-7.58819570144982,0.5454472809882173
12.37,-6.1952526556897975,-7.579151352105445,0.5877290993694019
12.38,-6.210688609908071,-7.567708277157067,0.5720344129238703
12.39,-6.232396331646792,-7.552704451664527,0.5327272587369563
12.4,-6.247611257561538,-7.541821550721316,0.5084805327687618
12.41,-6.253615565593593,-7.536915076787708,0.5075267842988677
12.42,-6.2508896025600125,-7.537308058357901,0.5343509506925153
12.43,-6.2292063991752755,-7.5515309843652405,0.5839358255897894
12.44,-6.210293032994998,-7.562784857933478,0.6374422494703065
12.45,-6.2025052102317435,-7.567713084974014,0.6549960494620892
12.46,-6.197139137507629,-7.574282244652893,0.6291513650055318
12.47,-6.209114654200426,-7.566789993711028,0.6006314262910887
12.48,-6.230988128670206,-7.54890004599957,0.5992542661374621
12.49,-6.242896335772644,-7.536406707369377,0.6315566853957755
12.5,-6.244326190634648,-7.531867427892458,0.670424839577617
12.51,-6.232053114002076,-7.541737668645948,0.6737875441200839
12.52,-6.210956704703185,-7.5601576285649195,0.6619746331019088
12.53,-6.190820439514385,-7.575159393958717,0.6788603614812235
12.54,-6.171807854195476,-7.586887868418739,0.7196065815550797
12.55,-6.163031722073784,-7.591150632089098,0.7494895269530469
12.56,-6.170208064686263,-7.5842720457093975,0.7600573293215405
12.57,-6.198809002283171,-7.5611961990788945,0.7570319193674961
12.58,-6.226221644234931,-7.540347668666993,0.7398942383539688
12.59,-6.2393589428074305,-7.531472282570306,0.7194577358240679
12.6,-6.245957285666678,-7.526297438470466,0.7164055691085954
12.61,-6.2394105003939995,-7.527719270967657,0.7569946181733431
12.62,-6.216133449887838,-7.540191592428757,0.8213022583240672
12.63,-6.192984034856984,-7.556926144038585,0.8426412925570369
12.64,-6.19143017223942,-7.561294996598318,0.8143102574446105
12.65,-6.198753115416498,-7.557922748600363,0.7896559771596912
12.66,-6.192973865363256,-7.562044929386756,0.7955336478023534
12.67,-6.174205595299778,-7.5748615495625415,0.8190211274525256
12.68,-6.152084557743789,-7.5902964378157005,0.8422699753054473
12.69,-6.149181785566737,-7.591360778346018,0.8539149463139257
12.7,-6.18498884892351,-7.563786449049937,0.8394878663031048
12.71,-6.233298531329317,-7.52743295188859,0.8082283315451795
12.72,-6.25834152632601,-7.508217839545935,0.7937890618285116
12.73,-6.245823157191425,-7.517576133840924,0.8037091231693241
12.74,-6.2102632145596335,-7.544889379902346,0.8228778791042973
12.75,-6.182888171537993,-7.565372283524657,0.8409554671980375
12.76,-6.165534877188699,-7.578243715714055,0.8524707594568145
12.77,-6.165553942387582,-7.578969890586078,0.845883873634069
12.78,-6.183698889262516,-7.566949892254929,0.8205149547065881
12.79,-6.210290268183716,-7.547665588941957,0.7969537870877835
12.8,-6.2396752510984825,-7.524683286876704,0.7846728302478961
12.81,-6.259725670976513,-7.509176048942781,0.7735593387059798
12.82,-6.256638282683316,-7.513283309662452,0.7585237542478721
12.83,-6.229211060882788,-7.536427442033097,0.7544897496681454
12.84,-6.197212802342942,-7.560819150686186,0.7736743201768321
12.85,-6.18334831969852,-7.5710027095027606,0.7851656340546118
12.86,-6.187127198715467,-7.569041290831413,0.7742080038461583
12.87,-6.197432393304325,-7.5621669374530756,0.7587994543561488
12.88,-6.211011136092665,-7.552960072089964,0.7391829883845813
12.89,-6.230372881718863,-7.54066252203131,0.7005761763260432
12.9,-6.252439462274575,-7.525223917663859,0.6694293086211023
12.91,-6.2538115422678775,-7.523741923462123,0.6734288009881092
12.92,-6.2379586084927245,-7.535330892982242,0.6905660485136214
12.93,-6.224059731252002,-7.546287039541986,0.6963897013693449
12.94,-6.212925627827564,-7.555804749741572,0.6926157880096576
12.95,-6.21560621044957,-7.555789127172737,0.6682160263825747
12.96,-6.237036970513218,-7.543383045875815,0.6050307622975027
12.97,-6.262048348362083,-7.527648613501839,0.5392507914448811
12.98,-6.279415721280733,-7.514796643731564,0.5167887922665756
12.99,-6.283217368929889,-7.510853435181228,0.5278301014466176
13.0,-6.267403139671122,-7.523227751362839,0.5394065504036221
13.01,-6.242352194377002,-7.543733058243046,0.5434290008254522
13.02,-6.2287719898545975,-7.555916355282576,0.5299279886629088
13.03,-6.229823658268614,-7.5579861162936615,0.48588106443357315
13.04,-6.245450336579942,-7.548845771373923,0.4228879584432172
13.05,-6.269552274042677,-7.531996908893917,0.36245143581192746
13.06,-6.285604392337548,-7.5204745308005645,0.32214091062325645
13.07,-6.285403302014532,-7.521657843276736,0.2977824730028987
13.08,-6.261160962099131,-7.542816444199027,0.27163492402765843
13.09,-6.22696011333051,-7.572058801979542,0.24240544759434424
13.1,-6.202908745833098,-7.592786303274158,0.20875567328963235
13.11,-6.21066591147129,-7.58738768731616,0.1710382552251504
13.12,-6.251370424583331,-7.55442721805697,0.14374673742328314
13.13,-6.286469117049793,-7.525584275900033,0.1263039471461263
13.14,-6.2906945839092385,-7.522661435470141,0.08152116245065326
13.15,-6.273497368237579,-7.53739133320796,0.003191513334231321
13.16,-6.252263164329964,-7.554927771095424,-0.04734767350283885
13.17,-6.228517879961664,-7.574551312159965,-0.04369667130098959
13.18,-6.220326875413475,-7.581363540251726,-0.028351530447686707
13.19,-6.237820372043039,-7.566935514544326,-0.03584367999064332
13.2,-6.276466850797975,-7.534740687600663,-0.058497971935381886
13.21,-6.317583791052802,-7.500075534075957,-0.08260318731970671
13.22,-6.324846717202881,-7.493418189010072,-0.12272042724496156
13.23,-6.297315385451247,-7.515820350318216,-0.1615492616511671
13.24,-6.264557037790915,-7.542969697142424,-0.17037377541494214
13.25,-6.244590140162015,-7.560202977062841,-0.13572456350897882
13.26,-6.231843619294526,-7.571365336218752,-0.09273093665183309
13.27,-6.222767027625053,-7.578916044505564,-0.08699440630484576
13.28,-6.230958488975811,-7.572020269548835,-0.09984804033030154
13.29,-6.256639026914938,-7.550746449362533,-0.10420570652917567
13.3,-6.283522582085888,-7.52856209777113,-0.0908579113222073
13.31,-6.293438723004163,-7.520459513602758,-0.07524957305091416
13.32,-6.279616976199687,-7.532157689511127,-0.05695053545535453
13.33,-6.253641549180159,-7.553890461372023,-0.026557443986413017
13.34,-6.2268603636406255,-7.576033077049463,0.002358307608074026
13.35,-6.210774163851481,-7.589224669110859,0.01654788896568322
13.36,-6.209995247424417,-7.589821175127173,0.03055480923508492
13.37,-6.2199900832064134,-7.581462805906788,0.05785526680330457
13.38,-6.239403882357625,-7.565123827005626,0.09372121179396105
13.39,-6.249380925331715,-7.556623188609716,0.11407940612650277
13.4,-6.242189261609442,-7.56247055303805,0.12025105991970025
13.41,-6.23437861437238,-7.568724641905877,0.1314376835129404
13.42,-6.2332000893413,-7.569439795505783,0.14543011483015725
13.43,-6.23442148279614,-7.568029586699595,0.16503270785913965
13.44,-6.232531697606361,-7.568911071760114,0.1933277429771006
13.45,-6.2354149436786415,-7.565826135635146,0.21944405615394388
13.46,-6.241810498611032,-7.560263517569029,0.22930947739308521
13.47,-6.241400156619524,-7.560632060076932,0.228344646174403
13.48,-6.227694980978776,-7.571773960067436,0.23316143941273829
13.49,-6.209590350370827,-7.58627466058438,0.24433504221216423
13.5,-6.210305609675644,-7.585133871424463,0.2611238267243539
13.51,-6.233048689475795,-7.565478964745399,0.287590545184663
13.52,-6.259834454255318,-7.54204422972066,0.3195026169509842
13.53,-6.269290861160234,-7.533854009261054,0.3277469735601203
13.54,-6.254836738113626,-7.546921824156598,0.301856981543808
13.55,-6.229729409722086,-7.568352532414605,0.28405062536798303
13.56,-6.2090785751862585,-7.584672954586308,0.3004821040088071
13.57,-6.198938591017096,-7.591136873524892,0.343275934765922
13.58,-6.210454132354055,-7.579347403153295,0.39203502915037536
13.59,-6.238514203410059,-7.555789266429983,0.40141578007382217
13.6,-6.267097605287844,-7.534225119549951,0.3587856665396821
13.61,-6.2923901858545745,-7.514642581474444,0.32571959238870396
13.62,-6.297243078239106,-7.5104316616206175,0.329415595930932
13.63,-6.279951337110912,-7.524066823305478,0.34762829986635035
13.64,-6.251641372005182,-7.545829253735551,0.38390872293550715
13.65,-6.2222911886535694,-7.56732782556273,0.43408396131415516
13.66,-6.200016064201908,-7.584141500803463,0.45915516063362494
13.67,-6.190783313199959,-7.59263928960284,0.4430655093136945
13.68,-6.189125563355857,-7.595262460934908,0.4207367134932483
13.69,-6.200559324600727,-7.585844664935599,0.4223134585800256
13.7,-6.227661863040135,-7.562303822977702,0.4447966094868728
13.71,-6.2479806466776,-7.544016727821115,0.4698537927879642
13.72,-6.247313934970092,-7.544116147747823,0.4772462805626015
13.73,-6.239279508933393,-7.551150830832859,0.47103608879573117
13.74,-6.223037510488854,-7.5643756838369205,0.4736495404761797
13.75,-6.19707739850048,-7.5838945486941425,0.5008414332001677
13.76,-6.185481063098024,-7.591509632102941,0.5282742571256742
13.77,-6.191390996207281,-7.58657329242592,0.5300494538001996
13.78,-6.205631729136776,-7.576101583771735,0.512932561180335
13.79,-6.220319977509721,-7.564750060840243,0.5025015921642425
13.8,-6.237949952914164,-7.550467923075109,0.49873251935303703
13.81,-6.246088901697596,-7.543892934229714,0.49642001392301344
13.82,-6.238687460338509,-7.548956661174603,0.5121910985801511
13.83,-6.229140217226196,-7.555726366005873,0.5283331725581312
13.84,-6.218783285010394,-7.5649696258789145,0.5179659936207688
13.85,-6.213599246202442,-7.570488733530845,0.4992132978081115
13.86,-6.213775534564079,-7.571180092806393,0.48641255438962794
13.87,-6.212726609140582,-7.5719291444353996,0.4881568873687294
13.88,-6.204393307683892,-7.578249141883351,0.4959780592303411
13.89,-6.186535766390201,-7.593076492793972,0.4921981938224474
13.9,-6.192574508427734,-7.588745321635288,0.4830210243042207
13.91,-6.222013031369768,-7.565045785736963,0.47619984339956334
13.92,-6.241046089183481,-7.549606050374222,0.4723568159564119
13.93,-6.24477898621151,-7.54664609713775,0.47037928259613515
13.94,-6.232684072603164,-7.557398440541762,0.4579117350283569
13.95,-6.206060524371007,-7.580523721263673,0.43656868756135875
13.96,-6.187231942629267,-7.595540468166982,0.4429856559163314
13.97,-6.18122535245322,-7.597848973334917,0.4849956041548964
13.98,-6.18364515045178,-7.593947969834975,0.5145669664549262
13.99,-6.196574475436872,-7.584892960770563,0.49201120114445973
14.0,-6.226810227926579,-7.563512229604898,0.4356436569320901
14.01,-6.254286713927196,-7.5425711212829345,0.40456711829776965
14.02,-6.262126164683615,-7.5350761969006355,0.4227114567407968
14.03,-6.2566676933695,-7.537494563535726,0.45876769933613964
14.04,-6.236027366232473,-7.553320267586761,0.47912338623692297
14.05,-6.218369002923209,-7.567792321074184,0.4803431069091575
14.06,-6.2189885213481775,-7.568593472608841,0.4592118213543867
14.07,-6.216573438822346,-7.572795799263786,0.42087250233732426
14.08,-6.215949470627069,-7.57470343821199,0.39516262801052987
14.09,-6.2181795760793905,-7.572538276605059,0.4015843443578633
14.1,-6.227031117808892,-7.56354384757435,0.4325464269236177
14.11,-6.247795758455675,-7.546038466792716,0.43887604919988754
14.12,-6.2555218236478165,-7.542299536983053,0.3900019328106416
14.13,-6.258748218494636,-7.5421301951710324,0.3382242635552797
14.14,-6.253585959223086,-7.5476471280920165,0.3098130392165522
14.15,-6.2294085985062955,-7.567784324133183,0.3054976744580241
14.16,-6.2066987939476475,-7.585631802036465,0.32449890917817603
14.17,-6.1903631037762334,-7.597947837897999,0.34764993767104624
14.18,-6.186926855117332,-7.601681571784562,0.3265669905641758
14.19,-6.204305954155339,-7.59010924299931,0.2576800714747006
14.2,-6.231376980974697,-7.5696163287416,0.20180191085878776
14.21,-6.262251798322536,-7.54442743416516,0.18969216825442675
14.22,-6.280936375587322,-7.529061181580536,0.1827352588355077
14.23,-6.286215794858471,-7.525350426576755,0.15104988557926904
14.24,-6.27985598989056,-7.531361094556128,0.11029487971257129
14.25,-6.25936811095532,-7.548780325098393,0.07995114708070819
14.26,-6.234824809964712,-7.56919694580198,0.06677866524503853
14.27,-6.214579639411506,-7.585757740773079,0.07463630137293759
14.28,-6.19733868070614,-7.599522132407418,0.10231647866321764
14.29,-6.18565606975837,-7.608871122761337,0.11440303273852208
14.3,-6.20149303057889,-7.596427101579726,0.07637032921953645
14.31,-6.249769172653016,-7.557082653629661,0.014766561546486973
14.32,-6.2932567125039585,-7.520958779323012,-0.009265934713893038
14.33,-6.301787805984779,-7.513825286880223,0.013623188028603947
14.34,-6.285993109974864,-7.526949671029329,0.039479923402444696
14.35,-6.247664403539134,-7.558733762958081,0.0476919349671286
14.36,-6.203557125554085,-7.594780594650923,0.0714211275142231
14.37,-6.180040129947564,-7.613382947558527,0.1163799960669784
14.38,-6.182639301468631,-7.610728159984117,0.14853239929193188
14.39,-6.203704233275821,-7.593578184304213,0.14795723700840152
14.4,-6.230779569174309,-7.571649333556927,0.13308794108611519
14.41,-6.256763317921227,-7.550143931278144,0.13599152595709987
14.42,-6.271497709953741,-7.53745435909633,0.15931004330779955
14.43,-6.262711941678023,-7.5440464392110975,0.18987380710816107
14.44,-6.2340005265405205,-7.566723930519188,0.2279466849458177
14.45,-6.208976357246153,-7.5858047773078,0.2724392218864311
14.46,-6.1926328904912085,-7.597680580924733,0.3110235103319918
14.47,-6.181239057777831,-7.605014329588059,0.3552113026536102
14.48,-6.192132808932149,-7.59369210656988,0.40421884516445683
14.49,-6.218488420376882,-7.571069367884468,0.42369893624523186
14.5,-6.231489557522952,-7.5598888481619735,0.4324082766899803
14.51,-6.225737679886633,-7.5625229909088825,0.4675737637597063
14.52,-6.2145089039668,-7.569281167094496,0.5060168198876794
14.53,-6.211773756254639,-7.569731258382264,0.5323064412707007
14.54,-6.206931749299815,-7.570737172633186,0.5728172100789412
14.55,-6.194505812759207,-7.576485514547451,0.6284591489736004
14.56,-6.187195542429964,-7.579314345602429,0.6654754851688374
14.57,-6.1900443794613755,-7.5759661208844875,0.677100238466472
14.58,-6.199826872932224,-7.5677348032692136,0.6796367106333534
14.59,-6.214021500339486,-7.555597850242609,0.6849945795993226
14.6,-6.220779293067102,-7.547989149035851,0.7071586459871824
14.61,-6.210343128569874,-7.552944768789161,0.7448871516309659
14.62,-6.197664763335571,-7.559994497223001,0.77825264252456
14.63,-6.195455323890642,-7.560306717343536,0.792758419298906
14.64,-6.2051798650575565,-7.553032411068259,0.7860039820917596
14.65,-6.222906498736196,-7.5398086170137075,0.7726713517587964
14.66,-6.229429408637744,-7.533819403086233,0.7785565745281218
14.67,-6.217630872952847,-7.540811044052877,0.8046799410271152
14.68,-6.195789035504535,-7.557526741404456,0.8162554073383502
14.69,-6.16982644274136,-7.58083742147436,0.7964547475902238
14.7,-6.174473458727896,-7.5796912386056405,0.7710257979152645
14.71,-6.213360937496578,-7.549779775660004,0.7516790289851742
14.72,-6.242133163188587,-7.5257733025969005,0.7541604009522064
14.73,-6.24867910921148,-7.517213232465427,0.784715058029423
14.74,-6.242723733148458,-7.5224770123668545,0.7817428962036442
14.75,-6.228632365705413,-7.540187159896366,0.720817135317376
14.76,-6.211773473410873,-7.558394279197455,0.674301528172807
14.77,-6.194168376062393,-7.571950485160382,0.6842188299876995
14.78,-6.1928276046218,-7.569745868265242,0.7197740307589756
14.79,-6.2095089918728235,-7.554928796047097,0.7316887635844241
14.8,-6.237790674510936,-7.533246640377021,0.7144037143550167
14.81,-6.2690006811596035,-7.5106353844899,0.6782945733331716
14.82,-6.283380168007491,-7.503513286493999,0.6216506382885469
14.83,-6.275216417296797,-7.513273149711838,0.585350091294728
14.84,-6.252203027250279,-7.531866994194263,0.5926246557454284
14.85,-6.224792796068174,-7.552545413245812,0.6174258113907697
14.86,-6.2090334954602975,-7.564114218268481,0.634358786891541
14.87,-6.196698460206127,-7.574059470367584,0.6363231542340962
14.88,-6.193820122889703,-7.57732430700854,0.625391151441319
14.89,-6.2008114046008185,-7.572944468285531,0.6089252113693658
14.9,-6.207752473901814,-7.567273668587277,0.6087319125222728
14.91,-6.219796070688463,-7.555826229289613,0.6276391844427176
14.92,-6.226295375077408,-7.550462002439313,0.6278074450070557
14.93,-6.221028002583217,-7.556967236009259,0.6011219110745271
14.94,-6.208902326726359,-7.567649005433917,0.5920930795032748
14.95,-6.1964595724997835,-7.575901634833195,0.6163623106114368
14.96,-6.189910129887458,-7.5790888017377815,0.6424459210996973
14.97,-6.187754030540341,-7.5798528741132305,0.65414690588776
14.98,-6.194028685297688,-7.574096241785051,0.6614042877493422
14.99,-6.2078131414396465,-7.563726330827218,0.6507322541691722
15.0,-6.225654381076474,-7.551133918840532,0.626011840888877
15.01,-6.233144721781955,-7.5457273305431745,0.6166717891505225
15.02,-6.224050369020507,-7.551762938474687,0.6343521675875234
15.03,-6.214291201033629,-7.558032695745635,0.6550265319677214
15.04,-6.210003208207737,-7.560823266085833,0.6634673758133427
15.05,-6.214207724950812,-7.5574345298762005,0.6627114576859439
15.06,-6.212024515959363,-7.559094378734887,0.6642451370285333
15.07,-6.20345728718783,-7.565373718933927,0.672752189893347
15.08,-6.179513220711484,-7.584639520221851,0.6761305316072316
15.09,-6.1560151011279425,-7.603850742701126,0.6747084929887865
15.1,-6.177064845031402,-7.586773906178684,0.6745512325327524
15.11,-6.220056910217653,-7.551782091741681,0.6720004663154447
15.12,-6.235096925140968,-7.539458993476456,0.6711859069576812
15.13,-6.220782748350417,-7.551708659402173,0.6662566100251214
15.14,-6.206073410385298,-7.564626765445947,0.6568257079786376
15.15,-6.193910645593013,-7.575382926222999,0.6476187746731076
15.16,-6.185848068298555,-7.580201925128732,0.6679584723552439
15.17,-6.185982448896964,-7.576113813519787,0.7115696062696252
15.18,-6.186749745355253,-7.574067066082108,0.7266425991655837
15.19,-6.185437128549151,-7.577100180711049,0.7058746785929901
15.2,-6.202201903913621,-7.565140056340995,0.68677585615573
15.21,-6.232099908923192,-7.540749972468706,0.6843085455962102
15.22,-6.245617423774666,-7.529540819264169,0.6845744480188733
15.23,-6.239687737173456,-7.53420784753925,0.6873086815457248
15.24,-6.227250779411752,-7.544323437116109,0.6891339751154584
15.25,-6.213043797051634,-7.5570333220530275,0.6780061917018952
15.26,-6.200097539908427,-7.568720165699682,0.6660434137708884
15.27,-6.185737847433638,-7.580126019195513,0.6698517563590023
15.28,-6.178404458554916,-7.584552398921149,0.6872018142600873
15.29,-6.1792712030035855,-7.581978663973681,0.7075059247907216
15.3,-6.1930043353720015,-7.569833553776991,0.717403022309218
15.31,-6.21746300975531,-7.552427144492359,0.688650391318127
15.32,-6.2457165486807265,-7.53564319702347,0.6123256728505501
15.33,-6.260347057241705,-7.529251944265304,0.5370067682193785
15.34,-6.252344028808241,-7.536777626961068,0.5249320832165665
15.35,-6.231118351150412,-7.551921684795789,0.5584673274500029
15.36,-6.209399585734948,-7.567701562941807,0.5861220805942764
15.37,-6.195455783786115,-7.578834326928916,0.5898795149297429
15.38,-6.1929756504179245,-7.5830471854452055,0.5610323346063103
15.39,-6.198598751675677,-7.581942469188204,0.5115891519662921
15.4,-6.211978124469965,-7.572806270572121,0.48398623687231584
15.41,-6.226297688576068,-7.56051591944993,0.49209571663005486
15.42,-6.238754824427442,-7.549785449364703,0.4990394543137046
15.43,-6.248613233915796,-7.543365303699254,0.4720003606554007
15.44,-6.250389356603719,-7.544632416357988,0.42589439817523406
15.45,-6.250717205436325,-7.546320749699621,0.3897080216431318
15.46,-6.241329558126409,-7.555198920350208,0.36759936391783093
15.47,-6.208537821669096,-7.58169472566662,0.377110645494047
15.48,-6.16541386765574,-7.615184046216379,0.4083653348962
15.49,-6.143035432972611,-7.632594860112053,0.42065145095042883
15.5,-6.1618505649073425,-7.619550204790849,0.37983410037592624
15.51,-6.213754663070163,-7.579704683237393,0.32746763119428607
15.52,-6.257417355608623,-7.544353528719945,0.3124627044479011
15.53,-6.260952217015621,-7.5411903769015405,0.31828463087192405
15.54,-6.243519427532557,-7.5554127538337505,0.32334487875962525
15.55,-6.2146525369875265,-7.578548878270514,0.3375953124462163
15.56,-6.182574621212288,-7.603106587416028,0.3724789751219199
15.57,-6.175623996874091,-7.608065751138137,0.386487668329226
15.58,-6.179670711242246,-7.606471611511957,0.35150792233325806
15.59,-6.187071584699143,-7.6018569344200095,0.31976818906002963
15.6,-6.207413257913231,-7.584872438222625,0.3287396890103021
15.61,-6.224316777457085,-7.569404728504408,0.36368930862990967
15.62,-6.243577764928326,-7.552098207037103,0.39223715658384
15.63,-6.250065764971446,-7.546891607184003,0.38921098680553506
15.64,-6.2308500213328,-7.563458851140185,0.3754090237082208
15.65,-6.2033882666385,-7.586522066142447,0.36464772150823405
15.66,-6.186160479820901,-7.600165348422181,0.37317930595985505
15.67,-6.18638024457826,-7.59733807633325,0.42354054478230946
15.68,-6.197887454238075,-7.583745919920759,0.4930297967882051
15.69,-6.206882538955653,-7.574729464115652,0.51810876366963
15.7,-6.2106414065448,-7.574133392620198,0.48034278132567837
15.71,-6.220932530246191,-7.569376804793852,0.4179731156994532
15.72,-6.228980394788823,-7.565377797383067,0.3675770143080373
15.73,-6.220758369583818,-7.57256913675065,0.35879501386730567
15.74,-6.204850982870321,-7.58388694147053,0.3934232901429627
15.75,-6.192040579859838,-7.5917578724028925,0.4405700193058666
15.76,-6.187888340192075,-7.594592799384046,0.4500901262674159
15.77,-6.205338023161705,-7.582292234887081,0.4158402987650062
15.78,-6.225814078779516,-7.568416461656504,0.35845908987641567
15.79,-6.234333336877347,-7.563362524217448,0.3145200252854796
15.8,-6.236288110088305,-7.5616178231759,0.3178429598761852
15.81,-6.236308882102631,-7.560680182766298,0.3389917632304111
15.82,-6.224812623176252,-7.570913008141067,0.3214568518322407
15.83,-6.212762150413738,-7.58252176643516,0.2778924331894242
15.84,-6.212097097811278,-7.58427642953921,0.24274507511729862
15.85,-6.2184126492972345,-7.579676840461402,0.2240656624752181
15.86,-6.226504846075301,-7.572665698776499,0.2360779181982204
15.87,-6.216820720525054,-7.5800382249535225,0.25400244645172143
15.88,-6.204062124279659,-7.591435706698452,0.22368958530690466
15.89,-6.2123285739455,-7.586590210949767,0.14388860280665036
15.9,-6.235789803162101,-7.568112573003199,0.09408294505241815
15.91,-6.252640698872191,-7.554157711876786,0.0977263556920529
15.92,-6.248127429028893,-7.557634925129923,0.11591606645640923
15.93,-6.2337289106301,-7.569332299623234,0.12732560460415668
15.94,-6.224668953050497,-7.576680457325089,0.13341374466332412
15.95,-6.216557772105004,-7.583437892093578,0.127549374845198
15.96,-6.209823840481372,-7.589143917425487,0.11559795866310145
15.97,-6.2126234937282145,-7.586996869606606,0.10569421508148003
15.98,-6.226367774036241,-7.575886798650926,0.09297839519537872
15.99,-6.239997999297151,-7.56472124775608,0.08822040442367887
16.0,-6.240322353585198,-7.564288618452366,0.10143341523097879
16.01,-6.235621760657471,-7.5677145952411555,0.1306469433438699
16.02,-6.238137986401734,-7.565241057682155,0.15207591003111257
16.03,-6.233623806666199,-7.569055496152436,0.14731302303083754
16.04,-6.231868243614193,-7.5703710781417675,0.1538786699030144
16.05,-6.229984920454177,-7.571614956401659,0.16828315641233654
16.06,-6.209660979344548,-7.588017434496514,0.18015847336421675
16.07,-6.199341352081582,-7.59571608041227,0.2088524172164282
16.08,-6.204731842691264,-7.589532181085109,0.2656600585199008
16.09,-6.201910749956365,-7.589722160837292,0.3204861438167107
16.1,-6.194621205020399,-7.59458832331861,0.3453394058276826
16.11,-6.195966326241312,-7.593538366303579,0.3443198698392265
16.12,-6.200927208698691,-7.589915407530015,0.3347566232407591
16.13,-6.205297014673176,-7.585368374487237,0.35615767469784143
16.14,-6.2041874595808615,-7.584314316588585,0.39570059040151073
16.15,-6.19638489879289,-7.588591444222195,0.43408227434268604
16.16,-6.191888886641025,-7.590082495714579,0.47063392416320793
16.17,-6.188300972792752,-7.590141302486363,0.5147860207604014
16.18,-6.1943814823863015,-7.5827419059090415,0.549554607199482
16.19,-6.19866761132715,-7.57866875587758,0.5573885288883667
16.2,-6.20038823279463,-7.575756952335799,0.5774726733536844
16.21,-6.208323399705446,-7.566491567763049,0.6125927779593456
16.22,-6.2073511700937765,-7.567564643943222,0.6092196893324929
16.23,-6.21096841307229,-7.566212948868279,0.5887804921867692
16.24,-6.221900568735626,-7.555328575984607,0.6126364564526992
16.25,-6.205914994998698,-7.563726800143967,0.6685448570151956
16.26,-6.167157166699994,-7.591395932958702,0.7121486501851438
16.27,-6.138936510498197,-7.611780555807505,0.7379713704762235
16.28,-6.1492146698965975,-7.603033954247309,0.7425738882325476
16.29,-6.186730705857688,-7.574515642406296,0.722083206896738
16.3,-6.228665938349641,-7.541086710873203,0.7113741650651398
16.31,-6.241155576023619,-7.531558495472303,0.7028413521846392
16.32,-6.225889861122944,-7.546164098461466,0.6812327061692981
16.33,-6.204060219515024,-7.563426587822639,0.6888965029405052
16.34,-6.185646961569356,-7.571471249106962,0.7621456079809342
16.35,-6.169346355437325,-7.578410762664157,0.8229109801061224
16.36,-6.160794334472845,-7.587119137129743,0.8066090397012955
16.37,-6.172893384124885,-7.581011728715257,0.7707296437276292
16.38,-6.18862002449926,-7.570677024677581,0.7457886741345746
16.39,-6.189619699141305,-7.572922240657469,0.7140234941179016
16.4,-6.205387385489829,-7.561392615639938,0.6991986804150762
16.41,-6.222471097226571,-7.546620615467844,0.7069284289637444
16.42,-6.235566375743907,-7.534001990612354,0.7258834187582264
16.43,-6.257692588039304,-7.514964599574077,0.7327823162957033
16.44,-6.250042842949134,-7.524361550134221,0.7009376396872818
16.45,-6.2290915285018995,-7.545956569599969,0.6536886684579541
16.46,-6.2170801193054235,-7.55813903967671,0.6267560923377341
16.47,-6.199491441776531,-7.57037857243064,0.6527263810767236
16.48,-6.180228382465291,-7.581960487777528,0.6992889016032034
16.49,-6.177528028146507,-7.583149929799679,0.710181482632353
16.5,-6.192929870247698,-7.574939512672164,0.6620082110942018
16.51,-6.231646303116231,-7.549327632694303,0.5869851686410742
16.52,-6.261917052808172,-7.52837996607649,0.5312601901152061
16.53,-6.256750003090344,-7.533257360187843,0.5229621387712188
16.54,-6.2422644398372364,-7.5432899869827095,0.550715909540996
16.55,-6.21875131683926,-7.560413633859508,0.5810875690495668
16.56,-6.209657416638285,-7.565994400345828,0.6052065338710647
16.57,-6.218483082202447,-7.560144246659928,0.5874286092613523
16.58,-6.218540107995706,-7.56367802756805,0.5393688917982606
16.59,-6.223090723675624,-7.561598094197194,0.5155284664288019
16.6,-6.226428705488455,-7.558762859268898,0.5167875589114309
16.61,-6.228538360817607,-7.556710025415828,0.5213616402338925
16.62,-6.233521485964299,-7.553382015916581,0.5099191399368608
16.63,-6.22914683499805,-7.558954639578678,0.47992870008558675
16.64,-6.220767578402344,-7.56728899722262,0.4566965932036971
16.65,-6.206013217838668,-7.579280982457039,0.4585761161273367
16.66,-6.178301600777475,-7.600719462265146,0.47753406948571914
16.67,-6.167432853532672,-7.608575060495402,0.4926889926117805
16.68,-6.193360264929613,-7.58871894557248,0.47329896364360285
16.69,-6.226571297582338,-7.564458067128662,0.42328830616541585
16.7,-6.230122802355754,-7.563397253993701,0.3885670020577675
16.71,-6.217052755586751,-7.574231075770445,0.38687379951724116
16.72,-6.204439211496421,-7.584217728584482,0.3936542941056096
16.73,-6.193966090473651,-7.591608528988162,0.41550808531479627
16.74,-6.184952706636372,-7.596052787988012,0.46554098018423845
16.75,-6.187144640104788,-7.592738654682872,0.4898230454973058
16.76,-6.192895871755194,-7.591185014438851,0.43853663767480155
16.77,-6.19866166291242,-7.589496263039915,0.38277789489937314
16.78,-6.203983480875445,-7.585215499824252,0.381410795982048
16.79,-6.199890561968763,-7.586983363368417,0.4115934727908826
16.8,-6.19459295582943,-7.588937141643221,0.45322519263473976
16.81,-6.197304868008297,-7.58453728648294,0.4884539283319654
16.82,-6.2017503687361035,-7.581655627659532,0.4765949711346776
16.83,-6.215411606640327,-7.573658429946072,0.42277920351731757
16.84,-6.223358206947193,-7.568654213764739,0.39453746779633836
16.85,-6.211664962701575,-7.576139892895162,0.4331665808631444
16.86,-6.191016559518444,-7.588519105921594,0.5060137399811299
16.87,-6.176389085794196,-7.597170755747836,0.552797713863556
16.88,-6.164840610067611,-7.606162078520014,0.5580422001816667
16.89,-6.166615583092605,-7.606003050828055,0.540310515391653
16.9,-6.184334354663117,-7.593889978755191,0.5071805367033586
16.91,-6.19717514302624,-7.584554055596402,0.4898431326639906
16.92,-6.205260910077796,-7.576628755046684,0.5097120751520503
16.93,-6.206233591286931,-7.574051825943184,0.5355271421764453
16.94,-6.202304679190151,-7.576583621860456,0.5451400457904089
16.95,-6.200709060431579,-7.578736448379835,0.5332285380116601
16.96,-6.199952647304184,-7.581639439852578,0.4997167119890152
16.97,-6.203832443146492,-7.5797413996939484,0.4799479706187853
16.98,-6.207745076310705,-7.575416856794716,0.49728668181307517
16.99,-6.21649238393969,-7.565243084952859,0.5410172720544165
17.0,-6.219310127223086,-7.561942628843324,0.5545853651534378
17.01,-6.208016680423275,-7.572884014520323,0.5313399944804763
17.02,-6.211642388333404,-7.57155987302075,0.5072960027293517
17.03,-6.228021589836829,-7.55907812289784,0.49240977108254735
17.04,-6.222854071638858,-7.563237277152116,0.49383348367490915
17.05,-6.200404150295963,-7.5796711347081285,0.5234005568193179
17.06,-6.1967356768512,-7.580839278807866,0.5492768337046674
17.07,-6.2202070908773175,-7.56297327958838,0.5298823661784922
17.08,-6.241549240399911,-7.548454942999232,0.48401797142300435
17.09,-6.247248978588227,-7.544986005065335,0.46415646211390943
17.1,-6.248882792947745,-7.542683565910732,0.47933751126173096
17.11,-6.241426348752908,-7.54785453373747,0.494803070759204
17.12,-6.228746808184392,-7.555810929513662,0.5317585780953401
17.13,-6.2250615843787696,-7.55569941228575,0.5747959251158758
17.14,-6.222639525203856,-7.558297319225852,0.5667875442089024
17.15,-6.22019217991468,-7.562814425455477,0.5323768749991
17.16,-6.223983963596165,-7.558913317204378,0.5433416502969513
17.17,-6.23504116022907,-7.548302253672869,0.5637091421859607
17.18,-6.243496911202354,-7.542636637224695,0.54567647530156
17.19,-6.252294947674898,-7.536305635259087,0.5322415547645248
17.2,-6.259287222345445,-7.529206775370719,0.5502075283985017
17.21,-6.256971479736842,-7.528982648256853,0.5788762541011807
17.22,-6.24977346051767,-7.533619370993864,0.5960455776448237
17.23,-6.230091332253663,-7.549689145369206,0.5987605913721734
17.24,-6.208048131830402,-7.566772640486274,0.6119190439358301
17.25,-6.196906608443907,-7.573462339925923,0.6413802911469128
17.26,-6.183635192869093,-7.581534585580381,0.6733037382049775
17.27,-6.176515106677441,-7.584576244918293,0.7037351757659521
17.28,-6.179984786977294,-7.580336475420029,0.7187821895378429
17.29,-6.196647637398481,-7.568607985788173,0.6986265459351436
17.3,-6.213058827579138,-7.557238903220534,0.6755955599940457
17.31,-6.213499320806583,-7.556344695863065,0.6815132893579241
17.32,-6.20847030500702,-7.5592545895080265,0.6949398984716931
17.33,-6.208441024709754,-7.557897166486389,0.709774767556931
17.34,-6.219507855317645,-7.545440667138822,0.7445834453609483
17.35,-6.219194505799145,-7.543660473478233,0.7649665649158979
17.36,-6.201971467699809,-7.558704775411792,0.7562583673809581
17.37,-6.195160610644791,-7.564211204793106,0.7570160025643363
17.38,-6.196450333359707,-7.5614827542813385,0.7735267110067133
17.39,-6.204782228074303,-7.553147010672173,0.7880527833309201
17.4,-6.215157235317635,-7.54498795198659,0.7844497504155841
17.41,-6.2193660423550075,-7.542407330855197,0.7758560193104048
17.42,-6.210704093276775,-7.548673514903705,0.7842459951486023
17.43,-6.204735577999753,-7.550900723517407,0.8096464064377643
17.44,-6.197492978678337,-7.554818751340355,0.8283485376551681
17.45,-6.1793877552833,-7.569059847238709,0.8335986276710249
17.46,-6.1814256998262085,-7.566677555574395,0.8400534134392094
17.47,-6.211680133325729,-7.54188251482908,0.8398505978980886
17.48,-6.240000053841256,-7.519981848861654,0.8261968703944712
17.49,-6.259833517704301,-7.504973450217525,0.8125528747202453
17.5,-6.263557438632522,-7.502245415463275,0.8090266092250586
17.51,-6.244343999982084,-7.518138482538511,0.8100014399680583
17.52,-6.220740552718062,-7.537249953146761,0.8140050027671386
17.53,-6.201132016272851,-7.552574974190043,0.8215429891110596
17.54,-6.188747617570569,-7.561147376441124,0.8359540757512193
17.55,-6.188848935494308,-7.558970501217562,0.8546711486875156
17.56,-6.198350861807131,-7.5482007724479585,0.8805961456573427
17.57,-6.21915600673917,-7.528950814409172,0.898523524347354
17.58,-6.239064411262472,-7.513296762069453,0.8915165110456039
17.59,-6.251179757212675,-7.504767460121351,0.8784039182930025
17.6,-6.2471493054114005,-7.509201354106294,0.8691122750923534
17.61,-6.238539863492306,-7.519718350085323,0.8394853044845835
17.62,-6.237305547209795,-7.525534046271232,0.7954279734771512
17.63,-6.235194327126543,-7.529887292735061,0.7704094146439319
17.64,-6.232393606870032,-7.53087652505284,0.783235833424815
17.65,-6.232998133222989,-7.5261324245639605,0.8230405026941419
17.66,-6.231248304451873,-7.524655269556557,0.849377514708599
17.67,-6.22780761604007,-7.531262449878524,0.815093806504922
17.68,-6.2345710725465215,-7.535082884749604,0.7229048830110882
17.69,-6.246799394038981,-7.53244384545003,0.6403881219304269
17.7,-6.250892298871602,-7.531905036574879,0.6059239783838349
17.71,-6.246245283307198,-7.535918777468504,0.6039409483819684
17.72,-6.2474543550143755,-7.5346280105294365,0.6075243736290676
17.73,-6.252333385278519,-7.53045534019694,0.6090441852741164
17.74,-6.247755877720651,-7.535985911908218,0.5870331761174644
17.75,-6.238825263170036,-7.547984606543254,0.5244383316550987
17.76,-6.239324341053539,-7.552150159030835,0.45406144199538423
17.77,-6.2369928787684294,-7.555903861728331,0.42262113627218667
17.78,-6.2281957258883445,-7.563506909049551,0.41625538691806707
17.79,-6.227364866361332,-7.5657049717940135,0.3877282547418721
17.8,-6.240289485766832,-7.556544176012933,0.35746888755230216
17.81,-6.241022208090812,-7.556961884381862,0.3350083506858049
17.82,-6.218732152431996,-7.576727103399907,0.3013222240311892
17.83,-6.197060032764005,-7.595885353740148,0.2633012284631227
17.84,-6.190860416506686,-7.601614183161755,0.242982722789957
17.85,-6.208800840469184,-7.587557895167236,0.22312848581466105
17.86,-6.238756440047707,-7.5645045366831525,0.16199690994921073
17.87,-6.255177493213949,-7.5520521869756285,0.09775473838415588
17.88,-6.263519001395501,-7.545491573505034,0.06474129603240733
17.89,-6.251474445933181,-7.5556722470610795,0.03387566830523204
17.9,-6.22548060201622,-7.577169279258067,0.013644690498668498
17.91,-6.205535011775978,-7.593439054727969,0.036258778976547404
17.92,-6.209620238404438,-7.589905440428676,0.06515106165204136
17.93,-6.220529383831061,-7.581178702597402,0.029302598989570605
17.94,-6.230312273731486,-7.573149154482522,-0.029579833830713807
17.95,-6.241404880100705,-7.563796860764356,-0.06494611141346046
17.96,-6.243209002042359,-7.5622783364117465,-0.06811800046948184
17.97,-6.244066237550473,-7.5617215281257,-0.048029461394200765
17.98,-6.245147108824439,-7.560965127249391,-0.016279875657018123
17.99,-6.253717821098666,-7.553894716073822,0.004975276291505726
18.0,-6.253152341370357,-7.554320073166267,-0.02233846252064251
18.01,-6.2515695355338226,-7.555327195584246,-0.07244221834343417
18.02,-6.261119732850858,-7.547220161262189,-0.09040594508619004
18.03,-6.2545688907378,-7.552930269826973,-0.060862764630052545
18.04,-6.232028939232799,-7.5717786468729775,-0.006605807605946692
18.05,-6.207595641757212,-7.591680642124165,0.04801414775091631
18.06,-6.192340032173136,-7.603740682362696,0.09185798976249031
18.07,-6.195072862890751,-7.601501321774485,0.09201140936078249
18.08,-6.207880597941536,-7.591446943129799,0.049294435018927274
18.09,-6.221059094906802,-7.580788754183636,0.02073592040892284
18.1,-6.23300356151578,-7.570967954797974,0.021704071208549832
18.11,-6.242275451266691,-7.5632760458067185,0.034847394110850624
18.12,-6.250662180450089,-7.556281108764975,0.047064001048086584
18.13,-6.239066216587972,-7.565846645754768,0.048435698887213025
18.14,-6.219448892359215,-7.582000598159375,0.045718321408682774
18.15,-6.208052522369996,-7.591376422197315,0.03830339949443462
18.16,-6.205159702457968,-7.593750705992397,0.03630374621932393
18.17,-6.209988626960433,-7.58976238829541,0.0436733737665828
18.18,-6.222262684044388,-7.579692345834011,0.04490121297386662
18.19,-6.233860488483705,-7.570267526408528,0.014766231916263436
18.2,-6.231287382500785,-7.572350161908698,-0.03017033119797358
18.21,-6.2145837277663,-7.586036185291657,-0.036334375999113565
18.22,-6.1982737521106746,-7.599427192218369,-0.022008022463122345
18.23,-6.202900544916921,-7.5956031927704535,-0.03301843679539494
18.24,-6.230497413712504,-7.572909063927854,-0.0471097621047706
18.25,-6.254668452029283,-7.55288129898715,-0.05793606154411294
18.26,-6.252297065043117,-7.554461455496062,-0.09548121443548033
18.27,-6.233276329458816,-7.5697115566603665,-0.1266815738501068
18.28,-6.213464414274279,-7.586206719921682,-0.11219252424548831
18.29,-6.199598459116266,-7.5979464233905585,-0.08081770859130169
18.3,-6.196479337864377,-7.600661690254893,-0.06292693871846296
18.31,-6.20857857291579,-7.590747808065985,-0.06549327455655093
18.32,-6.226156006481581,-7.575854546286659,-0.10720820998485134
18.33,-6.242137921925929,-7.561857401798815,-0.15614295378283147
18.34,-6.250851055344056,-7.554438605723609,-0.1662910420943877
18.35,-6.24505182551653,-7.559734571194156,-0.1413880257659141
18.36,-6.235110278018391,-7.568504807142384,-0.10698099611596318
18.37,-6.228824686941136,-7.573986352826412,-0.08283579642578123
18.38,-6.22533221773275,-7.576855170062835,-0.08294712183052134
18.39,-6.227601764794112,-7.574833734945272,-0.09612097670238808
18.4,-6.229603249089363,-7.573209998478118,-0.0942163768513544
18.41,-6.22512881850597,-7.577100457745588,-0.0745308033349262
18.42,-6.223222963670826,-7.578947741084066,-0.03636842230033349
18.43,-6.219872740019007,-7.58178674005244,-0.007168271228949541
18.44,-6.208415127875258,-7.591170387165003,-0.00832659863424838
18.45,-6.204640664326399,-7.594228420803863,-0.02286307474448645
18.46,-6.202286309140079,-7.5961580039061465,-0.017939015938695502
18.47,-6.202696964774477,-7.595822560330088,0.014335712152733963
18.48,-6.217156174194371,-7.583823381601202,0.053886492962640815
18.49,-6.221249784972748,-7.580269801714217,0.07699925104916114
18.5,-6.2146860136040765,-7.585583407040351,0.08352016317136597
18.51,-6.206110724855817,-7.592649163232079,0.0789268424043449
18.52,-6.192983174517315,-7.603271031533757,0.08639591595095807
18.53,-6.189630005389571,-7.605426223349055,0.12670520365308824
18.54,-6.194797634495191,-7.600179282773423,0.17881700977724913
18.55,-6.210132492812133,-7.586943333436074,0.20712758115269395
18.56,-6.21629700358154,-7.582283930585148,0.192177646113487
18.57,-6.2142920229322005,-7.584474838893806,0.16941473068396481
18.58,-6.2161693645054745,-7.582758497320658,0.17669000574758081
18.59,-6.194795405052155,-7.599293211176584,0.21240496419514884
18.6,-6.158080375049986,-7.627543969651321,0.2621692844357986
18.61,-6.145862771457197,-7.63583423455154,0.3044946565365166
18.62,-6.165644776220622,-7.619379448616879,0.3163320536432338
18.63,-6.197733310330681,-7.5935505225797,0.3104314458591802
18.64,-6.215159652997841,-7.580184474740112,0.2877390590121442
18.65,-6.213565311220048,-7.582853068624461,0.24959698766203525
18.66,-6.207602985055848,-7.58787059555272,0.24477586263711074
18.67,-6.208400729088455,-7.584878910872615,0.30773782011896617
18.68,-6.208340116863664,-7.580680330445444,0.3999905211615408
18.69,-6.197692820124132,-7.587608135600258,0.432543170622041
18.7,-6.186849830869735,-7.597894697363224,0.4064459253929765
18.71,-6.188269234646372,-7.597959533690521,0.3830355241895374
18.72,-6.1942828861832115,-7.59298031370858,0.38449583393957626
18.73,-6.202951327910254,-7.584765111264766,0.40620233333541855
18.74,-6.2039327732575416,-7.582172504124109,0.4383298455105662
18.75,-6.192679927203996,-7.589677493112949,0.46677272369975153
18.76,-6.194010729259316,-7.587993596227372,0.476351378802495
18.77,-6.211510675525787,-7.574041975829777,0.47046889123827856
18.78,-6.226059777922264,-7.562714771007258,0.4603210690084741
18.79,-6.226631311433212,-7.561839884790391,0.466782797673787
18.8,-6.21047668360422,-7.573176051714484,0.49713280087665057
18.81,-6.191756966786114,-7.5861484492726445,0.531836742174607
18.82,-6.1871800062708004,-7.5888349921766745,0.546584552112675
18.83,-6.197947136555716,-7.5799497154380235,0.5478766292146571
18.84,-6.209036481953638,-7.571563973498379,0.5381776336515409
18.85,-6.211054815991122,-7.570969342961154,0.5230704472610301
18.86,-6.211316666448341,-7.570483617447027,0.5268746735711138
18.87,-6.22345143449036,-7.558942976599245,0.5489876385982835
18.88,-6.227342408097895,-7.5550638266865855,0.5581715094249373
18.89,-6.213675164366279,-7.565724158676845,0.5660254595358944
18.9,-6.205719545208339,-7.570662084751876,0.5868935450231824
18.91,-6.200808605373287,-7.572687106171393,0.612059926316979
18.92,-6.191307203527194,-7.577711277820269,0.645176130021231
18.93,-6.183536906753168,-7.581687401432886,0.6725089103879934
18.94,-6.1847479869653945,-7.581320513145068,0.6653316669563349
18.95,-6.193936984074642,-7.576873087155063,0.6296468121429076
18.96,-6.201332713587895,-7.572062400247386,0.614575589408953
18.97,-6.194609554221854,-7.576509471813878,0.6273519924046661
18.98,-6.174333691754722,-7.591319909535064,0.6478727430019806
18.99,-6.154441099921991,-7.606859102918465,0.6548920488375247
19.0,-6.154960506150274,-7.608249973940125,0.6333355735692926
19.01,-6.179450798729872,-7.591115805082325,0.5996275355627279
19.02,-6.200636533480984,-7.575190161343253,0.5822144531068771
19.03,-6.195626483001357,-7.578220736803968,0.595766568116265
19.04,-6.1682923677129935,-7.59847698356752,0.6209084087303972
19.05,-6.143768299117063,-7.617568110453696,0.6302012938468733
19.06,-6.145630053638104,-7.616615848371274,0.6235010739579582
19.07,-6.157878249385437,-7.606857521970665,0.6217802671660746
19.08,-6.170204435284906,-7.596674616253705,0.6240181776140288
19.09,-6.186672686705541,-7.585006022433976,0.6024840215283885
19.1,-6.20633894316145,-7.5704435040649045,0.583166211698966
19.11,-6.216511794519535,-7.561218469623504,0.5943492536472165
19.12,-6.214537575715962,-7.560629756540867,0.6218297223873315
