time,seconds_elapsed,z,y,x
1789318177669603800,0.051603759765625,-1.112060546875,-1.30352783203125,-0.361358642578125
1789318177679558000,0.061557861328125,-0.7792816162109375,-1.09228515625,-0.219268798828125
1789318177689511700,0.07151171875,-0.5202178955078125,-0.9697418212890625,0.0453643798828125
1789318177699466800,0.081466796875,-0.1917266845703125,-0.2099609375,0.021148681640625
1789318177709420800,0.0914208984375,-0.5903778076171875,0.016082763671875,-0.316131591796875
1789318177719374600,0.10137451171875,-1.6518707275390625,-0.7133026123046875,-0.694427490234375
1789318177729328600,0.11132861328125,-0.6230621337890625,-0.6361236572265625,-0.626129150390625
1789318177739283700,0.12128369140625,-0.844207763671875,-0.9055633544921875,-0.30120849609375
1789318177749237800,0.13123779296875,-1.086212158203125,-0.8035736083984375,-0.25836181640625
1789318177759191800,0.14119189453125,-0.7931365966796875,-0.604827880859375,-0.1934661865234375
1789318177769145600,0.1511455078125,-0.406494140625,-0.7064056396484375,0.062347412109375
1789318177779100700,0.1611005859375,-0.0656585693359375,-0.4501190185546875,0.2235107421875
1789318177789054700,0.1710546875,-0.2941131591796875,-0.7822113037109375,-0.0126953125
1789318177799008500,0.181008544921875,-0.832275390625,-0.5248565673828125,-0.29656982421875
1789318177808962800,0.190962890625,-1.23358154296875,-0.7884979248046875,-0.4419097900390625
1789318177818917600,0.200917724609375,-0.7715911865234375,-1.3060302734375,-0.3739776611328125
1789318177828871700,0.21087158203125,-0.774688720703125,-0.3498382568359375,-0.0918121337890625
1789318177838825700,0.22082568359375,-1.51348876953125,-0.696380615234375,-0.09613037109375
1789318177848779800,0.23077978515625,-0.9951171875,-0.687835693359375,-0.0536956787109375
1789318177858734600,0.240734619140625,-0.738525390625,-0.4900665283203125,0.2111358642578125
1789318177868689000,0.25068896484375,-0.42169189453125,-0.7599334716796875,0.157958984375
1789318177878642700,0.260642578125,-0.1155242919921875,-0.1758575439453125,-0.0120697021484375
1789318177888596700,0.2705966796875,-0.5968475341796875,-0.708770751953125,-0.245086669921875
1789318177898551800,0.2805517578125,-1.0060577392578125,-1.2158203125,-0.4147491455078125
1789318177908505600,0.290505615234375,-0.6296234130859375,-1.389007568359375,-0.4249114990234375
1789318177918459600,0.300459716796875,-0.2865142822265625,-0.3528594970703125,-0.19244384765625
1789318177928413700,0.31041357421875,-0.8616790771484375,-0.3504791259765625,-0.0898284912109375
1789318177938368800,0.32036865234375,-1.4398193359375,-1.31195068359375,-0.0381317138671875
1789318177948322800,0.33032275390625,-0.7333526611328125,-0.2860565185546875,0.319366455078125
1789318177958276900,0.34027685546875,-0.4986572265625,-0.153076171875,0.4018402099609375
1789318177968230700,0.350230712890625,-0.68829345703125,-0.637908935546875,0.226104736328125
1789318177978185700,0.360185791015625,-0.8269195556640625,-0.7315216064453125,0.0922393798828125
1789318177988139500,0.370139404296875,-0.873199462890625,-0.4481353759765625,-0.1223602294921875
1789318177998093600,0.380093505859375,-0.84869384765625,-1.023529052734375,-0.337799072265625
1789318178008047900,0.3900478515625,-0.4301910400390625,-1.30047607421875,-0.292816162109375
1789318178018002700,0.400002685546875,-0.051116943359375,-0.3525543212890625,-0.0017242431640625
1789318178027956700,0.409956787109375,-0.6504669189453125,-1.001617431640625,0.101409912109375
1789318178037910800,0.419910888671875,-1.0546417236328125,-0.9143524169921875,0.139556884765625
1789318178047864600,0.429864501953125,-0.700347900390625,-0.622528076171875,0.1082305908203125
1789318178057819600,0.439819580078125,-0.398834228515625,-0.4586181640625,0.1310272216796875
1789318178067773700,0.449773681640625,-0.6739959716796875,-0.182281494140625,-0.0122528076171875
1789318178077727700,0.459727783203125,-1.792755126953125,-0.9561309814453125,-0.47467041015625
1789318178087681800,0.469681884765625,-0.931732177734375,-0.8376617431640625,-0.52899169921875
1789318178097636600,0.47963671875,-0.4884033203125,-0.837371826171875,-0.0404815673828125
1789318178107590700,0.489590576171875,-0.473846435546875,-0.191131591796875,0.1546173095703125
1789318178117544700,0.499544677734375,-1.1051483154296875,-0.793487548828125,-0.14300537109375
1789318178127498800,0.509498779296875,-1.0977935791015625,-1.11334228515625,-0.104248046875
1789318178137453800,0.519453857421875,-0.1450653076171875,-0.4603271484375,0.1114044189453125
1789318178147408000,0.529407958984375,0.0009613037109375,-0.7503662109375,0.0196533203125
1789318178157361700,0.539361572265625,-0.5457000732421875,-0.2872161865234375,-0.2325286865234375
1789318178167315700,0.549315673828125,-1.9505767822265625,-0.410308837890625,-0.6268768310546875
1789318178177270500,0.5592705078125,-0.8721771240234375,-1.2228240966796875,-0.5159759521484375
1789318178187224600,0.569224609375,-0.7533721923828125,-1.2225494384765625,0.1138153076171875
1789318178197178600,0.5791787109375,-0.4178619384765625,-0.1251220703125,0.167327880859375
1789318178207133000,0.5891328125,-0.740814208984375,-0.47406005859375,-0.1337127685546875
1789318178217087700,0.599087646484375,-1.431243896484375,-0.803619384765625,-0.0591888427734375
1789318178227041800,0.609041748046875,-0.51239013671875,-0.40435791015625,0.076873779296875
1789318178236995600,0.61899560546875,-0.5679168701171875,-0.8921051025390625,0.0185089111328125
1789318178246949600,0.62894970703125,-0.5521240234375,-0.8052978515625,-0.1349029541015625
1789318178256904700,0.63890478515625,-0.493072509765625,-0.3735809326171875,-0.0987548828125
1789318178266858800,0.648858642578125,-1.0445556640625,-0.6402130126953125,0.0161590576171875
1789318178276812800,0.658812744140625,-1.1043243408203125,-1.303955078125,-0.094512939453125
1789318178286766800,0.668766845703125,-0.4284820556640625,-0.2755279541015625,-0.0041046142578125
1789318178296721700,0.6787216796875,-0.4542388916015625,-0.9957733154296875,-0.050628662109375
1789318178306675700,0.68867578125,-0.47235107421875,-0.643157958984375,-0.013092041015625
1789318178316629800,0.698629638671875,-1.488677978515625,0.072784423828125,-0.0361175537109375
1789318178326583600,0.70858349609375,-1.7343902587890625,-1.0487213134765625,-0.3896942138671875
1789318178336539000,0.718538818359375,-0.89654541015625,-0.626251220703125,0.054168701171875
1789318178346492700,0.72849267578125,-1.1702117919921875,-1.0474853515625,0.4301605224609375
1789318178356446700,0.73844677734375,-0.3510589599609375,-0.1428680419921875,0.1682891845703125
1789318178366400800,0.74840087890625,-0.199371337890625,-0.6252593994140625,-0.0728912353515625
1789318178376355600,0.75835546875,-0.4352264404296875,-0.8947601318359375,0.03619384765625
1789318178386309600,0.7683095703125,-0.243988037109375,-0.3485565185546875,-0.1264495849609375
1789318178396263700,0.778263671875,-0.4741973876953125,-1.6114349365234375,-0.3951873779296875
1789318178406217700,0.7882177734375,-0.6761627197265625,-0.653045654296875,-0.194549560546875
1789318178416172800,0.7981728515625,-0.7183837890625,-0.543731689453125,-0.00836181640625
1789318178426126800,0.808126953125,-1.1598358154296875,-1.04840087890625,0.1799774169921875
1789318178436081000,0.818080810546875,-0.938812255859375,-0.8282012939453125,0.2226715087890625
1789318178446035000,0.828034912109375,-0.894378662109375,0.410919189453125,0.2236175537109375
1789318178455989800,0.83798974609375,-1.1832427978515625,-0.1440887451171875,-0.1322021484375
1789318178465943800,0.84794384765625,-1.05084228515625,-1.778167724609375,-0.3236541748046875
1789318178475898000,0.857898193359375,-0.3321380615234375,-0.4119873046875,-0.0076904296875
1789318178485852000,0.867851806640625,-0.0382232666015625,-0.3997650146484375,-0.085693359375
1789318178495807000,0.877806884765625,-0.5243072509765625,-1.292724609375,-0.1945343017578125
1789318178505761000,0.887760986328125,-0.59149169921875,-0.796844482421875,0.0421600341796875
1789318178515714800,0.89771484375,-0.402923583984375,-0.7982025146484375,0.1854705810546875
1789318178525668900,0.9076689453125,-0.394317626953125,-0.7022247314453125,0.037506103515625
1789318178535624000,0.9176240234375,-0.7809600830078125,-0.7284393310546875,-0.0441436767578125
1789318178545578000,0.927577880859375,-1.2485809326171875,-0.1311187744140625,0.0405731201171875
1789318178555532000,0.937531982421875,-1.2042083740234375,-0.5763702392578125,-0.127777099609375
1789318178565486000,0.947486083984375,-0.879302978515625,-1.0937652587890625,-0.126129150390625
1789318178575441000,0.95744091796875,-0.737213134765625,-0.4117584228515625,0.0638275146484375
1789318178585395000,0.96739501953125,-0.707061767578125,-0.9148712158203125,-0.0550994873046875
1789318178595348700,0.9773486328125,-0.5567169189453125,-0.394989013671875,0.029022216796875
1789318178605302800,0.987302734375,-0.5670318603515625,-0.8904266357421875,-0.024871826171875
1789318178615257900,0.9972578125,-0.411895751953125,-1.050323486328125,-0.0056915283203125
1789318178625212000,1.0072119140625,-0.3254852294921875,-0.3894195556640625,0.1185302734375
1789318178635166000,1.017166015625,-0.7367401123046875,-0.7994537353515625,0.031951904296875
1789318178645120000,1.0271201171875,-0.855682373046875,-0.2625732421875,-0.0825653076171875
1789318178655074800,1.03707470703125,-1.14422607421875,-1.2620391845703125,-0.1268768310546875
1789318178665028900,1.04702880859375,-0.8219757080078125,-1.2066192626953125,0.1155242919921875
1789318178674983000,1.05698291015625,-0.0362396240234375,-0.2061920166015625,0.0998687744140625
1789318178684937000,1.06693701171875,0.0609283447265625,-0.885772705078125,-0.205291748046875
1789318178694892000,1.07689208984375,-0.9668731689453125,-0.0637664794921875,-0.0558013916015625
1789318178704845800,1.086845703125,-2.0343780517578125,-1.298370361328125,-0.32232666015625
1789318178714799900,1.0967998046875,-1.1599578857421875,-0.802276611328125,-0.0649566650390625
1789318178724754000,1.10675390625,-0.7885894775390625,-1.0596466064453125,0.1627197265625
1789318178734709000,1.116708984375,-0.085235595703125,-0.5136871337890625,0.0684967041015625
1789318178744663000,1.1266630859375,-0.126129150390625,0.8780517578125,0.20941162109375
1789318178754617000,1.1366171875,-2.1378631591796875,-1.09136962890625,-0.2513885498046875
1789318178764571000,1.14657080078125,-1.1171875,-0.8249969482421875,-0.479217529296875
1789318178774526000,1.15652587890625,-1.105499267578125,-1.6704864501953125,0.04461669921875
1789318178784479700,1.166479736328125,-0.43670654296875,-1.0867767333984375,0.1510772705078125
1789318178794433800,1.176433837890625,0.324249267578125,0.5006561279296875,-0.19805908203125
1789318178804387800,1.186387939453125,-0.3324737548828125,-1.1278228759765625,-0.283660888671875
1789318178814343000,1.196343017578125,-0.3177490234375,-0.56292724609375,0.0275421142578125
1789318178824297000,1.206296875,-0.3481903076171875,-0.116973876953125,0.0838470458984375
1789318178834251000,1.2162509765625,-1.1546478271484375,-0.7994232177734375,0.0784454345703125
1789318178844204800,1.226204833984375,-1.45269775390625,-1.1781158447265625,0.103912353515625
1789318178854160000,1.236159912109375,-0.5936431884765625,-0.7938995361328125,0.2001190185546875
1789318178864114000,1.246114013671875,-0.4670562744140625,-0.4671630859375,0.164093017578125
1789318178874068000,1.25606787109375,-1.0999603271484375,-0.297210693359375,-0.1432342529296875
1789318178884022000,1.26602197265625,-0.61810302734375,-0.1315460205078125,-0.3235321044921875
1789318178893976800,1.275976806640625,-1.3933258056640625,-1.215789794921875,-0.13848876953125
1789318178903931000,1.285930908203125,-0.67071533203125,-1.1187896728515625,0.10614013671875
1789318178913885000,1.295885009765625,-0.367889404296875,-0.4290771484375,0.0590667724609375
1789318178923839000,1.3058388671875,-0.4759521484375,0.007171630859375,0.19927978515625
1789318178933792800,1.315792724609375,-1.0784912109375,-0.49713134765625,0.0597991943359375
1789318178943748000,1.325748046875,-1.103363037109375,-1.007110595703125,-0.19512939453125
1789318178953702000,1.335701904296875,-0.79638671875,-0.8665313720703125,-0.1744842529296875
1789318178963656000,1.345656005859375,-0.6899566650390625,-0.8744354248046875,-0.2368011474609375
1789318178973610000,1.35560986328125,-0.643829345703125,-0.446685791015625,-0.1334381103515625
1789318178983564800,1.365564697265625,-0.9482269287109375,-0.8193511962890625,0.018157958984375
1789318178993518800,1.375518798828125,-0.578125,-0.494659423828125,0.0490875244140625
1789318179003473000,1.385472900390625,-0.214508056640625,-0.51776123046875,-0.0425872802734375
1789318179013427000,1.395427001953125,-0.3690643310546875,-0.746826171875,-0.171783447265625
1789318179023382000,1.405382080078125,-0.8169097900390625,-0.346099853515625,-0.203399658203125
1789318179033335800,1.415335693359375,-1.4200592041015625,-0.54486083984375,-0.233673095703125
1789318179043289900,1.425289794921875,-0.7926788330078125,-1.092987060546875,-0.2186279296875
1789318179053244000,1.435243896484375,-0.5472869873046875,-1.536590576171875,-0.0306549072265625
1789318179063198700,1.44519873046875,-0.3324737548828125,0.18206787109375,0.161773681640625
1789318179073153000,1.455153076171875,-1.276336669921875,-0.533721923828125,-0.3045196533203125
1789318179083107000,1.465107177734375,-0.809814453125,-1.5635223388671875,-0.459625244140625
1789318179093060900,1.475060791015625,0.451385498046875,-0.348968505859375,0.0269927978515625
1789318179103016000,1.485015869140625,0.5687255859375,-0.0907135009765625,0.2706146240234375
1789318179112970000,1.494969970703125,-0.903656005859375,-0.7849578857421875,-0.001678466796875
1789318179122923800,1.504923828125,-2.15380859375,-1.4491729736328125,-0.3848114013671875
1789318179132877800,1.5148779296875,-0.4602203369140625,-0.436981201171875,-0.052886962890625
1789318179142833000,1.5248330078125,-0.6008758544921875,-0.302154541015625,0.3457183837890625
1789318179152787000,1.534786865234375,-0.8934478759765625,-1.10308837890625,-0.1094970703125
1789318179162741000,1.544740966796875,-0.395111083984375,-0.068511962890625,-0.339630126953125
1789318179172695000,1.554695068359375,-0.73284912109375,0.0830841064453125,-0.194366455078125
1789318179182649900,1.56464990234375,-1.7742462158203125,-0.844573974609375,-0.3126983642578125
1789318179192604000,1.57460400390625,-1.03289794921875,-1.301605224609375,-0.3294525146484375
1789318179202557700,1.5845576171875,-0.882598876953125,-1.2074432373046875,-0.0006561279296875
1789318179212512000,1.594511962890625,-0.2082672119140625,-0.318939208984375,0.2730865478515625
1789318179222467000,1.604467041015625,-0.065643310546875,-0.2314453125,0.29205322265625
1789318179232420900,1.6144208984375,-0.487640380859375,-0.5122833251953125,0.0523681640625
1789318179242375000,1.624375,-0.712066650390625,-0.7493133544921875,-0.2584991455078125
1789318179252329000,1.634328857421875,-0.8747711181640625,-1.144317626953125,-0.4415130615234375
1789318179262282800,1.64428271484375,-1.4137115478515625,-0.986541748046875,-0.3659820556640625
1789318179272238000,1.654238037109375,-1.544158935546875,-0.6658172607421875,-0.2983245849609375
1789318179282192000,1.66419189453125,-0.886505126953125,-0.555450439453125,-0.140411376953125
1789318179292146000,1.67414599609375,-0.618804931640625,-0.466400146484375,0.32928466796875
1789318179302100000,1.684099853515625,-0.281768798828125,-0.412017822265625,0.316619873046875
1789318179312054800,1.6940546875,-0.2973175048828125,0.07568359375,-0.0608673095703125
1789318179322008800,1.7040087890625,-1.22174072265625,-1.0325927734375,-0.5898284912109375
1789318179331963000,1.713962890625,-0.8929443359375,-1.879150390625,-0.81427001953125
1789318179341916700,1.723916748046875,0.3608856201171875,-0.5503082275390625,-0.43707275390625
1789318179351872000,1.7338720703125,0.445526123046875,-0.623291015625,-0.1526641845703125
1789318179361826000,1.743825927734375,-0.7196044921875,-0.8692626953125,-0.0074310302734375
1789318179371779800,1.75377978515625,-1.731201171875,-0.572296142578125,0.1232147216796875
1789318179381734000,1.76373388671875,-1.132720947265625,-0.57305908203125,0.314056396484375
1789318179391688700,1.773688720703125,-0.8612213134765625,-0.6710357666015625,0.46392822265625
1789318179401642800,1.783642822265625,-0.84002685546875,-0.628143310546875,0.0268402099609375
1789318179411597000,1.79359716796875,-1.6912384033203125,0.42645263671875,-0.4307861328125
1789318179421551000,1.803551025390625,-1.046905517578125,-0.713470458984375,-0.93194580078125
1789318179431506000,1.813505859375,-0.757232666015625,-0.950469970703125,-0.5628509521484375
1789318179441460000,1.8234599609375,-0.7821197509765625,-1.1278076171875,-0.26837158203125
1789318179451413800,1.833413818359375,0.010101318359375,-1.3560791015625,-0.2760009765625
1789318179461367800,1.843367919921875,0.8916473388671875,-0.5069732666015625,-0.039886474609375
1789318179471322000,1.853322021484375,0.7147979736328125,-0.71051025390625,0.3414764404296875
1789318179481277000,1.86327685546875,-0.1961212158203125,-0.220672607421875,0.399505615234375
1789318179491231000,1.87323095703125,-1.36761474609375,-0.6985931396484375,-0.2281036376953125
1789318179501185000,1.88318505859375,-1.50042724609375,-0.71240234375,-0.4052276611328125
1789318179511138800,1.893138916015625,-0.8585052490234375,-0.282623291015625,-0.109588623046875
1789318179521094000,1.903093994140625,-0.8198394775390625,-1.04425048828125,-0.3074493408203125
1789318179531048000,1.9130478515625,-1.2198638916015625,-0.2123870849609375,-0.4034881591796875
1789318179541002000,1.923001953125,-1.40606689453125,-0.5871734619140625,-0.699859619140625
1789318179550956000,1.9329560546875,-0.763580322265625,-0.4878692626953125,-0.3841400146484375
1789318179560910800,1.942910888671875,-0.6117401123046875,-0.9843597412109375,-0.01409912109375
1789318179570865000,1.952864990234375,-0.050811767578125,-1.3610382080078125,0.1041717529296875
1789318179580819000,1.96281884765625,0.5798492431640625,-0.615875244140625,0.0267333984375
1789318179590773000,1.97277294921875,-0.04632568359375,-0.9147796630859375,-0.125091552734375
1789318179600728000,1.98272802734375,-1.26104736328125,0.1135711669921875,-0.2686614990234375
1789318179610682000,1.99268212890625,-0.51904296875,-0.697906494140625,-0.970794677734375
1789318179620636000,2.002635986328125,-1.01239013671875,-0.388885498046875,-0.6777496337890625
1789318179630590000,2.01258984375,-2.3996734619140625,-0.1577606201171875,-0.389739990234375
1789318179640544800,2.022544677734375,-1.539520263671875,-0.6974029541015625,-0.3040924072265625
1789318179650498800,2.032498779296875,-1.39263916015625,-0.628570556640625,0.066497802734375
1789318179660452900,2.042452880859375,-0.8402252197265625,-0.47967529296875,0.136932373046875
1789318179670407200,2.0524072265625,-0.445892333984375,0.440948486328125,0.1988372802734375
1789318179680362000,2.062362060546875,-0.5967864990234375,-0.794342041015625,-0.34710693359375
1789318179690316000,2.07231591796875,-0.707000732421875,-1.41436767578125,-0.6619873046875
1789318179700269800,2.082269775390625,-1.5222625732421875,-0.9833831787109375,-0.1156005859375
1789318179710224000,2.092223876953125,-1.5093536376953125,-1.11175537109375,0.0398101806640625
1789318179720178000,2.102177978515625,-0.5621795654296875,-0.745452880859375,0.03729248046875
1789318179730133000,2.112133056640625,-0.2178192138671875,-0.1394195556640625,0.3180084228515625
1789318179740087000,2.122087158203125,-0.137054443359375,0.2236480712890625,0.3467864990234375
1789318179750041000,2.132041015625,-0.957366943359375,-0.59527587890625,-0.0910186767578125
1789318179759995000,2.141994873046875,-1.4653472900390625,-1.5124359130859375,-0.6269378662109375
1789318179769950000,2.151949951171875,-0.5774383544921875,-0.653076171875,-0.5185699462890625
1789318179779904000,2.161904052734375,-0.1073455810546875,-0.91064453125,-0.386932373046875
1789318179789857800,2.17185791015625,0.4405670166015625,-0.603179931640625,-0.246429443359375
1789318179799811800,2.181811767578125,0.57318115234375,0.5447235107421875,-0.215911865234375
1789318179809767000,2.191766845703125,-1.2015380859375,-0.5608673095703125,-0.4586334228515625
1789318179819721000,2.201720947265625,-1.8019561767578125,-1.558441162109375,-0.5628204345703125
1789318179829675000,2.211675048828125,-0.7734527587890625,-0.8842010498046875,-0.2481689453125
1789318179839629000,2.221629150390625,-1.0742034912109375,-0.443603515625,0.072296142578125
1789318179849583900,2.231583984375,-1.52227783203125,-0.041168212890625,-0.023956298828125
1789318179859538000,2.241537841796875,-0.788787841796875,-0.49542236328125,-0.0371246337890625
1789318179869492000,2.251491943359375,-0.681060791015625,-0.404296875,0.3939056396484375
1789318179879446000,2.261446044921875,-0.8083038330078125,-0.9290771484375,0.2025299072265625
1789318179889400000,2.271400146484375,-0.809600830078125,-1.0727386474609375,0.0188140869140625
1789318179899355000,2.28135498046875,-0.642486572265625,-0.9183349609375,0.1103515625
1789318179909309000,2.291308837890625,-0.279327392578125,-1.2490692138671875,0.040771484375
1789318179919263000,2.301262939453125,-0.007232666015625,-0.506256103515625,0.098388671875
1789318179929216800,2.311216796875,-0.42510986328125,-0.8160400390625,0.0854034423828125
1789318179939172000,2.321172119140625,-0.6980743408203125,-1.04766845703125,0.0459136962890625
1789318179949126000,2.3311259765625,-0.628509521484375,-0.7728118896484375,0.28289794921875
1789318179959080000,2.341079833984375,-0.347503662109375,-1.2032928466796875,0.4105682373046875
1789318179969034000,2.351033935546875,0.2093048095703125,-0.64129638671875,0.415924072265625
1789318179978988800,2.36098876953125,-0.734466552734375,-0.0191802978515625,0.3175201416015625
1789318179988942800,2.37094287109375,-2.980804443359375,-1.4716339111328125,-0.248779296875
1789318179998897200,2.380897216796875,-0.87432861328125,-1.0438079833984375,-0.2273101806640625
1789318180008851000,2.390850830078125,-0.62506103515625,-1.08294677734375,0.23614501953125
1789318180018806000,2.400805908203125,-0.326751708984375,-0.66290283203125,0.0711669921875
1789318180028760000,2.410760009765625,-0.340789794921875,-0.20770263671875,-0.17535400390625
1789318180038713900,2.4207138671875,-1.62786865234375,-1.0756988525390625,-0.265777587890625
1789318180048668000,2.43066796875,-0.6561737060546875,-1.5230865478515625,-0.1512451171875
1789318180058623000,2.440623046875,-0.05181884765625,-0.7590179443359375,0.3330841064453125
1789318180068577000,2.450576904296875,0.1468658447265625,-0.83843994140625,0.3557891845703125
1789318180078531000,2.460531005859375,0.34368896484375,-0.4586029052734375,0.2027587890625
1789318180088485000,2.470485107421875,-0.41082763671875,-0.6922454833984375,0.2276763916015625
1789318180098439000,2.48043896484375,-1.7578887939453125,-0.4455413818359375,0.0175018310546875
1789318180108394000,2.49039404296875,-0.79376220703125,-0.242034912109375,-0.5298919677734375
1789318180118347800,2.50034765625,-0.92950439453125,-1.062286376953125,-0.4452972412109375
1789318180128301800,2.5103017578125,-0.9060821533203125,-0.5204620361328125,-0.142791748046875
1789318180138256100,2.520256103515625,-0.6070556640625,-0.3039703369140625,-0.0819854736328125
1789318180148211000,2.5302109375,-0.63616943359375,-0.58489990234375,0.117889404296875
1789318180158165000,2.5401650390625,-0.26947021484375,-0.4260406494140625,0.22021484375
1789318180168119000,2.550119140625,-0.0428619384765625,-0.7562255859375,0.09197998046875
1789318180178072800,2.56007275390625,-0.2561492919921875,-0.9775238037109375,-0.036529541015625
1789318180188028000,2.57002783203125,-0.528411865234375,-0.935882568359375,-0.1565704345703125
1789318180197982000,2.57998193359375,-0.6954803466796875,-0.8124542236328125,-0.229522705078125
1789318180207936000,2.58993603515625,-0.733978271484375,-0.4887542724609375,-0.1720733642578125
1789318180217890000,2.59989013671875,-0.5517578125,-0.72247314453125,-0.151763916015625
1789318180227844900,2.609844970703125,-0.2221527099609375,-0.5101318359375,-0.1637115478515625
1789318180237799000,2.619798828125,-0.8320159912109375,-0.1239471435546875,-0.2889862060546875
1789318180247753000,2.6297529296875,-2.532989501953125,-0.8202362060546875,-0.748992919921875
1789318180257707000,2.63970703125,-0.954315185546875,-0.4646453857421875,-0.407257080078125
1789318180267660800,2.649660888671875,-0.6996002197265625,-1.268402099609375,0.1449737548828125
1789318180277616000,2.6596162109375,-0.4334869384765625,-0.6702117919921875,0.203155517578125
1789318180287570000,2.66956982421875,-0.5290069580078125,-0.239898681640625,0.1582183837890625
1789318180297524000,2.67952392578125,-1.8374176025390625,-0.3079681396484375,-0.0186920166015625
1789318180307478000,2.68947802734375,-1.5828399658203125,-1.341064453125,-0.1004486083984375
1789318180317432800,2.699432861328125,-1.004547119140625,-0.9784698486328125,0.3247833251953125
1789318180327387000,2.709386962890625,-0.2693328857421875,-0.6384124755859375,0.1734619140625
1789318180337341200,2.719341064453125,0.090057373046875,-0.4842376708984375,-0.0090484619140625
1789318180347295000,2.729294921875,-0.212921142578125,-0.0460968017578125,0.305450439453125
1789318180357250000,2.73925,-0.8820953369140625,-0.6547088623046875,0.1710205078125
1789318180367203800,2.749203857421875,-1.136688232421875,-0.9155426025390625,-0.226165771484375
1789318180377158000,2.759157958984375,-0.942413330078125,-1.2216796875,-0.10772705078125
1789318180387112000,2.76911181640625,-0.1529083251953125,-0.634613037109375,-0.1192169189453125
1789318180397067000,2.77906689453125,-0.5530548095703125,0.414306640625,-0.12811279296875
1789318180407021000,2.78902099609375,-2.36480712890625,-0.2103118896484375,-0.3668212890625
1789318180416975000,2.79897509765625,-0.5050201416015625,-0.7109222412109375,-0.5694732666015625
1789318180426929200,2.80892919921875,-0.3430633544921875,-1.099395751953125,-0.175262451171875
1789318180436883200,2.81888330078125,0.2905120849609375,-0.2179718017578125,0.0675048828125
1789318180446838000,2.828838134765625,0.1721954345703125,0.462738037109375,-0.046539306640625
1789318180456792000,2.8387919921875,-2.4175262451171875,-1.0013275146484375,-0.43023681640625
1789318180466746000,2.84874609375,-2.116729736328125,-0.9656829833984375,-0.70489501953125
1789318180476700400,2.858700439453125,-1.8453826904296875,-1.060150146484375,0.2825775146484375
1789318180486655200,2.8686552734375,-1.0134124755859375,-1.6313629150390625,0.1665802001953125
1789318180496609300,2.878609375,0.4207611083984375,-0.1902923583984375,-0.2283172607421875
1789318180506563000,2.88856298828125,0.9036712646484375,1.162628173828125,0.1577301025390625
1789318180516517000,2.89851708984375,-0.2974395751953125,0.1529541015625,0.00360107421875
1789318180526472200,2.90847216796875,-1.9163665771484375,-1.6803131103515625,-0.855224609375
1789318180536426200,2.91842626953125,-0.9436492919921875,-0.991668701171875,-0.5860443115234375
1789318180546380300,2.92838037109375,-0.2924652099609375,-1.43133544921875,0.0649566650390625
1789318180556334300,2.938334228515625,0.2999267578125,-0.547088623046875,-0.0749053955078125
1789318180566288100,2.9482880859375,-0.7021942138671875,-0.1490478515625,0.0113372802734375
1789318180576243200,2.9582431640625,-1.7393798828125,-1.0113525390625,-0.2389984130859375
1789318180586197200,2.968197265625,-0.159576416015625,-0.984527587890625,-0.451568603515625
1789318180596151000,2.978151123046875,-0.15997314453125,-1.0482025146484375,-0.0279693603515625
1789318180606105000,2.98810498046875,-0.4906463623046875,-1.6040496826171875,-0.0467376708984375
1789318180616060200,2.99806005859375,-1.1835784912109375,-0.0800018310546875,-0.156219482421875
1789318180626014200,3.00801416015625,-1.0494232177734375,-1.349029541015625,-0.484130859375
1789318180635968300,3.01796826171875,-0.3979644775390625,-0.527313232421875,-0.1614532470703125
1789318180645922300,3.02792236328125,-0.803009033203125,0.598052978515625,0.2527923583984375
1789318180655877000,3.037877197265625,-2.0468902587890625,-0.8977203369140625,-0.206634521484375
1789318180665831200,3.0478310546875,-1.13653564453125,-0.9173431396484375,-0.3830413818359375
1789318180675785200,3.05778515625,-0.879791259765625,-1.0787506103515625,0.0556640625
1789318180685739300,3.0677392578125,-1.1602325439453125,0.2976531982421875,0.3309478759765625
1789318180695693300,3.077693359375,-0.767059326171875,-0.826568603515625,-0.1847381591796875
1789318180705648000,3.087648193359375,-0.55810546875,-1.5855865478515625,-0.3010406494140625
1789318180715602200,3.097602294921875,-0.302764892578125,-0.6664581298828125,0.078887939453125
1789318180725556200,3.10755615234375,-0.3742523193359375,-1.7540740966796875,0.167572021484375
1789318180735510000,3.117510009765625,0.3534088134765625,-0.55474853515625,0.385589599609375
1789318180745465300,3.12746533203125,0.8211517333984375,0.0625152587890625,0.3919525146484375
1789318180755419100,3.137419189453125,0.12774658203125,-0.7190399169921875,0.085662841796875
1789318180765373200,3.147373291015625,-1.5730133056640625,-0.7886505126953125,-0.084381103515625
1789318180775327200,3.1573271484375,-1.8098602294921875,-1.725799560546875,-0.5625457763671875
1789318180785282000,3.167281982421875,-0.318878173828125,-1.2072906494140625,-0.5085906982421875
1789318180795236000,3.177236083984375,0.3586883544921875,-0.674407958984375,-0.0322113037109375
1789318180805190400,3.1871904296875,0.2303314208984375,0.6104583740234375,0.2455902099609375
1789318180815144200,3.197144287109375,-3.028076171875,-0.4727935791015625,-0.2384185791015625
1789318180825099300,3.207099365234375,-2.0974884033203125,-1.582550048828125,-0.4754180908203125
1789318180835053300,3.21705322265625,-0.7878265380859375,-1.1980133056640625,0.691253662109375
1789318180845007000,3.227007080078125,-0.22113037109375,-1.336273193359375,0.439056396484375
1789318180854961200,3.236961181640625,0.5013427734375,0.2655181884765625,-0.0887603759765625
1789318180864915200,3.246915283203125,-0.5883941650390625,0.119903564453125,-0.0766448974609375
1789318180874870300,3.256870361328125,-0.9754638671875,-1.2358245849609375,-0.4429779052734375
1789318180884824300,3.26682421875,-0.378387451171875,-0.716827392578125,-0.271209716796875
1789318180894778400,3.2767783203125,-0.7454833984375,-1.0869903564453125,0.1248321533203125
1789318180904732200,3.286732177734375,-0.7285308837890625,-0.9267425537109375,-0.01043701171875
1789318180914687200,3.296687255859375,-1.20599365234375,0.0538330078125,-0.0388641357421875
1789318180924641000,3.30664111328125,-1.701202392578125,-0.1377716064453125,0.0936431884765625
1789318180934595000,3.316594970703125,-0.52532958984375,-0.4115142822265625,0.0203704833984375
1789318180944549400,3.32654931640625,-0.7307281494140625,-0.926239013671875,-0.1829071044921875
1789318180954503400,3.33650341796875,-0.68487548828125,-0.8539276123046875,-0.3606109619140625
1789318180964458200,3.346458251953125,-0.7859344482421875,-0.4576568603515625,-0.3199920654296875
1789318180974412300,3.356412353515625,-0.4909820556640625,-0.3934173583984375,-0.3796234130859375
1789318180984366000,3.366365966796875,-0.301788330078125,-0.2130279541015625,-0.1945648193359375
1789318180994320100,3.376320068359375,-1.1038818359375,-1.69219970703125,-0.0893402099609375
1789318181004275200,3.386275146484375,-1.127166748046875,-1.5450897216796875,-0.0515594482421875
1789318181014229200,3.396229248046875,-0.49188232421875,0.61920166015625,0.1094818115234375
1789318181024183300,3.406183349609375,-0.9253387451171875,-1.1694488525390625,-0.104888916015625
1789318181034137300,3.416137451171875,-0.9343109130859375,0.490631103515625,0.034393310546875
1789318181044092200,3.426092041015625,-1.0952606201171875,-0.1876678466796875,-0.1935577392578125
1789318181054046200,3.436046142578125,-1.080596923828125,-1.457733154296875,-0.3915557861328125
1789318181064000300,3.446000244140625,-0.712066650390625,-0.871795654296875,-0.27056884765625
1789318181073954000,3.4559541015625,-0.21160888671875,0.11773681640625,-0.080718994140625
1789318181083909400,3.465909423828125,-0.8265380859375,0.2298583984375,-0.0581207275390625
1789318181093863200,3.47586328125,-1.20831298828125,-2.28131103515625,-0.3818359375
1789318181103817200,3.485817138671875,-0.485260009765625,-0.751068115234375,0.0010223388671875
1789318181113771300,3.495771240234375,-0.441802978515625,-0.742034912109375,0.0941162109375
1789318181123726000,3.50572607421875,-0.58453369140625,-1.296295166015625,-0.2732086181640625
1789318181133680000,3.51568017578125,-0.0554962158203125,0.20977783203125,-0.239227294921875
1789318181143634400,3.525634521484375,-0.1685028076171875,-0.79541015625,-0.376068115234375
1789318181153588200,3.535588134765625,-0.68994140625,-0.2480316162109375,-0.3177032470703125
1789318181163542300,3.545542236328125,-1.6767120361328125,-0.8577728271484375,-0.324737548828125
1789318181173497000,3.5554970703125,-0.9099578857421875,-1.2350006103515625,-0.1499176025390625
1789318181183451100,3.565451171875,-0.231475830078125,-0.35626220703125,0.4557952880859375
1789318181193405200,3.5754052734375,0.0008392333984375,-0.3820343017578125,0.506500244140625
1789318181203359200,3.585359130859375,-1.11822509765625,-0.1835479736328125,0.326416015625
1789318181213314300,3.595314208984375,-2.109832763671875,-1.5279693603515625,-0.229248046875
1789318181223268400,3.605268310546875,-0.5276336669921875,-1.0376739501953125,-0.0940093994140625
1789318181233222100,3.61522216796875,-0.3327484130859375,-0.68841552734375,0.33258056640625
1789318181243176200,3.62517626953125,-0.19097900390625,-0.7306365966796875,0.0322723388671875
1789318181253130200,3.635130126953125,-1.3601226806640625,0.0988616943359375,-0.0680999755859375
1789318181263085000,3.6450849609375,-2.201263427734375,-1.1106414794921875,-0.2608489990234375
1789318181273039000,3.6550390625,-0.832977294921875,-0.96917724609375,0.1284332275390625
1789318181282993400,3.664993408203125,-0.8232421875,-1.05340576171875,0.61474609375
1789318181292947200,3.674947265625,0.22216796875,-0.5750579833984375,0.258392333984375
1789318181302902300,3.68490234375,0.46337890625,0.261749267578125,0.0709686279296875
1789318181312856300,3.694856201171875,-1.3011322021484375,-1.0751190185546875,-0.069427490234375
1789318181322810000,3.70481005859375,-1.0938720703125,-1.621673583984375,-0.4461517333984375
1789318181332764200,3.71476416015625,0.0839080810546875,-0.6594390869140625,-0.2127838134765625
1789318181342719200,3.72471923828125,-0.14154052734375,-1.0096588134765625,-0.001708984375
1789318181352673300,3.73467333984375,-0.58990478515625,-0.2863922119140625,0.091705322265625
1789318181362627300,3.74462744140625,-1.965911865234375,-0.3017730712890625,-0.0445404052734375
1789318181372581000,3.7545810546875,-0.8194580078125,-0.8777313232421875,-0.104248046875
1789318181382535200,3.76453515625,-0.3300018310546875,-0.44903564453125,0.261138916015625
1789318181392490200,3.774490234375,-0.558013916015625,-0.55859375,0.1020050048828125
1789318181402444000,3.784444091796875,-1.3052978515625,-0.5216217041015625,-0.3613128662109375
1789318181412398000,3.794398193359375,-1.5990753173828125,-0.970184326171875,-0.6291046142578125
1789318181422352100,3.80435205078125,-0.5312957763671875,-0.9430389404296875,-0.3513336181640625
1789318181432307000,3.814306884765625,-0.4511260986328125,-0.4931640625,0.0594482421875
1789318181442261000,3.824260986328125,-0.1921234130859375,-1.1086578369140625,-0.0389556884765625
1789318181452215000,3.834215087890625,0.2515106201171875,-0.19854736328125,-0.0670928955078125
1789318181462168800,3.8441689453125,-0.2775421142578125,-0.3728485107421875,-0.092132568359375
1789318181472124200,3.854124267578125,-1.3542327880859375,-0.7401123046875,-0.1367645263671875
1789318181482078000,3.864077880859375,-1.168487548828125,-0.725738525390625,-0.2855224609375
1789318181492032000,3.874031982421875,-1.0441741943359375,-1.15838623046875,-0.23846435546875
1789318181501986000,3.883986083984375,-1.073333740234375,-1.05682373046875,0.05767822265625
1789318181511940000,3.893940185546875,-0.574737548828125,-0.442291259765625,0.1320953369140625
1789318181521895000,3.90389501953125,-0.212432861328125,-0.02392578125,0.0121002197265625
1789318181531849200,3.91384912109375,-0.3279876708984375,-0.2238006591796875,-0.1556396484375
1789318181541803000,3.923802978515625,-0.7228240966796875,-1.342926025390625,-0.3004913330078125
1789318181551757000,3.933757080078125,-0.670501708984375,-1.5017547607421875,-0.1812744140625
1789318181561712000,3.943712158203125,-0.6162567138671875,-0.7607421875,0.0427093505859375
1789318181571666000,3.953666015625,-1.3061981201171875,-0.7531280517578125,0.1385650634765625
1789318181581620000,3.963619873046875,-1.0442657470703125,-0.2550201416015625,0.20550537109375
1789318181591574000,3.973573974609375,-0.5238800048828125,-0.6941375732421875,0.1639556884765625
1789318181601529000,3.983529052734375,-0.37823486328125,-0.4354248046875,0.059051513671875
1789318181611483100,3.993483154296875,-1.161956787109375,-0.0180816650390625,-0.1257171630859375
1789318181621437200,4.003437255859375,-2.009979248046875,-0.536956787109375,-0.580108642578125
1789318181631391000,4.013390869140625,-0.788970947265625,-1.03985595703125,-0.3909149169921875
1789318181641345000,4.023344970703125,-0.8716583251953125,-1.2664642333984375,0.23846435546875
1789318181651299800,4.0332998046875,-0.27655029296875,-0.82513427734375,0.2760162353515625
1789318181661254000,4.04325390625,0.3531494140625,-0.04949951171875,0.162200927734375
1789318181671208200,4.053208251953125,0.18280029296875,-0.2086181640625,0.0866546630859375
1789318181681162200,4.063162353515625,-0.2975311279296875,-0.5410308837890625,-0.219818115234375
1789318181691117000,4.073116943359375,-0.9964447021484375,-1.411590576171875,-0.462860107421875
1789318181701071000,4.083071044921875,-1.202239990234375,-1.068328857421875,-0.3524322509765625
1789318181711025000,4.09302490234375,-0.7850799560546875,-0.622467041015625,-0.2544708251953125
1789318181720979000,4.10297900390625,-0.5064239501953125,-0.119598388671875,-0.03289794921875
1789318181730934000,4.11293408203125,-0.926788330078125,0.4929962158203125,0.175872802734375
1789318181740888000,4.12288818359375,-1.32489013671875,-0.7370452880859375,-0.1845703125
1789318181750842000,4.132842041015625,-0.91357421875,-0.580230712890625,-0.248779296875
1789318181760796200,4.142796142578125,-1.023223876953125,-0.7640533447265625,-0.14898681640625
1789318181770750000,4.15275,-0.724639892578125,-0.3599700927734375,-0.2339935302734375
1789318181780705000,4.162705078125,-0.5675506591796875,-0.7099761962890625,-0.312225341796875
1789318181790659000,4.1726591796875,-0.1360931396484375,-1.0269775390625,-0.26611328125
1789318181800612900,4.18261279296875,0.30157470703125,-0.4078521728515625,-0.21417236328125
1789318181810567200,4.192567138671875,-1.3509521484375,-0.0983734130859375,-0.21234130859375
1789318181820522000,4.20252197265625,-2.3580322265625,-1.558349609375,-0.53167724609375
1789318181830476000,4.21247607421875,-0.6768035888671875,-0.6647491455078125,-0.1142730712890625
1789318181840430000,4.22243017578125,-0.4947052001953125,-0.689117431640625,0.0050048828125
1789318181850384000,4.2323837890625,-0.274383544921875,-0.3849945068359375,-0.115264892578125
1789318181860338000,4.242337890625,-0.5225067138671875,0.547454833984375,-0.159423828125
1789318181870293200,4.252293212890625,-0.8234100341796875,-1.176971435546875,-0.5230712890625
1789318181880247000,4.2622470703125,-0.630096435546875,-0.9024505615234375,-0.5232391357421875
1789318181890201000,4.272201171875,-1.3007049560546875,-1.1334075927734375,-0.249908447265625
1789318181900155100,4.282155029296875,-1.2528228759765625,-1.6078033447265625,-0.10516357421875
1789318181910110000,4.29210986328125,-0.3694915771484375,-0.3673248291015625,0.043914794921875
1789318181920064000,4.30206396484375,-0.1839141845703125,-0.4888458251953125,0.21673583984375
1789318181930018000,4.31201806640625,-0.28326416015625,0.0651397705078125,0.172149658203125
1789318181939971800,4.321971923828125,-1.8293304443359375,-0.2705841064453125,-0.2873382568359375
1789318181949927200,4.33192724609375,-2.2612762451171875,-1.1992034912109375,-0.6609039306640625
1789318181959881000,4.341880859375,-1.010162353515625,-0.8812713623046875,0.041748046875
1789318181969835000,4.3518349609375,-0.6672515869140625,-1.3182525634765625,0.210052490234375
1789318181979789000,4.3617890625,0.3246917724609375,-0.1083221435546875,0.2268524169921875
1789318181989743900,4.371743896484375,0.307647705078125,-0.0058441162109375,0.391387939453125
1789318181999698000,4.381697998046875,-0.4072265625,-0.881134033203125,0.1287994384765625
1789318182009652200,4.39165234375,-0.7074127197265625,-1.198486328125,-0.0835113525390625
1789318182019606000,4.40160595703125,-0.30767822265625,-1.2517852783203125,-0.0847015380859375
1789318182029560000,4.41156005859375,0.2627716064453125,-0.5422821044921875,-0.0099945068359375
1789318182039515100,4.42151513671875,-0.6001739501953125,-0.129241943359375,0.1016998291015625
1789318182049469000,4.431468994140625,-2.6523895263671875,-0.7060089111328125,-0.1000518798828125
1789318182059423000,4.441423095703125,-0.7512054443359375,-0.534881591796875,-0.1046295166015625
1789318182069377000,4.451376953125,-0.8271636962890625,-0.3118896484375,0.4398345947265625
1789318182079332000,4.46133203125,-0.98846435546875,-0.512725830078125,0.415802001953125
1789318182089286100,4.4712861328125,-0.8990936279296875,-1.2011260986328125,0.0052337646484375
1789318182099240200,4.481240234375,-0.7850799560546875,-1.1951446533203125,-0.062713623046875
1789318182109194000,4.491194091796875,-1.024932861328125,-0.722198486328125,-0.039794921875
1789318182119148000,4.50114794921875,-0.7000732421875,-0.63714599609375,-0.194091796875
1789318182129102800,4.511102783203125,-0.402923583984375,-0.9414215087890625,0.057342529296875
1789318182139057200,4.52105712890625,0.009002685546875,-0.822021484375,0.2720489501953125
1789318182149011200,4.53101123046875,0.1197662353515625,-0.0823974609375,0.3424835205078125
1789318182158965000,4.540965087890625,-1.690673828125,-0.847503662109375,0.324737548828125
1789318182168920000,4.550920166015625,-2.22515869140625,-0.60589599609375,-0.1037139892578125
1789318182178874000,4.5608740234375,-0.80621337890625,-1.06060791015625,-0.2432098388671875
1789318182188828000,4.570827880859375,-1.182586669921875,-0.8679656982421875,0.0814208984375
1789318182198782000,4.580781982421875,-0.519989013671875,-0.566802978515625,-0.119476318359375
1789318182208737000,4.590737060546875,0.1039581298828125,-0.5677642822265625,-0.3440093994140625
1789318182218691000,4.600691162109375,-0.016876220703125,-0.70068359375,-0.1335906982421875
1789318182228645000,4.61064501953125,-0.46771240234375,-0.779815673828125,-0.0807342529296875
1789318182238599200,4.62059912109375,-0.7435455322265625,-0.6378173828125,-0.2489013671875
1789318182248553000,4.630552978515625,-1.08880615234375,-0.6522369384765625,-0.1264801025390625
1789318182258508000,4.640508056640625,-1.227508544921875,-0.196685791015625,0.1688995361328125
1789318182268461800,4.6504619140625,-1.596405029296875,-0.8311920166015625,0.1063690185546875
1789318182278416100,4.660416015625,-1.2820587158203125,-0.3885955810546875,0.01446533203125
1789318182288370200,4.6703701171875,-0.951629638671875,0.2503662109375,0.141326904296875
1789318182298325000,4.680324951171875,-0.8013458251953125,0.1907196044921875,0.0543060302734375
1789318182308279000,4.690279052734375,-0.806732177734375,-1.1288604736328125,-0.2630462646484375
1789318182318233000,4.700233154296875,-0.2068328857421875,-1.209228515625,-0.3272552490234375
1789318182328187000,4.710186767578125,0.4464111328125,-0.73675537109375,-0.225067138671875
1789318182338142200,4.72014208984375,0.0312652587890625,-0.764862060546875,-0.0695343017578125
1789318182348096300,4.73009619140625,-0.720550537109375,-1.026458740234375,-0.179473876953125
1789318182358050000,4.740050048828125,-0.5523529052734375,-0.7704620361328125,-0.4242706298828125
1789318182368004000,4.750004150390625,-0.7453460693359375,-0.8292388916015625,-0.2536163330078125
1789318182377958100,4.759958251953125,-0.9400177001953125,-0.727142333984375,-0.1446075439453125
1789318182387913000,4.769912841796875,-1.7454986572265625,0.1059112548828125,-0.1912841796875
1789318182397867000,4.779866943359375,-1.7234649658203125,-0.5841522216796875,-0.365020751953125
1789318182407821000,4.789821044921875,-0.7454681396484375,-0.528717041015625,-0.00054931640625
1789318182417775000,4.799775146484375,-0.345611572265625,-0.691131591796875,0.154022216796875
1789318182427730000,4.80972998046875,0.6251220703125,-0.52117919921875,-0.144866943359375
1789318182437683700,4.81968359375,0.671173095703125,-0.435699462890625,-0.156982421875
1789318182447637800,4.8296376953125,-0.5697021484375,-1.39739990234375,-0.1662750244140625
1789318182457591800,4.839591796875,-1.2061004638671875,-1.2608795166015625,-0.2736663818359375
1789318182467545900,4.8495458984375,-1.002349853515625,-1.4748382568359375,-0.1796875
1789318182477500700,4.859500732421875,-0.9819488525390625,-0.1210479736328125,0.1635284423828125
1789318182487455000,4.869455078125,-1.33294677734375,-0.3002471923828125,0.072418212890625
1789318182497408800,4.87940869140625,-0.8622589111328125,-0.7304840087890625,-0.0904998779296875
1789318182507362800,4.88936279296875,-0.658447265625,0.512115478515625,0.1326141357421875
1789318182517318000,4.89931787109375,-1.37213134765625,-0.4183502197265625,-0.1016693115234375
1789318182527271700,4.909271728515625,-1.13525390625,-1.2294464111328125,-0.224334716796875
1789318182537225700,4.919225830078125,-0.4190826416015625,-1.522796630859375,0.034698486328125
1789318182547179800,4.9291796875,0.9396820068359375,-1.0250701904296875,0.1389007568359375
1789318182557134800,4.939134765625,0.932159423828125,0.099090576171875,0.2560577392578125
1789318182567089000,4.9490888671875,-1.566925048828125,-1.049102783203125,-0.11895751953125
1789318182577043000,4.95904296875,-1.3910064697265625,-1.2930908203125,-0.6821746826171875
1789318182586996700,4.968996826171875,-0.6375579833984375,-0.1956787109375,-0.1868896484375
1789318182596950800,4.97895068359375,-0.871063232421875,-0.732208251953125,0.073760986328125
1789318182606905600,4.988905517578125,-2.18487548828125,0.716644287109375,-0.0163116455078125
1789318182616859600,4.998859619140625,-3.00042724609375,-0.2472686767578125,-0.5758514404296875
1789318182626814000,5.00881396484375,-0.96795654296875,-1.1985321044921875,-0.0630950927734375
1789318182636767700,5.018767822265625,-0.267791748046875,-1.0214996337890625,0.4945526123046875
1789318182646722800,5.028722900390625,1.196533203125,-0.544952392578125,0.022369384765625
1789318182656676900,5.0386767578125,1.3632354736328125,0.198089599609375,-0.2434844970703125
1789318182666630700,5.048630615234375,-0.7317657470703125,-1.9431610107421875,-0.5865478515625
1789318182676584700,5.058584716796875,-0.7066650390625,-1.99224853515625,-0.673828125
1789318182686539800,5.068539794921875,0.379150390625,-0.326324462890625,0.0519866943359375
1789318182696493800,5.078493896484375,0.44268798828125,-0.067657470703125,0.309600830078125
1789318182706448000,5.08844775390625,-2.0560760498046875,0.9852752685546875,0.122283935546875
1789318182716402000,5.09840185546875,-5.3519744873046875,-0.6648712158203125,-0.343994140625
1789318182726355700,5.108355712890625,-0.32232666015625,-0.58294677734375,0.278350830078125
1789318182736310800,5.118310791015625,-0.9195709228515625,-0.386199951171875,0.67620849609375
1789318182746264600,5.1282646484375,-1.2013397216796875,-0.069610595703125,-0.079193115234375
1789318182756218600,5.138218505859375,-0.7303924560546875,-0.7363433837890625,-0.388671875
1789318182766173000,5.1481728515625,-0.3951263427734375,-1.4501495361328125,-0.0464935302734375
1789318182776127700,5.158127685546875,0.5891265869140625,-1.138092041015625,0.0184326171875
1789318182786081800,5.168081787109375,1.1070709228515625,-0.8177490234375,-0.076568603515625
1789318182796035800,5.178035888671875,0.552642822265625,-0.757415771484375,-0.0584564208984375
1789318182805989600,5.18798974609375,-0.4282684326171875,-0.0942535400390625,-0.0411529541015625
1789318182815944700,5.19794482421875,-1.7648773193359375,-0.5399322509765625,-0.0055389404296875
1789318182825899000,5.20789892578125,-1.4015960693359375,-1.266387939453125,-0.0101470947265625
1789318182835852800,5.217852783203125,-0.8734283447265625,-0.62689208984375,0.1697235107421875
1789318182845806800,5.227806884765625,-2.0979156494140625,0.1551971435546875,0.3176727294921875
1789318182855761000,5.237760986328125,-2.63128662109375,0.080169677734375,-0.1658477783203125
1789318182865715700,5.2477158203125,-0.8412017822265625,-0.5620880126953125,0.0407562255859375
1789318182875669800,5.257669677734375,-0.6579437255859375,-1.4637603759765625,0.2524871826171875
1789318182885623800,5.267623779296875,0.440338134765625,-1.1869049072265625,-0.0211334228515625
1789318182895577900,5.277577880859375,0.993194580078125,0.0659027099609375,0.1548614501953125
1789318182905533000,5.287532958984375,-0.214599609375,-1.164764404296875,-0.0471954345703125
1789318182915486700,5.29748681640625,-0.8416748046875,-0.84814453125,-0.3328857421875
1789318182925440800,5.307440673828125,-0.653472900390625,-0.6273651123046875,-0.1989288330078125
1789318182935394800,5.317394775390625,-0.8263092041015625,-1.2442779541015625,0.063140869140625
1789318182945348900,5.327348876953125,-0.85546875,-0.3655242919921875,-0.0159454345703125
1789318182955304000,5.337303955078125,-2.34759521484375,0.8394775390625,-0.0308990478515625
1789318182965258000,5.347258056640625,-1.3187255859375,-0.0220794677734375,-0.1412506103515625
1789318182975211800,5.357211669921875,-0.6427764892578125,-2.0746002197265625,0.087554931640625
1789318182985165800,5.367165771484375,0.36541748046875,-0.91650390625,0.422821044921875
1789318182995120600,5.37712060546875,0.581451416015625,0.0243988037109375,0.3171234130859375
1789318183005074700,5.38707470703125,-1.6210479736328125,-0.967987060546875,-0.0710906982421875
1789318183015028700,5.39702880859375,-0.8349761962890625,-2.138031005859375,-0.5654449462890625
1789318183024982800,5.406982666015625,0.0753173828125,-0.678192138671875,0.2399749755859375
1789318183034937900,5.416937744140625,0.175079345703125,-1.10565185546875,0.402618408203125
1789318183044892000,5.426891845703125,0.27880859375,0.65234375,0.1369781494140625
1789318183054845700,5.436845703125,-1.894927978515625,0.578369140625,-0.1514739990234375
1789318183064799700,5.4467998046875,-1.81048583984375,-0.7688140869140625,-0.4652099609375
1789318183074753800,5.45675390625,-0.59124755859375,-0.5733489990234375,-0.02984619140625
1789318183084708600,5.46670849609375,-1.335174560546875,-1.3914947509765625,0.17919921875
1789318183094663000,5.476662841796875,-0.9333953857421875,-0.8037109375,-0.245208740234375
1789318183104617000,5.486616943359375,-0.633636474609375,-0.18243408203125,-0.255859375
1789318183114570800,5.49657080078125,-0.416656494140625,-1.097412109375,-0.078460693359375
1789318183124525800,5.50652587890625,-0.193084716796875,-0.54217529296875,-0.1634979248046875
1789318183134480000,5.51647998046875,-0.852752685546875,-1.012939453125,-0.3880157470703125
1789318183144433700,5.52643359375,-1.0459747314453125,-1.031646728515625,-0.3869781494140625
1789318183154387700,5.5363876953125,-0.3330841064453125,-0.4908447265625,-0.150543212890625
1789318183164342800,5.5463427734375,-0.0420684814453125,-0.0762481689453125,0.04815673828125
1789318183174296800,5.556296875,-1.17156982421875,0.0872039794921875,0.0458221435546875
1789318183184251000,5.5662509765625,-1.6506805419921875,-1.0726165771484375,-0.5126953125
1789318183194205000,5.576204833984375,-0.8126983642578125,-0.922821044921875,-0.5221099853515625
1789318183204158700,5.58615869140625,-2.6175384521484375,-0.8575592041015625,-0.287353515625
1789318183214113800,5.59611376953125,-1.7169036865234375,-0.592041015625,-0.436431884765625
1789318183224067600,5.606067626953125,-0.7469329833984375,-0.7958221435546875,-0.1571197509765625
1789318183234022000,5.61602197265625,-0.647003173828125,-0.966796875,0.04345703125
1789318183243976000,5.625975830078125,0.383758544921875,-0.4226531982421875,0.072723388671875
1789318183253930800,5.6359306640625,-0.0819091796875,0.355621337890625,0.146820068359375
1789318183263884800,5.645884765625,-2.5544586181640625,-0.7669219970703125,-0.568511962890625
1789318183273838800,5.6558388671875,-1.3438873291015625,-2.008697509765625,-0.621856689453125
1789318183283792600,5.665792724609375,0.29168701171875,-0.7803802490234375,0.1141815185546875
1789318183293746700,5.67574658203125,1.0164794921875,-0.5366363525390625,-0.0780487060546875
1789318183303701800,5.68570166015625,0.60174560546875,0.558990478515625,-0.31292724609375
1789318183313655800,5.69565576171875,-2.455780029296875,0.331573486328125,-0.7900238037109375
1789318183323609900,5.70560986328125,-1.3966522216796875,-0.27227783203125,-0.94781494140625
1789318183333564000,5.71556396484375,-0.975250244140625,-1.3915252685546875,0.4398193359375
1789318183343518700,5.725518798828125,-0.508758544921875,-2.4461822509765625,0.2156219482421875
1789318183353472800,5.73547265625,0.7316741943359375,-1.1609344482421875,-0.1901092529296875
1789318183363426600,5.745426513671875,-0.155975341796875,1.2908935546875,0.395263671875
1789318183373380900,5.755380859375,-2.749267578125,-0.3782958984375,-0.7342987060546875
1789318183383336000,5.7653359375,-2.559967041015625,-2.19921875,-0.47991943359375
1789318183393289700,5.775289794921875,-1.3455963134765625,-0.8007965087890625,1.0016937255859375
1789318183403243800,5.785243896484375,-0.07598876953125,-1.3847808837890625,-0.58001708984375
1789318183413197800,5.79519775390625,0.5872955322265625,-0.1913604736328125,-0.3530731201171875
1789318183423152000,5.805152099609375,1.0934600830078125,1.5920867919921875,0.7459869384765625
1789318183433107200,5.815107177734375,0.3950347900390625,0.324432373046875,0.2183074951171875
1789318183443061000,5.82506103515625,-3.2124176025390625,-1.9086761474609375,-0.8427276611328125
1789318183453015000,5.83501513671875,-2.6907501220703125,-3.4848785400390625,-0.294891357421875
1789318183462969000,5.844968994140625,0.5111541748046875,-1.839599609375,0.4054718017578125
1789318183472924200,5.854924072265625,1.442626953125,-0.91534423828125,0.158172607421875
1789318183482878200,5.864878173828125,0.8914947509765625,0.805084228515625,0.3976898193359375
1789318183492832300,5.874832275390625,-1.6402740478515625,-0.0648193359375,-0.1662750244140625
1789318183502786000,5.8847861328125,-2.379180908203125,-2.115234375,-0.77679443359375
1789318183512740000,5.894739990234375,-1.6902313232421875,-1.223297119140625,0.531646728515625
1789318183522695200,5.904695068359375,-0.820281982421875,-0.7025146484375,0.330169677734375
1789318183532649200,5.914649169921875,-1.302734375,1.029296875,-0.154266357421875
1789318183542603300,5.924603271484375,-1.7095489501953125,-0.201690673828125,-0.0695343017578125
1789318183552557300,5.934557373046875,-0.6334381103515625,-0.8162841796875,0.3043060302734375
1789318183562512100,5.94451220703125,-0.54498291015625,-0.4721527099609375,0.4029388427734375
1789318183572466200,5.954466064453125,-0.373687744140625,-1.3188934326171875,-0.11846923828125
1789318183582420200,5.964420166015625,0.072784423828125,-0.973724365234375,-0.4288787841796875
1789318183592374000,5.9743740234375,-0.3002471923828125,-0.051116943359375,-0.2006072998046875
1789318183602329300,5.984329345703125,-0.8225555419921875,-1.5971832275390625,-0.5161285400390625
1789318183612283100,5.994283203125,-0.04638671875,-0.860107421875,-0.5395965576171875
1789318183622237200,6.0042373046875,0.6671600341796875,0.43072509765625,-0.19293212890625
1789318183632191200,6.014191162109375,-0.2261810302734375,-0.21417236328125,-0.16876220703125
1789318183642145300,6.024145263671875,-3.33465576171875,-0.8940887451171875,-0.244293212890625
1789318183652100000,6.03410009765625,-1.5506134033203125,-0.709716796875,-0.272003173828125
1789318183662054100,6.04405419921875,-0.5163116455078125,-0.6044158935546875,0.3093414306640625
1789318183672008200,6.05400830078125,-0.7469482421875,-0.8431854248046875,0.309234619140625
1789318183681962200,6.063962158203125,-0.259857177734375,-0.3874053955078125,-0.146881103515625
1789318183691917000,6.0739169921875,-0.3706817626953125,-0.6218414306640625,-0.3064117431640625
1789318183701871000,6.08387109375,-0.19403076171875,-0.7259674072265625,-0.2583160400390625
1789318183711825200,6.0938251953125,0.2161865234375,-0.653564453125,-0.121978759765625
1789318183721779200,6.103779296875,-0.0454559326171875,-0.9577789306640625,0.12518310546875
1789318183731734300,6.113734375,-0.7069549560546875,-0.5688934326171875,0.27532958984375
1789318183741688300,6.123688232421875,-1.9823455810546875,0.54376220703125,0.2743072509765625
1789318183751642000,6.13364208984375,-1.3609619140625,-1.04437255859375,-0.012481689453125
1789318183761596200,6.14359619140625,-0.564361572265625,-2.002105712890625,0.2950592041015625
1789318183771550200,6.15355029296875,-0.2325286865234375,-0.1095733642578125,0.222381591796875
1789318183781505000,6.163505126953125,-4.108428955078125,-0.273345947265625,-0.669219970703125
1789318183791459000,6.173458984375,-1.4403228759765625,-1.7770843505859375,-0.8566131591796875
1789318183801413000,6.1834130859375,1.624298095703125,-0.5231170654296875,0.2786865234375
1789318183811367200,6.1933671875,2.0982513427734375,-0.2099761962890625,0.4534759521484375
1789318183821322200,6.203322265625,1.0933380126953125,-0.265899658203125,0.1269073486328125
1789318183831276300,6.2132763671875,-3.0795440673828125,-1.2684173583984375,-0.167755126953125
1789318183841230000,6.22322998046875,-2.000518798828125,-2.1289215087890625,-0.48663330078125
1789318183851184000,6.23318408203125,-0.2054595947265625,-0.6190338134765625,0.8722381591796875
1789318183861139000,6.243138916015625,-0.2942352294921875,-0.548797607421875,0.529327392578125
1789318183871093200,6.25309326171875,-1.0049285888671875,0.4432830810546875,-0.38031005859375
1789318183881047300,6.26304736328125,-2.250946044921875,0.91778564453125,-0.843963623046875
1789318183891001300,6.27300146484375,-0.600799560546875,-1.1624603271484375,-0.5843963623046875
1789318183900955100,6.282955078125,-1.0687713623046875,-1.089630126953125,0.1392364501953125
1789318183910910200,6.29291015625,-1.54541015625,-1.0212249755859375,0.306060791015625
1789318183920864000,6.302864013671875,-0.583587646484375,-1.08892822265625,0.0558319091796875
1789318183930818000,6.312818115234375,0.5905303955078125,-0.0698089599609375,0.307373046875
1789318183940772000,6.322772216796875,0.5695953369140625,0.0245208740234375,0.5883026123046875
1789318183950727200,6.33272705078125,-0.551300048828125,-1.2381134033203125,-0.058349609375
1789318183960681200,6.34268115234375,-1.5915069580078125,-0.6400299072265625,-0.6365203857421875
1789318183970635300,6.35263525390625,-1.43499755859375,-0.3256072998046875,-0.4841156005859375
1789318183980589000,6.362589111328125,-1.3606414794921875,-0.469818115234375,0.21258544921875
1789318183990544100,6.372544189453125,-1.2975006103515625,-0.47369384765625,0.437469482421875
1789318184000498200,6.382498291015625,-0.72650146484375,-0.6829986572265625,0.3344879150390625
1789318184010452200,6.3924521484375,-0.521240234375,-0.112579345703125,0.52130126953125
1789318184020406300,6.40240625,-0.5660552978515625,-0.1828460693359375,0.1785125732421875
1789318184030360300,6.4123603515625,-0.934295654296875,-0.018310546875,-0.2539520263671875
1789318184040315100,6.422315185546875,-1.0962982177734375,-3.289215087890625,-0.6509552001953125
1789318184050269200,6.432269287109375,0.037506103515625,-1.6460113525390625,-0.4061737060546875
1789318184060223000,6.442222900390625,0.3771209716796875,0.02978515625,0.02349853515625
1789318184070177000,6.452177001953125,-0.742218017578125,0.1399383544921875,0.173370361328125
1789318184080132400,6.46213232421875,-0.2606353759765625,0.767303466796875,-0.3201751708984375
1789318184090086100,6.472086181640625,-0.776275634765625,-1.3843231201171875,-0.433837890625
1789318184100040200,6.482040283203125,-1.2757415771484375,-1.909820556640625,0.0186614990234375
1789318184109994200,6.491994140625,-1.652923583984375,-0.1772613525390625,0.1396636962890625
1789318184119948000,6.501947998046875,-1.62567138671875,0.000030517578125,-0.249481201171875
1789318184129903000,6.511903076171875,-0.6868896484375,-0.4666748046875,-0.02294921875
1789318184139857200,6.521857177734375,-0.254425048828125,-1.07269287109375,0.3997955322265625
1789318184149811200,6.531811279296875,0.5376739501953125,-0.9800872802734375,0.2415618896484375
1789318184159765200,6.54176513671875,0.5457763671875,-0.494049072265625,-0.113128662109375
1789318184169720000,6.551719970703125,-0.9001922607421875,-0.6434783935546875,-0.3463287353515625
1789318184179674000,6.561674072265625,-2.0524444580078125,-1.4022674560546875,-0.5399932861328125
1789318184189628200,6.571628173828125,-1.6788482666015625,-1.0454864501953125,-0.0857696533203125
1789318184199582200,6.581582275390625,-1.636993408203125,-0.2566375732421875,0.316253662109375
1789318184209537300,6.591537353515625,-0.7939453125,-0.836578369140625,-0.059661865234375
1789318184219491300,6.6014912109375,-0.350830078125,0.0927276611328125,0.1861724853515625
1789318184229445000,6.611445068359375,-0.48968505859375,0.112060546875,0.290740966796875
1789318184239399200,6.621399169921875,-1.03271484375,-1.15771484375,-0.3428955078125
1789318184249353200,6.631353271484375,-0.6541748046875,-1.0937347412109375,-0.5768585205078125
1789318184259308000,6.64130810546875,0.089324951171875,-1.1816558837890625,-0.2550811767578125
1789318184269262000,6.651261962890625,0.65338134765625,-0.70574951171875,0.0217437744140625
1789318184279216000,6.661216064453125,0.30474853515625,-0.6945648193359375,0.143768310546875
1789318184289170200,6.671170166015625,-0.50653076171875,-0.9209136962890625,0.20904541015625
1789318184299125200,6.681125244140625,-0.86614990234375,-0.68963623046875,0.1524658203125
1789318184309079300,6.691079345703125,-1.04241943359375,-0.867584228515625,0.03509521484375
1789318184319033000,6.701033203125,-1.348846435546875,-0.373260498046875,0.017730712890625
1789318184328987100,6.710987060546875,-2.2437591552734375,-0.3371429443359375,-0.146728515625
1789318184338941200,6.720941162109375,-1.7195892333984375,-0.080413818359375,-0.108306884765625
1789318184348896300,6.730896240234375,-1.139129638671875,-0.895660400390625,0.1097564697265625
1789318184358850300,6.740850341796875,-0.70745849609375,-0.868560791015625,0.200531005859375
1789318184368804000,6.75080419921875,-0.074310302734375,-0.3331298828125,0.1520538330078125
1789318184378758100,6.760758056640625,0.091766357421875,-0.5496063232421875,-0.040008544921875
1789318184388713200,6.770713134765625,0.1111907958984375,-0.8683319091796875,-0.1973114013671875
1789318184398667000,6.7806669921875,0.4117584228515625,-1.23876953125,-0.178436279296875
1789318184408621000,6.79062109375,0.4044189453125,-0.29638671875,-0.08251953125
1789318184418575000,6.8005751953125,-1.5240325927734375,-0.5962066650390625,-0.223358154296875
1789318184428529700,6.81052978515625,-2.2983551025390625,-1.3941802978515625,-0.4572906494140625
1789318184438483700,6.820483642578125,-0.7918701171875,-0.9263458251953125,-0.0789794921875
1789318184448438000,6.83043798828125,-0.8481292724609375,-1.25604248046875,0.3570556640625
1789318184458391800,6.840391845703125,-0.24359130859375,0.2719573974609375,0.2827911376953125
1789318184468345900,6.850345947265625,-1.0579071044921875,0.1729888916015625,-0.0791168212890625
1789318184478301000,6.860301025390625,-1.2880401611328125,-0.1095123291015625,-0.4819183349609375
1789318184488254700,6.870254638671875,-0.416290283203125,-0.886016845703125,-0.4083099365234375
1789318184498208800,6.880208740234375,-0.5891571044921875,-1.324005126953125,0.005035400390625
1789318184508162800,6.890162841796875,-0.172210693359375,-0.0396270751953125,-0.0483551025390625
1789318184518118000,6.900117919921875,-1.1660919189453125,-0.09600830078125,-0.2760162353515625
1789318184528072000,6.910072021484375,-1.5206451416015625,-0.705963134765625,-0.2432098388671875
1789318184538026000,6.92002587890625,-0.4651641845703125,-0.53271484375,0.1737213134765625
1789318184547979800,6.929979736328125,-0.966888427734375,-0.5087432861328125,0.2966156005859375
1789318184557933800,6.939933837890625,-1.981292724609375,-0.6863250732421875,-0.27838134765625
1789318184567888600,6.949888671875,-1.0653839111328125,-0.8404388427734375,-0.4742889404296875
1789318184577843000,6.959843017578125,-0.21331787109375,-0.3527679443359375,-0.010986328125
1789318184587797000,6.969796875,-0.1661529541015625,-1.3978424072265625,-0.002471923828125
1789318184597750800,6.979750732421875,0.18914794921875,-0.9399871826171875,-0.0880889892578125
1789318184607705900,6.989705810546875,0.02105712890625,-0.496734619140625,-0.0032501220703125
1789318184617660000,6.999659912109375,-0.8049163818359375,-0.60443115234375,0.1307830810546875
1789318184627613700,7.00961376953125,-1.063873291015625,-1.052276611328125,0.150787353515625
1789318184637567700,7.019567626953125,-0.78973388671875,-1.2873077392578125,0.1233978271484375
1789318184647522800,7.029522705078125,-0.358428955078125,-0.3901214599609375,0.0898284912109375
1789318184657476900,7.039476806640625,-1.0383148193359375,0.72515869140625,-0.1117401123046875
1789318184667431000,7.049430908203125,-1.7565765380859375,0.2322235107421875,-0.6842193603515625
1789318184677385000,7.059385009765625,-0.532867431640625,-1.2601470947265625,-0.56671142578125
1789318184687338800,7.0693388671875,-0.4488525390625,-1.6819000244140625,0.050506591796875
1789318184697293800,7.0792939453125,-0.410491943359375,-0.6770477294921875,0.3092193603515625
1789318184707247600,7.08924755859375,-1.6504669189453125,-0.3388214111328125,-0.029693603515625
1789318184717202000,7.099201904296875,-0.6102294921875,-1.010772705078125,-0.587066650390625
1789318184727156000,7.109156005859375,-0.2985382080078125,-0.47991943359375,0.005462646484375
1789318184737110800,7.11911083984375,-0.2143096923828125,-1.3856201171875,-0.08929443359375
1789318184747064800,7.12906494140625,0.3441314697265625,0.0194091796875,-0.322967529296875
1789318184757019000,7.139018798828125,-0.9656829833984375,0.7866668701171875,-0.42303466796875
1789318184766972700,7.14897265625,-3.20208740234375,-0.328857421875,-0.647491455078125
1789318184776926700,7.1589267578125,-1.564605712890625,-0.970001220703125,0.1925506591796875
1789318184786882000,7.168882080078125,-1.2783355712890625,-1.4300537109375,0.7497406005859375
1789318184796835800,7.1788359375,-0.5336151123046875,-1.4031524658203125,-0.1667633056640625
1789318184806790000,7.188789794921875,0.5720672607421875,-0.1528167724609375,-0.4603424072265625
1789318184816744000,7.198743896484375,-0.092041015625,0.3421630859375,-0.0012359619140625
1789318184826698800,7.20869873046875,-1.1421356201171875,-1.544189453125,-0.6522979736328125
1789318184836652800,7.21865283203125,-0.9549713134765625,-1.6729583740234375,-0.782562255859375
1789318184846606800,7.22860693359375,-0.1643218994140625,-1.246368408203125,-0.0227508544921875
1789318184856561000,7.238560791015625,0.9450225830078125,0.0680084228515625,0.1627349853515625
1789318184866516000,7.248515869140625,-0.3575439453125,0.588409423828125,0.2438507080078125
1789318184876469800,7.2584697265625,-3.3521575927734375,-1.06024169921875,-0.295623779296875
1789318184886423800,7.268423828125,-0.8306732177734375,-0.864532470703125,-0.5100860595703125
1789318184896377900,7.2783779296875,-0.7582550048828125,-1.18267822265625,0.275421142578125
1789318184906332000,7.288331787109375,-0.2540740966796875,-0.68402099609375,0.0383758544921875
1789318184916287000,7.298286865234375,0.11383056640625,0.0223541259765625,-0.4837646484375
1789318184926241000,7.308240966796875,-0.931976318359375,-0.7060546875,-0.3899078369140625
1789318184936194800,7.31819482421875,-0.270660400390625,-0.7805938720703125,-0.3772735595703125
1789318184946148900,7.32814892578125,0.0430755615234375,-0.771453857421875,-0.231689453125
1789318184956103700,7.338103759765625,0.0381622314453125,-1.4562225341796875,-0.1683807373046875
1789318184966057700,7.3480576171875,0.7401885986328125,-0.7401275634765625,-0.1990203857421875
1789318184976011800,7.35801171875,-2.033050537109375,1.04766845703125,0.090057373046875
1789318184985965800,7.3679658203125,-4.753326416015625,-1.687713623046875,-0.6373138427734375
1789318184995921000,7.3779208984375,-0.786529541015625,-1.1661376953125,0.1822967529296875
1789318185005875000,7.387875,-0.59515380859375,-0.5688323974609375,0.60565185546875
1789318185015828700,7.397828857421875,0.17559814453125,-0.34698486328125,-0.2931671142578125
1789318185025782800,7.40778271484375,-0.256134033203125,0.793975830078125,-0.28704833984375
1789318185035736800,7.41773681640625,-2.2763519287109375,-1.5750579833984375,-0.5561065673828125
1789318185045691600,7.427691650390625,-0.8226470947265625,-2.3937835693359375,-0.5742950439453125
1789318185055646000,7.43764599609375,-0.33038330078125,-0.541351318359375,0.5615386962890625
1789318185065600000,7.44760009765625,0.1578826904296875,-0.6131591796875,0.66717529296875
1789318185075553800,7.4575537109375,0.4335479736328125,-0.0925445556640625,0.1811065673828125
1789318185085508900,7.4675087890625,-0.37872314453125,-0.940277099609375,0.06494140625
1789318185095463000,7.477462890625,-0.27117919921875,-1.05657958984375,-0.0398406982421875
1789318185105416700,7.487416748046875,0.3217010498046875,1.03167724609375,-0.138916015625
1789318185115370800,7.497370849609375,-3.7101593017578125,-0.045166015625,-0.5517730712890625
1789318185125324800,7.50732470703125,-2.8298797607421875,-2.1017303466796875,-0.4639129638671875
1789318185135279900,7.51727978515625,-0.196533203125,-0.8885345458984375,0.1466064453125
1789318185145234000,7.52723388671875,-0.544921875,-1.3346405029296875,0.240509033203125
1789318185155188000,7.53718798828125,0.6234283447265625,1.16278076171875,0.3338470458984375
1789318185165141800,7.547141845703125,0.2934112548828125,0.8590545654296875,-0.121734619140625
1789318185175096800,7.557096923828125,-1.3613433837890625,-1.7494964599609375,-0.6148529052734375
1789318185185050600,7.567050537109375,-1.5453948974609375,-1.5623016357421875,-0.3894195556640625
1789318185195005000,7.5770048828125,-0.290435791015625,-0.90386962890625,-0.14373779296875
1789318185204959000,7.586958984375,0.045166015625,-0.10205078125,-0.1627197265625
1789318185214913800,7.596913818359375,-1.5481719970703125,0.6933746337890625,-0.0180816650390625
1789318185224867800,7.606867919921875,-1.409027099609375,-0.0537109375,-0.21826171875
1789318185234822000,7.61682177734375,-0.72454833984375,-1.6511077880859375,-0.231201171875
1789318185244775700,7.626775634765625,-0.9217681884765625,-2.2848968505859375,-0.189910888671875
1789318185254729700,7.636729736328125,-0.2477569580078125,-0.370941162109375,-0.267608642578125
1789318185264684800,7.646684814453125,-0.8313751220703125,0.5590057373046875,-0.1856231689453125
1789318185274638800,7.656638916015625,-0.1651458740234375,-1.2979278564453125,-0.29754638671875
1789318185284593000,7.666593017578125,0.2580108642578125,-0.4723052978515625,0.0760498046875
1789318185294547000,7.676546875,-0.41168212890625,-1.6193695068359375,-0.053314208984375
1789318185304501800,7.686501708984375,-1.33538818359375,-0.987518310546875,-0.16351318359375
1789318185314455800,7.696455810546875,-1.5364532470703125,0.8001251220703125,-0.2227020263671875
1789318185324409600,7.70640966796875,-0.6245880126953125,-0.955291748046875,-0.275360107421875
1789318185334364000,7.716364013671875,-0.996063232421875,-0.73004150390625,0.1029052734375
1789318185344318000,7.72631787109375,-1.4670562744140625,-0.8077239990234375,-0.0135345458984375
1789318185354272800,7.736272705078125,-0.85400390625,-0.7762603759765625,-0.07012939453125
1789318185364226800,7.746226806640625,-0.17584228515625,0.1641693115234375,0.3186492919921875
1789318185374180900,7.756180908203125,-0.3343963623046875,-1.2996063232421875,0.165618896484375
1789318185384134700,7.766134765625,-0.4725189208984375,-1.2223358154296875,-0.2305145263671875
1789318185394090000,7.776090087890625,-0.5453338623046875,-0.595367431640625,-0.2508392333984375
1789318185404044000,7.7860439453125,-0.4383087158203125,-0.8760223388671875,-0.137451171875
1789318185413997800,7.795997802734375,-0.32122802734375,-0.548614501953125,-0.0293121337890625
1789318185423952000,7.805951904296875,-0.8534698486328125,-1.1063232421875,0.004547119140625
1789318185433906400,7.815906494140625,-1.0290374755859375,-0.35321044921875,0.0153045654296875
1789318185443860500,7.825860595703125,-1.22222900390625,-0.3487701416015625,0.0955963134765625
1789318185453814500,7.835814453125,-1.08721923828125,-0.5739288330078125,0.135284423828125
1789318185463768600,7.8457685546875,-1.074798583984375,-0.8191070556640625,-0.019805908203125
1789318185473722400,7.855722412109375,-0.8837738037109375,-0.791839599609375,-0.1317901611328125
1789318185483677400,7.865677490234375,-0.412261962890625,-0.543548583984375,-0.1138916015625
1789318185493631500,7.875631591796875,-0.80889892578125,-0.5657806396484375,-0.0437164306640625
1789318185503585300,7.885585205078125,-2.2328948974609375,-0.8866424560546875,-0.3189849853515625
1789318185513539600,7.89553955078125,-1.263702392578125,-1.3600616455078125,-0.1739959716796875
1789318185523494400,7.905494384765625,-0.209808349609375,-0.8777923583984375,0.4164581298828125
1789318185533448400,7.915448486328125,0.6146392822265625,-0.2654876708984375,0.4929351806640625
1789318185543402500,7.925402587890625,0.270233154296875,0.2257843017578125,0.3516693115234375
1789318185553356300,7.935356201171875,-1.875885009765625,-0.9976348876953125,-0.1232452392578125
1789318185563310300,7.945310302734375,-0.8377685546875,-1.5161590576171875,-0.481414794921875
1789318185573265700,7.955265625,0.0684051513671875,-0.3723297119140625,-0.031982421875
1789318185583219500,7.965219482421875,-1.0771331787109375,-0.6426239013671875,0.115081787109375
1789318185593173500,7.975173583984375,-2.7578125,-0.981536865234375,-0.331878662109375
1789318185603127600,7.98512744140625,-0.958648681640625,-0.6898345947265625,-0.1863861083984375
1789318185613082400,7.995082275390625,-0.74658203125,-0.419647216796875,0.6081390380859375
1789318185623036400,8.005036376953125,-0.3886871337890625,-0.21173095703125,0.5955810546875
1789318185632990500,8.014990478515625,-0.1583709716796875,0.4533538818359375,0.0242919921875
1789318185642944500,8.024944580078126,-2.7537384033203125,-0.85430908203125,-0.463714599609375
1789318185652899600,8.034899658203125,-1.6160736083984375,-1.587188720703125,-0.63909912109375
1789318185662853400,8.044853271484374,-0.3655853271484375,-1.212066650390625,0.141265869140625
1789318185672807400,8.054807373046875,-0.105438232421875,-0.73541259765625,0.4572296142578125
1789318185682761500,8.064761474609375,0.33868408203125,-0.3761444091796875,0.1637115478515625
1789318185692715500,8.074715576171876,-0.49072265625,-0.07098388671875,0.1098480224609375
1789318185702670600,8.084670654296875,-1.5568389892578125,-0.9511260986328125,0.0716400146484375
1789318185712624600,8.094624755859375,-0.43603515625,-1.4376983642578125,-0.020751953125
1789318185722578400,8.104578369140626,0.5391845703125,-0.563751220703125,0.1350555419921875
1789318185732532500,8.114532470703125,0.466033935546875,-0.025054931640625,0.1504669189453125
1789318185742487600,8.124487548828125,-2.13897705078125,-0.5684814453125,-0.094940185546875
1789318185752441300,8.13444140625,-2.2531890869140625,-1.3754425048828125,-0.574676513671875
1789318185762395400,8.1443955078125,-0.877197265625,-0.980377197265625,-0.0034942626953125
1789318185772349400,8.154349365234374,-1.703369140625,-0.7489166259765625,0.573211669921875
1789318185782304500,8.164304443359375,-1.103515625,-0.3114013671875,0.07147216796875
1789318185792258600,8.174258544921875,-0.6165771484375,-0.5533905029296875,-0.120361328125
1789318185802212400,8.18421240234375,0.1140289306640625,-0.361053466796875,0.1524658203125
1789318185812166400,8.19416650390625,1.5676116943359375,-0.0619049072265625,0.0688323974609375
1789318185822120400,8.204120361328124,1.8368072509765625,0.18438720703125,-0.1383819580078125
1789318185832075300,8.2140751953125,-0.78802490234375,-1.40869140625,-0.3423919677734375
1789318185842029600,8.224029541015625,-2.765045166015625,-3.0560150146484375,-0.92755126953125
1789318185851983600,8.233983642578124,-0.5337371826171875,-1.5618896484375,-0.1276397705078125
1789318185861937400,8.2439375,-0.2342681884765625,0.1328125,0.5963592529296875
1789318185871892500,8.253892578125,-1.208648681640625,-0.68670654296875,0.248138427734375
1789318185881846500,8.263846435546874,-1.7422027587890625,0.166015625,-0.0360107421875
1789318185891800300,8.27380029296875,-0.8976287841796875,-0.401275634765625,-0.2291717529296875
1789318185901754400,8.28375439453125,-1.155487060546875,-0.4473724365234375,-0.152374267578125
1789318185911709400,8.29370947265625,-1.29400634765625,-0.2915191650390625,-0.3733673095703125
1789318185921663500,8.30366357421875,-0.7400054931640625,-0.799346923828125,-0.476654052734375
1789318185931617500,8.313617431640624,-0.639739990234375,-1.2215576171875,-0.1487579345703125
1789318185941571600,8.323571533203125,-0.0754241943359375,-1.515960693359375,0.074615478515625
1789318185951525400,8.333525390625,0.7373199462890625,0.020172119140625,0.2478790283203125
1789318185961480400,8.34348046875,0.12152099609375,-0.4339447021484375,0.115081787109375
1789318185971434200,8.353434326171875,-0.8207244873046875,-0.79473876953125,-0.1536865234375
1789318185981388500,8.363388427734375,-1.395904541015625,-0.4735107421875,-0.2333984375
1789318185991342600,8.373342529296876,-1.576385498046875,-0.8154144287109375,-0.319366455078125
1789318186001297400,8.38329736328125,-1.8556365966796875,-0.2716217041015625,-0.269256591796875
1789318186011251500,8.39325146484375,-1.6954803466796875,-0.878173828125,-0.168304443359375
1789318186021205500,8.40320556640625,-0.858306884765625,-0.4882354736328125,0.0771026611328125
1789318186031159300,8.4131591796875,-0.5786895751953125,-0.790283203125,0.1625823974609375
1789318186041114600,8.423114501953124,0.22119140625,-0.50531005859375,0.04638671875
1789318186051068700,8.433068603515625,0.0116119384765625,0.128326416015625,-0.0389404296875
1789318186061022500,8.4430224609375,-1.6533966064453125,-1.585723876953125,-0.4521026611328125
1789318186070976500,8.4529765625,-0.9128265380859375,0.00933837890625,-0.2513275146484375
1789318186080931300,8.462931396484375,-0.4226226806640625,-0.95159912109375,0.1213226318359375
1789318186090885400,8.472885498046875,0.0937957763671875,-1.1884613037109375,0.2098846435546875
1789318186100839400,8.48283935546875,0.2287139892578125,0.5546417236328125,0.3582916259765625
1789318186110793500,8.49279345703125,-2.686187744140625,-0.3339385986328125,-0.0596466064453125
1789318186120747500,8.50274755859375,-1.52288818359375,-0.792022705078125,-0.7270965576171875
1789318186130702600,8.51270263671875,-0.7355499267578125,-1.847686767578125,0.04931640625
1789318186140656400,8.522656494140625,-0.5410614013671875,-1.8934326171875,0.4340057373046875
1789318186150610400,8.5326103515625,0.817169189453125,-0.26031494140625,0.0187530517578125
1789318186160564500,8.542564453125,1.0155487060546875,-0.0394287109375,0.14971923828125
1789318186170519300,8.552519287109375,0.4850006103515625,0.153656005859375,0.493743896484375
1789318186180473600,8.5624736328125,-0.5420989990234375,-0.38470458984375,0.2406463623046875
1789318186190427600,8.572427734375,-2.2008056640625,-1.173309326171875,-0.0657196044921875
1789318186200381400,8.58238134765625,-1.578948974609375,-0.8918914794921875,0.0620574951171875
1789318186210336500,8.59233642578125,-0.8878173828125,-0.2339630126953125,0.0651092529296875
1789318186220290300,8.602290283203125,-2.39825439453125,0.084197998046875,-0.1677093505859375
1789318186230244400,8.612244384765624,-1.1891632080078125,-0.4856109619140625,-0.280487060546875
1789318186240198400,8.622198486328125,-0.6145782470703125,-0.226715087890625,0.144012451171875
1789318186250153500,8.632153564453125,-0.8124237060546875,-0.8920135498046875,0.067962646484375
1789318186260107500,8.642107421875,-0.2765350341796875,-1.190887451171875,-0.15313720703125
1789318186270061600,8.6520615234375,0.1373443603515625,-0.7610931396484375,0.038360595703125
1789318186280015400,8.662015380859375,0.136016845703125,-0.6553497314453125,-0.0123443603515625
1789318186289969400,8.671969482421876,-0.3327484130859375,-0.340484619140625,-0.1102142333984375
1789318186299924500,8.681924560546875,-1.4985504150390625,-0.92315673828125,-0.0630035400390625
1789318186309878300,8.691878173828124,-1.8071136474609375,-0.8778228759765625,-0.292633056640625
1789318186319832600,8.70183251953125,-1.5691070556640625,-0.9654693603515625,-0.3273468017578125
1789318186329786600,8.71178662109375,-1.17535400390625,-0.0551300048828125,0.0940704345703125
1789318186339741400,8.721741455078124,-0.811065673828125,-0.2066192626953125,-0.09918212890625
1789318186349695500,8.731695556640625,-1.2986297607421875,0.1320648193359375,-0.2111053466796875
1789318186359649500,8.7416494140625,-0.989288330078125,-0.734588623046875,-0.292236328125
1789318186369603300,8.751603271484376,-0.8489837646484375,-1.3128204345703125,-0.1349029541015625
1789318186379558700,8.76155859375,-0.4565277099609375,-1.1876220703125,-0.0396728515625
1789318186389512400,8.771512451171875,0.08526611328125,-1.120147705078125,-0.149810791015625
1789318186399466500,8.781466552734376,0.259796142578125,-0.0358123779296875,-0.0599365234375
1789318186409420500,8.791420654296875,-0.491973876953125,-0.7981109619140625,-0.1454620361328125
1789318186419375400,8.801375244140624,-0.7002410888671875,-0.1626129150390625,-0.1909332275390625
1789318186429329700,8.81132958984375,-0.9140777587890625,-0.4389495849609375,-0.165924072265625
1789318186439283700,8.82128369140625,-1.967681884765625,-1.06378173828125,-0.124053955078125
1789318186449237500,8.831237548828126,-2.093597412109375,-0.4527435302734375,-0.0023651123046875
1789318186459191600,8.841191650390625,-0.803192138671875,-1.2220458984375,0.0785064697265625
1789318186469146400,8.851146484375,0.029876708984375,-0.364837646484375,0.33685302734375
1789318186479100400,8.861100341796876,0.76007080078125,-0.034881591796875,0.207794189453125
1789318186489054500,8.871054443359375,0.306793212890625,-0.09136962890625,0.0772552490234375
1789318186499008800,8.8810087890625,-0.99395751953125,-1.0055694580078125,-0.182464599609375
1789318186508963600,8.890963623046876,-1.1817169189453125,-2.7555084228515625,-0.4957275390625
1789318186518917600,8.900917724609375,-0.352081298828125,-0.7845611572265625,-0.1116790771484375
1789318186528871400,8.910871337890624,-0.1279296875,-0.3816070556640625,0.128997802734375
1789318186538825500,8.920825439453125,-0.29058837890625,-0.3459014892578125,0.14111328125
1789318186548780500,8.930780517578125,-0.4903106689453125,0.2503662109375,0.0320892333984375
1789318186558734600,8.940734619140626,-1.195648193359375,-1.052947998046875,-0.0442047119140625
1789318186568688600,8.950688720703125,-1.301025390625,-1.2057037353515625,0.0407257080078125
1789318186578642700,8.960642578125,-0.7644805908203125,-1.1871795654296875,0.072418212890625
1789318186588597500,8.970597412109376,-0.1587371826171875,-0.360748291015625,0.180908203125
1789318186598551600,8.980551513671875,-1.10321044921875,0.143768310546875,0.1754913330078125
1789318186608505600,8.990505615234374,-1.8325347900390625,-1.65521240234375,-0.2909393310546875
1789318186618459400,9.00045947265625,-0.6770172119140625,-0.759918212890625,-0.0089874267578125
1789318186628413400,9.010413330078125,-0.51080322265625,-1.1414337158203125,0.157958984375
1789318186638368500,9.020368408203124,-0.368743896484375,0.2250518798828125,0.0353851318359375
1789318186648322600,9.030322509765625,-3.371337890625,0.2951507568359375,-0.3777313232421875
1789318186658276600,9.040276611328125,-1.82958984375,-1.699951171875,-0.5617218017578125
1789318186668230700,9.050230712890626,-0.59942626953125,-0.77862548828125,0.4159393310546875
1789318186678185500,9.060185546875,-0.1064300537109375,-1.2635040283203125,0.18255615234375
1789318186688139500,9.070139404296874,1.237640380859375,0.6070404052734375,-0.1507415771484375
1789318186698093600,9.080093505859375,0.40264892578125,-0.036041259765625,-0.1289215087890625
1789318186708047600,9.090047607421875,-1.599578857421875,-1.184173583984375,-0.4905548095703125
1789318186718002400,9.10000244140625,-1.6352081298828125,-1.4388885498046875,-0.8398284912109375
1789318186727956500,9.10995654296875,-1.3040771484375,-0.51239013671875,0.2848968505859375
1789318186737910500,9.11991064453125,-0.8187713623046875,-0.0114593505859375,0.1875457763671875
1789318186747864600,9.129864501953126,-0.4940948486328125,-0.9561767578125,-0.1967315673828125
1789318186757819600,9.139819580078125,-0.3566741943359375,0.1602630615234375,0.3934478759765625
1789318186767773700,9.149773681640625,-0.456146240234375,-0.0791473388671875,0.252593994140625
1789318186777727500,9.1597275390625,-0.5462493896484375,-0.3215789794921875,-0.4502716064453125
1789318186787681500,9.169681640625,-0.8597869873046875,-1.2921600341796875,-0.51861572265625
1789318186797636600,9.17963671875,-0.2563629150390625,-1.0803375244140625,-0.1036376953125
1789318186807590400,9.18959033203125,0.0894012451171875,-0.0463409423828125,0.0898895263671875
1789318186817544400,9.19954443359375,-1.4251251220703125,-1.3032989501953125,0.07330322265625
1789318186827498500,9.20949853515625,-1.4458160400390625,-0.9330902099609375,-0.00616455078125
1789318186837452500,9.21945263671875,-0.3117523193359375,-0.2180633544921875,-0.0076141357421875
1789318186847407600,9.22940771484375,-0.4876861572265625,0.19244384765625,0.072723388671875
1789318186857361700,9.239361572265626,-1.090576171875,-0.623748779296875,-0.259429931640625
1789318186867315500,9.2493154296875,-2.02239990234375,-0.8599090576171875,-0.7643890380859375
1789318186877269500,9.25926953125,-2.24066162109375,-1.1150360107421875,-0.807647705078125
1789318186887224300,9.269224365234376,-1.58331298828125,-1.4409332275390625,-0.04437255859375
1789318186897178600,9.2791787109375,-0.71759033203125,-1.1571502685546875,0.4881134033203125
1789318186907132700,9.289132568359374,0.50970458984375,-1.04852294921875,0.3663482666015625
1789318186917086700,9.299086669921875,1.265350341796875,-0.1522979736328125,0.1704559326171875
1789318186927041500,9.30904150390625,-0.34429931640625,-0.3309783935546875,-0.176513671875
1789318186936995600,9.31899560546875,-1.90057373046875,-2.1500396728515625,-0.990570068359375
1789318186946949400,9.328949462890625,0.13775634765625,-0.3866424560546875,-0.6452484130859375
1789318186956903400,9.3389033203125,0.0104522705078125,-0.451995849609375,0.05792236328125
1789318186966858800,9.348858642578126,-0.6681060791015625,-1.029052734375,0.0082244873046875
1789318186976812500,9.3588125,-1.5218658447265625,-0.9317474365234375,0.152679443359375
1789318186986766600,9.3687666015625,-1.1123809814453125,-0.15179443359375,0.463653564453125
1789318186996720600,9.378720703125,-0.3665313720703125,-0.1829071044921875,0.246185302734375
1789318187006675500,9.388675537109375,-0.7952423095703125,-0.883941650390625,-0.0408935546875
1789318187016629500,9.39862939453125,-0.5363006591796875,-0.17242431640625,-0.3651580810546875
1789318187026583600,9.40858349609375,-0.250823974609375,-0.76800537109375,-0.5405731201171875
1789318187036537600,9.41853759765625,0.047698974609375,-0.0303497314453125,-0.114501953125
1789318187046491600,9.42849169921875,-0.55072021484375,-0.0904541015625,0.2126007080078125
1789318187056446500,9.438446533203125,-1.7253875732421875,-0.35589599609375,0.099090576171875
1789318187066400500,9.448400390625,-1.7047882080078125,-0.7733306884765625,0.0619354248046875
1789318187076354600,9.4583544921875,-1.5536041259765625,-1.719512939453125,0.3689727783203125
1789318187086308400,9.468308349609375,-0.6406402587890625,-1.0841064453125,0.1025390625
1789318187096263700,9.478263671875,0.0825042724609375,-0.078643798828125,-0.2439727783203125
1789318187106217700,9.4882177734375,-0.080322265625,0.057769775390625,-0.1605224609375
1789318187116171500,9.498171630859375,-0.213226318359375,-0.0041656494140625,-0.26171875
1789318187126125600,9.50812548828125,-0.4405670166015625,-1.235504150390625,-0.3475189208984375
1789318187136080400,9.518080322265625,-0.48211669921875,-2.4914703369140625,-0.1405029296875
1789318187146034400,9.528034423828124,0.3519134521484375,-0.9198760986328125,0.033599853515625
1789318187155988500,9.537988525390626,-1.4442901611328125,0.7035980224609375,0.2141265869140625
1789318187165942500,9.547942626953125,-2.817352294921875,-0.8179931640625,-0.44879150390625
1789318187175897600,9.557897705078124,-0.7471923828125,-1.2146453857421875,0.0034027099609375
1789318187185851600,9.5678515625,-0.2617950439453125,-1.188629150390625,0.34869384765625
1789318187195805400,9.577805419921875,0.76715087890625,0.9696502685546875,-0.11273193359375
1789318187205759500,9.587759521484376,-2.1568756103515625,1.0673065185546875,-0.296173095703125
1789318187215714600,9.597714599609375,-2.669189453125,-1.292694091796875,-1.0047149658203125
1789318187225668400,9.60766845703125,-0.98760986328125,-1.356781005859375,0.000152587890625
1789318187235622700,9.61762255859375,-0.9557037353515625,-1.329132080078125,0.7335662841796875
1789318187245576700,9.62757666015625,0.11602783203125,-0.632293701171875,0.0123291015625
1789318187255531500,9.637531494140624,0.685882568359375,0.209381103515625,-0.1490936279296875
1789318187265485600,9.647485595703126,0.034271240234375,0.186859130859375,0.2100372314453125
1789318187275439600,9.657439697265625,-0.6861724853515625,-1.6055145263671875,-0.31732177734375
1789318187285393400,9.667393310546874,-0.3402557373046875,-1.082061767578125,-0.505828857421875
1789318187295347500,9.677347412109375,0.204193115234375,0.021270751953125,0.0064849853515625
1789318187305302500,9.687302490234375,-0.3433380126953125,0.4215087890625,0.1826629638671875
1789318187315256600,9.697256591796876,-3.8758697509765625,-0.6550750732421875,-0.0165557861328125
1789318187325210600,9.707210693359375,-1.7501678466796875,-1.08984375,-0.00872802734375
1789318187335164700,9.71716455078125,-0.5216217041015625,-0.5174407958984375,0.5529937744140625
1789318187345119500,9.727119384765626,-0.9540863037109375,-0.307647705078125,0.2795867919921875
1789318187355073500,9.737073486328125,-1.4926910400390625,-0.532684326171875,-0.4228363037109375
1789318187365027300,9.74702734375,-0.887969970703125,-0.198272705078125,-0.567291259765625
1789318187374981600,9.756981689453125,-0.2483978271484375,-0.1976470947265625,-0.267303466796875
1789318187384936400,9.7669365234375,-0.717437744140625,-1.309173583984375,-0.074920654296875
1789318187394890500,9.776890380859374,-0.5783538818359375,-0.6004180908203125,0.086822509765625
1789318187404844500,9.786844482421875,-0.6531219482421875,-0.54443359375,-0.066986083984375
1789318187414798600,9.796798583984375,-0.5937347412109375,-0.119293212890625,-0.0677032470703125
1789318187424753400,9.80675341796875,-0.5422210693359375,-0.2284393310546875,0.0461883544921875
1789318187434707700,9.816707763671875,-0.904144287109375,-0.73065185546875,-0.1855926513671875
1789318187444661500,9.82666162109375,-1.91693115234375,-1.46185302734375,-0.4551239013671875
1789318187454615600,9.836615478515625,-1.096405029296875,-0.5269775390625,-0.1782073974609375
1789318187464571000,9.84657080078125,-0.69073486328125,-0.65313720703125,0.3249359130859375
1789318187474524700,9.856524658203124,-0.4101104736328125,-0.8859710693359375,0.45428466796875
1789318187484478700,9.866478759765625,0.10296630859375,0.1703643798828125,0.1363372802734375
1789318187494432800,9.876432861328125,-0.74127197265625,-1.194976806640625,-0.096405029296875
1789318187504387600,9.8863876953125,-1.2825927734375,-0.5986175537109375,-0.0261688232421875
1789318187514341600,9.896341552734375,-0.7548675537109375,-0.6912078857421875,-0.21649169921875
1789318187524295700,9.906295654296875,-0.7587127685546875,-0.4703521728515625,-0.160003662109375
1789318187534249700,9.916249755859376,-0.914947509765625,-0.7696685791015625,0.0722198486328125
1789318187544203800,9.926203857421875,-0.6583099365234375,-0.680450439453125,0.309356689453125
1789318187554158600,9.93615869140625,-0.3315887451171875,0.5466461181640625,0.311492919921875
1789318187564112600,9.946112548828125,-1.0759124755859375,-0.5001220703125,-0.0408172607421875
1789318187574066700,9.956066650390625,-0.9650421142578125,-0.6214447021484375,-0.107086181640625
1789318187584020700,9.966020751953126,-0.4417724609375,-1.22607421875,-0.04119873046875
1789318187593975800,9.975975830078125,-0.0396575927734375,-0.9029998779296875,-0.0046844482421875
1789318187603929900,9.985929931640625,-0.68084716796875,-0.3428955078125,-0.0677642822265625
1789318187613883600,9.995883544921876,-2.072967529296875,-0.8701171875,-0.2884979248046875
1789318187623837700,10.005837646484375,-0.776519775390625,-0.929412841796875,-0.086944580078125
1789318187633792500,10.01579248046875,-0.9421844482421875,-0.5304412841796875,0.5568695068359375
1789318187643746600,10.02574658203125,-0.9085845947265625,-0.5807647705078125,0.3479156494140625
1789318187653700600,10.03570068359375,-0.881439208984375,0.282196044921875,0.1092529296875
1789318187663654700,10.045654541015624,-1.4865264892578125,-0.303466796875,0.1511383056640625
1789318187673609700,10.055609619140625,-0.7530517578125,-0.748779296875,-0.005889892578125
1789318187683563800,10.065563720703125,-0.9463043212890625,-1.3431396484375,-0.160888671875
1789318187693517600,10.075517578125,-0.68524169921875,-1.27691650390625,-0.2382659912109375
1789318187703471600,10.0854716796875,0.1259918212890625,-0.269866943359375,-0.2330169677734375
1789318187713426700,10.0954267578125,-0.1238861083984375,-1.19964599609375,-0.059814453125
1789318187723380500,10.10538037109375,-0.30450439453125,-0.7073516845703125,0.206024169921875
1789318187733334800,10.115334716796875,-0.5839691162109375,-0.1488494873046875,0.083343505859375
1789318187743288800,10.125288818359374,-2.0746612548828125,-0.76513671875,-0.0583953857421875
1789318187753243600,10.13524365234375,-1.66107177734375,-0.9404449462890625,-0.1316070556640625
1789318187763197700,10.14519775390625,-0.8188018798828125,-0.1597137451171875,-0.0767364501953125
1789318187773151700,10.15515185546875,-1.23480224609375,-0.4857940673828125,-0.338348388671875
1789318187783105500,10.16510546875,-0.609619140625,-0.3171234130859375,-0.5866851806640625
1789318187793060900,10.175060791015625,-0.4720916748046875,-0.2518768310546875,-0.3895416259765625
1789318187803014700,10.1850146484375,-0.53521728515625,-0.8338470458984375,-0.267578125
1789318187812968700,10.19496875,-0.231536865234375,-1.0442047119140625,-0.2693023681640625
1789318187822922800,10.2049228515625,0.00469970703125,-1.06494140625,-0.0824127197265625
1789318187832876800,10.214876708984375,0.2203826904296875,-0.11767578125,0.2004547119140625
1789318187842831600,10.22483154296875,-0.2661590576171875,-0.19903564453125,0.147430419921875
1789318187852785700,10.23478564453125,-1.246856689453125,-0.4603271484375,-0.088714599609375
1789318187862739500,10.244739501953125,-1.3042449951171875,-0.4055633544921875,-0.33184814453125
1789318187872693800,10.25469384765625,-1.1897125244140625,-0.242767333984375,-0.2386932373046875
1789318187882648800,10.26464892578125,-1.7142333984375,-0.3909759521484375,-0.0940399169921875
1789318187892602600,10.2746025390625,-0.766265869140625,-1.252593994140625,-0.1004180908203125
1789318187902556700,10.284556640625,0.3271484375,-0.860626220703125,0.1321258544921875
1789318187912510700,10.2945107421875,1.5374298095703125,-0.0747528076171875,0.2475433349609375
1789318187922465500,10.304465576171875,-0.65997314453125,1.07025146484375,0.191864013671875
1789318187932419800,10.314419921875,-4.3141937255859375,-2.4700469970703125,-1.2811279296875
1789318187942373600,10.32437353515625,-1.2714691162109375,-2.5792083740234375,-0.1175689697265625
1789318187952327700,10.33432763671875,0.155059814453125,-0.93353271484375,0.19354248046875
1789318187962282800,10.34428271484375,0.5416107177734375,-0.197296142578125,-0.2845611572265625
1789318187972236500,10.354236572265625,-2.3310394287109375,1.7117767333984375,-0.2445831298828125
1789318187982190600,10.364190673828125,-2.2601470947265625,-1.0543670654296875,-1.0635833740234375
1789318187992144600,10.37414453125,-0.8367767333984375,-2.1157073974609375,-0.2398834228515625
1789318188002098700,10.3840986328125,-0.3583984375,-2.064697265625,0.452880859375
1789318188012053800,10.3940537109375,1.1141357421875,0.09967041015625,0.073577880859375
1789318188022007800,10.4040078125,0.3545379638671875,0.04388427734375,-0.09228515625
1789318188031961600,10.413961669921875,-1.03961181640625,-2.01416015625,-0.1360626220703125
1789318188041915600,10.42391552734375,-0.45831298828125,-0.814117431640625,-0.0194549560546875
1789318188051870500,10.433870361328125,-1.439208984375,-0.8086395263671875,0.3026885986328125
1789318188061824500,10.443824462890625,-2.095550537109375,-0.5914764404296875,0.1640777587890625
1789318188071778800,10.45377880859375,-0.68115234375,0.029296875,-0.2892608642578125
1789318188081732900,10.46373291015625,-0.7234039306640625,-0.2537689208984375,0.0508880615234375
1789318188091687700,10.473687744140625,-0.8042755126953125,0.2191314697265625,0.1553192138671875
1789318188101641700,10.483641845703126,-1.1541290283203125,0.28436279296875,-0.4210968017578125
1789318188111595500,10.493595458984375,-1.935028076171875,-0.827606201171875,-0.548980712890625
1789318188121549600,10.503549560546874,-0.9232177734375,-1.5841827392578125,0.176605224609375
1789318188131505000,10.5135048828125,-0.0495452880859375,-0.9459075927734375,0.214813232421875
1789318188141458700,10.523458740234375,0.3336181640625,-0.34033203125,0.0344085693359375
1789318188151412700,10.533412841796874,0.0145111083984375,-0.4131622314453125,0.107635498046875
1789318188161366800,10.54336669921875,-0.261993408203125,-0.534088134765625,-0.112884521484375
1789318188171321600,10.553321533203125,-0.533294677734375,-0.2363128662109375,-0.3005218505859375
1789318188181275600,10.563275634765626,-1.6090087890625,-0.1517486572265625,-0.2231597900390625
1789318188191229700,10.573229736328125,-2.0763702392578125,0.053375244140625,-0.0779266357421875
1789318188201183500,10.58318359375,-1.702606201171875,-1.0993804931640625,0.1236572265625
1789318188211137800,10.5931376953125,-1.4669342041015625,-1.4625701904296875,0.1360931396484375
1789318188221092600,10.603092529296875,-0.4639434814453125,-1.0789947509765625,-0.130157470703125
1789318188231046700,10.613046630859374,0.2474212646484375,-0.347900390625,-0.1522979736328125
1789318188241000700,10.623000732421875,0.537353515625,-0.7048187255859375,-0.33392333984375
1789318188250954800,10.632954833984375,0.1570892333984375,-1.4822235107421875,-0.6249237060546875
1789318188260909600,10.64290966796875,-0.35406494140625,-1.141143798828125,-0.5130767822265625
1789318188270864000,10.65286376953125,-0.8074493408203125,-1.4453125,0.003692626953125
1789318188280817700,10.662817626953125,-0.897857666015625,0.0289459228515625,0.476959228515625
1789318188290771700,10.672771728515626,-1.469512939453125,0.389434814453125,0.4681396484375
1789318188300726500,10.6827265625,-1.707427978515625,-0.703582763671875,-0.071746826171875
1789318188310680600,10.6926806640625,-1.620086669921875,-0.324432373046875,-0.382598876953125
1789318188320634600,10.702634521484375,-1.70465087890625,-0.6601409912109375,-0.572113037109375
1789318188330588700,10.712588623046875,-1.486083984375,-0.0288848876953125,-0.6998443603515625
1789318188340543700,10.722543701171874,-1.149261474609375,-1.498382568359375,-0.5133056640625
1789318188350497800,10.732497802734375,-0.3475494384765625,-2.108123779296875,-0.0048980712890625
1789318188360451600,10.74245166015625,1.0706024169921875,-0.29486083984375,0.56201171875
1789318188370405600,10.752405517578126,1.5293121337890625,-0.208984375,0.816650390625
1789318188380359700,10.762359619140625,0.35906982421875,-0.4834442138671875,0.5713043212890625
1789318188390314500,10.772314453125,-2.166229248046875,-1.0237884521484375,-0.1750640869140625
1789318188400268500,10.7822685546875,-2.2168426513671875,-1.55572509765625,-0.646759033203125
1789318188410222800,10.792222900390625,-0.531585693359375,-0.0265960693359375,-0.05010986328125
1789318188420176600,10.8021767578125,-1.545135498046875,-0.4940643310546875,-0.3077239990234375
1789318188430132200,10.81213232421875,-1.4240264892578125,0.5314788818359375,-0.46063232421875
1789318188440086000,10.8220859375,-0.8294677734375,0.0319976806640625,0.0055084228515625
1789318188450040000,10.8320400390625,-0.60369873046875,-1.459197998046875,0.0693817138671875
1789318188459994400,10.841994384765625,0.4979095458984375,-0.773162841796875,-0.0374755859375
1789318188469949200,10.85194921875,0.5419464111328125,-0.6840362548828125,-0.1012115478515625
1789318188479903200,10.8619033203125,-0.961212158203125,-1.466278076171875,-0.5274810791015625
1789318188489857300,10.871857177734375,-0.7530670166015625,-1.702362060546875,-1.003936767578125
1789318188499811000,10.88181103515625,-0.0203094482421875,-0.237640380859375,-0.373870849609375
1789318188509766100,10.89176611328125,-0.121337890625,0.0220947265625,0.144073486328125
1789318188519720200,10.90172021484375,-0.4027099609375,-0.1075592041015625,-0.0632171630859375
1789318188529674200,10.91167431640625,-1.4756011962890625,-0.6830291748046875,-0.274932861328125
1789318188539628300,10.921628173828125,-1.8072357177734375,-0.7098388671875,-0.3015594482421875
1789318188549583000,10.9315830078125,-1.941802978515625,-0.229644775390625,-0.3801422119140625
1789318188559537200,10.941537109375,-1.8737640380859375,-1.317138671875,-0.2519683837890625
1789318188569491200,10.9514912109375,-0.3097686767578125,-1.037200927734375,-0.020751953125
1789318188579445200,10.9614453125,0.6651458740234375,-0.547943115234375,-0.12518310546875
1789318188589399000,10.97139892578125,0.9635467529296875,-0.9153900146484375,0.059356689453125
1789318188599354400,10.981354248046875,0.253265380859375,-0.1292724609375,0.1910858154296875
1789318188609308200,10.99130810546875,-1.4875946044921875,-1.244659423828125,-0.486083984375
1789318188619262200,11.00126220703125,-2.0723724365234375,-1.722137451171875,-0.71307373046875
1789318188629216300,11.01121630859375,-0.9556884765625,-0.4172821044921875,0.1649169921875
1789318188639171000,11.021171142578124,-0.4939727783203125,-0.3094482421875,0.043304443359375
1789318188649125000,11.031125,-0.596435546875,0.2703704833984375,0.0213165283203125
1789318188659079400,11.041079345703125,-1.603668212890625,0.1227874755859375,0.061767578125
1789318188669033200,11.051033203125,-1.3942108154296875,-0.7076416015625,-0.336181640625
1789318188678988300,11.06098828125,-1.5991058349609375,-1.0631103515625,-0.070343017578125
1789318188688942000,11.070942138671874,-0.5688018798828125,-1.3151092529296875,0.0158233642578125
1789318188698896100,11.080896240234376,0.4848785400390625,-0.1345672607421875,-0.2466278076171875
1789318188708850200,11.09085009765625,0.187835693359375,-0.3290252685546875,-0.218017578125
1789318188718804200,11.10080419921875,-0.611175537109375,-0.7396240234375,-0.0282745361328125
1789318188728759300,11.11075927734375,-0.2571868896484375,-0.6104736328125,-0.2471923828125
1789318188738713300,11.12071337890625,0.0607147216796875,-0.173492431640625,-0.2716827392578125
1789318188748667100,11.130667236328126,-1.019805908203125,-0.070343017578125,-0.122528076171875
1789318188758621200,11.14062109375,-3.126953125,-0.75701904296875,-0.5399627685546875
1789318188768576300,11.150576171875,-0.9729156494140625,-0.7496490478515625,-0.502227783203125
1789318188778530000,11.160530029296876,-0.9490509033203125,-0.582733154296875,0.246612548828125
1789318188788484000,11.170484130859375,-0.7659759521484375,-0.53857421875,0.082427978515625
1789318188798438400,11.1804384765625,-0.314056396484375,-0.1475677490234375,-0.229034423828125
1789318188808393200,11.190393310546876,-0.47735595703125,-0.51702880859375,-0.21636962890625
1789318188818347300,11.20034716796875,-0.4961395263671875,-0.754547119140625,-0.175689697265625
1789318188828301300,11.21030126953125,-0.5943756103515625,-1.4521636962890625,-0.2574920654296875
1789318188838255000,11.220255126953125,-0.5025177001953125,-1.26251220703125,-0.122161865234375
1789318188848210200,11.230210205078125,-0.50213623046875,-0.7041778564453125,-0.027252197265625
1789318188858164200,11.240164306640626,-1.42333984375,-0.1410369873046875,0.0160675048828125
1789318188868118300,11.2501181640625,-1.208343505859375,-0.4640350341796875,0.108306884765625
1789318188878072300,11.260072265625,-0.583770751953125,-0.6091461181640625,0.1537933349609375
1789318188888026000,11.270026123046875,-0.4071807861328125,-1.42645263671875,-0.0701751708984375
1789318188897981200,11.279981201171875,-0.53765869140625,-0.2104034423828125,-0.0800018310546875
1789318188907935200,11.289935302734374,-2.4909515380859375,-0.6689453125,-0.4483184814453125
1789318188917889000,11.299888916015625,-0.378875732421875,-1.408233642578125,-0.78192138671875
1789318188927843000,11.309843017578125,0.1548309326171875,-0.38043212890625,-0.0970458984375
1789318188937798100,11.319798095703124,-0.5997772216796875,-1.2856292724609375,-0.023895263671875
1789318188947752200,11.329752197265625,-1.5775146484375,-0.5059661865234375,-0.2345123291015625
1789318188957706200,11.339706298828125,-0.362640380859375,-1.0386505126953125,-0.3860015869140625
1789318188967660300,11.349660400390626,0.980224609375,-0.0078887939453125,-0.0471038818359375
1789318188977615000,11.359614990234375,0.7523040771484375,0.070465087890625,0.0414276123046875
1789318188987569200,11.369569091796874,-1.9574127197265625,-0.6957855224609375,-0.4017791748046875
1789318188997523200,11.379523193359375,-2.4513702392578125,-1.2097320556640625,-1.134033203125
1789318189007477200,11.389477294921875,-0.0663299560546875,-0.8292236328125,-0.3824005126953125
1789318189017432300,11.399432373046874,-0.371246337890625,-0.5360870361328125,0.4656524658203125
1789318189027386000,11.40938623046875,-0.4772796630859375,-0.6233062744140625,0.1694183349609375
1789318189037340200,11.419340087890625,-0.489013671875,-0.050872802734375,-0.231597900390625
1789318189047294200,11.429294189453126,-0.616363525390625,-0.686248779296875,-0.423858642578125
1789318189057248000,11.439248046875,-0.3563079833984375,-1.021270751953125,-0.4446258544921875
1789318189067203300,11.449203369140625,-0.266082763671875,-0.867095947265625,-0.34527587890625
1789318189077157400,11.459157470703126,-0.6494903564453125,-0.9867706298828125,-0.4182281494140625
1789318189087111200,11.469111083984375,-1.8760223388671875,-0.656707763671875,-0.325042724609375
1789318189097065200,11.479065185546874,-1.345947265625,-0.6968536376953125,-0.0616607666015625
1789318189107020000,11.48902001953125,-0.6402587890625,-0.85986328125,0.2422637939453125
1789318189116974000,11.49897412109375,-0.09796142578125,-0.2933349609375,0.1378326416015625
1789318189126928100,11.50892822265625,0.0994110107421875,0.0785980224609375,-0.2296600341796875
1789318189136882400,11.51888232421875,-1.606689453125,-0.7597198486328125,-0.354461669921875
1789318189146837200,11.528837158203125,-1.0797576904296875,-1.14959716796875,-0.4835968017578125
1789318189156791300,11.538791259765626,0.2412261962890625,-1.1094512939453125,-0.1815338134765625
1789318189166745000,11.5487451171875,-0.550750732421875,-0.219024658203125,0.37841796875
1789318189176699100,11.55869921875,-2.79156494140625,-1.4907684326171875,-0.13018798828125
1789318189186653200,11.568653076171875,-0.915374755859375,-0.8482818603515625,-0.1898651123046875
1789318189196608300,11.578608154296875,-0.1427459716796875,-0.1899871826171875,0.3062591552734375
1789318189206562300,11.588562255859374,-0.0758056640625,-1.27532958984375,-0.138580322265625
1789318189216516400,11.598516357421875,0.1331329345703125,0.8399658203125,-0.3149871826171875
1789318189226470100,11.60847021484375,-2.1044158935546875,-1.427581787109375,-0.61785888671875
1789318189236425200,11.61842529296875,-0.9802093505859375,-0.5099639892578125,-0.456207275390625
1789318189246379300,11.628379150390625,-0.6768646240234375,-0.1758270263671875,0.4543304443359375
1789318189256333000,11.6383330078125,-0.9805145263671875,-2.0022125244140625,0.526702880859375
1789318189266287000,11.648287109375,0.1064605712890625,-0.4475555419921875,0.244140625
1789318189276242200,11.6582421875,-0.0569610595703125,0.018890380859375,0.092498779296875
1789318189286196200,11.6681962890625,-1.9954071044921875,0.022064208984375,-0.3033905029296875
1789318189296150300,11.678150390625,-1.040557861328125,-1.303436279296875,-0.7784576416015625
1789318189306104000,11.68810400390625,-0.5570068359375,-1.0677032470703125,-0.2770538330078125
1789318189316059100,11.69805908203125,-0.3930816650390625,-0.4510345458984375,0.2363128662109375
1789318189326013200,11.70801318359375,-0.325042724609375,-0.271148681640625,0.239959716796875
1789318189335967200,11.71796728515625,-1.004730224609375,-0.2457427978515625,0.3655853271484375
1789318189345921300,11.72792138671875,-0.8944244384765625,-0.5444488525390625,0.2050628662109375
1789318189355875300,11.737875244140625,-0.8298187255859375,-1.115570068359375,-0.0421295166015625
1789318189365830100,11.747830078125,-0.9867706298828125,-1.3862152099609375,-0.136138916015625
1789318189375784200,11.7577841796875,-0.5575408935546875,-0.74334716796875,-0.2268829345703125
1789318189385738200,11.76773828125,-0.3858795166015625,0.0357513427734375,-0.14971923828125
1789318189395692000,11.777692138671876,-1.228546142578125,-0.0811920166015625,0.06158447265625
1789318189405647400,11.7876474609375,-0.82275390625,-1.0003509521484375,0.1170501708984375
1789318189415601200,11.79760107421875,-0.617279052734375,-0.6415557861328125,0.353240966796875
1789318189425555200,11.80755517578125,-0.8233642578125,-0.4549560546875,0.2940673828125
1789318189435508200,11.81750830078125,-1.22943115234375,-1.1722412109375,0.0523834228515625
1789318189445463300,11.82746337890625,-0.8365478515625,-1.0472259521484375,-0.0500946044921875
1789318189455417300,11.837417236328125,-0.0937347412109375,-0.2053070068359375,-0.1443023681640625
1789318189465371400,11.847371337890625,-0.4469451904296875,-0.762969970703125,-0.2684326171875
1789318189475325400,11.857325439453126,-0.84124755859375,-0.8119659423828125,-0.3324127197265625
1789318189485280300,11.8672802734375,-0.9079437255859375,-1.2645263671875,-0.2563629150390625
1789318189495234300,11.877234375,-0.90277099609375,-0.6103363037109375,0.103790283203125
1789318189505188400,11.887188232421876,-1.429901123046875,-0.3563079833984375,0.2248077392578125
1789318189515142400,11.897142333984375,-0.988525390625,-0.9627532958984375,-0.034912109375
1789318189525096400,11.907096435546874,-0.3427886962890625,0.090850830078125,-0.0152435302734375
1789318189535051300,11.91705126953125,-0.4628753662109375,0.0584564208984375,-0.0514068603515625
1789318189545005300,11.92700537109375,-1.4974517822265625,-1.01617431640625,-0.4073028564453125
1789318189554959400,11.93695947265625,-1.3805084228515625,-1.0989227294921875,-0.5337982177734375
1789318189564913200,11.9469130859375,-1.0516815185546875,-1.2735443115234375,-0.0216522216796875
1789318189574868500,11.956868408203125,-0.519927978515625,-0.4362335205078125,0.60638427734375
1789318189584822500,11.966822509765626,0.3526611328125,-0.8917236328125,0.6206512451171875
1789318189594776300,11.9767763671875,0.9802703857421875,0.1020050048828125,0.55078125
1789318189604730400,11.98673046875,-0.0050506591796875,-0.1362152099609375,0.2828369140625
1789318189614685200,11.996685302734376,-2.259490966796875,-1.609344482421875,-0.2670135498046875
1789318189624639200,12.00663916015625,-1.1024017333984375,-1.143096923828125,-0.4389495849609375
1789318189634593300,12.01659326171875,-0.061767578125,-1.0597076416015625,-0.075714111328125
1789318189644547300,12.02654736328125,-0.3229522705078125,-0.189208984375,0.210662841796875
1789318189654502400,12.03650244140625,-2.3691253662109375,-0.397552490234375,0.072479248046875
1789318189664456400,12.04645654296875,-0.966064453125,-1.0699005126953125,-0.096405029296875
1789318189674410200,12.05641015625,0.387359619140625,-0.460357666015625,0.3732757568359375
1789318189684364300,12.0663642578125,0.7744598388671875,-0.6737518310546875,0.3642120361328125
1789318189694318300,12.076318359375,0.528076171875,-0.34246826171875,0.022674560546875
1789318189704273200,12.086273193359375,-2.543212890625,-1.082122802734375,-0.295806884765625
1789318189714227500,12.0962275390625,-2.0906219482421875,-2.0493927001953125,-0.8293914794921875
1789318189724181500,12.106181396484375,-1.05242919921875,-0.3805084228515625,0.3336639404296875
1789318189734135300,12.11613525390625,-1.37384033203125,-1.093597412109375,0.4003753662109375
1789318189744090400,12.12609033203125,-0.470184326171875,-0.36944580078125,-0.1387481689453125
1789318189754044400,12.13604443359375,-0.52386474609375,0.0406951904296875,0.1045379638671875
1789318189763998200,12.145998291015625,-0.9528045654296875,-1.215972900390625,-0.0359344482421875
1789318189773952300,12.1559521484375,-0.5525360107421875,-1.0214996337890625,-0.2376708984375
1789318189783907300,12.1659072265625,0.347015380859375,-0.8888092041015625,-0.0337371826171875
1789318189793861400,12.175861328125,1.0016326904296875,-0.3426361083984375,0.16375732421875
1789318189803815400,12.1858154296875,-0.095855712890625,-1.0466461181640625,0.1562042236328125
1789318189813769200,12.195769287109375,-1.778350830078125,-1.644012451171875,0.154876708984375
1789318189823723300,12.20572314453125,-0.9286041259765625,-1.1935577392578125,0.0118255615234375
1789318189833678300,12.21567822265625,0.01690673828125,0.60699462890625,0.0425567626953125
1789318189843632000,12.225632080078125,-1.7543487548828125,0.247711181640625,-0.070404052734375
1789318189853586400,12.23558642578125,-4.8373565673828125,0.3992919921875,-0.4179840087890625
1789318189863540500,12.24554052734375,-1.3867034912109375,-0.138153076171875,-0.021240234375
1789318189873495300,12.255495361328125,-1.5890350341796875,-1.7967071533203125,0.318389892578125
1789318189883449300,12.265449462890626,-0.5376129150390625,-0.520111083984375,0.0945892333984375
1789318189893403400,12.2754033203125,0.64068603515625,0.488128662109375,0.3201446533203125
1789318189903357200,12.285357177734374,1.0557708740234375,-0.0548095703125,0.15771484375
1789318189913312500,12.2953125,0.84014892578125,-1.4267578125,-0.44287109375
1789318189923266300,12.305266357421875,0.2798614501953125,-1.8994140625,-0.5417938232421875
1789318189933220400,12.315220458984374,0.030517578125,-0.6167449951171875,-0.242919921875
1789318189943174400,12.32517431640625,-0.681610107421875,-0.1827392578125,-0.293212890625
1789318189953129200,12.335129150390625,-2.5796966552734375,-0.33612060546875,-0.377197265625
1789318189963083300,12.345083251953126,-1.804718017578125,-0.2969512939453125,-0.132080078125
1789318189973037300,12.355037353515625,-0.805816650390625,-1.2034149169921875,0.2702178955078125
1789318189982991000,12.3649912109375,-0.341339111328125,-0.13238525390625,0.2435760498046875
1789318189992945400,12.3749453125,-0.4789276123046875,0.456329345703125,-0.0930633544921875
1789318190002900500,12.384900390625,-1.84783935546875,-1.021820068359375,-0.4242706298828125
1789318190012854300,12.394854248046874,-0.5290374755859375,-1.308837890625,-0.3003692626953125
1789318190022808300,12.404808349609375,-0.422760009765625,-1.6727447509765625,0.2879638671875
1789318190032762400,12.414762451171875,-0.016510009765625,-1.3228912353515625,0.3229827880859375
1789318190042717200,12.42471728515625,0.79595947265625,0.4144439697265625,0.0789031982421875
1789318190052671500,12.43467138671875,0.2796783447265625,0.109954833984375,0.0821990966796875
1789318190062625500,12.44462548828125,-1.6299285888671875,-0.36163330078125,-0.126190185546875
1789318190072579300,12.454579345703126,-2.13812255859375,-1.20703125,-0.818939208984375
1789318190082534400,12.464534423828125,-1.3604583740234375,-0.8211669921875,-0.39324951171875
1789318190092488200,12.47448828125,-1.3889007568359375,-0.633453369140625,0.24456787109375
1789318190102442200,12.484442138671875,-0.680572509765625,-0.9211883544921875,-0.1608428955078125
1789318190112396300,12.494396240234375,-0.3327484130859375,-0.8877105712890625,-0.0746307373046875
1789318190122351400,12.504351318359374,-0.3383636474609375,-1.15478515625,0.114990234375
1789318190132305400,12.514305419921875,-0.4534912109375,-0.7697906494140625,-0.22906494140625
1789318190142259500,12.524259521484375,-0.855987548828125,-0.96783447265625,-0.3755645751953125
1789318190152213200,12.534213134765626,-0.8321533203125,-1.110748291015625,0.010467529296875
1789318190162167300,12.544167236328125,-0.2130126953125,0.038238525390625,0.035064697265625
1789318190172122400,12.554122314453124,-0.720001220703125,-0.74578857421875,-0.0696258544921875
1789318190182076200,12.564076171875,-1.588134765625,0.457611083984375,0.2109375
1789318190192030500,12.574030517578125,-0.6282806396484375,0.0064544677734375,-0.18817138671875
1789318190201984500,12.583984619140624,-1.13336181640625,-0.7281036376953125,-0.1887359619140625
1789318190211939300,12.593939208984375,-1.6544952392578125,-1.183135986328125,0.0533905029296875
1789318190221893400,12.603893310546875,-0.5166778564453125,-1.47918701171875,-0.0076904296875
1789318190231847200,12.61384716796875,0.3714447021484375,-0.4982757568359375,0.1427154541015625
1789318190241801200,12.62380126953125,0.303314208984375,-0.6984100341796875,0.0811767578125
1789318190251756500,12.633756591796875,-0.2507171630859375,-0.535125732421875,-0.1905517578125
1789318190261710300,12.64371044921875,-0.6215667724609375,-0.4656524658203125,-0.500701904296875
1789318190271664400,12.653664306640625,-0.92645263671875,-0.7735748291015625,-0.580352783203125
1789318190281618400,12.663618408203124,-1.154266357421875,-0.986907958984375,-0.377593994140625
1789318190291573200,12.6735732421875,-1.1092071533203125,-0.8659515380859375,-0.2209014892578125
1789318190301527300,12.68352734375,-1.4488067626953125,0.3128814697265625,0.043243408203125
1789318190311481300,12.6934814453125,-1.3936309814453125,-0.015045166015625,-0.029510498046875
1789318190321435400,12.703435302734375,-0.8383941650390625,-1.012298583984375,-0.0927886962890625
1789318190331389400,12.713389404296874,-0.3340911865234375,-1.364959716796875,0.065521240234375
1789318190341344300,12.72334423828125,0.6890716552734375,-0.85491943359375,-0.0589752197265625
1789318190351298300,12.73329833984375,0.2836456298828125,-0.18408203125,-0.0801849365234375
1789318190361252400,12.74325244140625,-1.3566131591796875,-0.964447021484375,-0.2263641357421875
1789318190371206400,12.753206298828125,-0.7125091552734375,-1.442352294921875,-0.377685546875
1789318190381161500,12.763161376953125,-0.27435302734375,-0.59814453125,0.0805206298828125
1789318190391115500,12.773115478515624,-0.18707275390625,-1.3349151611328125,0.0111236572265625
1789318190401069300,12.7830693359375,0.1268463134765625,0.38128662109375,-0.046051025390625
1789318190411023400,12.7930234375,-2.2941741943359375,-0.00250244140625,-0.2357025146484375
1789318190420978400,12.802978515625,-1.979766845703125,-0.797332763671875,-0.4933624267578125
1789318190430932700,12.8129326171875,-1.0977783203125,-0.8368377685546875,0.3684234619140625
