time,seconds_elapsed,z,y,x
1789318177667114800,0.04911474609375,-3.6747803993880748,-6.404166200312972,-1.7567650496229528
1789318177677068800,0.05906884765625,-0.31198388244509695,-4.423970873227716,-0.44613224065005774
1789318177687022600,0.069022705078125,2.3014205006062984,-3.3002170189112423,2.1197914293020963
1789318177696977700,0.078977783203125,5.546019677191972,4.117984185370803,1.9004430143259465
1789318177706931700,0.088931640625,1.6345201874405144,6.3208905357331036,-1.3487052038662135
1789318177716885800,0.0988857421875,-8.776081794381142,-0.8187742976754904,-5.1015492322742935
1789318177726839800,0.10883984375,1.2843956671714782,-0.009992401704192161,-4.4970746878832575
1789318177736794600,0.118794677734375,-0.9332833049088716,-2.572195005306601,-1.398924255888164
1789318177746748700,0.128748779296875,-3.341719826644659,-1.5042577307581901,-1.093544594013691
1789318177756702700,0.13870263671875,-0.4690314702004194,0.4589227486401796,-0.5138616687908768
1789318177766656500,0.148656494140625,3.3298663072437047,-0.5430290188252925,1.9833876933857797
1789318177776611800,0.15861181640625,6.6708724326610565,1.978405521059036,3.533434238633513
1789318177786566000,0.16856591796875,4.408662829458713,-1.2452210101246832,1.1772674178391693
1789318177796519700,0.178519775390625,-0.8740957874029874,1.2920213397443294,-1.6445600815482437
1789318177806473700,0.1884736328125,-4.760449145460129,-1.3363380358546972,-3.1379183787599203
1789318177816428500,0.198428466796875,-0.19900866065025327,-6.444159188005328,-2.4878654477596283
1789318177826382600,0.208382568359375,-0.20989888797700404,2.9149340914994477,0.25376513690613206
1789318177836336600,0.218336669921875,-7.424679460385441,-0.4986509479165077,0.09391425523310899
1789318177846290700,0.228290771484375,-2.331042900931835,-0.4140601090848446,0.4294092885818332
1789318177856245800,0.238245849609375,0.17524843035638332,1.5414619645148515,2.99727042940259
1789318177866199800,0.24819970703125,3.230480634862184,-1.0430167683035134,2.4623957831993697
1789318177876153600,0.258153564453125,6.164164435017109,4.7594040203213686,0.8203487073853611
1789318177886107600,0.268107666015625,1.3987468534946441,-0.41969957627654075,-1.440185948342085
1789318177896062700,0.278062744140625,-2.6250807923197743,-5.37703615244925,-3.125286860723793
1789318177906016500,0.2880166015625,1.0661047984242438,-7.069076800966262,-3.2671333722159264
1789318177915970800,0.297970703125,4.455533301705121,3.0736048965424296,-1.0545871599141508
1789318177925924900,0.3079248046875,-1.099836972156167,3.012811112883687,-0.14445793609954416
1789318177935879700,0.317879638671875,-6.685810474073887,-6.502410301443934,0.26861009320802987
1789318177945833700,0.327833740234375,0.29259879849553105,3.504393437588215,3.7180008246943355
1789318177955787800,0.337787841796875,2.598276372024417,4.805051672774553,4.511142376202344
1789318177965741600,0.347741455078125,0.6773293527215719,0.1193266366481781,2.822099155935645
1789318177975697000,0.35769677734375,-0.7865536975502967,-0.6821545809209346,1.542111660595238
1789318177985650700,0.367650634765625,-1.3180261340945958,2.184380513590574,-0.5722459801550954
1789318177995604700,0.377604736328125,-1.0998808112978935,-3.431221233871579,-2.714589213809371
1789318178005558800,0.387558837890625,2.992799421468377,-6.133271284103393,-2.289112223175168
1789318178015513600,0.397513671875,6.720068132984638,3.154767514491081,0.5326209489922971
1789318178025467600,0.407467529296875,0.870562352579832,-3.2365590779930353,1.4852987632662058
1789318178035421700,0.417421630859375,-3.0529198359102008,-2.420775194305181,1.796125584630668
1789318178045375700,0.427375732421875,0.4669371282696724,0.39163025061190126,1.4651212137646972
1789318178055330800,0.437330810546875,3.4429321299314495,1.9757056144505738,1.7141566187351942
1789318178065284600,0.44728466796875,0.7542424965322018,4.672258820831775,0.34265045806132255
1789318178075238700,0.45723876953125,-10.21417164722681,-2.918105707272887,-4.217590514765679
1789318178085192700,0.467192626953125,-1.7897300383746624,-1.7340753711700438,-4.754537291067838
1789318178095147500,0.4771474609375,2.4996383031398057,-1.666584135699272,0.047270066023245454
1789318178105101800,0.487101806640625,2.586288412588835,4.73593897358179,1.9113602757900952
1789318178115055900,0.497055908203125,-3.6165544203907247,-1.1554437085658311,-1.056074329731986
1789318178125009700,0.507009765625,-3.5277626227378844,-4.308819476437568,-0.7067012854173779
1789318178134964700,0.51696484375,5.84097526794672,2.0663456703186034,1.418577635385096
1789318178144918800,0.526918701171875,7.265506551039218,-0.7725175734132528,0.5715517508132383
1789318178154872600,0.53687255859375,1.8890847310960293,3.7833430654376743,-1.8504035566546022
1789318178164826600,0.54682666015625,-11.844308505016565,2.533015672084689,-5.804205333954095
1789318178174781700,0.55678173828125,-1.222901041767001,-5.484742493930459,-4.7499195681393145
1789318178184735700,0.56673583984375,-0.0707405926555395,-5.467409666335582,1.4237646826341748
1789318178194689800,0.576689697265625,3.1802818949759004,5.339617983680963,1.921458622086793
1789318178204643800,0.586643798828125,-0.015425532668828963,1.9471330154389141,-0.9837956407889723
1789318178214598700,0.5965986328125,-6.79224080426991,-1.2777163355380297,-0.26158640511631964
1789318178224552700,0.606552734375,2.2400182296603917,2.6164310373961923,1.022029582919553
1789318178234506500,0.616506591796875,1.7125532751917838,-2.1848691738903523,0.4305500561147928
1789318178244460800,0.626460693359375,1.8608137453794478,-1.3277923258274793,-1.0360855808008462
1789318178254416000,0.636415771484375,2.421998014098406,2.922117281001806,-0.6088242640331387
1789318178264369700,0.64636962890625,-2.9904379530340433,0.3113923462927341,0.5292842423176393
1789318178274323700,0.65632373046875,-3.5901153262764214,-6.17975246477127,-0.6153131876610219
1789318178284277800,0.66627783203125,3.0369875227630136,3.9081677149802445,0.23073320262050254
1789318178294232600,0.676232666015625,2.7885522756427523,-3.160049838808179,-0.2142325697997585
1789318178304187000,0.686186767578125,2.6061340997874733,0.300178293839097,0.21714418293014168
1789318178314140700,0.696140625,-7.3029013389319175,7.258329791277647,-0.027218882847763595
1789318178324094700,0.7060947265625,-9.626555883178114,-3.83318407792747,-3.5814097495123742
1789318178334049800,0.7160498046875,-1.3559358857721089,0.24579437722265718,0.8089701120197772
1789318178344003600,0.726003662109375,-4.05884985935688,-3.8636049351543185,4.512933935794234
1789318178353957600,0.73595751953125,3.8864147328555583,5.105847221729159,1.9887062580600379
1789318178363911700,0.74591162109375,5.242022701847553,0.5142670347213745,-0.2653754586683586
1789318178373866800,0.75586669921875,2.7838305078178642,-1.9776099867671726,0.8462839436307549
1789318178383820800,0.76582080078125,4.609277171739936,3.433819433671236,-0.8009061941601335
1789318178393774800,0.77577490234375,2.3798604155927894,-8.97750336139202,-3.4717008360370993
1789318178403728600,0.785728759765625,0.511091911816597,0.3062736881047487,-1.5443626543924212
1789318178413683700,0.79568359375,0.26911095540225505,1.1918985852599144,0.251738014992699
1789318178423637800,0.8056376953125,-3.931624578413367,-3.9047529381006956,2.1107162885732946
1789318178433591800,0.815591796875,-1.7497814743459223,-1.765807895517349,2.5917589529544114
1789318178443545900,0.8255458984375,-1.375283560320735,10.453976428645849,2.6457673142567275
1789318178453501000,0.8355009765625,-4.277277506226301,5.091085705927014,-0.8592102068297565
1789318178463455000,0.845455078125,-3.0966736374408006,-10.8054716527462,-2.7067995828464624
1789318178473409000,0.855408935546875,3.832749193641543,2.7184844676822424,0.3973789503317326
1789318178483362800,0.86536279296875,6.664028850376606,2.8910861829221246,-0.36188740224447097
1789318178493318000,0.87531787109375,1.895086601859331,-5.867255956628918,-1.3810508916758
1789318178503272000,0.88527197265625,1.284679744809866,-1.0545575684934854,0.9376096436753869
1789318178513226000,0.89522607421875,3.207987063503265,-1.1413152299702167,2.2737179624274373
1789318178523180000,0.905179931640625,3.3555449383795257,-0.266350843039155,0.7922660107824951
1789318178533134800,0.915134765625,-0.3997930988013744,-0.5658084213882685,0.029058080973662435
1789318178543089000,0.9250888671875,-4.949574125477671,5.249813209593296,0.88906232425794
1789318178553043000,0.93504296875,-4.482054228883982,0.8460311379134654,-0.7482986395664513
1789318178562997000,0.9449970703125,-1.331151573127508,-4.192843903782964,-0.6759261348601431
1789318178572952000,0.9549521484375,-0.010457096606492996,2.5762141778200864,1.1800562448401004
1789318178582906000,0.964906005859375,0.20045242971777916,-2.2651678684860466,0.00011482201870530843
1789318178592860000,0.97485986328125,1.6267501379609106,2.8827573305159806,0.8393912615075707
1789318178602814000,0.98481396484375,1.5328963807433842,-1.9843015933603048,0.3206383866090327
1789318178612768800,0.994768798828125,3.072866060873866,-3.574673426994681,0.5401190861953422
1789318178622722800,1.004722900390625,3.9606601187616586,2.860299999514222,1.7942603752806783
1789318178632676900,1.0146767578125,-0.02747369785904884,-1.2102625094681978,0.9565818359751254
1789318178642631000,1.024630859375,-1.140298161882162,3.9939930640429258,-0.1455775147140026
1789318178652586000,1.0345859375,-3.9456232931494712,-5.839208258274197,-0.5340538313396275
1789318178662540000,1.0445400390625,-0.8399369126915931,-5.237531235647201,1.8611393240720033
1789318178672493800,1.054493896484375,6.7830217250257725,4.6626071953892705,1.7065639716491101
1789318178682448000,1.06444775390625,7.634359737175703,-1.903018563902378,-1.2145252084139735
1789318178692403000,1.07440283203125,-2.4502567248553038,6.162112178662419,0.26427747083120046
1789318178702356700,1.084356689453125,-12.781155639886855,-6.077382223621011,-2.4687927907600997
1789318178712311000,1.09431103515625,-4.03436189931035,-1.4096429260402916,0.12140899588018655
1789318178722265000,1.10426513671875,-0.2929723079830408,-4.060081446978449,2.4455574611231685
1789318178732220000,1.114219970703125,6.5488032193064685,1.342789403951168,1.6351399267740547
1789318178742174000,1.124174072265625,6.036785424816608,15.105211166149378,3.095617406386137
1789318178752128000,1.1341279296875,-13.781546149384974,-4.087389725142717,-1.5695365508764982
1789318178762081800,1.144081787109375,-3.8255344399571416,-1.4080916049450636,-3.8780888030588625
1789318178772037000,1.154037109375,-3.7255969789117573,-9.699854343622922,1.3801662177957594
1789318178781991000,1.163990966796875,2.818352370622754,-3.9745033506751057,2.5218340605959293
1789318178791945000,1.173945068359375,10.309661481213569,11.539037271952628,-0.7641106873348354
1789318178801899000,1.18389892578125,3.8884599749475717,-4.472745133268833,-1.4897333847127854
1789318178811853800,1.193853759765625,4.037064728528261,1.0755027413666247,1.4935957592293618
1789318178821807900,1.203807861328125,3.7716152182430025,5.441145928788185,1.8823104146555065
1789318178831762000,1.213761962890625,-4.074592202889919,-1.305927700021863,1.737775102470815
1789318178841715700,1.2237158203125,-6.937676864686608,-5.099320450308919,2.069086201198399
1789318178851671000,1.233671142578125,1.4938590863406658,-1.3659160125166177,3.163624774685502
1789318178861624800,1.243624755859375,2.687653860610723,1.8697388101130723,2.9252181696265933
1789318178871579000,1.253578857421875,-3.552259935134649,3.5830075400978325,-0.13557503000721335
1789318178881533000,1.263532958984375,1.1894529456734657,5.203671051621437,-1.978745858929306
1789318178891487700,1.27348779296875,-6.372187592250109,-5.485222970923781,-0.1094284890986979
1789318178901441800,1.28344189453125,0.7336182261765003,-4.567641093015671,2.347768702544272
1789318178911396000,1.29339599609375,3.682167002508044,2.205651265156269,1.9557769251435995
1789318178921350000,1.303349853515625,2.5869085903137923,6.507065433773398,3.4076910129413007
1789318178931304000,1.313303955078125,-3.3316619584888216,1.5708265906870365,2.0469779758952558
1789318178941259000,1.323259033203125,-3.5741210538089274,-3.428723571836948,-0.4675152204185724
1789318178951212800,1.333212890625,-0.5608072521001101,-2.0579607038110495,-0.24478023174405097
1789318178961166800,1.343166748046875,0.4733014026045799,-2.137237069621682,-0.8016649035729467
1789318178971121000,1.353120849609375,0.9175281018942594,2.043241273584962,0.3081504417620599
1789318178981076000,1.363075927734375,-2.070185979133844,-1.6265525695621967,1.8651659492395818
1789318178991030000,1.373030029296875,1.5612725804001093,1.5549936462610958,2.1697623517818747
1789318179000984000,1.382984130859375,5.121037192076444,1.3406827870607376,1.2502400073304771
1789318179010937900,1.392937744140625,3.5801702708452936,-0.8801175319105387,-0.006414104826003313
1789318179020893000,1.402892822265625,-0.804774413895607,3.0320097343504426,-0.27888182331025596
1789318179030846700,1.4128466796875,-6.647742901486158,0.9984785383969544,-0.5654620921686291
1789318179040800800,1.42280078125,-0.4460808027237653,-4.451491917359829,-0.35429859108328815
1789318179050755000,1.432755126953125,1.8978046286463737,-8.754530472308398,1.5761214822247624
1789318179060710000,1.4427099609375,3.9188235490292307,8.192360699683427,3.478596440769732
1789318179070664000,1.452663818359375,-5.340348051521182,1.1948171030551193,-1.1582080587126313
1789318179080618000,1.462617919921875,-0.7596633525371551,-8.909649722349643,-2.681926715135574
1789318179090571800,1.47257177734375,11.596425631082058,2.999403349778056,2.142620954617113
1789318179100526800,1.48252685546875,12.739027978253365,5.529719699776172,4.5701539526194335
1789318179110481000,1.49248095703125,-1.6744342646777628,-1.3120002979338168,1.9156595804192125
1789318179120435000,1.50243505859375,-13.842006755566596,-7.905749158903956,-1.9259210083231328
1789318179130389000,1.512388916015625,2.846400068977475,1.9203034607023,1.3512760772675274
1789318179140343800,1.52234375,1.531639658680558,3.149686850225925,5.309948821604252
1789318179150297900,1.5322978515625,-1.3428577930122614,-4.7207671234130855,0.9160068836763501
1789318179160252000,1.542251953125,3.476493623271584,5.463490447065234,-1.2122795483790336
1789318179170206000,1.5522060546875,0.12309563379287719,6.981726434293389,0.26292919802740217
1789318179180161000,1.5621611328125,-10.048635048067569,-2.1095289784848688,-1.0586292018465697
1789318179190115000,1.572114990234375,-2.7461791148155927,-6.601845073664188,-1.3115908403500913
1789318179200068900,1.58206884765625,-1.2816127584546804,-5.6777931229591365,1.9464527780897913
1789318179210023000,1.59202294921875,5.301985295379161,3.0421009202539917,4.71854915510267
1789318179219977700,1.601977783203125,6.665799367180466,3.899263108512759,5.028520236420631
1789318179229931800,1.611931884765625,2.5129385142177343,1.1375748743981122,2.7474294071376324
1789318179239885800,1.6218857421875,0.33563539166748524,-1.204528934252262,-0.32983956487029786
1789318179249840000,1.631840087890625,-1.2299147199213505,-5.100505860701203,-2.1627733696773648
1789318179259794000,1.6417939453125,-6.468374176329374,-3.5953801149368285,-1.4628661283142863
1789318179269749000,1.6517490234375,-7.667664625406265,-0.528035447832942,-0.8585507200077176
1789318179279702800,1.661702880859375,-1.1711270153880118,0.4722533548563719,0.754528181605786
1789318179289656800,1.67165673828125,1.4433727616846561,1.328496090182662,5.444182520005106
1789318179299611000,1.68161083984375,4.67790121063292,1.9451421338826418,5.334823735141754
1789318179309566000,1.69156591796875,4.438141437399387,6.836348241543769,1.6286206080079078
1789318179319520000,1.70152001953125,-4.677876660713554,-3.9695770001888273,-3.564522619858384
1789318179329474000,1.71147412109375,-1.5098165339291094,-12.221796248507498,-5.719722631672024
1789318179339427800,1.721427734375,10.736238542044163,0.8450660922735929,-1.9598716471113264
1789318179349383000,1.7313828125,11.561333274912833,0.14558394445478914,0.800725430765748
1789318179359337000,1.7413369140625,0.20518764154613017,-2.2949007434487343,2.077415345865488
1789318179369290800,1.751290771484375,-9.513759525081515,0.4583697909325361,3.109127168561518
1789318179379244800,1.761244873046875,-3.459526121857762,0.22236907797157762,4.960633864152431
1789318179389200000,1.771199951171875,-0.7051964338123798,-0.8949690640836954,6.531628797143697
1789318179399154000,1.78115380859375,-0.5521095663815736,-0.45744916895627974,2.4035208387739955
1789318179409108000,1.79110791015625,-9.001306261783837,9.997526792120933,-2.026241623467207
1789318179419062000,1.80106201171875,-2.8027006279826163,-1.0195026217252015,-6.963832465684414
1789318179429017000,1.81101708984375,-0.10546762264370918,-3.1624189060270784,-3.3623213006466623
1789318179438971100,1.82097119140625,-0.44083530328571796,-4.7614288041472435,-0.5732448549993336
1789318179448925000,1.830925048828125,7.261050156152248,-6.902054347163438,-0.7165235912516713
1789318179458879000,1.84087890625,15.862331848466395,1.4696616336733102,1.611227282397449
1789318179468833000,1.8508330078125,14.12391347965598,-0.5237924034357071,5.357503768983483
1789318179478787800,1.860787841796875,5.28466357370019,4.198401537910104,5.85039250011146
1789318179488742000,1.870741943359375,-5.99808306145668,-0.6918254955857992,-0.42731940363049503
1789318179498696000,1.880696044921875,-7.098737195214628,-1.0687070898771285,-2.1968561104126274
1789318179508650000,1.89064990234375,-0.6893821940869093,2.9783862807124852,0.7584034156039356
1789318179518605000,1.90060498046875,-0.3718745797842741,-4.447576789742708,-1.0623588898941874
1789318179528558800,1.910558837890625,-4.477931011474133,3.9319723689377306,-1.964409875062853
1789318179538513000,1.920512939453125,-6.491852667072415,0.5317658665329218,-5.029941209134459
1789318179548467000,1.930467041015625,-0.3134668144792318,1.698466297650337,-2.1340249757073817
1789318179558421800,1.940421875,1.167691780242324,-3.1296985396862027,1.3617958638466894
1789318179568376000,1.9503759765625,6.706927496382594,-6.860916281089186,2.4990681020364165
1789318179578330000,1.960330078125,12.92473292069435,0.3829933551698923,1.8514906212389468
1789318179588284000,1.970283935546875,6.78308193078041,-2.5906343328386545,0.5290061925612389
1789318179598239000,1.980239013671875,-5.034884510755538,7.406175835445523,-0.9550845100894569
1789318179608193000,1.990193115234375,2.3660668680399657,-0.6640010845929384,-7.976729405534267
1789318179618146800,2.000146728515625,-2.3807833756566046,2.2781600365281105,-5.198267731273174
1789318179628100900,2.010100830078125,-15.88957056852579,4.461061709737778,-2.535952602319419
1789318179638056000,2.020055908203125,-7.433323370090126,-0.8584872993826865,-1.693151532368362
1789318179648010000,2.030010009765625,-6.059592884430289,-0.10265782591998576,1.9582405387781558
1789318179657964000,2.039964111328125,-0.7780816372811794,1.5307453401893376,2.6160630808666347
1789318179667918000,2.04991796875,2.9788860469281673,10.704868421268463,3.138135236380994
1789318179677873000,2.059872802734375,1.4527087453067302,-1.340066700989008,-2.306162872827798
1789318179687827000,2.069826904296875,0.34779870766997334,-7.39062696865797,-5.40980444958508
1789318179697780700,2.07978076171875,-7.604293100214004,-3.1990824570357796,-0.1354883015718311
1789318179707735000,2.089735107421875,-7.379125331434607,-4.5477188334494825,1.2218282979689539
1789318179717689000,2.099689208984375,1.9756103373825549,-1.0297902069836855,1.1679817030996082
1789318179727644000,2.109643798828125,5.355366756954789,4.90804326069355,3.936827992275357
1789318179737598000,2.119597900390625,6.105464408767223,8.5203908770442,4.202275456734001
1789318179747552000,2.129552001953125,-1.9986013368695974,0.5643909558057785,-0.1358933021761477
1789318179757505800,2.139505859375,-7.05530020454824,-8.335706509822607,-5.468102324774861
1789318179767461000,2.149461181640625,1.5971587172955273,0.15653846918940542,-4.439504542446136
1789318179777415000,2.159414794921875,6.178044491809606,-2.3399703037530184,-3.121227063938975
1789318179787369000,2.169368896484375,11.518192052322625,0.7089157465964555,-1.720329316020757
1789318179797323000,2.179322998046875,12.838428263682125,11.949625321012734,-1.4715626449890433
1789318179807277800,2.18927783203125,-4.46540236929059,1.0092314030796288,-3.998514925381541
1789318179817232000,2.19923193359375,-10.233093789839744,-8.89882028529942,-5.224770538273454
1789318179827186000,2.20918603515625,-0.0668371554762125,-2.3797744908750054,-2.173402169588953
1789318179837140000,2.219139892578125,-2.9899615676939484,1.9075602989852427,1.0129739506088196
1789318179847095000,2.229094970703125,-7.396113875636458,5.86809240745306,0.07924783383589237
1789318179857049000,2.239049072265625,-0.26748481550514697,1.4887836827725172,-0.026485161745734512
1789318179867003000,2.2490029296875,0.6862514948457479,2.5042250464081763,4.139146215865016
1789318179876957000,2.25895703125,-0.6670598876416682,-2.5202801091521976,2.153131534976512
1789318179886911000,2.268910888671875,-0.7537707873672247,-3.8487089793175455,0.3586806786250323
1789318179896865800,2.27886572265625,0.8769535149216652,-2.3275445374220607,1.3136409047476947
1789318179906820000,2.288820068359375,4.447753315353394,-5.5837529032588,0.6984361458972096
1789318179916774100,2.298774169921875,7.128731935983896,1.6836235333055256,1.332828566429019
1789318179926728000,2.30872802734375,3.046362084829807,-1.3706687600016594,1.1946905540660022
1789318179936683000,2.31868310546875,0.3761649704545736,-3.645599897611141,0.7273568276941775
1789318179946636800,2.32863671875,1.0711018760591744,-0.9616384617775678,2.9850656123459336
1789318179956590800,2.3385908203125,3.822152396303415,-5.177903573158383,4.230617754121124
1789318179966545000,2.348544921875,9.239077491548658,0.377898662379384,4.3572143817722795
1789318179976500000,2.3585,-0.014346505260467528,6.47244829390049,3.4822692840635776
1789318179986454000,2.3684541015625,-21.949949634897706,-7.868818481391668,-2.1682010938145218
1789318179996408000,2.378407958984375,-1.188666763731837,-3.7935499866753815,-1.8896315513238309
1789318180006361900,2.38836181640625,1.287870649805665,-4.222621786931157,2.78670138707906
1789318180016317000,2.39831689453125,4.1390345721840855,-0.028569676402211187,1.2935209306523203
1789318180026271000,2.40827099609375,3.8730420410633086,4.5638060448974365,-0.9816723650246858
1789318180036224800,2.418224853515625,-8.843268493947386,-3.8408927526086565,-1.922481681524217
1789318180046179000,2.428178955078125,0.6296066475600004,-8.157787398952244,-0.9225501678399741
1789318180056134000,2.4381337890625,6.563892651888728,-0.6696037269055843,3.787693077340722
1789318180066088000,2.448087890625,8.576963828137517,-1.521356165075302,4.068242541602253
1789318180076042000,2.4580419921875,10.581893198984861,2.1040221977621316,2.7545886312425134
1789318180085996000,2.46799609375,3.2414965343952176,-0.2791974651306867,3.202338243961334
1789318180095949800,2.47794970703125,-9.885477452999353,2.0498364340662953,1.1156594682533294
1789318180105905200,2.4879052734375,-0.33236090004146096,3.94062680003643,-4.31760133330822
1789318180115859000,2.49785888671875,-1.6232891838520764,-4.160217060944437,-3.425292428344488
1789318180125813000,2.50781298828125,-1.416406428825855,1.1665455328166485,-0.3700318745270371
1789318180135767000,2.51776708984375,1.45090023458004,3.3473025952130553,0.33767047769166525
1789318180145721900,2.527721923828125,1.0726888529896736,0.6876385652899741,2.361151623469591
1789318180155676000,2.537676025390625,4.588984325295686,2.34313782787323,3.3209994024381038
1789318180165630000,2.5476298828125,6.758253778994083,-0.8288006016492843,2.0185212583482266
1789318180175583700,2.557583740234375,4.661991109317541,-2.9974253277033567,0.7785744622994214
1789318180185539000,2.5675390625,2.0524416481286285,-2.6679887906759974,-0.3290451265569776
1789318180195492900,2.577492919921875,0.5178074838072061,-1.5961545086890458,-0.9360751275844872
1789318180205447000,2.587447021484375,0.24788813463151455,1.4295219309866427,-0.26943317309394477
1789318180215401000,2.59740087890625,2.0920488513737916,-0.9446656996667384,-0.014522592479735611
1789318180225355800,2.607355712890625,5.292538252598047,1.1753349884718656,-0.12730536044239998
1789318180235309800,2.617309814453125,-0.7343266667068005,5.031764332908391,-1.4155653018265961
1789318180245264100,2.62726416015625,-17.40332327286005,-1.7795242861807345,-6.071002751716971
1789318180255218000,2.637218017578125,-1.8730097946077584,1.6344705030798912,-2.6498554603531956
1789318180265172000,2.647171875,0.6396721145004034,-6.285623992040753,2.8545401208132506
1789318180275127000,2.657126953125,3.205883369222283,-0.37938276345729827,3.4786659988746047
1789318180285080800,2.667080810546875,2.21284789866209,3.904585764840245,3.0511268150135873
1789318180295035000,2.677034912109375,-10.575845735514163,3.230070885017514,1.1228675730012356
1789318180304989000,2.686989013671875,-8.013730225673317,-6.9726499783903355,0.2855930113866925
1789318180314944000,2.696944091796875,-2.3106033394932743,-3.4854414843589065,4.590810956200957
1789318180324898000,2.70689794921875,4.879972181463241,-0.14893910010159014,3.200439716863632
1789318180334852000,2.71685205078125,8.30699830173254,1.452028361827135,1.526005744446814
1789318180344806000,2.726805908203125,5.246633410513401,5.854090770107508,4.609581415383517
1789318180354761000,2.736760986328125,-1.3127765430033207,-0.07319675363600253,3.1059108368635178
1789318180364714800,2.74671484375,-3.734911335223913,-2.6993302698791024,-0.8751708692885934
1789318180374669000,2.7566689453125,-1.7349650134861467,-5.8340194574594495,0.37036475974321365
1789318180384623000,2.766623046875,6.049199500709772,-0.15852584361433983,0.3814316588111222
1789318180394578000,2.776577880859375,2.1434709955751896,10.077276620662213,0.3982119670897722
1789318180404532000,2.786531982421875,-15.547990004718303,3.909382351467013,-2.150068932535499
1789318180414486000,2.796486083984375,2.7114544229149815,-0.9972305841624736,-4.26619234084934
1789318180424440000,2.806440185546875,4.211838527110219,-4.708158401730656,-0.3445633790105581
1789318180434394000,2.81639404296875,10.275051940125227,4.096207822370529,2.1328407343588767
1789318180444349200,2.82634912109375,9.022014118769764,10.864024379479885,1.0839229253180325
1789318180454303200,2.83630322265625,-16.289759973168373,-3.5452614545494314,-2.8871231245100497
1789318180464257300,2.84625732421875,-13.172607611322402,-3.3732162041485307,-5.704519801843166
1789318180474211300,2.85621142578125,-10.36632035702467,-4.503135010835528,4.065216471779347
1789318180484166100,2.866166259765625,-2.187320074173808,-10.134550413501263,2.9420608756169675
1789318180494120200,2.8761201171875,11.72147006085515,4.165311169213056,-0.7882220691539347
1789318180504074000,2.886073974609375,16.242882486659287,17.666876009613276,3.1081133153438567
1789318180514028300,2.8960283203125,4.347658033397794,7.931979578703642,1.4586949801094828
1789318180523983400,2.9059833984375,-11.523677205735444,-10.001658192837239,-7.212492753732204
1789318180533937200,2.915937255859375,-1.8952531905978918,-3.3562381813406943,-4.539570306046307
1789318180543891200,2.92589111328125,4.567162369588017,-7.765137742164731,1.8843594561398027
1789318180553845200,2.93584521484375,10.36585040142536,0.9060521836340427,0.5764020038560033
1789318180563799000,2.945799072265625,0.4965501762449741,4.8508869567543265,1.459343068754673
1789318180573754400,2.95575439453125,-9.676250765195489,-3.5567987476080654,-1.2378539884880184
1789318180583708200,2.965708251953125,5.784883378368615,-3.235529734945297,-3.4576112281471487
1789318180593662200,2.975662109375,5.72562454919219,-3.803168878892064,0.7360399003654718
1789318180603616300,2.9856162109375,2.4080653503358365,-9.185129628261922,0.6402526178020983
1789318180613571000,2.995571044921875,-4.365011903780698,5.735016646915674,-0.42740313639119265
1789318180623525000,3.005525146484375,-2.9358377633184194,-6.827709008014201,-3.7061820843458175
1789318180633479200,3.015479248046875,3.546745555627346,1.1232961736768483,-0.5557943923741578
1789318180643433200,3.02543310546875,-0.3000923691213131,12.023224810230731,3.4111209873899817
1789318180653388300,3.03538818359375,-12.403517089748382,-2.744134457245469,-1.2327556424356996
1789318180663342300,3.04534228515625,-3.4903614051043985,-2.927251721280813,-2.89779006447494
1789318180673296100,3.055296142578125,-1.119354158052802,-4.347296214348077,1.52582688074857
1789318180683250200,3.065250244140625,-4.031573729896545,9.348754840841888,4.172038723902404
1789318180693204200,3.075204345703125,-0.2776759546518326,-1.546643751066923,-0.9976449371170252
1789318180703159000,3.085158935546875,1.6943629539847374,-8.902236231222748,-2.168710943032801
1789318180713113300,3.09511328125,4.20176370781958,0.11266074901819229,1.5138821759328245
1789318180723067400,3.1050673828125,3.534380579572916,-10.590070660221576,2.386801028510928
1789318180733021200,3.115021240234375,10.692427457368373,1.143116141912341,4.559306979912519
1789318180742976300,3.124976318359375,15.304833574783801,7.170206686666607,4.606317152890563
1789318180752930000,3.134929931640625,8.505108552238344,-0.4948422032833099,1.6054579052157698
1789318180762884000,3.144884033203125,-8.134179728871583,-1.2180512636482714,-0.09126622494235634
1789318180772838100,3.154838134765625,-10.379172824335098,-10.485258871138095,-4.884588735347986
1789318180782793200,3.164793212890625,4.277649846670031,-5.446444035196304,-4.302875181080401
1789318180792747300,3.174747314453125,10.877141050684452,-0.18126900582015512,0.47821226326078176
1789318180802701300,3.184701416015625,9.568230535459518,12.474057191395758,3.217477653165161
1789318180812655000,3.194655029296875,-22.30957789657116,1.7965566695243118,-1.851016281725466
1789318180822610200,3.204610107421875,-13.08357791326046,-9.19997940686941,-4.218060178104043
1789318180832564200,3.214564208984375,-0.19637948119044302,-5.490611678224802,7.340125446432828
1789318180842518000,3.22451806640625,5.274817886990308,-6.747398622980714,4.902069154720008
1789318180852472300,3.234472412109375,12.200117500662802,9.128695793378352,-0.13185009119994937
1789318180862426400,3.24442626953125,1.4251339251607655,7.794801059022546,0.014812734532728791
1789318180872381200,3.254381103515625,-2.3570097013592717,-5.4981409046858545,-3.7435976227656003
1789318180882335200,3.264335205078125,3.5729274601101872,-0.4849608607381582,-2.1251764833413063
1789318180892289300,3.274289306640625,0.07391513103842735,-4.227420711645483,1.7372816198654473
1789318180902243000,3.2842431640625,0.3011673048764467,-2.726784093993902,0.4125223050583154
1789318180912198400,3.294198486328125,-4.34164096506536,6.8371689102768896,0.19923300745803862
1789318180922152200,3.304152099609375,-9.162599232023954,4.921323013505339,1.4374527239859103
1789318180932106200,3.314106201171875,2.36038882240355,2.250375957545638,0.6744821465969085
1789318180942060300,3.324060302734375,0.27202012084722516,-2.711101371693611,-1.3024144312039017
1789318180952014000,3.33401416015625,0.6096691904246807,-1.8814537978261707,-2.9492729989528654
1789318180961969200,3.34396923828125,-0.46025955020189285,2.085932998842001,-2.4808447553426025
1789318180971923200,3.353923095703125,2.4310908366143704,2.7198656929075717,-3.0931992393285035
1789318180981877000,3.363876953125,4.350613376072049,4.424888572594523,-1.3600959280610083
1789318180991831300,3.373831298828125,-3.4455174702495333,-10.151033930790424,-0.445178556654416
1789318181001786000,3.3837861328125,-3.6625720752000808,-8.717159065291286,-0.14229275742229072
1789318181011740200,3.393740234375,2.612255797538161,12.45506724424362,1.443614607616514
1789318181021694200,3.403694091796875,-1.6099702680736778,-5.123738852250575,-0.5845657288283109
1789318181031648300,3.413648193359375,-1.6773066052436827,11.130064841395615,0.8041245716847479
1789318181041603000,3.42360302734375,-3.21607217028141,4.4366900695472955,-1.5153807439275084
1789318181051557400,3.433557373046875,-3.0970705278038975,-7.987312758868932,-3.48216202429682
1789318181061511200,3.44351123046875,0.43315702374279497,-2.14438401876688,-2.2699571485891936
1789318181071465200,3.45346533203125,5.256265746733546,7.655006219363212,-0.3852021537931636
1789318181081420300,3.463420166015625,-0.7592150242477655,8.741589157670736,-0.23163849916346368
1789318181091374000,3.4733740234375,-4.4877199995607135,-15.898845761871337,-3.475115905177593
1789318181101328100,3.483328125,2.5874709003716707,-0.8738234002023935,0.2583907326138578
1789318181111282200,3.4932822265625,3.0094419287115333,-0.7804401831060648,1.169985809463635
1789318181121237200,3.5032373046875,1.5850959390580652,-6.190773040479422,-2.3704440602108834
1789318181131191300,3.51319140625,6.7855532893300055,8.56214795179963,-1.984750506171584
1789318181141145300,3.523145263671875,5.704167919665575,-1.3258096275776623,-3.3254002677455543
1789318181151099100,3.53309912109375,0.6349591145038604,3.994343192654848,-2.809845823562145
1789318181161053200,3.54305322265625,-8.963121200296282,-2.07105224057436,-3.054906333552301
1789318181171008000,3.553008056640625,-1.4001380155920982,-5.821292662355304,-1.4057241451613605
1789318181180962300,3.56296240234375,5.244458989083767,2.806594128289819,4.565045231303572
1789318181190916400,3.572916259765625,7.450932676538825,2.6372388476252553,5.1243473395377395
1789318181200870400,3.582870361328125,-3.587029635220766,4.656669037511945,3.3802333894342182
1789318181210825200,3.5928251953125,-13.32121294942498,-8.514206635451316,-2.1849618206098675
1789318181220779300,3.602779296875,2.214636535644531,-3.7292350431531665,-0.8142362158544361
1789318181230733000,3.612733154296875,4.161823911619186,-0.347836701592803,3.459095913746953
1789318181240687000,3.62268701171875,5.563617293202877,-0.7795014409512281,0.6219280026908963
1789318181250641200,3.63264111328125,-5.870381395173072,7.3162646783739325,-0.32145953026618806
1789318181260596200,3.64259619140625,-14.061222337943315,-4.606430550137162,-2.3892725331909954
1789318181270550300,3.65255029296875,-0.6185065768748521,-3.2482407479584214,1.4189314172588288
1789318181280504300,3.66250439453125,-0.5527689070731401,-4.040185490897298,6.243569395643473
1789318181290458000,3.6724580078125,9.589391396909951,0.7742793223887682,2.876329635556042
1789318181300413200,3.6824130859375,11.830559381127356,9.107297031518817,1.2457517560005187
1789318181310367200,3.6923671875,-5.534459003257751,-3.9387779572993513,-0.0929226138472557
1789318181320321300,3.7023212890625,-3.4880583888590335,-9.304732743763923,-3.9005470108434555
1789318181330275300,3.712275390625,8.130117886260152,0.05673486365675926,-1.6212253831900656
1789318181340230100,3.722230224609375,5.998723697447776,-3.471775947099924,0.49941955766882745
1789318181350184200,3.73218408203125,1.6776655016839503,3.525433887529373,1.499183203972876
1789318181360138200,3.74213818359375,-11.71654604845643,3.255787510076165,0.15581881314534693
1789318181370092000,3.752092041015625,-0.431036378327012,-2.4463328294098377,-0.41276086305454374
1789318181380046000,3.762046142578125,4.321206079801917,1.810950521057844,3.2211832296848297
1789318181390001400,3.77200146484375,1.979888453093171,0.8593319335132836,1.6896308108963072
1789318181399955200,3.781955078125,-5.432943917632103,1.3153952010691166,-2.8129192396581173
1789318181409909200,3.7919091796875,-8.316691428229213,-3.0791578544944525,-5.449403469523787
1789318181419863000,3.801863037109375,2.1774679577231404,-2.8485125310868025,-2.64655495750308
1789318181429818000,3.811818115234375,2.9993185941040514,1.514232012283802,1.4403706572592259
1789318181439772200,3.821772216796875,5.525578946709633,-4.508524887180328,0.49582441925369203
1789318181449726200,3.831726318359375,9.817122294175624,4.481951937553286,0.2397544394712895
1789318181459680000,3.841679931640625,4.585931951987743,2.8211282650768754,-0.003657280398532748
1789318181469635000,3.851635009765625,-5.947835221731663,-0.8009235836863517,-0.49948988295868035
1789318181479588900,3.8615888671875,-4.030852429884672,-0.7649561982482671,-1.9972046218141912
1789318181489543000,3.87154296875,-2.7276673065692183,-5.118666371291876,-1.4527400172278284
1789318181499497000,3.8814970703125,-3.000952917307615,-4.153892534098029,1.5569623159855603
1789318181509451300,3.891451171875,1.8284803325295447,1.9317402159959076,2.3659831352792677
1789318181519406000,3.901406005859375,5.286407787019014,6.140215988674759,1.2231013135794548
1789318181529360100,3.911360107421875,4.077936837142706,4.271110800290107,-0.45159299027398225
1789318181539314000,3.92131396484375,0.15658055476546287,-6.643642480430007,-1.9021870815142987
1789318181549268000,3.93126806640625,0.6378197646319865,-8.166568086779117,-0.7295874362904577
1789318181559223000,3.94122314453125,1.1982184359312056,-0.931799788352847,1.471174668584764
1789318181569177000,3.951177001953125,-5.466801763570309,-0.9686065472245216,2.396941021992266
1789318181579131100,3.961131103515625,-2.7512492576867342,3.746196114826202,3.040829000622034
1789318181589085200,3.971085205078125,2.4349375751703977,-0.672470806774497,2.700560103935003
1789318181599040000,3.9810400390625,3.832598971515894,1.8839444455981254,1.7705872387483714
1789318181608994000,3.990994140625,-3.9337399631321426,6.069411098611354,-0.01640358392074704
1789318181618948000,4.000947998046875,-12.299965529859065,1.0632722053468227,-4.598945747339725
1789318181628902000,4.01090185546875,-0.37853462219536305,-3.8091058677256107,-2.733854763032496
1789318181638856000,4.02085595703125,-1.246044016945362,-5.97355769200921,3.477590770858526
1789318181648811000,4.03081103515625,4.5311797865808,-1.5855039353370666,3.879114931236207
1789318181658765000,4.04076513671875,10.673134727877377,6.043163727676868,2.8416262787044047
1789318181668719000,4.050718994140625,9.017074908801913,4.460269098055362,2.1337948202133177
1789318181678673200,4.060673095703125,4.36722899530828,1.1357985123753547,-0.8883680583834648
1789318181688628000,4.0706279296875,-2.4202865340054034,-7.478076119530201,-3.268697845053673
1789318181698582000,4.08058203125,-4.381609987360239,-4.173786152091622,-2.207235465607792
1789318181708536000,4.0905361328125,-0.24668401953876018,0.1522784736573696,-1.2755335846714675
1789318181718490000,4.100489990234375,2.5001404074430464,5.063829450210928,0.9127103263489902
1789318181728445000,4.11044482421875,-1.5797522399425505,11.029503695493936,2.9121336471259593
1789318181738399000,4.12039892578125,-5.4468549540847535,-1.0613649104207754,-0.7130274927642196
1789318181748353000,4.13035302734375,-1.421710964974761,0.4832300914227962,-1.3226076166659593
1789318181758307000,4.14030712890625,-2.5429905381321904,-1.270882105603814,-0.30482348929643627
1789318181768260900,4.1502607421875,0.3278191649585962,2.75739258274734,-1.1234358013432473
1789318181778216200,4.16021630859375,1.8131302031844854,-0.6102718324929476,-1.8907469652198254
1789318181788170000,4.170169921875,5.972449438506365,-3.629316286808252,-1.478677299299836
1789318181798124000,4.1801240234375,10.199762013602257,2.5247610539585352,-1.0274692897554487
1789318181808078000,4.190078125,-5.941603049343824,5.51124296284318,-1.163479642440006
1789318181818033000,4.200032958984375,-15.639128657758235,-8.992539017960429,-4.451446616913378
1789318181827987000,4.209987060546875,1.000191772055626,-0.42248657664656636,-0.299671951752156
1789318181837941000,4.21994091796875,2.8366356308102607,-0.7379612238168716,0.9570561024233698
1789318181847895000,4.22989501953125,4.9067935528934,2.345138646301627,-0.13793306437544525
1789318181857849000,4.23984912109375,2.353216154295206,11.645067204654216,-0.631642610367015
1789318181867804200,4.24980419921875,-0.7130658520132303,-5.104844182166457,-4.398132959876954
1789318181877758000,4.259758056640625,1.104986025482416,-2.309602638018131,-4.552470996412635
1789318181887712000,4.2697119140625,-5.428353667232394,-4.616885308656096,-1.9429669818006454
1789318181897666000,4.279666015625,-4.849200026580691,-9.392142147147656,-0.5584966736027971
1789318181907621000,4.28962109375,3.9295653077960013,2.633000479403138,0.9245569776177406
1789318181917575200,4.2995751953125,5.806507181155681,1.3695412172764538,2.6435502227291465
1789318181927529200,4.309529296875,4.825048751142621,6.81512366720736,2.156231108427048
1789318181937483000,4.31948291015625,-10.34979592320323,3.550154487287998,-2.5357155786931513
1789318181947438000,4.32943798828125,-14.59741946492195,-5.538105250805616,-6.312945129686594
1789318181957392000,4.339391845703125,-2.3396844725489614,-2.4085364749789235,0.6471601321682333
1789318181967346000,4.349345947265625,0.9596604397028684,-6.6183104707747695,2.3154027025990187
1789318181977300000,4.359300048828125,10.580409682428837,5.370751373091339,2.5105203471601008
1789318181987255000,4.369255126953125,10.326244367223978,6.475906909921765,4.087795675595104
1789318181997209000,4.379208984375,3.284316269946098,-2.0691957990527152,1.386034963698685
1789318182007163100,4.3891630859375,0.3861562031149864,-5.231337057182192,-0.7660721966661512
1789318182017117000,4.399116943359375,4.389312816822528,-5.848896708595753,-0.745566876515001
1789318182027071000,4.409071044921875,10.049500140464305,1.0305565151810645,0.06625307197794318
1789318182037026000,4.419026123046875,1.6427485020816326,5.013443078798056,1.2059933807816356
1789318182046980000,4.42897998046875,-18.414945954990387,-0.7212082419365644,-0.9732301153719425
1789318182056934100,4.43893408203125,0.27555063306093214,0.8993360271215438,-1.1096643194917588
1789318182066888200,4.44888818359375,-0.45297348484694955,3.066166855496168,4.274136870113015
1789318182076843000,4.458843017578125,-2.0609891117215153,1.1292495291233062,4.1172812977984545
1789318182086797000,4.468797119140625,-1.2805962748885154,-5.50713786561191,0.23843844323558733
1789318182096750800,4.478750732421875,-0.323323022583127,-5.263930582273006,-0.3248976514887065
1789318182106705000,4.488704833984375,-2.8024223955631253,-0.4806085107475519,-0.1822499979478307
1789318182116659000,4.498658935546875,0.38061668916642666,0.35920272973775863,-1.8176503109574318
1789318182126614000,4.508614013671875,3.3960137268900867,-2.7373335450589655,0.6235516583699733
1789318182136568000,4.518568115234375,7.544761299315095,-1.6924655959308146,2.7659266023367644
1789318182146522000,4.528522216796875,8.700074074977636,5.475598818010091,3.586775660459697
1789318182156476000,4.538475830078125,-9.045403177663683,-2.0415777242869138,3.492380343711376
1789318182166431000,4.548430908203125,-14.305697449260949,0.3559299916774034,-0.862862884118408
1789318182176385000,4.558385009765625,-0.4333680361449718,-4.053391593950987,-2.2003440986588596
1789318182186339000,4.568339111328125,-4.171433451485633,-2.114062530261278,1.1093838220499455
1789318182196293000,4.578293212890625,2.2908844935446977,0.8735925140559673,-0.7429534791462123
1789318182206248000,4.588248046875,8.353390050551294,0.9158318193703889,-2.785509839206934
1789318182216202000,4.598201904296875,7.096707735213637,-0.3143061879128218,-0.6499239708583802
1789318182226156000,4.608156005859375,2.630204711204767,-1.0314420658439398,-0.22943901635780928
1789318182236110000,4.618110107421875,-0.02627133633196354,0.31812311585247516,-2.0165397291421887
1789318182246063900,4.62806396484375,-3.2700761476695535,0.018904606956243512,-0.858874252873659
1789318182256019200,4.638019287109375,-4.434087193572521,4.2500352790355675,2.0763360261961816
1789318182265973000,4.647972900390625,-7.923209412270784,-2.1375030270814896,1.5112887984387575
1789318182275927000,4.657927001953125,-4.845528644591569,2.2021534861683842,0.6944232569940387
1789318182285881000,4.667881103515625,-1.7160417018294334,8.605049520415067,1.9716244826167821
1789318182295836000,4.6778359375,-0.3835971662819385,8.196320250964165,1.059511683769524
1789318182305790000,4.6877900390625,-0.5843862806081771,-4.572496131831407,-2.065629923264682
1789318182315744000,4.697743896484375,5.150106050172448,-5.201456298181414,-2.6397569679260253
1789318182325698000,4.707697998046875,11.444302640247344,-0.4559551310062408,-1.5640774086877702
1789318182335653000,4.717653076171875,7.349350370895862,-0.7106190433830022,-0.0003667874857783317
1789318182345607200,4.727607177734375,0.07549275561869144,-3.3729198515504595,-1.1535351715307682
1789318182355561000,4.73756103515625,1.895336192706227,-1.043109122762084,-3.6213793563291428
1789318182365515000,4.747514892578125,0.17238719570636749,-1.8135919754773377,-1.9665026095584033
1789318182375469000,4.757468994140625,-1.6409136878699064,-0.9288608122915029,-0.8821224419921636
1789318182385424100,4.767424072265625,-9.504646244299412,7.20041419340372,-1.3784642361834645
1789318182395378200,4.777378173828125,-9.321863911306858,0.48035249015986914,-3.1673803278267383
1789318182405332000,4.78733203125,0.1647217756450176,1.147349833959341,0.4337431530676782
1789318182415286000,4.7972861328125,3.932368674778938,-0.2716793445855379,1.995776342576742
1789318182425240800,4.80724072265625,13.267716337037086,1.5917781933009623,-0.8721221492424607
1789318182435194600,4.817194580078125,13.583929819875955,2.5686212384730576,-0.9577461305141448
1789318182445148700,4.827148681640625,1.3967507112413644,-6.836036106854677,-1.1478043727938085
1789318182455102700,4.837102783203125,-4.691158751612901,-5.645623376238346,-2.386119622118026
1789318182465057000,4.84705712890625,-2.45612006393075,-8.003516874694824,-1.4919462384566664
1789318182475011800,4.85701171875,-2.0183271970808505,4.987132579499483,1.9466556071855126
1789318182484966000,4.8669658203125,-5.300481905078888,3.0223347280323503,1.129398143813759
1789318182494919700,4.876919677734375,-0.701288904979825,-1.1824129640340804,-0.3754184264035895
1789318182504873700,4.886873779296875,1.1578992850244045,11.180256567019223,1.8092203362643717
1789318182514828800,4.896828857421875,-6.019686990499496,2.2818618136554956,-0.665487377627939
1789318182524782800,4.906782958984375,-3.858904794639349,-5.484469522207975,-1.9499574252098797
1789318182534737000,4.91673681640625,3.056988692784309,-8.246707206898927,0.6467464368008077
1789318182544691000,4.92669091796875,16.300501147413254,-3.2857179534375667,1.7846977432958782
1789318182554645800,4.936645751953125,16.231867756170033,7.725114943856,3.046903352099657
1789318182564599800,4.946599853515625,-8.108122912073135,-3.7074721241563555,-0.7379796362563967
1789318182574553900,4.956553955078125,-6.137053140729665,-6.373982074451447,-6.402796665525436
1789318182584507600,4.966507568359375,1.4892074611425399,4.092850913158059,-1.5204413883179426
1789318182594461700,4.976461669921875,-0.6821674404025078,-1.3297253397166728,1.1213553418073803
1789318182604416800,4.986416748046875,-13.556446769666671,12.866283069813251,0.2256572327967733
1789318182614370800,4.996370849609375,-21.618778236901758,3.506933185198903,-5.40156093737483
1789318182624324900,5.006324951171875,-1.8627520199656484,-5.601335906222462,-0.28931038794200864
1789318182634278700,5.016278564453125,4.744544304841757,-3.56089332344532,5.244572970852255
1789318182644233700,5.026233642578125,18.812023365092276,1.425617909285426,0.7111630871318281
1789318182654187800,5.036187744140625,20.275778405070305,8.876896038261055,-1.7720140566810965
1789318182664141800,5.046141845703125,-0.22214695965349673,-12.164052500069142,-5.191375633671879
1789318182674095900,5.056095947265625,0.22376783885359763,-12.84560268535614,-6.144162680473923
1789318182684050700,5.06605078125,11.154205595439672,3.1793121731609104,0.9324271264709532
1789318182694004700,5.076004638671875,12.022301265645027,5.4198138024240725,3.443296871590614
1789318182703958800,5.085958740234375,-12.274209157311915,15.476245787978172,1.5616333765365182
1789318182713912800,5.095912841796875,-44.46103560771942,-0.8889169244378805,-3.096884065321088
1789318182723866600,5.10586669921875,4.824130467253923,-0.041268998977541924,3.1744542117357253
1789318182733822000,5.115822021484375,-1.2315239086836576,2.154298679059744,7.120877130830287
1789318182743775700,5.125775634765625,-4.2463948767066,5.576676681262255,-0.3084240345390513
1789318182753729800,5.135729736328125,0.1551975759744644,-0.7187427286058664,-3.22971461892575
1789318182763683800,5.145683837890625,3.294492211523652,-7.56274762238264,0.20504823307543993
1789318182773638700,5.155638671875,12.868441124629973,-4.419174871122837,0.8414260552708059
1789318182783592700,5.1655927734375,17.93978811086416,-1.2734025639921427,-0.049839624250307676
1789318182793546800,5.175546630859375,12.575785042989253,-0.7615531118065119,0.148800422283262
1789318182803500800,5.185500732421875,3.1494343367695805,5.534520962578058,0.2608659088220447
1789318182813456000,5.195455810546875,-9.681038583993912,0.8452724285006523,0.49786352386586363
1789318182823410000,5.205409912109375,-5.913084226346015,-6.540130668029189,0.4207705299763009
1789318182833363700,5.21536376953125,-0.690292879191041,-0.33559505965709685,2.274566395950317
1789318182843317800,5.22531787109375,-12.774886058098078,7.434756617763638,3.7402147023290393
1789318182853271800,5.235271728515625,-18.126138365471363,6.858687499123811,-1.039880881430581
1789318182863227000,5.245226806640625,-0.7172329085648059,0.7272562899291515,1.111341093597561
1789318182873181000,5.255180908203125,0.9040800067782402,-7.915780139052868,3.248685569116473
1789318182883134700,5.265134765625,11.463142949795722,-4.97714076231718,0.6488702240217477
1789318182893088800,5.2750888671875,16.750360884153842,7.437358909216523,2.4701561880677936
1789318182903043800,5.2850439453125,4.931227152404189,-4.652810608518124,0.4542619172222912
1789318182912997600,5.29499755859375,-1.0308125357687472,-1.7386036622494458,-2.4192121827721595
1789318182922951700,5.30495166015625,1.085030448168516,0.11156126334369182,-1.0661740642681716
1789318182932905700,5.31490576171875,-0.4173205721855163,-6.186258193403482,1.5700877550184726
1789318182942859800,5.32485986328125,-0.6464987456500529,2.345955223381519,0.8676276873674243
1789318182952814800,5.33481494140625,-15.282486133897304,14.178566276341677,0.6527336945168674
1789318182962769000,5.344768798828125,-5.228243182820082,5.7901358920693395,-0.5259953203074634
1789318182972722700,5.35472265625,1.2227736159950493,-14.12766026496887,1.792446749987453
1789318182982676700,5.3646767578125,10.813942543971537,-2.4441958173811433,5.181935020631552
1789318182992631600,5.374631591796875,12.685222738307713,7.029018346822261,4.252541416637599
1789318183002585900,5.3845859375,-8.879177427196502,-2.7246979353696106,0.35823286179229613
1789318183012540000,5.394539794921875,-0.971408745163679,-14.409635962641238,-4.5017596308290955
1789318183022494000,5.404493896484375,8.186615434029697,-0.3725485335230827,3.485285709275305
1789318183032448800,5.41444873046875,9.305378640452027,-4.745472525602579,5.135491833886504
1789318183042402800,5.42440283203125,10.364032538348436,12.422500022637843,2.628890121474862
1789318183052356600,5.434356689453125,-10.903914491319656,11.638015532577038,-0.21711422618329523
1789318183062310700,5.444310546875,-10.042525625276564,-1.5834510944604874,-3.459071363827586
1789318183072265000,5.454264892578125,1.8719295981556177,0.3820522749274969,0.840398831114918
1789318183082219800,5.4642197265625,-5.523081869196892,-7.528537309744953,2.9555279676944015
1789318183092173800,5.474173828125,-1.700585189500451,-1.6404174287855624,-1.112015193466842
1789318183102127900,5.4841279296875,1.1813514722824097,4.495808028948307,-1.1013890239037574
1789318183112081700,5.49408154296875,3.2996272363245485,-4.468537744706869,0.6504100738748908
1789318183122036700,5.50403662109375,5.520005530491471,0.9616554129123687,-0.26562194424271585
1789318183131990800,5.51399072265625,-0.8859516448915005,-3.7129835810542104,-2.550520933637023
1789318183141944800,5.52394482421875,-2.7050761200547218,-3.981754344716668,-2.5743290947258473
1789318183151899000,5.53389892578125,4.337607764026522,1.2520984946787357,-0.22858327631130812
1789318183161853700,5.543853759765625,7.194907997202873,5.301785973414779,1.7761761447966098
1789318183171807700,5.553807861328125,-3.8739685082584616,6.906253552418947,1.6997683201596139
1789318183181761800,5.56376171875,-8.564744398033618,-4.447502555462718,-3.931740898269415
1789318183191715800,5.5737158203125,-0.38633565133512016,-2.93415784740746,-3.997718222045898
1789318183201669600,5.583669677734375,-18.096814071309566,-2.2683388997375964,-1.764051407238841
1789318183211625000,5.593625,-9.235838071236014,0.3102472679108381,-3.288030322033167
1789318183221578800,5.603578857421875,0.2852735701739788,-1.7127210329741238,-0.46957843655869363
1789318183231532800,5.61353271484375,1.2127046419233083,-3.3265649276107547,1.5101163936585187
1789318183241486800,5.62348681640625,11.190963838994502,2.171514602276683,1.7645932590305804
1789318183251441700,5.633441650390625,6.511589633199572,9.95096144030094,2.381355330325663
1789318183261395700,5.643395751953125,-17.6882356085062,-1.0785825872033834,-4.8963341181993485
1789318183271350000,5.65335009765625,-5.734294177860021,-13.360187699985504,-5.342773232841491
1789318183281303800,5.6633037109375,10.323519326174258,-1.346396488532424,1.957079532174766
1789318183291257900,5.6732578125,17.335937251329423,1.1499410194963215,0.11035977859944104
1789318183301212700,5.683212646484375,13.135039220428466,12.044218498420715,-2.188067677670717
1789318183311166700,5.693166748046875,-16.80566366918087,9.805658650875092,-7.241758595705032
1789318183321120800,5.703120849609375,-6.2411716868519775,3.6904490931630134,-8.931889026686548
1789318183331074800,5.71307470703125,-1.9546844537317751,-7.472978504130244,4.714368946808576
1789318183341030000,5.72302978515625,2.555415719941258,-17.73355592870116,2.461172378884256
1789318183350984000,5.73298388671875,14.403934536129235,-4.773132685944438,-1.415274794447422
1789318183360937700,5.742937744140625,5.393826543730497,19.59241152575016,4.2874955333799125
1789318183370891800,5.752891845703125,-20.007775118649004,3.2054870633810757,-7.187585691490769
1789318183380846800,5.762846923828125,-17.870833232581614,-14.949771598112582,-4.47349682841897
1789318183390800600,5.772800537109375,-5.687622443056107,-1.5456822125583887,9.941037427657841
1789318183400754700,5.782754638671875,6.857879689872265,-7.386408474180102,-5.639993261396884
1789318183410709000,5.792708984375,13.221914370805024,4.478907163029909,-3.1645272764831778
1789318183420663000,5.8026630859375,17.938497486531734,22.244529962599277,7.680208465158939
1789318183430618000,5.8126181640625,10.864209088397025,10.05879871468544,2.245630808845162
1789318183440572200,5.822572265625,-24.60153498778343,-11.751744787609576,-8.385242401885986
1789318183450526200,5.832526123046875,-19.431423675936458,-27.262358124613762,-2.9423814858734607
1789318183460480300,5.842480224609375,11.979571546465158,-11.138948405075073,3.909613529874384
1789318183470435000,5.85243505859375,21.049750853466985,-2.010374192249775,1.5781415898755191
1789318183480389000,5.86238916015625,15.61866103926897,14.885766451191902,4.046772760333121
1789318183490343200,5.87234326171875,-9.0303944091022,6.174806825062632,-1.7405564037524162
1789318183500297000,5.882296875,-16.00796664632559,-14.223061251628398,-7.750431755942106
1789318183510251300,5.892251220703125,-9.02575096721053,-5.737749871271848,5.196594245103001
1789318183520206300,5.902206298828125,-0.4273246643275022,-0.7126660390406847,3.1896921128779647
1789318183530160000,5.91216015625,-5.19467701330483,16.314803229010103,-1.56902977039814
1789318183540114200,5.9221142578125,-9.28416809464097,4.3616433041304346,-0.817460657793656
1789318183550068200,5.932068115234375,1.1052689340770243,-1.4781091440230607,2.8143343671530485
1789318183560023000,5.94202294921875,1.8254314663529394,2.058289789634943,3.7880481743887064
1789318183569977300,5.951977294921875,3.407532315248251,-6.140528707885742,-1.2305163390763103
1789318183579931100,5.96193115234375,7.737207532709837,-2.7058599639087912,-4.08958460483849
1789318183589885200,5.97188525390625,4.13863475921154,6.277971431460976,-1.7613680133737624
1789318183599840300,5.98184033203125,-0.8615472714751958,-9.011996582624315,-4.910577163085341
1789318183609794000,5.9917939453125,6.841511907917261,-1.8832383431553839,-5.190685897842049
1789318183619748000,6.001748046875,13.907924458110331,10.698508823108673,-1.839050095730275
1789318183629702100,6.0117021484375,5.188249026083946,4.327362264344096,-1.6137509556561707
1789318183639656200,6.02165625,-25.259236679971217,-2.3834622394770384,-2.5225617903485893
1789318183649611300,6.031611328125,-7.728390604525804,-0.618769611725211,-2.868511363020539
1789318183659565300,6.0415654296875,2.4184382757902143,0.4120458466529846,2.9504081404626366
1789318183669519000,6.05151904296875,0.0921212343364954,-1.8536095130890606,3.061353317734599
1789318183679473200,6.06147314453125,4.762179914775491,2.735463659533858,-1.2801404939450323
1789318183689428000,6.071427978515625,3.574250233146548,0.5465595310389996,-2.798924032053351
1789318183699382000,6.081382080078125,5.250945428493619,-0.412164504596591,-2.4401627624727786
1789318183709336300,6.09133642578125,9.280114435335992,0.29168752886950966,-1.230205665691942
1789318183719290400,6.101290283203125,6.772586840251088,-2.7550083179593083,1.1379532792564482
1789318183729245200,6.1112451171875,0.38968203915357585,0.9436486315786838,2.618643745009601
1789318183739199200,6.12119921875,-11.931589313584565,11.63925822611451,2.5626351498007773
1789318183749153000,6.131153076171875,-5.681640446037053,-4.125653112563491,-0.23840751837436108
1789318183759107000,6.141107177734375,2.091106017565727,-13.467868322503566,2.8947926362246275
1789318183769061000,6.15106103515625,5.147283393967151,5.328093550103903,2.2655092292696235
1789318183779016200,6.16101611328125,-33.006756347858904,3.886396028155088,-6.58015171277225
1789318183788970200,6.17097021484375,-6.902227950164676,-10.793770693558454,-8.348485911896825
1789318183798924300,6.18092431640625,23.07385195777416,1.5845809752732514,2.9184640191912647
1789318183808878000,6.190878173828125,27.61152344446182,4.76969803532064,4.670522206297517
1789318183818833200,6.200833251953125,17.682184637904165,4.2965942011147735,1.4859844074428081
1789318183828787200,6.210787109375,-23.11609652378559,-5.65755112991929,-1.6841111706919967
1789318183838741000,6.220740966796875,-12.263294964587688,-14.39124456590414,-4.790565759043395
1789318183848695300,6.2306953125,5.572873781847954,0.1405365979373455,8.686803089994191
1789318183858650000,6.240650146484375,4.800179682824015,0.7046803009837865,5.425983430969715
1789318183868604200,6.250604248046875,-2.1933184378057717,10.454517695915698,-3.3184675458729265
1789318183878558200,6.26055810546875,-14.443526541805266,15.149887343221902,-7.920878338974714
1789318183888512300,6.27051220703125,1.6527929262340069,-5.142803618204593,-5.417107466074824
1789318183898466000,6.280466064453125,-3.070260262289643,-4.270036449056864,1.666452764404565
1789318183908421400,6.29042138671875,-7.836995940673351,-3.4916274795174598,3.2486981363371012
1789318183918375200,6.300375244140625,1.5533213291347026,-4.111038311755657,0.8479973234198988
1789318183928329200,6.3103291015625,13.055407465308903,5.885371459034085,3.5002684666126966
1789318183938283300,6.320283203125,12.869755129837989,6.777816557598114,6.3839072561383245
1789318183948238000,6.330238037109375,1.911060416060686,-5.642223212406039,0.04526756709441542
1789318183958192000,6.340192138671875,-8.202057917833327,0.13013269282281398,-5.70693621533513
1789318183968146200,6.350146240234375,-6.5077008090674875,3.0274077935129404,-4.248564037439227
1789318183978100000,6.360099853515625,-5.6392783911257975,1.4382862522006035,2.6027105550795793
1789318183988055300,6.37005517578125,-4.968569333326816,1.3339093474030495,4.80978483877629
1789318183998009000,6.380009033203125,0.5364309357345104,-0.6085843177974224,3.9124309253826737
1789318184007963100,6.389963134765625,2.3565777396827934,5.209917252534628,5.8405877299338576
1789318184017917200,6.399917236328125,1.7229945897072552,4.7414486769139765,2.4972213051259518
1789318184027871200,6.409871337890625,-1.9351257667809723,6.411278078144789,-1.7840297809064387
1789318184037826000,6.419825927734375,-3.535669450339675,-25.657450400626658,-5.631394359877706
1789318184047780400,6.4297802734375,7.523562443941831,-9.494066982617973,-3.1043045707106587
1789318184057734100,6.439734130859375,10.853294895672798,6.925015536034107,1.2207331231433898
1789318184067688200,6.449688232421875,-0.0006575871258974075,7.8771841586768625,2.6423694885119793
1789318184077643300,6.459643310546875,4.952271693998575,13.775707944750785,-2.290461884218454
1789318184087597000,6.46959716796875,0.04598901323676109,-7.514471374991536,-3.3721821849256752
1789318184097551000,6.479551025390625,-4.885092593216895,-12.63108782801628,1.0972736244741828
1789318184107505200,6.489505126953125,-8.708357919198274,4.521695918920636,2.214066042280197
1789318184117459000,6.499458984375,-8.539234109202027,6.385386096519231,-1.6756477321207521
1789318184127414300,6.509414306640625,0.6122831723153591,1.8599568362891672,0.6373027550205588
1789318184137368300,6.519368408203125,4.797115034556389,-4.032766739073396,4.8780426747053856
1789318184147322000,6.529322021484375,12.464555203557014,-3.0213416253417726,3.3789889423310755
1789318184157276200,6.539276123046875,12.447168015426396,1.8436165268629787,-0.06289148659035564
1789318184167231000,6.54923095703125,-1.7152315544903278,0.36754561066925523,-2.403231938830018
1789318184177185000,6.55918505859375,-12.840147927081585,-7.243919573131203,-4.450438901175558
1789318184187139300,6.569139404296875,-8.964513531437516,-3.9952001017451284,0.038307299627736206
1789318184197093400,6.57909326171875,-8.373415185970067,3.519946980550885,3.965173796793818
1789318184207048200,6.589048095703125,-0.07339607560038566,-2.2189760261535643,0.34556429968141017
1789318184217002200,6.599002197265625,4.141441633325815,7.036184000667929,2.896667490185797
1789318184226956000,6.6089560546875,2.579465288570523,7.461843946653604,3.9444866903349753
1789318184236910000,6.61891015625,-2.9576468595445156,-4.740723869770765,-2.343951190082729
1789318184246864100,6.628864013671875,0.6053133333027363,-3.9491251637905833,-4.6784945003509515
1789318184256819200,6.638819091796875,7.8480813983112565,-4.761153494337201,-1.5251904825411735
1789318184266773200,6.648773193359375,13.417096751165388,-0.13544482775628566,1.208926876950264
1789318184276727300,6.658727294921875,10.09857893640995,-0.13718085776865482,2.4459637038365005
1789318184286681000,6.66868115234375,2.2693255726873875,-2.492894089576602,3.0760821003109213
1789318184296636200,6.67863623046875,-1.1235966179281474,-0.36528409547805785,2.4522958294674755
1789318184306590200,6.688590087890625,-2.754039765188098,-2.2190666270464656,1.259854223372042
1789318184316544000,6.6985439453125,-5.698219240394234,2.557394911059737,1.0774439385622738
1789318184326498300,6.708498291015625,-14.436889880269765,2.8704379471689463,-0.5662918940562754
1789318184336452400,6.718452392578125,-9.289005013278127,5.373610854175687,-0.15324483447149395
1789318184346407200,6.7284072265625,-3.6566608053296803,-2.5580986754149198,2.0508605164170266
1789318184356361200,6.738361328125,0.43136254154145715,-2.130562414163351,3.0012808340877295
1789318184366315000,6.74831494140625,6.466347054415941,3.3120874894469976,2.5486171458423135
1789318184376269000,6.75826904296875,7.958156807011365,1.3365911338329315,0.659977601230517
1789318184386224400,6.768224365234375,8.097095906624197,-1.7348440174549817,-0.885951498761028
1789318184396178200,6.77817822265625,11.05523551812172,-5.38141948210001,-0.6824627700872719
1789318184406132200,6.78813232421875,11.06496897662878,3.772155900990963,0.272290389155969
1789318184416086300,6.798086181640625,-7.658060930758714,0.6364233418375254,-1.175843522515893
1789318184426040800,6.808040771484375,-15.033035572254656,-7.420038941103219,-3.6251805021777748
1789318184435995000,6.817994873046875,-0.14067805223464966,-2.983391541653871,0.12512523992434144
1789318184445949000,6.827948974609375,-0.7391080557644367,-6.17171587330997,4.486298442324996
1789318184455902700,6.83790283203125,5.043188228720426,8.978239858973026,3.823883165618777
1789318184465856800,6.847856689453125,-3.0628198831558224,8.144101403427124,0.2904538223560899
1789318184475811800,6.857811767578125,-5.314792169982194,5.385566664907336,-3.77054817353338
1789318184485766000,6.867765869140625,3.2921278204798696,-2.29835877494812,-3.030463089430332
1789318184495720000,6.877719970703125,1.6293933459460734,-6.640852557450533,1.0836769877329469
1789318184505674000,6.887674072265625,5.736215501311421,5.926531152418256,0.6020833384055644
1789318184515628800,6.89762890625,-3.9687165839672085,5.323777440470457,-1.6277943863168358
1789318184525582800,6.907582763671875,-7.390074010950326,-0.7059773550570011,-1.4199560841314494
1789318184535536600,6.91753662109375,2.9755542721569537,0.9829524679630994,2.615790109144151
1789318184545490700,6.92749072265625,-1.9604162753820418,1.240682197651267,3.7961283127307888
1789318184555444700,6.93744482421875,-11.915108134382962,-0.49663668548464773,-1.8148659409359096
1789318184565399800,6.94739990234375,-2.955111203587055,-2.002238816589117,-3.604260463745892
1789318184575353900,6.957353759765625,5.3523909560143945,2.8163480450630187,1.0612384344968944
1789318184585308000,6.967307861328125,5.712344211858511,-7.309879361250996,1.1295541380930691
1789318184595261700,6.97726171875,9.0588173705101,-2.649759306502342,0.199454943113029
1789318184605216800,6.987216796875,7.349605806961655,1.7791975384443997,0.9258690831296146
1789318184615170800,6.9971708984375,-0.6495563796550035,0.6244681156277656,2.158686392624676
1789318184625124900,7.007124755859375,-2.9714795700639485,-4.020727926233411,2.3861881573095918
1789318184635079000,7.017078857421875,-0.10657996779978275,-6.560714606374502,2.24201247221753
1789318184645033700,7.02703369140625,4.184129266929626,2.133366950190067,2.0567127495765685
1789318184654987800,7.03698779296875,-2.481910923269391,13.061426871728896,0.11660963277444243
1789318184664941800,7.04694189453125,-9.52199426946342,8.253807978814839,-5.661843274155259
1789318184674896000,7.056895751953125,2.3964812955260277,-6.271745688813924,-4.5410383327722545
1789318184684849700,7.066849609375,3.0260902811735866,-10.177063859581947,1.542444691941887
1789318184694805000,7.076804931640625,3.2063007178515193,-0.09987783981263637,4.082712965503335
1789318184704758800,7.0867587890625,-8.943141657584905,3.221764244443178,0.6510567742805927
1789318184714712800,7.096712890625,1.4022539848327635,-3.5421570587933062,-4.742040213066339
1789318184724667000,7.1066669921875,4.631271561405063,1.4315326862871647,1.2192022603143007
1789318184734621700,7.11662158203125,5.533842917186021,-7.556708342218399,0.34476496599726375
1789318184744575700,7.12657568359375,10.969175191259383,6.268623172879218,-1.922248457290232
1789318184754529800,7.13652978515625,-1.9113404020458458,13.856834906864165,-3.0049381875514984
1789318184764483800,7.14648388671875,-23.789949724829196,2.907520600372553,-5.560297793391347
1789318184774438000,7.15643798828125,-7.695792403259873,-3.434975033447146,2.752272755515575
1789318184784393000,7.16639306640625,-4.909810854887962,-7.925326550555229,8.254932598930596
1789318184794346800,7.1763466796875,2.2590268815129995,-7.504026553344726,-0.6865756122335791
1789318184804300800,7.18630078125,12.882189079475403,4.977491475450992,-3.3540058922439813
1789318184814254800,7.1962548828125,6.253539000993967,9.960823493623733,1.1407980742283166
1789318184824210000,7.2062099609375,-3.9940871720671653,-8.549348675981163,-5.526732792919874
1789318184834164000,7.2161640625,-2.032006178343296,-9.941870955872535,-6.893226897585391
1789318184844117800,7.22611767578125,5.836270451256633,-5.892079432240128,0.5675480315972119
1789318184854071800,7.23607177734375,16.75535971535444,6.943242682120204,2.438724400232732
1789318184864027000,7.24602685546875,3.9926878266632553,12.025938160842657,3.287320712459087
1789318184873980700,7.255980712890625,-25.325851132607458,-4.1618887935489415,-2.331189908187091
1789318184883934700,7.265934814453125,-0.5926806462228298,-2.24183024751842,-4.528920609477162
1789318184893889000,7.275888916015625,0.06778641902506351,-5.311839165395498,3.290228708860278
1789318184903842800,7.2858427734375,4.906802320721745,-0.3086836718559265,1.0714123302478342
1789318184913798000,7.2957978515625,8.409865971010923,6.715335259243846,-3.8639331441953777
1789318184923752000,7.305751953125,-1.8924971698880195,-0.37777357469499107,-2.9309938304185867
1789318184933705700,7.315705810546875,4.605975792106986,-1.099528929120302,-3.0034757137835024
1789318184943659800,7.32565966796875,7.72181531778872,-1.0378747292399406,-1.741993889209628
1789318184953614800,7.33561474609375,7.69708419663608,-7.7743755261093375,-1.187998216820508
1789318184963569000,7.34556884765625,14.557047707045077,-0.729806558933854,-1.4169509109660983
1789318184973523000,7.35552294921875,-12.546832504749297,16.702710659706593,1.3552423505499958
1789318184983477000,7.36547705078125,-38.9899270868659,-10.388170954304933,-5.999887480530142
1789318184993431800,7.375431884765625,0.05470189652442932,-5.468891429325938,2.2615673597760497
1789318185003385900,7.3853857421875,1.9268612117826938,0.3906821561068296,6.4608782676160335
1789318185013339600,7.395339599609375,9.311515535771846,2.7789965117901563,-2.2783429918795823
1789318185023293700,7.405293701171875,4.8542882896304125,14.222158749830722,-2.1150649853020904
1789318185033248000,7.415248046875,-15.087758511567115,-8.840043686681986,-5.032994751486182
1789318185043202800,7.425202880859375,-0.9295335969865322,-16.756264555239678,-5.3496033711224795
1789318185053156900,7.435156982421875,3.9280736079335212,1.3750363075613974,5.846707674118876
1789318185063111000,7.44511083984375,8.828272584867477,0.5483557668060064,6.889898629945516
1789318185073064700,7.455064697265625,11.652153948044777,5.511144178643822,2.2269594261229035
1789318185083019800,7.465019775390625,3.7494612541019916,-2.8889591077655554,1.24736299058944
1789318185092973800,7.474973876953125,4.7727241051435465,-3.995446769982576,0.24788981513194738
1789318185102928000,7.484927978515625,10.561681601083277,16.52275741266012,-0.8343776711292564
1789318185112882000,7.4948818359375,-28.861923318529126,5.839989179518819,-5.079059752568602
1789318185122836000,7.5048359375,-20.0969661447525,-14.49303788394928,-4.165089343155921
1789318185132790800,7.514790771484375,5.739829600155353,-2.6180536701619626,1.9172835283592342
1789318185142744800,7.524744873046875,2.165762322360277,-6.805716371914744,2.9103835885882376
1789318185152699000,7.534698974609375,13.412666075241566,17.929929564672708,3.8171643787577745
1789318185162652700,7.544652587890625,10.09244262561202,15.054481680387257,-0.7989343095652759
1789318185172608000,7.55460791015625,-6.099941845953464,-10.558813936692475,-5.7617105925738805
1789318185182561800,7.564561767578125,-7.7722578033030025,-8.872738918581604,-3.5291298194378613
1789318185192515800,7.574515869140625,4.652778459814191,-2.55515093152523,-1.0856481416754424
1789318185202470000,7.584469970703125,7.992945211797952,5.246909889367222,-1.2296230434983968
1789318185212424700,7.5944248046875,-7.606006333872675,13.020370054197311,0.09097531570438296
1789318185222378800,7.604378662109375,-6.221507201439142,5.675379047554731,-2.1309493676543236
1789318185232333000,7.6143330078125,0.42926118534803387,-9.915151291251181,-2.318376311582327
1789318185242286800,7.624286865234375,-1.6840730306386946,-15.92116280761957,-1.8473823091372847
1789318185252241000,7.634240966796875,4.7288697658479215,3.063716539734602,-2.4942905123710633
1789318185262195700,7.64419580078125,-1.0020072970449925,12.192296597778796,-1.748273115609586
1789318185272149800,7.654149658203125,5.624570651337504,-6.118379419919848,-2.9633664062350986
1789318185282103800,7.664103759765625,9.8834117526412,1.8551392068743704,0.5991774243636057
1789318185292057900,7.674057861328125,3.376498294559121,-9.463658400350809,-0.6963822821073233
1789318185302013000,7.684012939453125,-5.671563873180746,-3.278635301700234,-1.748312278576195
1789318185311967000,7.693967041015625,-7.569228801095485,14.161819724202156,-2.437439328858256
1789318185321920800,7.703920654296875,1.4473141927868127,-3.1431238384485245,-2.977802927866578
1789318185331874800,7.713874755859375,-2.185458371955156,-0.9471201070815324,0.7191811930883676
1789318185341828900,7.723828857421875,-6.846819951197505,-1.6606968312263488,-0.4866249214928597
1789318185351783700,7.73378369140625,-0.9204092102885246,-1.2510171291828154,-1.051138846091181
1789318185361737700,7.74373779296875,5.655843741479516,8.05626705262959,2.7414190608069298
1789318185371692000,7.753692138671875,4.0276469118416305,-6.2189160159021615,1.186170709132403
1789318185381645800,7.763645751953125,2.6126158630222083,-5.393136223378777,-2.685022343063354
1789318185391601000,7.773600830078125,1.9223019410431383,0.7306827572464942,-2.859422047635913
1789318185401555000,7.783554931640625,3.054368865674734,-2.1163445037186146,-1.7825648229204116
1789318185411508700,7.7935087890625,4.306879448285699,0.9697446113437413,-0.7800446079172193
1789318185421462800,7.803462890625,-0.8412608547717332,-4.5891497449904675,-0.5063231995774433
1789318185431417300,7.813417236328125,-2.5241268477082253,2.745299409371614,-0.4445115075804293
1789318185441371400,7.823371337890625,-4.395007229071855,2.756599971064925,0.30982027467042206
1789318185451325400,7.833325439453125,-3.0730384948313234,0.5485065734535456,0.67462403928563
1789318185461279500,7.843279541015625,-2.978541179013252,-1.8221528830736875,-0.8432643766138702
1789318185471233300,7.8532333984375,-1.1570073046207427,-1.4887269841492174,-1.9065923307359218
1789318185481188600,7.863188720703125,3.41053617323935,1.0163637391775846,-1.6959038998164235
1789318185491142400,7.873142333984375,-0.5201578463256359,0.8411895431011914,-1.060561777344346
1789318185501096400,7.883096435546875,-14.459586865246296,-2.3594179315447805,-3.972274568709731
1789318185511050500,7.893050537109375,-4.8706759453296655,-7.106932192108035,-2.582626382949948
1789318185521005300,7.90300537109375,5.516213736993074,-2.4314836353242395,3.273422535488009
1789318185530959400,7.91295947265625,13.559735289818049,3.634326223924756,4.1090740259453655
1789318185540913400,7.922913330078125,10.091161353629827,8.569230019015073,2.805142175915837
1789318185550867500,7.932867431640625,-11.0326682970047,-3.350768810018897,-1.963675861699879
1789318185560821500,7.942821533203125,-0.8919804036617278,-8.402529052251577,-5.57280539278686
1789318185570776600,7.952776611328125,8.033726719519496,2.778517203840613,-1.0981359403919428
1789318185580730400,7.96273046875,-3.0995494851380583,0.01611409945487976,0.3883827200580388
1789318185590684400,7.972684326171875,-19.46474726886749,-3.46173035390377,-4.102263469147682
1789318185600638500,7.982638427734375,-1.7312451161801814,-0.7104571308195591,-2.65615982119441
1789318185610593500,7.992593505859375,0.3552899402081966,1.9386638777792453,5.197724125915766
1789318185620547600,8.002547607421874,3.7661160363048314,4.102131367200613,5.083745864558219
1789318185630501600,8.012501708984376,5.898918922871351,10.78553361108899,-0.4302049690041691
1789318185640455400,8.022455322265625,-19.646561633610723,-1.936564275151491,-5.27794858623147
1789318185650410500,8.032410400390624,-8.530918116277455,-9.081987233695388,-7.0402458432793615
1789318185660364300,8.0423642578125,3.72314841671586,-5.380246931189299,0.7295912356827408
1789318185670318300,8.052318359375,6.246229554763436,-0.6695832686394453,3.8786259786754846
1789318185680272400,8.0622724609375,10.552789854097366,2.9112288072407244,1.0420042302601038
1789318185690226400,8.072226318359375,2.3962165071099997,5.931457502904534,0.54589909436889
1789318185700181500,8.082181396484375,-8.02308783660531,-2.7498908288151025,0.048650998987630006
1789318185710135600,8.092135498046876,2.9997815354406834,-7.560768431264162,-0.8993628420632332
1789318185720089300,8.10208935546875,12.551113543069363,1.0317466017484664,0.7123227785609663
1789318185730043400,8.11204345703125,11.78791734023094,6.376053035506605,0.9983829690679907
1789318185739998500,8.12199853515625,-13.78069508551359,1.0720341884732245,-1.3929925277516244
1789318185749952500,8.131952392578125,-14.886542696261404,-6.870664937165379,-6.264281344282627
1789318185759906600,8.141906494140626,-1.3339765674203634,-3.057349342790246,-0.6245201380759478
1789318185769860600,8.151860595703125,-9.36557504273951,-0.8622808464467525,5.077727627182006
1789318185779815400,8.1618154296875,-3.425655416437983,3.368172364762425,0.22574695690684018
1789318185789769500,8.17176953125,1.333085756060481,1.024613681128621,-1.478911546447128
1789318185799723300,8.18172314453125,8.36507230503857,3.063018620598316,1.2844574803613125
1789318185809677300,8.19167724609375,22.37242569015026,6.2584367099076506,0.4667641097903251
1789318185819631600,8.201631591796875,24.756919610762594,8.925144813123344,-1.5528072421327233
1789318185829586400,8.21158642578125,-1.0996809048116207,-6.59279667481184,-3.6469898906648157
1789318185839540500,8.22154052734375,-20.354120704901216,-22.87821248129606,-9.50431365134418
1789318185849494500,8.23149462890625,1.7983084816277026,-8.489639764949679,-1.5726957455597816
1789318185859448300,8.2414482421875,5.027677940377592,7.816116234251856,5.555155169805884
1789318185869403400,8.2514033203125,-4.335348586922883,-0.4440039964497089,2.1322733097344635
1789318185879357700,8.261357666015625,-9.499347553369402,7.83306210835576,-0.7046493213236331
1789318185889311500,8.2713115234375,-1.2622457946836947,2.3263047664940357,-2.5720734247535466
1789318185899265500,8.281265625,-3.9273043771266933,2.0382406888186932,-1.7439007457442581
1789318185909220400,8.291220458984375,-5.432790772897005,3.7333541689097878,-3.8814340218335386
1789318185919174400,8.30117431640625,-0.10990063665509223,-1.1259423042714596,-4.8346971617147325
1789318185929128400,8.31112841796875,0.8023936562389135,-5.191317181482911,-1.6047554560348392
1789318185939082500,8.32108251953125,6.267847512331604,-8.008580003303289,0.5467147216007113
1789318185949036300,8.331036376953126,14.223117365729808,7.069948907625675,2.208411669780314
1789318185958991600,8.34099169921875,8.272783312919735,2.5242905138373373,0.8781954047415405
1789318185968945400,8.3509453125,-0.8017880915611982,-1.1904396186232566,-1.733719835730642
1789318185978899500,8.3608994140625,-6.232806009566784,1.72378778591156,-2.462968030129373
1789318185988853500,8.370853515625,-7.8589067437082525,-1.8010931439101694,-3.290571823209524
1789318185998808300,8.380808349609374,-10.559942063939571,3.4839831022441383,-2.847610029289126
1789318186008762400,8.390762451171875,-9.065770258387923,-2.372947859725356,-1.9214362641245126
1789318186018716700,8.400716552734375,-0.9991039768189192,1.6224854662537573,0.5330547372996807
1789318186028670500,8.41067041015625,1.581877561533451,-1.1556319246143103,1.446258692384511
1789318186038625500,8.42062548828125,9.276831175881624,1.800767565217614,0.38128516301251947
1789318186048579300,8.430579345703125,7.195045944368839,8.042621973636747,-0.43131822747569526
1789318186058533400,8.440533447265626,-9.029281479424238,-8.877965128797292,-4.580493560326099
1789318186068487400,8.4504873046875,-1.5534370644688604,6.524940113160014,-2.6812513000920415
1789318186078442500,8.4604423828125,3.4502830772161484,-3.130750094565749,1.0054546610198913
1789318186088396500,8.470396484375,8.522190035420655,-5.460556147179007,1.9845675508201122
1789318186098350600,8.4803505859375,9.716964468377828,11.787872916567325,3.5691096553876993
1789318186108304400,8.490304443359374,-19.021696043097972,3.249925340044498,-0.6472353893615305
1789318186118258400,8.500258544921875,-7.701920530751347,-1.1469202103704212,-7.316223761841655
1789318186128213500,8.510213623046875,-0.012269114464521407,-11.462824969887732,0.4295989659350365
1789318186138167300,8.520167236328126,1.8414865290969609,-11.853783604848385,4.260206544438004
1789318186148121300,8.530121337890625,15.115980397444963,4.208284634020925,0.30796653656251727
1789318186158075600,8.54007568359375,17.040999196231365,6.390745577725768,1.7585075093761084
1789318186168030500,8.550030517578126,11.873996371793746,8.247623152700067,5.106147665980458
1789318186177984500,8.559984619140625,1.9217554130762815,2.8433114553123713,2.4677546798840164
1789318186187938600,8.5699384765625,-14.158198026573658,-5.0995104199230665,-0.584793801963143
1789318186197892400,8.579892333984375,-7.880437022992968,-2.5554548829078674,0.7652415910609066
1789318186207847400,8.589847412109375,-1.021842462849617,3.792388541680574,0.8979046060789376
1789318186217801500,8.599801513671874,-15.847076996189355,6.928370691680907,-1.376651195412129
1789318186227755500,8.609755615234375,-4.095133471137285,1.4702642757415771,-2.479477266381681
1789318186237709600,8.61970947265625,1.380675190231204,4.196998100852966,1.6897744571506976
1789318186247664400,8.629664306640626,-0.711111795336008,-2.15572315890491,0.9244418268054723
1789318186257618400,8.639618408203125,4.4197114622175695,-4.956436412462592,-1.1509823452427983
1789318186267572500,8.649572509765624,8.415449324101209,-0.6810077489733696,0.8233014197111129
1789318186277526300,8.6595263671875,8.420756782859563,0.3366635656714439,0.3285778378387913
1789318186287480300,8.669480224609375,3.950767085778713,3.2901673340618607,-0.6521282759696245
1789318186297435600,8.679435546875,-7.285474403312802,-2.6390122870385646,-0.27454616872612386
1789318186307389400,8.689389404296875,-10.118632713401317,-2.4194617736190556,-2.6266847203850743
1789318186317343500,8.699343505859375,-7.687973253941536,-3.4046681579887865,-2.8628815404400227
1789318186327297500,8.709297607421876,-3.845067407944798,5.540564334395527,1.3563679935790598
1789318186337252400,8.71925244140625,-0.38842648613452907,4.196382599303126,-0.5101640563819557
1789318186347206400,8.729206298828124,-5.310654924046993,7.690710569950938,-1.6924296478345988
1789318186357160400,8.739160400390626,-2.377604161098599,-0.6880494841784238,-2.5943811181515453
1789318186367114500,8.749114501953125,-1.0617278985142706,-6.291517141732573,-1.0558715006362647
1789318186377069600,8.759069580078124,2.7690251528739926,-5.046881238019466,-0.05861293248832226
1789318186387023400,8.7690234375,8.060514188680052,-4.367652773678302,-1.0316463562443852
1789318186396977400,8.778977294921875,9.779528184318542,6.253125159496069,-0.08341974922567605
1789318186406931500,8.788931396484376,2.455459554195404,-1.2718752082943916,-0.9749182145893573
1789318186416886500,8.798886474609375,0.5078361248910427,4.8609062464654444,-1.5450032903835176
1789318186426840600,8.808840576171875,-1.4614420868605373,2.0063596959114074,-1.3972303114518523
1789318186436794600,8.818794677734376,-11.712530383074283,-4.217947365379334,-1.0174131751652806
1789318186446748400,8.82874853515625,-12.926182534980773,1.7483984955549239,0.17542619807608426
1789318186456702500,8.838702392578124,-0.3644441375225782,-5.687453516229986,1.0679179122608153
1789318186466657500,8.848657470703126,7.602574605858326,2.948385694724321,3.6891593456134197
1789318186476611600,8.858611572265625,14.530639008069038,6.434527436307072,2.44485457355082
1789318186486565600,8.868565673828124,9.937449632298947,6.034286593738198,1.1213951623611151
1789318186496519700,8.878519775390625,-2.760108271446824,-2.9843560027718543,-1.552042249109596
1789318186506474500,8.888474609375,-4.46036612868905,-20.29275058265924,-4.59581241775006
1789318186516428500,8.898428466796876,3.8161353279709815,-1.1239157668799162,-0.6841565683931112
1789318186526382300,8.90838232421875,6.115060504630208,2.7058412592083214,1.7948570259995758
1789318186536336400,8.91833642578125,4.536543943962455,3.0353169592022895,1.9331036133036017
1789318186546291700,8.928291748046876,2.5589181751042602,8.911079462891816,0.7802147037871181
1789318186556245500,8.93824560546875,-4.405521024301648,-3.8088001627773043,-0.08899053509533404
1789318186566199600,8.948199462890624,-5.49710454737544,-5.239308766713738,0.6867581291936338
1789318186576153600,8.958153564453125,-0.2838976056456566,-5.007343592879176,1.0560076211713254
1789318186586108400,8.9681083984375,5.624700999718904,3.124662883606553,2.233068556652963
1789318186596062500,8.9780625,-3.576376723781228,8.004528682085871,2.1988901004582644
1789318186606016500,8.9880166015625,-10.631567038214206,-9.739763744685053,-2.462719608326256
1789318186615970600,8.997970458984375,0.762379041236639,-1.0315607237875462,0.31272695589736105
1789318186625924600,9.007924560546876,2.37743523427248,-4.75878559616208,1.995847069725394
1789318186635879400,9.01787939453125,3.709204062515497,8.705617096057534,0.8740065016843378
1789318186645833500,9.02783349609375,-25.67995916955471,9.33967020163238,-3.3277442005231976
1789318186655787500,9.03778759765625,-10.499659152412415,-10.299546914434432,-5.0766626282989975
1789318186665741600,9.047741455078125,1.5608955637812614,-1.2681646633386612,4.610208022849261
1789318186675696600,9.057696533203124,6.269933670955896,-5.882887241002917,2.3635525471314787
1789318186685650700,9.067650634765625,19.257900169676542,12.658567371094225,-0.7708192450627684
1789318186695604500,9.0776044921875,10.937599318778513,6.483094775599241,-0.498435843861103
1789318186705558500,9.08755859375,-8.666548821994661,-4.7868145898163315,-4.265913816168904
1789318186715513300,9.097513427734375,-8.821717171874642,-7.485940277034044,-7.747405101597309
1789318186725467400,9.10746728515625,-5.321816369530558,1.311084352132678,3.3166634190604087
1789318186735421700,9.117421630859376,-0.35224399664103984,5.972022153005003,2.2992793969243763
1789318186745375700,9.127375732421875,2.850616809889674,-3.3288620986372233,-1.3269197807766497
1789318186755330600,9.13733056640625,4.043302161613107,7.79712336449027,4.597251802903413
1789318186765284600,9.14728466796875,2.8406150558352468,5.727351226854324,3.094952804997563
1789318186775238400,9.15723828125,1.7611171073526144,3.57558937279582,-3.9440658345744013
1789318186785192400,9.1671923828125,-1.3843559245705603,-5.869293599936365,-4.603442181976139
1789318186795147800,9.177147705078125,4.571282079866529,-3.833150175657868,-0.5137918549576774
1789318186805101600,9.1871015625,8.098312881198526,6.160464411455393,1.3933648681953548
1789318186815055600,9.1970556640625,-6.6018298760950564,-6.335344593021273,1.218808657886833
1789318186825009700,9.207009765625,-6.700704676344991,-2.818570397287607,0.3371587287772447
1789318186834963500,9.21696337890625,4.445680016210675,4.164923046678305,0.30443215189129114
1789318186844918500,9.22691845703125,2.693337166944146,8.218723221430182,1.152979583474621
1789318186854872600,9.23687255859375,-3.284933525061607,0.28724808511734007,-2.044267547892779
1789318186864826400,9.246826416015624,-12.508663225352763,-1.9277455934017895,-7.039084398284554
1789318186874780700,9.25678076171875,-14.711267962419987,-4.352546389961242,-7.594119496724009
1789318186884735500,9.266735595703125,-8.300354625934363,-7.506852132159471,-0.16999827300952747
1789318186894689500,9.276689453125,0.16196517041325567,-4.693811311948299,5.04732196752429
1789318186904643600,9.2866435546875,12.116876907396316,-3.5449499043822286,3.9158807735756036
1789318186914597600,9.29659765625,19.38764883161783,5.378855184569955,2.1584351943425832
1789318186924552400,9.306552490234376,3.5292940700888633,3.6937913893282412,-1.1620813930146396
1789318186934506800,9.3165068359375,-11.691810251128674,-14.176919093656538,-9.267007701003552
1789318186944460500,9.32646044921875,8.41764829545021,2.9962691434055566,-5.93305090957582
1789318186954414600,9.33641455078125,7.322429046222567,2.1957810285270214,0.8967696837648749
1789318186964369400,9.346369384765625,0.7624082673311233,-3.5660756945192813,0.379985368992947
1789318186974323500,9.356323486328124,-7.598308765107393,-2.6276684707254168,1.8481430643767118
1789318186984277500,9.366277587890625,-3.626290216985345,5.071383226591348,4.8680222159504885
1789318186994231600,9.3762314453125,3.6316520362794398,4.829103579491377,2.718072964271903
1789318187004186600,9.3861865234375,-0.6297703136891126,-1.984996589887142,-0.07229377691429108
1789318187014140700,9.396140625,1.9124077390164136,4.986980603808164,-3.203274063506722
1789318187024094500,9.406094482421874,4.744312249651551,-0.8940957883805036,-4.836403088849782
1789318187034048500,9.416048583984375,7.7043346061557525,6.300328809219598,-0.6038224006252363
1789318187044002600,9.42600244140625,1.8795909265637396,5.668478766646981,2.5236145142719146
1789318187053957400,9.435957275390624,-9.583827917563914,3.0136335351824757,1.1904079813759774
1789318187063911400,9.445911376953125,-9.321452407896517,-1.1469780780375003,0.7659579226367175
1789318187073865700,9.45586572265625,-7.839923226296901,-10.428913299059868,3.902052739231288
1789318187083819500,9.465819580078126,1.0134113191127776,-4.0908787363022565,1.4061233736120164
1789318187093774600,9.475774658203125,7.960963681125641,5.916191544711589,-1.8453195313885806
1789318187103728600,9.485728759765625,6.267061914911866,7.354189043098688,-1.0010466353192924
1789318187113682400,9.495682373046876,4.9863984200060365,6.733781601038575,-2.1368642907865345
1789318187123636500,9.505636474609375,2.8473826502740383,-5.431820466560125,-3.0738068488553165
1789318187133591600,9.515591552734374,2.4667589468449354,-17.77781008096933,-1.038307421568781
1789318187143545600,9.525545654296875,10.589296753239632,-2.3095967927992342,0.7475773395545781
1789318187153499600,9.535499755859375,-6.983841234490275,13.569050230652094,2.4789807150363923
1789318187163453700,9.54545361328125,-20.242439614570138,-1.5737188049972057,-4.214460692307353
1789318187173408500,9.555408447265625,0.24577333443462848,-5.690127703875303,0.3648286433281377
1789318187183362600,9.565362548828125,5.035769476896524,-5.478058486121893,3.8559322085693477
1789318187193316400,9.57531640625,15.035499916541575,15.785546714949607,-0.5218399176610633
1789318187203270400,9.5852705078125,-13.683539364141225,16.801235331344603,-2.3845827679395675
1789318187213225700,9.595225830078125,-18.69248630056381,-6.342323784384131,-9.64743208246827
1789318187223179500,9.605179443359376,-2.197389048245549,-6.9807719100475305,0.32089448026195166
1789318187233133600,9.615133544921875,-1.9199194298207758,-6.669179657268524,7.537275911995768
1789318187243087600,9.625087646484374,8.51233441183865,0.25158991175889966,0.5151930635251104
1789318187253042400,9.63504248046875,14.009536574369669,8.593564834326505,-0.871483559077978
1789318187262996500,9.64499658203125,7.6069544283777475,8.386508476299047,2.65081641433984
1789318187272950500,9.654950439453126,0.5852829371869563,-9.224387287417054,-2.7167066443547605
1789318187282904600,9.664904541015625,4.0470080303937195,-4.1647412603706115,-4.659154424586892
1789318187292858600,9.674858642578124,9.493862984478474,6.530809881976246,0.34417138401828706
1789318187302813400,9.6848134765625,4.26433502254486,10.286320353114604,2.0689326180718837
1789318187312767500,9.694767578125,-30.225844357836245,-0.4598556455761194,-0.03536588501413353
1789318187322721500,9.704721435546874,-9.306257176852226,-4.820438626998663,0.026546408679988233
1789318187332675600,9.714675537109375,2.6986919719755647,0.8480155897289514,5.613858703187108
1789318187342630700,9.724630615234375,-1.6605547924071549,3.056152241960168,2.9895947802081704
1789318187352584700,9.734584716796874,-7.068117600545286,1.0007581737667322,-3.8045384136795994
1789318187362538500,9.74453857421875,-1.208904080596566,4.363754012674093,-5.187590854436158
1789318187372492500,9.754492431640625,5.068350727027655,4.365219409051537,-2.2719959609404206
1789318187382447400,9.764447265625,0.49550855823755263,-6.565358048266172,-0.4213027371568605
1789318187392401400,9.7744013671875,1.8887462929219005,0.3503098137080669,1.1550841545384376
1789318187402355500,9.78435546875,1.1840543015003204,0.8637678701341152,-0.3369367931222543
1789318187412309800,9.794309814453126,1.7895120117098091,5.001357504206895,-0.2859073380328715
1789318187422264600,9.8042646484375,2.311635605150461,3.907083426874876,0.8763036727108061
1789318187432218600,9.814218505859374,-1.2434709515869617,-1.0096212791800498,-1.412413121405989
1789318187442172700,9.824172607421875,-11.212535034811497,-8.129498877578973,-4.144297899539769
1789318187452126700,9.834126708984375,-3.1950907570511102,1.0757067395061255,-1.4644839387744664
1789318187462081800,9.844081787109374,0.7820861967474222,-0.16266308954954145,3.519970945948362
1789318187472035600,9.85403564453125,3.511613451969623,-2.421687632974982,4.837292146643996
1789318187481989600,9.86398974609375,8.523291274660826,7.954887576082348,1.8125997495695947
1789318187491943700,9.873943603515626,0.21819968333244322,-5.412609570133686,-0.3629210196085274
1789318187501898800,9.883898681640625,-5.085886383718252,0.4338263013064861,0.28730058248955753
1789318187511852800,9.893852783203124,0.14137012615203856,-0.5320727405250072,-1.6331309250392019
1789318187521806600,9.903806640625,0.1695323907971382,1.549329629150033,-1.0308299252949655
1789318187531760600,9.9137607421875,-1.3165291735351086,-1.4529431385844944,1.34642220749557
1789318187541714700,9.923714599609376,1.1699486192584037,-0.5511345838695764,3.7696985709667206
1789318187551669500,9.93366943359375,4.32696303589344,11.534774938333033,3.8387618780598043
1789318187561623600,9.94362353515625,-3.008103958106041,1.3148778991967438,0.3695918026093393
1789318187571577600,9.95357763671875,-1.9351362881749867,0.14438567458093166,-0.2964553277932107
1789318187581531600,9.96353173828125,3.1673253827691075,-5.759723802670836,0.425875561497733
1789318187591486700,9.97348681640625,7.041514840301871,-2.5284827048301697,0.918050226072222
1789318187601440800,9.983440673828126,0.7154699905455112,2.993081161019206,0.39795105113126333
1789318187611394600,9.99339453125,-12.854970233160257,-2.258415471616387,-1.858808543036878
1789318187621348600,10.0033486328125,-0.0316103592723608,-2.97384513015151,0.1245904023952782
1789318187631303400,10.013303466796875,-1.5545990939855574,0.8071230228483677,6.462144926550984
1789318187641257700,10.0232578125,-1.1820359474152327,0.24710312173366544,4.4765369267672295
1789318187651211800,10.033211669921876,-0.9346107541203498,8.69687790928483,2.3273892007298764
1789318187661165800,10.043165771484375,-6.915762554520368,2.997596008095145,2.815994993841648
1789318187671120600,10.05312060546875,0.18478607403039932,-1.2564175269216298,1.2925455097489058
1789318187681074700,10.06307470703125,-1.838515404331684,-6.941283949267864,-0.17225684732496738
1789318187691028500,10.073028564453125,0.5959884555965662,-6.160135910153389,-0.86315748315081
1789318187700982500,10.082982421875,8.50420312783122,3.7515468282043933,-0.735181529970467
1789318187710937900,10.092937744140626,6.077279932290315,-5.407929887884855,1.0222373073861002
1789318187720891600,10.1028916015625,4.392961402457952,-0.6737409728407859,3.599506839478016
1789318187730845700,10.112845703125,1.799635930839181,4.638089424726367,2.3470986943282184
1789318187740799700,10.1227998046875,-12.648401366388796,-1.612251072487235,0.9171182059191166
1789318187750754600,10.132754638671875,-8.498172030973434,-3.4744285074353214,0.266031986348331
1789318187760708600,10.14270849609375,-0.25791268503963943,4.158960923403502,0.9770774384498596
1789318187770663000,10.152662841796875,-4.447503139984607,1.0746119300067425,-1.4800971029698848
1789318187780616700,10.16261669921875,1.512756679034233,2.9230922635138032,-3.84111019475162
1789318187790571800,10.17257177734375,2.7127497234225273,3.739289988699555,-1.8956236313454806
1789318187800525600,10.182525634765625,2.0294296058535575,-1.8630723379611969,-0.7990564746402203
1789318187810479600,10.192479736328124,5.013294610238075,-3.9114877993136643,-0.8907270425997674
1789318187820433700,10.20243359375,7.367004685530066,-4.16301166009903,0.960971376170963
1789318187830387700,10.2123876953125,9.554862519842386,5.024376560744643,3.7911569540590047
1789318187840342800,10.2223427734375,4.885186116719246,4.08214364118278,3.33822964644134
1789318187850296800,10.232296875,-4.627635250729322,1.3809224429905413,1.0429593390278518
1789318187860250600,10.242250732421875,-5.100975816300511,1.8237492123544214,-1.4120729296661914
1789318187870204700,10.25220458984375,-3.951747913509607,3.3960406148970126,-0.531724365478754
1789318187880159700,10.26215966796875,-9.11010682824254,1.9736767389714718,0.8490443482547998
1789318187890113500,10.272113525390624,0.07058686339855194,-6.350953081041574,0.869618641988933
1789318187900067600,10.282067626953125,10.570050785499811,-2.2770465223282574,3.2941403293460607
1789318187910022000,10.29202197265625,22.17840650835037,5.694046338623762,4.533049672105908
1789318187919976700,10.301976806640624,0.6366495518088341,16.96948411207199,3.81138258048594
1789318187929930800,10.3119306640625,-34.900240190696714,-18.064812666893005,-10.72598252096772
1789318187939884500,10.321884521484375,-4.856383216083049,-19.464146380364895,0.9063070351779461
1789318187949838600,10.331838623046876,9.217495189815759,-3.4461481693685054,3.981132997947931
1789318187959793700,10.341793701171875,12.900174818021059,3.8893911183178425,-0.6320471725799143
1789318187969747700,10.351747802734375,-15.291458544903993,22.69856084754467,-0.4127582327060401
1789318187979701800,10.36170166015625,-14.54458453131318,-4.408846369332075,-8.718058644479513
1789318187989655800,10.37165576171875,-0.6853758810549974,-14.746292514050007,-0.4576110815197229
1789318187999609600,10.381609619140624,3.8017110812991857,-14.030451936626433,6.437672164073586
1789318188009564700,10.391564697265625,18.02328823184967,7.42380501563847,2.7812375687152144
1789318188019518700,10.401518798828125,10.49235496687889,6.9365154196918,1.2450393699474631
1789318188029472500,10.411472412109376,-3.060023530435562,-13.338324243223667,0.6963458956196904
1789318188039426600,10.421426513671875,2.856899835681915,-1.7756699488401413,1.7030556712672114
1789318188049381600,10.431381591796875,-6.51618105264306,-2.0280366901904343,4.869040745343268
1789318188059335700,10.441335693359376,-12.752549138605595,-0.18670096774101255,3.5715374670565128
1789318188069289700,10.451289794921875,1.1953040097892285,5.736662660557031,-0.7254578622050583
1789318188079243800,10.461243896484374,0.6837491566359997,3.016731501197815,2.8153841684669256
1789318188089198600,10.471198486328126,-0.2730290056288242,7.88834092798531,3.8151901560753583
1789318188099152600,10.481152587890625,-3.8336604632675644,8.772361312553286,-2.0443346217796203
1789318188109106700,10.491106689453124,-11.562034701180457,-2.0242209312945603,-3.3610236620515583
1789318188119060700,10.501060791015625,-1.6843641225397585,-9.4234812882632,3.854776901054382
1789318188129015800,10.511015869140625,6.855611160418391,-3.155361973252892,4.299433808454871
1789318188138969600,10.520969482421876,10.582594625252485,2.775941800394654,2.6496786424815655
1789318188148923600,10.530923583984375,7.459285494342446,2.0401497373104096,3.4052442043110727
1789318188158877700,10.540877685546874,4.800028291654587,0.8244260398268699,1.1547003428526221
1789318188168832800,10.550832763671876,2.219481637588143,3.668564009091258,-0.7457815421789884
1789318188178786800,10.560786865234375,-8.213810314947366,4.366011436212062,-0.028047113832831382
1789318188188740600,10.57074072265625,-12.664288671350478,6.218813724571466,1.3511283393599092
1789318188198694700,10.580694580078125,-8.97233794145286,-5.140235229021311,3.376263316759467
1789318188208648700,10.590648681640625,-6.796369866898655,-8.562795017531514,3.606739128819108
1789318188218603500,10.600603515625,2.746439227056503,-4.505466084131598,1.1772075043454766
1789318188228557600,10.6105576171875,9.41179026594758,2.9773429091393946,1.0665449434071779
1789318188238511600,10.62051171875,12.068057639169693,-0.31558219919800756,-0.7368889184102415
1789318188248465700,10.630465576171876,8.322041557085514,-7.893219932198524,-3.666802844637632
1789318188258420700,10.640420654296875,3.486494208282232,-4.703195810887217,-2.6528859140902754
1789318188268374800,10.650374755859374,-0.6778367177218199,-7.979619866278767,2.355419655688852
1789318188278328600,10.66032861328125,-1.271607497268915,6.130630414205789,6.9651762815088025
1789318188288282600,10.67028271484375,-6.629870560187101,9.336813643157482,6.8665610089778895
1789318188298237400,10.680237548828124,-8.894795852088928,-1.506630305108428,1.6356091517210005
1789318188308191700,10.690191650390625,-8.162745313620567,2.3371067310154436,-1.2942509984925388
1789318188318145800,10.700145751953125,-9.24589827747941,-0.6410048244088887,-3.0939412898674608
1789318188328099800,10.710099853515626,-7.345898184615373,5.858211649429798,-4.370266755568981
1789318188338054700,10.7200546875,-4.202437661558389,-8.356211537712811,-2.5751041707515716
1789318188348008700,10.7300087890625,3.5391163759231565,-14.207548040676116,2.420492285710573
1789318188357962500,10.73996240234375,17.406877165949343,3.6092759538203474,7.9995450484544035
1789318188367916500,10.74991650390625,21.961326768958568,4.392393831703067,10.494026699483394
1789318188377870600,10.75987060546875,10.621258410167693,1.5622984163165092,8.058065626484154
1789318188387825700,10.76982568359375,-13.91208508492112,-3.9952614765435457,0.7087725387334823
1789318188397779700,10.77977978515625,-14.213945048236846,-9.497292958927154,-3.819843534839153
1789318188407733800,10.789733642578126,2.4079694887459278,5.316233016440272,2.1518021860688923
1789318188417687600,10.7996875,-7.529224122965336,0.7319798113197088,-0.38136400040239093
1789318188427643400,10.809643310546875,-6.410704662171006,10.912593472337722,-1.9467296953350304
1789318188437597200,10.81959716796875,-0.6814800426602363,6.172308578506112,2.5647204316422343
1789318188447551200,10.82955126953125,1.3580220443964004,-8.229367949563265,3.1753520373582838
1789318188457505300,10.83950537109375,11.92197743563056,-1.2585755817383526,2.2080054270669818
1789318188467460000,10.849460205078126,12.165428464597463,-0.2175999638736248,1.6740943651989102
1789318188477414100,10.8594140625,-2.555977445477247,-7.88990803117156,-2.5541283104792236
1789318188487368200,10.8693681640625,-0.34540859766304494,-10.3702518512547,-7.272726565420627
1789318188497322200,10.879322265625,7.066001046782731,3.7305513864487407,-1.0872928401425481
1789318188507277300,10.88927734375,6.307166546285152,6.023250235939026,3.91243735512346
1789318188517231000,10.899231201171874,3.676239950546622,4.603392205354571,1.8310558821059761
1789318188527185200,10.90918505859375,-6.864735547116398,-1.0261936437964438,-0.2167258113875985
1789318188537139200,10.91913916015625,-10.22903486983776,-1.1147229911208152,-0.5424709465511143
1789318188547094000,10.929093994140626,-11.66022035012245,3.795893334931135,-1.4710330681569874
1789318188557048300,10.93904833984375,-11.098338162267208,-6.734286627951264,-0.2364532790340483
1789318188567002400,10.94900244140625,4.146983485361933,-3.898205708414316,2.075874838425219
1789318188576956200,10.9589560546875,13.631146329081057,0.9631400985121726,1.1153906612493096
1789318188586910200,10.96891015625,16.464361337792873,-2.5660090101480484,3.0023765203699466
1789318188596865300,10.978865234375,9.502631981867552,5.168043857923149,4.216047084715962
1789318188606819000,10.988819091796875,-7.386099846622347,-5.883033955997228,-2.6885651302367446
1789318188616773000,10.998773193359375,-12.926493500626087,-10.781001228356361,-4.952938048952817
1789318188626727200,11.00872705078125,-1.8124018889099358,1.7918273029148577,3.7149604340851305
1789318188636682200,11.01868212890625,2.794913042846322,2.74226749432981,2.532107325068116
1789318188646636300,11.02863623046875,1.7561983556509018,8.464508246302604,2.3395197835065424
1789318188656590300,11.03859033203125,-8.17488057257235,7.147903084921836,2.5585078407377004
1789318188666544000,11.048544189453125,-6.210727448749542,-0.8262351350754499,-1.5308542073912919
1789318188676499200,11.058499267578124,-8.336435993140935,-4.187747457426786,1.1280765398211776
1789318188686453000,11.068452880859375,1.6608055522978304,-6.55088937793076,2.0256560786642135
1789318188696407300,11.0784072265625,11.920947508060932,5.09389141099751,-0.49856107767596836
1789318188706361300,11.088361328125,9.00018397975564,3.184132725185156,-0.18011632865369318
1789318188716315400,11.0983154296875,1.2537848403304814,-0.904358239197731,1.5496851645894347
1789318188726270200,11.108270263671875,4.849432081770897,0.26517595404088495,-0.7675307249113917
1789318188736224300,11.118224365234376,8.058637873414158,4.451607652693987,-1.0483328487597405
1789318188746178000,11.128177978515625,-2.4642811585545537,5.374267272257804,0.40986894100531934
1789318188756132000,11.138132080078124,-23.03776591439247,-1.433394973027706,-3.8421348616242406
1789318188766087200,11.148087158203126,-1.9134329904109237,-1.371495273953676,-3.4322073222994804
1789318188776041200,11.158041259765625,-1.7599252672195433,0.3530547285020351,3.9659342597723004
1789318188785995300,11.167995361328124,-0.08790215533673763,0.9483791672319173,2.3068363881751894
1789318188795949300,11.17794921875,4.222587300139665,4.924264327654242,-0.7460353708095848
1789318188805904100,11.187904052734375,2.559232063359022,1.373705351218581,-0.6318399595700204
1789318188815858200,11.197858154296876,2.3934885434508324,-0.9553495907664299,-0.3265546979807317
1789318188825812200,11.207812255859375,1.4655185425192117,-7.825137745097279,-1.183002308229357
1789318188835766300,11.217766357421874,2.379014612418413,-5.981057107853889,0.15041940178722144
1789318188845721300,11.227721435546876,2.388914075142145,-0.5099824892699718,1.068190810918063
1789318188855675100,11.237675048828125,-6.582438946926594,4.959992643639445,1.3960270731419324
1789318188865629200,11.247629150390624,-4.37138728403151,1.6963988437265156,2.1659145903125405
1789318188875583200,11.257583251953125,1.8063772217929361,0.21430735206902027,2.585232181534171
1789318188885537000,11.267537109375,3.4564906996846196,-7.718955252182483,0.4798586422283202
1789318188895492400,11.277492431640624,2.0091525415003297,4.377648682513833,0.5036703835137188
1789318188905446400,11.2874462890625,-17.204592844629286,-0.021440847435593605,-3.2828868216648694
1789318188915400200,11.297400146484375,3.473431897613406,-7.222988428783417,-6.619134646639227
1789318188925354200,11.307354248046876,8.706420813655853,2.8504373616695404,0.13923947079889476
1789318188935309000,11.31730908203125,1.3238193305432795,-6.045422904780507,0.854551786564663
1789318188945263000,11.32726318359375,-8.18901664995253,1.5269173063337802,-1.2741916685432195
1789318188955217200,11.337217041015625,3.784972127944231,-3.7634897794544693,-2.7696368550315498
1789318188965171200,11.347171142578125,16.929933022928235,6.367177655133605,0.5852981347560883
1789318188975126300,11.357126220703124,14.621408243274688,7.219588849472999,1.4432131872087717
1789318188985080300,11.367080322265625,-11.985449498587846,-0.2351543252646923,-3.057361910010874
1789318188995034000,11.3770341796875,-16.752510755664108,-5.334035215112567,-10.462301189398765
1789318189004988200,11.38698828125,6.708768155813217,-1.6901941438674926,-3.0315389019683003
1789318189014943200,11.396943115234375,3.751549166291952,1.1424719987899064,5.320981672272086
1789318189024897000,11.40689697265625,2.677106163111329,0.32566052561998365,2.4264760362952944
1789318189034851300,11.416851318359376,2.5044237838506698,6.004267887571454,-1.5036346304237842
1789318189044805400,11.426805419921875,1.2042565470516682,-0.16012275741696358,-3.474146183362603
1789318189054759200,11.43675927734375,3.705574766102433,-3.38176016061008,-3.7852339937508104
1789318189064714200,11.44671435546875,4.563444225847721,-1.8342092315703629,-2.891911820091307
1789318189074668300,11.456668212890625,0.8264116606861353,-3.0278251421421762,-3.6755233267098664
1789318189084622000,11.4666220703125,-11.104011531728505,0.1081195984572172,-2.8772873746722936
1789318189094576000,11.476576171875,-5.769879285982251,-0.4356476715147495,-0.4078664786091074
1789318189104531200,11.48653125,1.225176585483551,-2.12140704780519,2.555956987211108
1789318189114485200,11.4964853515625,6.513635459813475,3.469205219829082,1.5399116663329302
1789318189124439300,11.506439208984375,8.350368072381615,7.229305941367149,-2.0068740751743315
1789318189134393000,11.51639306640625,-8.485840957188605,-0.8721528366416692,-3.277184810630977
1789318189144348200,11.52634814453125,-3.385569489765167,-4.619091294267774,-4.741322712446749
1789318189154302200,11.53630224609375,9.522735443219542,-4.176297842651605,-1.860650517641753
1789318189164256000,11.546256103515624,1.7956775486022234,4.512155937159061,3.5639915817216035
1789318189174210300,11.556210205078125,-20.028516293382644,-8.129332288840413,-1.531240722490847
1789318189184164400,11.566164306640625,-1.4712965413987635,-2.0092145008206366,-2.027776870210469
1789318189194119200,11.576119140625,6.19612843003273,4.339018799868226,2.935522998280823
1789318189204073200,11.5860732421875,6.775387284624576,-6.210903974360227,-1.3914752550564706
1789318189214027300,11.59602734375,8.687623758727312,14.692903453689812,-3.1108944704949852
1789318189223981000,11.60598095703125,-13.358714704823493,-7.431615397128462,-6.287267083072662
1789318189233936400,11.615936279296875,-2.356744328421354,1.5830302386999129,-4.890313250474631
1789318189243890200,11.62589013671875,0.7486907076239585,4.712513674330711,4.033217405450344
1789318189253844200,11.63584423828125,-2.133545813888311,-13.308113813877105,4.764751811090111
1789318189263798300,11.64579833984375,8.53186153460741,1.9369956523060798,2.104096432042122
1789318189273753000,11.655753173828124,6.872206321388482,6.582643529587983,0.7429961492441595
1789318189283707100,11.66570703125,-12.157275553280114,6.63136518265903,-3.2844758444219826
1789318189293661200,11.6756611328125,-2.7755232827216387,-6.395898138183355,-8.076431888779997
1789318189303615000,11.685614990234376,1.9892852269917725,-4.107915795820952,-3.1164164487868544
1789318189313570300,11.6955703125,3.601751988056302,1.9356909994482994,1.9496058352932333
1789318189323524400,11.7055244140625,4.253946314999461,3.7207454472273587,2.049622060663253
1789318189333478100,11.71547802734375,-2.433668578147888,3.996038306134939,3.2899817483618854
1789318189343432200,11.72543212890625,-1.3698597817063332,1.0807494098484516,1.5950953550249338
1789318189353386200,11.73538623046875,-0.7456506092756986,-4.512710063910484,-0.8792517088614403
1789318189363341000,11.745341064453125,-2.2887328684687613,-7.158091885980963,-1.738317100393027
1789318189373295400,11.75529541015625,1.9201205053508281,-0.8476274671941995,-2.5265686879023908
1789318189383249400,11.76524951171875,3.6218332375764843,6.775013775137066,-1.6877961428150534
1789318189393203200,11.775203125,-4.593979649364948,5.569229872387647,0.3036732963480055
1789318189403158300,11.785158203125,-0.599015694463253,-3.47081323954761,0.7104390106409788
1789318189413112000,11.795112060546876,1.3876450292438267,0.07451368145346642,2.94032192299515
1789318189423066000,11.805066162109375,-0.6619160950124263,1.9393518600434063,2.3811430027492344
1789318189433019400,11.815019287109376,-4.661534013199806,-5.065646728765964,0.14353567015547306
1789318189442974200,11.82497412109375,-0.8514064012110233,-3.7848330117344853,-0.7345441088497638
1789318189452928300,11.83492822265625,6.388696828502416,4.523244317406416,-1.608276615898311
1789318189462882300,11.84488232421875,2.8912475109636784,-0.9092711456805467,-2.8606203175097704
1789318189472836400,11.85483642578125,-0.9656862758636474,-1.4048428322821855,-3.5865479891836642
1789318189482791400,11.86479150390625,-1.5763234345376491,-5.895596500450372,-2.9140128850013016
1789318189492745500,11.874745361328126,-1.4584446586102247,0.44184126545786856,0.5938732535408809
1789318189502699300,11.88469921875,-6.5386641026079655,2.8269740684956313,1.7519520963832735
1789318189512653300,11.8946533203125,-2.1635610129237173,-3.1722289369016883,-0.7407544347319751
1789318189522607400,11.904607421875,4.151434619551897,7.187666940033435,-0.42486024697534736
1789318189532562200,11.914562255859375,2.920089574566483,6.935299029639363,-0.7343833653301001
1789318189542516200,11.92451611328125,-7.309720371297002,-3.510215275609493,-4.323173580482602
1789318189552470500,11.934470458984375,-6.2323787240654225,-4.251670771282911,-5.703012904411554
1789318189562424300,11.94442431640625,-3.0377246048659083,-5.933651213556527,-0.7208772564165293
1789318189572379400,11.95437939453125,2.198530619496107,2.253464571210742,5.436540480819344
1789318189582333400,11.96433349609375,10.757848316305875,-2.2118325841397044,5.629502847042679
1789318189592287200,11.974287353515624,16.868789695179462,7.58738522003293,5.031158768230676
1789318189602241300,11.9842412109375,7.1790353052884335,5.282650480312109,2.4358184496581554
1789318189612196400,11.9941962890625,-14.905923104035853,-9.195090465784073,-3.049997226461768
1789318189622150400,12.004150390625,-3.4708459727734327,-4.72368797929585,-4.776695639123022
1789318189632104400,12.0141044921875,6.8090645132988685,-3.9860201854676007,-1.1326922169230877
1789318189642058500,12.02405859375,4.272145404034853,4.526899332782626,1.7605971751317382
1789318189652013300,12.034013427734376,-15.780589969325066,2.4640268915325403,0.329350575776957
1789318189661967400,12.04396728515625,-2.047512375032902,-4.10314434363544,-1.3932333507701753
1789318189671921200,12.053921142578124,11.148866572499275,1.9649790532529352,3.25941505292356
1789318189681875200,12.063875244140625,14.813781411433219,0.022183190235495566,3.242847656743228
1789318189691829500,12.07382958984375,12.284037308365106,3.397375078371167,0.01601798213664442
1789318189701784300,12.083784423828124,-17.802388057386874,-3.894773980399966,-3.2140470941945907
1789318189711738400,12.09373828125,-13.198992929422854,-13.562107279646396,-8.484017833414674
1789318189721692400,12.1036923828125,-2.8026860149353743,2.560953480324149,3.0416031998649236
1789318189731646200,12.113646240234376,-5.822769164648652,-4.59281937341392,3.7026872279673815
1789318189741601300,12.123601318359375,3.0281495517909525,2.525480600404739,-1.463983003515005
1789318189751555300,12.133555419921874,2.3841496372193096,6.691722912988066,1.0250464465226978
1789318189761509400,12.14350927734375,-2.0277754089057445,-5.394387684744596,-0.3962427859086543
1789318189771463400,12.15346337890625,1.687688883048296,-3.260138691022992,-2.43218666902706
1789318189781418200,12.163418212890624,10.368064570343494,-1.813733429774642,-0.4511969036284834
1789318189791372300,12.173372314453125,16.76914040342569,3.561013150432706,1.4841637678869068
1789318189801326300,12.183326416015625,6.112468734571338,-3.45039121376574,1.4529631584592162
1789318189811280100,12.193280029296876,-10.1870755505085,-9.522034016951919,1.4326448853127658
1789318189821234200,12.203234130859375,-1.6591981171011925,-5.324934209290147,0.04236363038041163
1789318189831189500,12.213189453125,7.766703676307201,12.14907704925537,0.4273043887244537
1789318189841143300,12.223143310546876,-9.506526066696644,8.504908645752073,-0.6608040421172976
1789318189851097300,12.233097412109375,-39.689499251055715,9.925343014919758,-4.206166034431755
1789318189861051400,12.243051513671874,-5.859973398405313,4.6683974692285055,-0.20348039923682806
1789318189871006200,12.253006103515625,-8.018655991637706,-11.37873915796876,3.132214029638469
1789318189880960300,12.262960205078125,2.0031699599593877,1.4747206706285476,1.0017086063593625
1789318189890914600,12.27291455078125,13.28195879740119,11.653333513218163,3.3317037518039343
1789318189900868400,12.282868408203125,17.18476352404356,6.495233541682362,1.7610155466742812
1789318189910823400,12.292823486328125,15.011035337370632,-6.902663418972492,-4.106627217315137
1789318189920777200,12.302777099609376,9.540907059726118,-11.564164698946476,-5.001404265958071
1789318189930731300,12.312731201171875,7.2427154580384485,0.8706833486109972,-2.085509512732923
1789318189940685300,12.322685302734374,0.5349105942994355,4.842407882222533,-2.6829309237420556
1789318189950640400,12.332640380859376,-17.767648752439023,2.9854689324498174,-3.655867316864431
1789318189960594400,12.342594482421875,-9.943694664168357,3.090973379972577,-1.2711248283185064
1789318189970548500,12.352548583984374,-0.14078209713101386,-5.808406877297163,2.7570389470040797
1789318189980502300,12.362502197265625,4.198212737339735,4.961833303070068,2.6020009455054995
1789318189990456300,12.372456298828125,2.5435481720149515,11.082345643365382,-0.6071200539311393
1789318190000411400,12.382411376953126,-11.1347188046813,-3.1406898892998694,-3.9961376748561857
1789318190010365200,12.392365234375,1.6766519407272338,-5.83207884478569,-2.924324143396318
1789318190020319200,12.4023193359375,2.7609967447191477,-9.442290618151425,2.827156439325213
1789318190030273500,12.4122734375,6.869743730667233,-6.137685593414306,3.2216216211020945
1789318190040228400,12.422228271484375,15.009650020492076,10.71425584281683,1.0009409099224955
1789318190050182400,12.432182373046874,10.097080222284793,7.553468337383866,1.2006075230248272
1789318190060136200,12.44213623046875,-8.531574534359574,2.8198323800474405,-0.9203115951329469
1789318190070090200,12.45209033203125,-13.492211321121454,-5.490209527164697,-7.961984840866923
1789318190080045300,12.46204541015625,-5.905289042425156,-1.6611451595157385,-3.722012690684199
1789318190089999400,12.471999267578125,-6.254748376783728,0.25964286983311174,2.58207313298136
1789318190099953400,12.481953369140625,0.5868471177637576,-2.447126610136032,-1.3231382164113223
1789318190109907500,12.491907470703126,3.8661902754724022,-1.9826216774493455,-0.34940208774600173
1789318190119862300,12.5018623046875,3.691682434350252,-4.474873377469182,1.4643324014745651
1789318190129816300,12.51181640625,2.5384862124502656,-0.6687222678959369,-2.070279502636194
1789318190139770400,12.521770263671876,-1.2665133890002964,-2.7576386664628982,-3.5313223610460756
1789318190149724200,12.53172412109375,-0.8218564815998077,-4.390874659311772,0.29938951808158304
1789318190159678200,12.54167822265625,5.442812985217571,6.650590692132711,0.5886833202149718
1789318190169633300,12.55163330078125,0.5453302815049886,-1.1344488513320683,-0.3164790019072592
1789318190179587300,12.56158740234375,-7.986883135280013,10.692848313128948,2.3801154132671654
1789318190189541400,12.571541259765626,1.3569997156113385,6.356810574898123,-1.6534353157907724
1789318190199495400,12.581495361328125,-3.698450613310933,-0.7260521748363972,-1.6752866437233984
1789318190209450200,12.5914501953125,-8.89283244306147,-5.092581497442722,0.6925336438551545
1789318190219404300,12.601404296875,2.175192414006591,-7.897273006981611,0.14651320639522744
1789318190229358300,12.6113583984375,10.798469080507754,1.8114836050212382,1.7196690985463559
1789318190239312400,12.6213125,10.073126515245438,-0.09393091410696507,1.1808224799722433
1789318190249267500,12.631267333984376,4.6596986144661905,1.4865151533186436,-1.4839856348410247
1789318190259221200,12.64122119140625,1.1617132903546095,2.0209768348068,-4.580533600075543
1789318190269175300,12.65117529296875,-1.6371382609844207,-1.2137392456680536,-5.398310411146283
1789318190279129300,12.66112939453125,-3.720226976311207,-3.4861715521991252,-3.420659215585887
1789318190289084400,12.67108447265625,-3.2477637780964375,-2.3397815031826497,-1.842165451271832
1789318190299038500,12.68103857421875,-6.636826955196261,9.293820889127254,0.7269706779208034
