seconds_elapsed,z,y,x
0.0,0.1267270594835281,-0.1055956706404686,0.0535583011806011
0.01,0.05777922136525039,-0.08937402024152681,0.0464949095133326
0.02,0.05962089812858873,-0.08109486731190883,0.0198827682770018
0.03,0.025625938060931632,-0.09424830746733516,0.02547767423792187
0.04,-0.01042336663244244,-0.05427393890903973,0.020924191029217467
0.05,0.0016517545405211513,-0.023018605989875682,0.08981093574542323
0.06,0.029423224847283352,-0.013555499299462712,0.15476553973536142
0.07,0.07675354556704272,0.0011358109198564028,0.13740329706103135
0.08,0.07649823323242089,-0.012795443302392639,0.1511871122185489
0.09,0.05346289216890125,-0.014354700613119446,0.1582755413404134
0.1,0.0012445592873460227,0.01980361209222634,0.14182730673853272
0.11,-0.05048171406568037,0.0359973302533221,0.08857619387997491
0.12,-0.10323540741210366,-0.0034403625142187784,-0.037793969164194446
0.13,-0.14158901854803527,0.026459886616337858,-0.07066637487622447
0.14,-0.2056334416353197,0.020372624238900724,-0.06194669366979225
0.15,-0.30979386412585624,0.010058139509657447,-0.030421268072534622
0.16,-0.3120683995766649,0.11008866525588826,-0.07706769398094367
0.17,-0.3354591258181423,0.11169676752210195,-0.1280675520994131
0.18,-0.31627877195076726,0.1456786342484616,-0.10120267470248705
0.19,-0.32380370980341655,0.1656867877272506,-0.046977124533404434
0.2,-0.2897777016762693,0.22022774512052976,0.07820550519098902
0.21,-0.23183297240096373,0.057337473318391036,-0.04148293086428691
0.22,-0.22717018530321695,-0.0644440171392865,-0.14711682381814045
0.23,-0.2832482826970547,-0.001577878579120574,-0.08714729066519454
0.24,-0.3161253655102472,-0.020643790172757453,-0.0803902246569749
0.25,-0.3429191919253617,-0.06536713770721697,-0.12881845393825203
0.26,-0.36079561710357666,-0.055666860904371424,-0.20618490333889156
0.27,-0.339120464468935,0.1540520906178333,-0.10537472902763113
0.28,-0.32514940149114957,0.2403857620807534,-0.017690999500712547
0.29,-0.3068442255938005,0.20650086706158846,-0.03262041275594632
0.3,-0.3270540368888808,0.09600343873896548,-0.07918707329711759
0.31,-0.3360045844135057,0.10382096281012337,-0.05413427798821439
0.32,-0.3777776707793357,0.03207239775479695,-0.13928516907800711
0.33,-0.43125036505252134,0.00695431458899021,-0.19463541339654392
0.34,-0.4839462812277531,0.023823638540600028,-0.21484928658118813
0.35,-0.4826475333407452,0.1021439166921236,-0.20477926085060041
0.36,-0.4512746978388517,0.1095487586044426,-0.21104767637300068
0.37,-0.3989201783365252,0.11942179955513713,-0.20661589746552597
0.38,-0.36401353946680276,0.12770986168805842,-0.15353119182538363
0.39,-0.3146063023138552,0.040059200274763916,-0.1550773425708423
0.4,-0.28375842040625554,0.02907396423104529,-0.11826896361516105
0.41,-0.26777309041747915,0.0366023354754952,-0.1382014799093823
0.42,-0.21609784461618825,0.09963582178714418,-0.15901016821265293
0.43,-0.19849940553633894,0.10463407090944417,-0.1281393882643154
0.44,-0.21693394558925588,0.07730461901883279,-0.06922380806647357
0.45,-0.2616637009224847,0.071362343212051,-0.06082849133180011
0.46,-0.25634948455239354,0.06385112479417894,-0.12435002136755487
0.47,-0.25360740710456436,0.033806815738011246,-0.16456525780804976
0.48,-0.20215771326274845,0.03609115754244299,-0.1319740503308223
0.49,-0.15426108890113607,0.0201532897788738,-0.08416759343082372
0.5,-0.11177392708808176,0.015553858332346937,-0.07491869419552095
0.51,-0.07289084658077799,0.061192140567658836,-0.06095064902802886
0.52,-0.04551615619508204,0.07061256416498238,-0.06096102707192236
0.53,-0.042926198139367135,-0.009785301707801295,-0.09023193694008692
0.54,-0.06606361813094846,-0.04320318674801148,-0.1017964959685537
0.55,-0.11948901489529015,-0.039004682747987345,-0.11595000404228477
0.56,-0.12773675343068497,0.043774093992971524,-0.12664348852882637
0.57,-0.14095818031131965,0.11372269655409623,-0.09591428162730932
0.58,-0.14608172910415448,0.1409112144453841,-0.12916337943303968
0.59,-0.1331210396816754,0.17447335356698127,-0.10664570577599342
0.6,-0.1255619361178318,0.08412906834739727,-0.08479371938967467
0.61,-0.09192041637851393,-0.028951564915036115,-0.11007107276932088
0.62,-0.06849004775002798,-0.0450709899110581,-0.13417271190610028
0.63,-0.031107708983254934,-0.015212664163027653,-0.15610751259277303
0.64,-0.0039756813668557775,-0.051376377105289216,-0.11663268733625329
0.65,0.01940996361503002,-0.025925837370439957,-0.08651129543917804
0.66,0.0392537976747904,0.05355067423279074,-0.11883998222956924
0.67,0.027000752655831083,0.10690974483312919,-0.057081933242224644
0.68,-0.025723248182887237,-0.005748053047632143,-0.06931877411754414
0.69,-0.07738187575168742,-0.0034020448962274645,-0.10795198235452456
0.7,-0.13508703381257864,0.0062511736319747655,-0.10810497988314578
0.71,-0.11808309434865584,0.018963249144087334,-0.16842030165512908
0.72,-0.06368818951194194,0.09354896526224887,-0.1624262199297101
0.73,0.028669089778202053,0.14162838448971665,-0.09469984254420842
0.74,0.09349981966649673,0.055908432419220624,0.013601702231790571
0.75,0.17318344085066648,0.008712706094398214,0.0763771840518701
0.76,0.22891965234584377,-0.1000812738087348,0.0862405773986429
0.77,0.2579955009851227,-0.1504759198308273,0.06549285793118696
0.78,0.2716274995296702,-0.09722770116736577,0.06342251018799513
0.79,0.2696551089203263,-0.07148758478608666,0.049596370980171556
0.8,0.29501311305012456,-0.10993150559219163,0.005063089217087817
0.81,0.32643385719764256,-0.12251517153967671,0.038559961858581765
0.82,0.36410588355136897,-0.121521083686297,0.06666977499902249
0.83,0.3442981109636161,-0.11148439990721055,0.11094784206777612
0.84,0.34428535618227585,-0.11842972042206877,0.07263812943209498
0.85,0.3409248914197996,-0.009550090404706484,0.07908491629409156
0.86,0.3235306048541187,0.03404244513302207,0.027295962766084432
0.87,0.28361929396375407,0.0014442145738637856,0.013134085130010395
0.88,0.23815159896910496,0.04092323092087888,0.07595122126447271
0.89,0.2384162177330831,-0.031902211294927096,0.010070073759706854
0.9,0.22040620695071655,-0.13956496799638987,-0.07986044915588207
0.91,0.18443518847658927,-0.06776887182510694,-0.03602776285351295
0.92,0.13487779317309684,0.03312399837735427,0.008114617634651412
0.93,0.09536237431290691,0.05721761897293683,-0.015781354690368607
0.94,0.06421928623927213,0.06216148671842584,-0.051563300010696776
0.95,0.0277011253502817,0.08140600431518821,-0.07313456662785237
0.96,0.009024832817390832,0.06360776203894775,-0.10313123138050218
0.97,0.0028635126334961877,0.012730760165157461,-0.1186166217852386
0.98,0.012971525595151998,-0.018725982460323344,-0.11202907494004127
0.99,0.02059803016924336,-0.045921358727131094,-0.09441228442447966
1.0,0.03977400435850793,-0.04167239498875934,-0.06987337992797174
1.01,0.024685963993538194,-0.008156322356047754,-0.04567755498422565
1.02,0.0012855442806558102,-0.0008205433773199212,-0.08805744949707357
1.03,-0.029440399379950556,0.024795641771003782,-0.12548224350496734
1.04,-0.05333315702833449,0.06884588884788521,-0.10378847906422248
1.05,-0.048320756818763785,0.06747499438631757,-0.06797288324837347
1.06,-0.016873818879749116,-0.019822817857304408,-0.0924923299878142
1.07,0.031746697758284724,-0.07062921093382639,-0.1112412029542843
1.08,0.04767733493122583,-0.05805866552869736,-0.07593194886047681
1.09,0.05658805479789926,-0.06251583757911049,-0.048767132299587075
1.1,0.06129352504349858,-0.07654707528823423,-0.05082436353332491
1.11,0.07560538143202153,-0.03764886106883424,-0.05077621937913149
1.12,0.08877355204736509,0.014919675035977341,-0.05402265417496059
1.13,0.09611958494741529,0.03133077756719858,-0.04381253214740704
1.14,0.08877687745630082,0.05128373753759978,0.016408540694604182
1.15,0.08472660358156471,0.014308919844750783,-0.01173398655161632
1.16,0.11174336815365332,-0.02897966747713927,-0.0810267471060588
1.17,0.10604359355612278,-0.028685620401570803,-0.0629367208845186
1.18,0.08650538965067936,-0.0005226022926806872,-0.015506992172143868
1.19,0.0848565014988033,-0.055668960138492526,-0.06012414610370845
1.2,0.1156112547769389,-0.10955479105689456,-0.11359900076548167
1.21,0.13656773294410535,-0.07783950154201384,-0.08847751217657139
1.22,0.16197485893927777,-0.02532874037272266,-0.03520449921376344
1.23,0.21599556572980028,-0.03404173614189605,-0.025069534356286213
1.24,0.23944482762606648,-0.05639381832543665,0.002873632335232664
1.25,0.2396006550336638,-0.03486619507009282,0.02068185382595829
1.26,0.2321925168761813,-0.029860418359917953,0.022806349959690622
1.27,0.21161388052935717,-0.09365421133727196,-0.004183335718904241
1.28,0.15851224127033367,-0.0739215538992538,0.03384056896463282
1.29,0.10815548345034261,-0.04028650930563767,0.06545052427094422
1.3,0.09416664562926859,-0.04310762759280088,0.049119565639998544
1.31,0.09817858191809795,-0.014702458597590866,0.03425368824765243
1.32,0.12223767835972552,0.0366941275898198,0.03267727564869768
1.33,0.12937035946422387,0.044213682604460305,0.07221909023745889
1.34,0.1380815874612769,0.018056134006152462,0.044401680059365324
1.35,0.13862317906399246,-0.005058596491272365,0.021283701419785864
1.36,0.12902248003332,-0.06243069827375847,0.001635743389559005
1.37,0.08959438732968315,-0.07986904802363765,-0.008150702708345366
1.38,0.04292896479028206,-0.015115115981598162,-0.003999179624460664
1.39,-0.001207782328770339,0.0562531753751594,-0.006018608830521366
1.4,-0.029307755435504602,0.07418511727277712,-0.01610979585539647
1.41,-0.03241695485950724,0.061777948765047816,-0.034457439169994206
1.42,-0.034218938418689254,0.03968557829533427,-0.05098571494852156
1.43,-0.017371989385166972,0.03612554646177193,-0.05015237016287906
1.44,-0.02428894286439052,0.03210123654549914,0.001724475072452445
1.45,-0.013572569948115318,0.0129096997035739,-0.017509200102954394
1.46,0.004986281427597616,0.006326156390694773,-0.0792446527610608
1.47,-0.028857182601138235,0.02617429592545948,-0.05908285787392865
1.48,-0.081515729451622,0.04137813943787158,-0.040765070370226156
1.49,-0.12090589266954099,0.03255238012675847,-0.04918389751265049
1.5,-0.1420876191062764,-0.009458005669174353,-0.09417169882911487
1.51,-0.15838741523633298,-0.006884417139008692,-0.11818091995570798
1.52,-0.18395301525371693,0.037716035785640645,-0.08634692682069926
1.53,-0.1969183514123499,0.029177597608581695,-0.12131398736882547
1.54,-0.18500515382565985,0.03672956438557026,-0.17091568412282157
1.55,-0.1835571483883404,0.06734269113255135,-0.14339978698359562
1.56,-0.1851601927505889,0.08712634051947354,-0.0632447882668613
1.57,-0.18396441637925798,0.09746386895943569,-0.021074220555747616
1.58,-0.17500153526237053,0.10915019275097237,-0.04876301084874401
1.59,-0.17983751432346148,0.1304290027709173,-0.08006331232007102
1.6,-0.21895582980048187,0.11070012109571545,-0.11272495100058268
1.61,-0.24383641180098703,0.05738074838084915,-0.16713429637516994
1.62,-0.24913151716900162,0.021496570809943032,-0.1840505864936717
1.63,-0.2458716358937569,0.002676208205598477,-0.15651403001942749
1.64,-0.21852149818936153,-0.0008332248978521367,-0.16812897484378783
1.65,-0.16735466062230492,0.029059767512933446,-0.1624678552586508
1.66,-0.11441338767624881,0.07520168038555258,-0.11071458120117028
1.67,-0.08111020254021119,0.0851951637219776,-0.061704754319946646
1.68,-0.05275935322100711,0.11186624324615309,-0.01958427922902196
1.69,-0.04954737798739177,0.11677166640718782,-0.012519247552975872
1.7,-0.05738611475646256,0.04290020521669591,-0.06553092637402437
1.71,-0.06936843352055244,0.006793516571832932,-0.09978767244280959
1.72,-0.09143540491937892,0.06472631997537122,-0.0245272622701494
1.73,-0.08234236859365415,0.05614990167907103,-0.012788707864150602
1.74,-0.05276846993338081,0.026318909065445834,-0.04874505553349837
1.75,-0.04274148983435022,0.04696003091798564,-0.011067034115190682
1.76,-0.035013478066557205,0.06351494865469666,0.02971826446910077
1.77,0.022732318317806685,0.026635432564930547,0.03532335315053621
1.78,0.08075380756037127,-0.07705950034252143,0.0013586963343353675
1.79,0.10569213227328836,-0.0807568029161409,0.018040348176781986
1.8,0.10295021343962489,-0.04569740716121961,0.059692222759617976
1.81,0.09725983879081507,-0.06110093586032365,0.012456662446387148
1.82,0.0781464536531605,-0.00469642065085162,-0.0036960773623211127
1.83,0.01946791969149216,0.040140876086958446,0.018826455447070033
1.84,-0.010926294329977637,0.031732171972351376,0.036465348405707525
1.85,0.006143906752584436,-0.03070324148720936,0.012374387696572278
1.86,0.0320661581727084,-0.08322307986249015,-0.05245004849423246
1.87,0.030831779983356865,-0.06962859011044469,-0.03575995614779368
1.88,0.06043455982032891,-0.04146036356524373,-0.008553670148425856
1.89,0.12208308918067577,-0.03060242595794315,-0.0099175034548703
1.9,0.17048764303400737,-0.006002613885767877,-0.0010602567485847154
1.91,0.21212508025455293,0.0074084341042630905,0.006019053312745997
1.92,0.19317282536639796,0.008611922558175321,0.06565859898581272
1.93,0.15478665608954678,-0.016609413404415106,0.10132323696174872
1.94,0.14295977925818634,-0.05208924633313419,0.062476217716685746
1.95,0.1292574736556486,-0.0383110998123412,0.04182177568638047
1.96,0.09442275841277264,0.0037666210295105467,0.07540527566127492
1.97,0.13194771182835976,-0.006876563623028555,0.06366651280784547
1.98,0.18150377380307228,-0.07757030626012215,0.04472422113626351
1.99,0.20202815417714107,-0.11209845887763754,0.07374569026821239
2.0,0.24513113750309548,-0.1140068452054333,0.07650054352528138
2.01,0.250471272930598,-0.07629340067625873,0.09508786474531888
2.02,0.24413452728588658,-0.06095905712926581,0.08659795588762204
2.03,0.20561313481716467,-0.07658812413723233,0.053774934696795715
2.04,0.15845917901038215,-0.041879070422576235,0.06333236009934119
2.05,0.11892817467552855,0.009052487812783994,0.05743671061098346
2.06,0.08577224584209453,0.04588120993648145,0.09083211600512847
2.07,0.07528032665114553,-0.01737884738846493,0.06525766698054854
2.08,0.11887377339107534,-0.07820492867269468,0.040891515121157775
2.09,0.202621120992959,-0.092900383728486,0.06630607195675596
2.1,0.28484122277988455,-0.12641438869921195,0.10683682929506155
2.11,0.3231475690501253,-0.15975590411410143,0.15147408777161966
2.12,0.35669203847773606,-0.13207172196883346,0.17271291526656857
2.13,0.36743303551147644,-0.1285726724392595,0.19854604966094894
2.14,0.3502292113894422,-0.13226085099643423,0.16649763744786575
2.15,0.29306806371860517,-0.07616755893460551,0.1920002602256123
2.16,0.287348053663261,-0.03536247793846405,0.189388032249844
2.17,0.31059741594159324,-0.08954066776608535,0.1283028079948078
2.18,0.3360348973441202,-0.14652602340507784,0.14591057258313195
2.19,0.3635129088293825,-0.13982528541881398,0.18018144248284407
2.2,0.4045621414314477,-0.10925342579500211,0.1930773735224035
2.21,0.44555512669167663,-0.11473768079114058,0.19953823099388707
2.22,0.44716382516633085,-0.1306481586124944,0.18079406450979854
2.23,0.4054871596994225,-0.10058414943316667,0.2182026135733001
2.24,0.3572166345270313,-0.09859678651729777,0.1735852372834857
2.25,0.2926084574843377,-0.03864508766367106,0.18505460184444417
2.26,0.23496608510288913,-0.03486813272053712,0.1419340449018753
2.27,0.2170333920516938,-0.07737225329503168,0.08439694549324067
2.28,0.18860702408926427,-0.12072463737352183,0.08546339436604065
2.29,0.1810066626469306,-0.07564202062803596,0.10320255887769426
2.3,0.23384294852692283,-0.020892855892106838,0.09534053798882378
2.31,0.26058106683734134,-0.017981829283050796,0.10562026666284992
2.32,0.24204303229401977,-0.028625958373588084,0.20764049947631594
2.33,0.21029194658580982,-0.07607249791705789,0.22590397044761323
2.34,0.18152634021061756,-0.1444356205345128,0.150986088308463
2.35,0.15342682804939484,-0.0889464993153539,0.13093874687043433
2.36,0.14638510386294795,-0.03495069861717161,0.13851157730752578
2.37,0.17385002386542442,-0.1078070177658044,0.12863446755871766
2.38,0.17460402540155576,-0.19299269860243284,0.0710308821980641
2.39,0.15315469286131103,-0.14725008522514596,0.1440902181964187
2.4,0.15948458830861612,-0.08108388939775664,0.20442571474125545
2.41,0.2089295997947719,-0.06070001149130816,0.1664375647691873
2.42,0.2476316141928482,-0.08689328612550982,0.10347861041841014
2.43,0.22291336588280325,-0.021641207895535496,0.1962581568419674
2.44,0.17516558159469792,0.01830616727266779,0.24513552182839682
2.45,0.17885764447019162,-0.038598143145724295,0.19445023032509612
2.46,0.17459251269497847,-0.13108518596026233,0.07280331960300998
2.47,0.10196220095448262,-0.07406700228107353,0.10851220912053237
2.48,0.026255748299037002,0.002089520404472801,0.18863027918603276
2.49,0.0002858214348709533,-0.0702580438523642,0.09477154269028956
2.5,0.009217473646316449,-0.049978116121928005,0.04591350881753075
2.51,0.021436046495360288,0.041272500681444946,0.04434177359840976
2.52,0.017297745881011926,0.09823487215312705,0.08864029426842557
2.53,0.0446332154983132,0.11351449435282684,0.1248970473247757
2.54,0.059129579500718975,0.06757639361125299,0.09127507138042319
2.55,0.037522489554435844,0.03994883397298861,0.07556898909510756
2.56,-0.020396203353814955,0.03267850137640536,0.0854161407754542
2.57,-0.03527237105135792,0.021042251267165545,0.052336008563358884
2.58,-0.06705098802393103,-0.03985786234790591,0.04644122008572945
2.59,-0.08920445861186331,-0.07537037564610635,0.027456674702518974
2.6,-0.07644641756694236,-0.0933114311146601,0.05216384540125041
2.61,-0.04938744163849399,-0.14930266172711534,0.04398038588707343
2.62,-0.01833167181308875,-0.19677104622683156,-0.01323607979588001
2.63,-0.013468471664665685,-0.14512127331525215,0.043361940147587666
2.64,-0.008989918390450062,-0.0964824244011787,0.05094281490232713
2.65,-0.021901171761778047,-0.02061547509383798,0.057142171412160665
2.66,-0.06687785411714396,0.09244988662568075,0.09126407281008447
2.67,-0.10437630351787502,0.13060163907488748,0.07646236988641189
2.68,-0.1534370371457486,0.09260790856576095,0.07921658531159818
2.69,-0.2123498751037756,0.05142661840781831,0.009715617734651136
2.7,-0.2738335006800506,0.07609195978008285,0.007086792088613467
2.71,-0.30398253179248924,0.10422449434223875,-0.025960137662655966
2.72,-0.28320226098064194,0.04926674604225931,-0.052580463789455564
2.73,-0.26252078115519434,-0.03077846821704842,-0.09464555018652121
2.74,-0.2686205300524191,-0.032017566868799814,-0.06112148022314682
2.75,-0.21701856193200617,-0.0038451590360175708,-0.07235037727155814
2.76,-0.17972604625126468,0.035936473769084896,-0.042077825902768234
2.77,-0.17829560117791582,0.01601949796114481,-0.04900736932160388
2.78,-0.19298826490408572,0.009589599539831496,-0.07170575092165353
2.79,-0.2121272727723789,0.03110046157327816,-0.02634263156212898
2.8,-0.2604358561379422,0.043380913976851815,-0.04084549475289645
2.81,-0.2587980203994005,0.11386172700102376,-0.022323995992594315
2.82,-0.2784601507382608,0.1370220660507793,0.02724693812074017
2.83,-0.2482656875692557,0.09804397483879512,-0.027495527650091896
2.84,-0.21610643995069276,0.14537941604200294,0.03854357633930115
2.85,-0.20305086485601825,0.08201108902188664,0.020419195537867533
2.86,-0.149629890900235,-0.01622773316293715,-0.013888281190103676
2.87,-0.178316305206876,-0.055119434581270894,-0.0048300265727723776
2.88,-0.17833601732668905,-0.05170482005657852,-0.07771479637055072
2.89,-0.21438371088430178,0.007110633998627336,-0.006856774415789669
2.9,-0.25410345636296977,0.07143867563317928,0.015576973478680626
2.91,-0.2352254599387207,0.13601894969541775,-0.009390874694097821
2.92,-0.2615632806936433,0.0769327824180923,-0.0673713973153522
2.93,-0.28282146736486125,0.03348168730844915,-0.04475668020336478
2.94,-0.2972817589814403,0.09069604811578391,-0.013541503888499985
2.95,-0.2922007498839555,0.15169137316279807,-0.04375876441774603
2.96,-0.25145894496850524,0.10890686265072928,-0.14022005015656155
2.97,-0.2671863492516651,0.11074009083692879,-0.12016910801868609
2.98,-0.28215471423673155,0.10698598377587945,-0.15196780402258703
2.99,-0.37502500606497596,0.13542561183862822,-0.1724512767121031
3.0,-0.43690083906560523,0.14405550215856106,-0.16840608721196246
3.01,-0.44732715357829234,0.04792575114290621,-0.30500599038862597
3.02,-0.49733612177301945,0.1249063402688744,-0.19408225965034143
3.03,-0.45349567379756905,0.14464994912275564,-0.23547466491661287
3.04,-0.44111914698545324,0.181151463200837,-0.19058470707673947
3.05,-0.3792980135915868,0.15676027847505647,-0.23720187768076745
3.06,-0.3591916189349998,0.11760979768492907,-0.21923945551291324
3.07,-0.35008135634912063,0.0832955365948284,-0.1369001135542251
3.08,-0.34798855764701797,0.09990802085680231,-0.13725100813082916
3.09,-0.3351488664955487,0.10521756829643375,-0.15664722270236242
3.1,-0.3174581093170101,0.111532410855663,-0.16693160137466617
3.11,-0.3583886924987959,0.06703472766868328,-0.17232900249500907
3.12,-0.32907765168932074,0.025802863691711413,-0.19895440533748987
3.13,-0.3164169882758665,0.03852382474612581,-0.18185213131116676
3.14,-0.2705360407166492,0.09626196585188165,-0.1361277047876424
3.15,-0.20075133884383672,0.08256391939625574,-0.1342938164370761
3.16,-0.1343095686504609,0.005032806735355958,-0.16438942090520745
3.17,-0.1035397710475875,-0.009989925981966928,-0.10290830011494106
3.18,-0.06467851026617183,0.08555937010147184,-0.06126140916627571
3.19,-0.018344173901271525,0.09670289954456104,-0.06819469811544382
3.2,-0.030901678662557417,0.040563352443558735,-0.12078007262002347
3.21,-0.10441944319971262,0.1800851398825807,0.04129313691853222
3.22,-0.14384371013388542,0.09346977331361178,-0.03521377569954834
3.23,-0.14728943906633812,0.07487294902222807,-0.11786506719633849
3.24,-0.15331777694356044,0.0849393104849002,-0.1811981040549981
3.25,-0.13008620070901666,0.0885367661436466,-0.15661143036697067
3.26,-0.11179675018062399,-0.018115924658420487,-0.1351468685417357
3.27,-0.048032056757189696,-0.06781537641962686,-0.15529600111276579
3.28,0.02793748151572996,-0.029351132947715314,-0.12812890874353933
3.29,0.05908629868561673,0.0713226716176109,-0.06568080175313452
3.3,0.07398063559109154,0.11571472607691333,-0.019735263411012827
3.31,0.0581414764387847,0.09145083063031981,-0.001958431229945829
3.32,0.06010203469327111,0.03814323648239337,-0.05312628043914505
3.33,0.036951519501762335,-0.00802591667609931,-0.04858712290307266
3.34,0.044313545036376266,-0.062206854709722016,-0.07283967943330233
3.35,0.07451984350564363,-0.140406446255729,-0.09768161276779311
3.36,0.08562581479439212,-0.15932379836318958,-0.09027696691115084
3.37,0.12812763374815234,-0.08082653226063909,-0.04627693330565654
3.38,0.17074711557287134,-0.037912863665092375,-0.028738311086883978
3.39,0.183668262624714,-0.025243545279463812,0.0031901777955915156
3.4,0.1664636797943567,0.06259520526046383,0.053005856622328866
3.41,0.16048075837917236,0.012791904970354536,0.03471170238921926
3.42,0.19290137326630574,-0.05971880148471242,-0.041837576176350526
3.43,0.14159688914648674,-0.03906260322641213,0.0052556071298303616
3.44,0.1294075973017371,0.015316345161662305,0.014998729066377772
3.45,0.13300627248487795,-0.03707965764603681,-0.02479593492359222
3.46,0.15227612658695014,-0.12347807458447624,-0.04149611539343649
3.47,0.19398943756473444,-0.10933994767947325,-0.024984259045980464
3.48,0.23316230414332317,-0.04431576834030531,0.04229802209740577
3.49,0.2888419037723661,-0.03318979607083402,0.09232174644196078
3.5,0.30303007177043145,-0.10195904257523328,0.09113256283041661
3.51,0.33221968627431964,-0.10157292302159827,0.12982340441378123
3.52,0.32057282373998136,-0.12079306941814628,0.0863068290683879
3.53,0.2986219099529648,-0.043104139376010916,0.12009208938126849
3.54,0.2682884523378612,-0.03928615325988951,0.13198615864396746
3.55,0.26512795487362756,-0.06165181010488057,0.12611642558690211
3.56,0.3226014315052284,-0.06756448492897237,0.11417295685015393
3.57,0.3465469824377038,-0.1393764942323207,0.08862379849099856
3.58,0.3463961383608631,-0.1444998341982252,0.17683492343234664
3.59,0.367353748127348,-0.12611276977869915,0.20527164802354061
3.6,0.4277658351325931,-0.15752927636204653,0.1563419807821429
3.61,0.44909757341709,-0.2025202473091596,0.11483424052016608
3.62,0.41524602660016546,-0.08204607436191155,0.1978425185100788
3.63,0.39668384055138084,0.013462236640278314,0.24740670207276322
3.64,0.36353453918963263,-0.0621464605719646,0.17436492919026783
3.65,0.35132714427524653,-0.1235136316792932,0.10753261661840847
3.66,0.26139315644964384,-0.12335618451905112,0.17510456647372127
3.67,0.24653553941857884,-0.06479744214851316,0.18462833461933745
3.68,0.2843183798295816,-0.10967777992043415,0.10906410367676879
3.69,0.3072377927834282,-0.1680368658183015,0.08874993695556134
3.7,0.2585755588901246,-0.11418080040400129,0.17333770255001985
3.71,0.24937214524292703,-0.07074581942585087,0.1420104541592453
3.72,0.23991890246560169,-0.04985310460586771,0.12238921682186153
3.73,0.18288829493940037,-0.046614407358387,0.10457091796246319
3.74,0.10806584401309909,-0.053138281277810014,0.10409662551040783
3.75,0.05845782371305566,-0.06843071403512241,0.11136454703091463
3.76,0.0527672657964405,-0.05159304363391122,0.056578271121627166
3.77,0.09408257322170617,0.004220264090676158,0.055678055214670556
3.78,0.11044449787733279,-0.013346841816549878,0.1217347906923251
3.79,0.08928656957228193,-0.04383262448649035,0.21788653182234743
3.8,0.09528848766778712,-0.0429604935279577,0.16518039502173568
3.81,0.13775284327542253,-0.06081042618017047,0.07609319937242326
3.82,0.12046740873696196,-0.059313121238957274,0.07367019963853366
3.83,0.05996424199654881,-0.023922977089435287,0.1336955173183136
3.84,0.02460106466609523,-0.06256076586392696,0.10416368206264533
3.85,-0.019693326139118724,-0.104882085462596,0.048593515288894384
3.86,-0.04491561793221658,-0.04784138300320958,0.0718053312704235
3.87,-0.046931234362731826,0.028431619591512875,0.0478819485789513
3.88,-0.05082364853716186,0.08299373100545324,0.03799453279125782
3.89,-0.05724185888779741,0.010687906174050766,0.00318825932815787
3.9,-0.08834338693188629,-0.033416525861951256,0.02877969717326221
3.91,-0.07760096752845257,0.022663037679696664,0.07791094540533733
3.92,-0.05956315979968557,0.02324838907328329,0.018813060633915874
3.93,-0.09982309496877721,0.021641404416475593,0.01914593511875155
3.94,-0.16118247907830058,0.057207530368931024,0.05120642038366351
3.95,-0.17832697725965457,0.08386424169632892,0.026375327090005087
3.96,-0.14454499604943533,0.0622191658636774,-0.0359590984785445
3.97,-0.14176131670528544,0.09580079168642816,-0.0022939237331402467
3.98,-0.14889669653633625,0.11414146710038725,0.06078130034611381
3.99,-0.09686117616302743,0.021606850675426337,0.025950890563374508
4.0,-0.07878748202081567,-0.04006705129479988,-0.02536524289280637
4.01,-0.08848789888589868,0.030183702717799337,-0.018290450794356327
4.02,-0.10685843461457835,0.08122206384320335,0.005795283783767217
4.03,-0.11418200514839874,0.026543631409233548,-0.029389358786896896
4.04,-0.10977903053889601,0.017122172691367153,-0.05684541825993639
4.05,-0.14328676937165383,0.06235413270898488,-0.033596909093852274
4.06,-0.16116038379561817,0.04405688984467657,-0.050708694195463526
4.07,-0.15894857281751007,-0.01605967768569756,-0.08933107874979261
4.08,-0.174253696021781,-0.02609665936615391,-0.07747331886922251
4.09,-0.17743007385516593,0.030190703733123925,-0.07410920663151603
4.1,-0.17829666206734865,0.03668964058822576,-0.08693720078142689
4.11,-0.16690112708258803,0.04293384733752603,-0.11370767191161196
4.12,-0.1808887706490333,0.07483955414480863,-0.07074939280095642
4.13,-0.1884964545087998,0.07958405714449125,-0.04000026137343728
4.14,-0.1898313000837733,0.06642285294874677,-0.05903521605879248
4.15,-0.21437835257282709,0.051892272718643925,-0.0902883248729026
4.16,-0.24044807758789655,0.05832872487912871,-0.08596359853326717
4.17,-0.2713070378710043,0.06423867580149233,-0.06174359301216151
4.18,-0.25518076748200047,0.024400895911240852,-0.10785309309288796
4.19,-0.20687462852696606,-0.01928852662301697,-0.15114755714415082
4.2,-0.1678774323008375,-0.00799567723590371,-0.10715949126780291
4.21,-0.1466769440439488,-0.0008397320710321799,-0.06769921684080166
4.22,-0.12486966433440526,-0.02326996578019256,-0.10365601023022399
4.23,-0.1264538122816902,-0.008439990417087763,-0.11075078652324062
4.24,-0.1523643016221224,0.02098269854427601,-0.08799344643674162
4.25,-0.18539941815709307,0.04516459213538076,-0.05822129805257293
4.26,-0.20251602170138103,0.06450713481909486,-0.09527726153633514
4.27,-0.18681606728527816,0.10670585056060701,-0.11204863450543902
4.28,-0.15118998330732084,0.12453546839967862,-0.06894098160871591
4.29,-0.09454799104385896,0.06820802471089918,-0.05681965234498065
4.3,-0.07454139476564893,-0.003960890312044594,-0.03815263027502176
4.31,-0.06140218036240912,-0.028600166522354822,-0.03883600292816207
4.32,-0.026551628920253315,-0.03366723963064378,-0.05102435723984135
4.33,-0.02540291585115064,-0.05112228077870263,-0.05993489243365244
4.34,-0.047032669277240174,0.005710168312873734,-0.04569349992104464
4.35,-0.06311737580189182,0.07212847242284987,-0.015487475333929425
4.36,-0.051255040399669036,0.04089472289895172,-0.03476262556214888
4.37,-0.05433293971421331,-0.01112996700666396,-0.05758057222885137
4.38,-0.09605960584689183,0.002070783149480677,-0.03177917480614406
4.39,-0.09412930412879125,0.0655207743825314,-0.005881067520721788
4.4,-0.06334297314466411,0.0352705368042158,-0.022749033232785907
4.41,-0.04833916005951707,-0.010779830961894311,-0.05987107789351252
4.42,-0.05050249377840597,0.06137939317720005,-0.06178468094227847
4.43,-0.0729661560468126,0.12200686281318204,-0.0717451764312998
4.44,-0.09657449996510584,0.06872031553750955,-0.13621716575800835
4.45,-0.1353347413843709,0.02427964655555541,-0.16457866877462454
4.46,-0.1976141641622002,0.06369794399237383,-0.12873230844949693
4.47,-0.2268588916250429,0.07378295243574774,-0.145682727841613
4.48,-0.20177551500574678,0.10590216688128809,-0.1723000661250141
4.49,-0.1840365350169564,0.1385357419360677,-0.16259124403875946
4.5,-0.2046894963335833,0.12652430471712714,-0.11571421702194755
4.51,-0.22256560215137486,0.07989528726263426,-0.09512386927840275
4.52,-0.21925938453089058,0.01144177048306305,-0.16105284712850085
4.53,-0.21281869752858967,0.0046289693896083665,-0.20028960277911292
4.54,-0.20417588852035357,0.03092471162741725,-0.17326481864949225
4.55,-0.19710788077531408,0.0072716842964871175,-0.1794481372189799
4.56,-0.1733472833255904,-0.028247693367345672,-0.2140108087221137
4.57,-0.14907235118708398,0.02190726788890859,-0.16887827487183996
4.58,-0.11756321592209662,0.09275485521352897,-0.10522394071915642
4.59,-0.06911557729779673,0.10162252037720099,-0.04907804110184747
4.6,-0.0555369850699164,0.02108951867534887,-0.04248230677597392
4.61,-0.038832925483277915,-0.01985595400229677,-0.07156111151770407
4.62,0.0038614374122102266,0.037496280999900884,-0.07228534149920814
4.63,0.045941150476530024,0.09320914647852065,-0.05509022274375382
4.64,0.04143505107874419,0.0856646469501011,-0.02384065363708029
4.65,0.003134907820715859,0.057374150272898904,0.0016847833826086531
4.66,-0.03291146351858011,0.052039429841801654,0.002203701657559596
4.67,-0.03471699542048466,0.021008289362139554,-0.08877920377693908
4.68,-0.0007530881970024521,0.010873463781020193,-0.1339559733526841
4.69,0.01682426913586412,0.040183114597021556,-0.038568021644732664
4.7,0.0602582706939186,0.010456652514334901,-0.012154430240540885
4.71,0.11186654781988448,-0.022019792280483796,-0.029114992275127403
4.72,0.13352816508502058,0.01161660086762262,0.005063322689501208
4.73,0.13788952140042415,0.04409942592691451,0.02205714119367196
4.74,0.12771711085766513,0.009272541150535853,0.020168077492321055
4.75,0.10338078828442421,-0.04318946243678499,0.03956344354016174
4.76,0.09502193960562304,-0.020145764670271585,0.09479425761684175
4.77,0.11927821108295297,-0.052827420908816355,0.04279621387762383
4.78,0.15466734995517137,-0.11998319590504976,-0.052417642872445235
4.79,0.14745492851890818,-0.114876802799572,0.009212143960969206
4.8,0.1579957637049435,-0.09256473825741933,0.0740032966951563
4.81,0.19640575551300304,-0.10587510135238758,0.018682170629572854
4.82,0.23050079537769655,-0.010883625089894652,0.02639076382499114
4.83,0.2194852571624479,0.048299357182190424,0.11502862972499218
4.84,0.19957834916239212,0.04196817642766321,0.1709872575570764
4.85,0.17302009890233477,0.03677328108993263,0.13624237332834416
4.86,0.13885843869303732,0.04000313310848905,0.06116598274380636
4.87,0.07945009925903737,0.014153618427625242,0.05543422026134191
4.88,0.07446100970285278,-0.09469018086711418,0.009433439322350683
4.89,0.10207157272963187,-0.17254912789793012,-0.03795463346406723
4.9,0.1262122557660715,-0.1622262581693003,-0.04943660799962675
4.91,0.15308878485327557,-0.08992058928959124,0.024734999982433854
4.92,0.1798413043670373,-0.05528252787398381,0.07283393365786432
4.93,0.1873910202733036,-0.07902703845075973,0.0741274550025923
4.94,0.12505446918416885,-0.04497778421425534,0.08596541652678205
4.95,0.04828078607284053,0.08942534028061085,0.1025414791197021
4.96,0.022489470363595276,0.11321571340287336,0.07700587679631132
4.97,0.014313144834390518,0.009515151475398989,0.04196049840581635
4.98,0.025322627538637697,-0.051449853736167596,0.025671283397399734
4.99,0.06526604637565794,-0.06787231202588519,0.030308370395081115
5.0,0.10481025285385166,-0.1052734135048261,0.028401752505311524
5.01,0.12898355963891447,-0.13683867535016922,0.027272491561419768
5.02,0.12208356735120866,-0.07228780950486309,0.0857592635323538
5.03,0.11967950307485294,-0.004028325425940321,0.09004983967238292
5.04,0.10992704550526504,0.030623094245450167,0.08085591715164403
5.05,0.06774774108110017,0.057841306217252225,0.11784983771938597
5.06,0.06120697430967199,0.06237242324812646,0.14903363995090563
5.07,0.06369184020417361,0.0013993256366891915,0.10421237042994563
5.08,0.07532074782897727,-0.004753271363462583,0.10413197323444309
5.09,0.09296066335012976,-0.036209571114195996,0.09786438423996004
5.1,0.09185926332537186,-0.12608388177600136,0.028302549703660692
5.11,0.08326533185234833,-0.14205704112562792,-0.011612950425659548
5.12,0.04909166493553714,-0.04837306804604402,0.01953750403572728
5.13,0.011894781243762474,-0.015397115245354939,0.04536036192554812
5.14,-0.017385558023821315,-0.05490150022574409,-0.033989363591534656
5.15,-0.058073438584451346,0.02582896772084507,-0.050688876107332144
5.16,-0.0933957886094989,0.06523802033330901,-0.033511474815238015
5.17,-0.11859802616020848,0.04370971624374195,-0.043194984353995644
5.18,-0.06759051783269007,0.01143076378961584,-0.07435370271950134
5.19,-0.0347268939660408,0.01775524572706615,-0.03834453767576269
5.2,-0.08042704567863022,0.048058552385924075,0.07252037499869984
5.21,-0.045521925942373184,0.08545537924490967,0.07645485115464046
5.22,-0.006294139903378602,0.023776946590279728,-0.002570008277630235
5.23,0.00016509298216187918,0.0017667489732536054,-0.05546210360082935
5.24,-0.014298150286305664,-0.010360889361759017,-0.04419523487135775
5.25,0.0045826451586503305,-0.04064390445160391,-0.016633703810376318
5.26,0.014076005177243377,-0.08427514934976563,0.028950769194850005
5.27,0.026137244645474834,-0.042172623801934636,0.03577893647898748
5.28,0.058249659338089524,0.03975025976665186,0.042951944854319454
5.29,0.10524666731286685,0.00502582086491665,0.01942013287087082
5.3,0.11209693250864904,-0.0780083854884449,0.019362327814383892
5.31,0.12310028961647816,-0.023863062529502408,0.08228078517259989
5.32,0.14404569342292217,0.013183548981683458,0.11048347180315136
5.33,0.15708613815150002,0.02268742345364161,0.07126804736679722
5.34,0.12140034906693488,0.05178373682899046,0.15783982023860252
5.35,0.09436991606186904,-0.09057463180249815,0.054644725261538914
5.36,0.07202095823845163,-0.08938634513396926,0.060977361153086176
5.37,0.06557324278214433,-0.014051193766475992,0.02517147288227655
5.38,0.0895678721314804,0.045862842379394815,0.03027129802045626
5.39,0.143414169313181,-0.039222730195998784,0.013777479696166871
5.4,0.18649801415881573,-0.06345286207982698,-0.010752820385706378
5.41,0.13398137476063632,0.06168017869202357,0.14102985440608667
5.42,0.1029512562946938,0.0599224817368208,0.11126354308089871
5.43,0.08638541150082465,-0.02276142742191001,0.00643735371262016
5.44,0.024455529830708235,-0.056696894732283516,-0.03352666108352799
5.45,-0.07384357221396692,0.059874725830949375,0.003626807920398513
5.46,-0.10294356192042686,0.0654092846308779,-0.010657734856630567
5.47,-0.06257035547968197,-0.03464663275431122,-0.11640929209359636
5.48,-0.06936371091826055,-0.07980657429105324,-0.10084300745768399
5.49,-0.11073044109824864,-0.020595945183147422,-0.003219732338229269
5.5,-0.10524720955773528,-0.022183269537007166,-0.044033731002499986
5.51,-0.05848166822990854,0.030877906068678705,-0.07223605768388745
5.52,-0.07709166389255089,0.050654061467856996,-0.033717242146633
5.53,-0.10306632911093067,0.1210609166846221,0.02687397501574121
5.54,-0.12623416625270414,0.0910892124775629,-0.017630413646568307
5.55,-0.1298403776010978,0.005662925228874143,-0.07053257319287787
5.56,-0.17424488204542576,0.02280636805172398,-0.06193319752272735
5.57,-0.16325096587402937,0.06082246540421912,-0.07783677765758057
5.58,-0.1790383247592439,-0.02673358666581404,-0.11874795738363005
5.59,-0.1593953029465324,-0.020060227928147857,-0.14023139475761234
5.6,-0.11423788863483265,0.047371713658595806,-0.10383043294383779
5.61,-0.09327490991320136,0.015549370674841348,-0.1015733390823158
5.62,-0.11991543355432127,0.00831778663483695,-0.10419920650276597
5.63,-0.16565134966695128,0.06703659824184606,-0.07179693783420177
5.64,-0.202873899631764,0.09659385388386237,-0.09103619435353598
5.65,-0.19823606982589698,0.10709457946068987,-0.15125332520747473
5.66,-0.19851543127199425,0.1302253377743612,-0.10567749937943209
5.67,-0.1683380664946713,0.09811974347707868,-0.06073434071901016
5.68,-0.14147137947156507,0.049504888169342225,-0.057379046905426376
5.69,-0.1024388622351111,-0.020979401520801595,-0.13190866300224463
5.7,-0.039046316442841025,0.02572350848695981,-0.13801101823717907
5.71,-0.02184349227581653,0.0501990382185468,-0.08339983631488297
5.72,-0.018510183466284105,0.014944008674083789,-0.06657804335501465
5.73,-0.028063153893298415,0.002506630434923096,-0.07264464698303068
5.74,0.0032006265777985918,0.023625242636228044,-0.10303596235141346
5.75,-0.02712994432501697,-0.011908355500197929,-0.054853463822145176
5.76,-0.03471677341835116,-0.14350855727965003,-0.19280128408447847
5.77,-0.03886015503280851,0.04357564089962291,-0.03406777560051619
5.78,0.01964286808332185,0.2036184192578532,0.0628023996341949
5.79,0.08304849858299088,-0.001620187222012619,-0.0609476619877698
5.8,0.08742882562401506,-0.08238776303409494,-0.05946464627830002
5.81,0.058994964762907574,0.07758277738614815,0.0028943268501898556
5.82,0.045063764267536374,0.17219683529071708,0.06625683771889007
5.83,0.01701138786632102,-0.14122994816107381,-0.1928792639751079
5.84,-0.038024647101534345,-0.14622708858568517,-0.17916476104351198
5.85,-0.11844283886718321,-0.028826880840789184,-0.150847405610956
5.86,-0.07345377984472606,-0.0034553437259438346,-0.11945228008893254
5.87,-0.011957642113356584,0.012440093317648657,-0.1608703611545278
5.88,-0.04522587562491946,0.10644963841332458,-0.006693449323720258
5.89,-0.055326741620933456,0.09852062020424782,0.0005811799501310794
5.9,0.0011916775152129196,0.06401931420855055,-0.04282340587685415
5.91,0.013894747733191076,0.039645646906108535,-0.06246835231533797
5.92,0.03359990237186178,0.1223398774153172,-0.01821758312319795
5.93,-0.023013142718139118,-0.006320629515404214,-0.08167533146145964
5.94,0.01671034083525391,-0.10862466091747244,-0.15671295304014973
5.95,-0.022588846001122778,-0.12017510560688359,-0.14897358581967965
5.96,0.02093094521004577,0.03367644468338719,-0.03318949653574988
5.97,0.09447639375054882,0.003713311902134364,-0.09151375958700168
5.98,0.09100670104696781,-0.09514329036983622,-0.058694885051524766
5.99,0.12424301876158313,0.00031319891208660974,0.07601820585245332
6.0,0.13673734864075213,0.040575350881871294,0.10384806698575139
6.01,0.185960586595526,-0.024179184623365355,-0.03282581633104098
6.02,0.1072231972316711,-0.014527349212234007,0.014499401381225416
6.03,0.02223314169839,0.013682465666222842,0.05040614809940883
6.04,0.0556115290960247,0.06648251680717024,0.05454928673761211
6.05,0.07603734872132753,-0.044618603520723624,-0.11334479708960683
6.06,0.10556078613925868,0.003336412166008126,-0.07673433731025703
6.07,0.08119293331722502,0.1566847446052768,0.11946497972020198
6.08,0.16922120161649404,0.07506953879536148,0.062161111969922855
6.09,0.17233472102886999,-0.07474052810400986,0.002462536862850228
6.1,0.143823567283058,-0.0766523666521235,0.0029429954416693217
6.11,0.12798422530469258,0.04625107676991534,0.07634917040786296
6.12,0.09350409783912805,-0.11183796204515802,0.03562837918853767
6.13,0.08122816675498384,-0.17597142509668184,0.01302197887652658
6.14,0.10098324127191115,-0.04979024666027696,0.03232734958057497
6.15,0.1530308472817752,-0.011709565073015267,0.05466958818842705
6.16,0.21484700669345025,-0.08939174799810923,0.03643057594670096
6.17,0.17278581132093507,-0.14082974176118815,0.059745877171734504
6.18,0.16365899942004614,0.008762940437347419,0.16395915101059952
6.19,0.16100250402511576,0.019614502809706613,0.15314457973380285
6.2,0.1469605646355794,-0.03531006299940054,0.12315896574232894
6.21,0.0797001633515748,-0.11410577762210418,0.07380947380279029
6.22,0.06617641274380263,-0.04475853360857715,0.05446563075642684
6.23,0.00031505647774881954,-0.013418820775362751,0.07135584208606875
6.24,0.03196448703900586,-0.037842807372976066,0.03877386665648642
6.25,0.06144529277226608,-0.06912627915154178,-0.0018046970796533376
6.26,0.0534370659771406,-0.061899033537901854,0.028403597731458896
6.27,0.07534666867881028,-0.06195897720511201,0.009596067478318046
6.28,0.07886026569502835,-0.040410057435377005,0.06555596135478861
6.29,0.03813877317202228,-0.07534617562880282,0.027186486301273797
6.3,0.0050607678064141385,0.01192689357740435,0.041505711721512115
6.31,-0.09287489938213175,0.05863746493915886,0.09272621806291087
6.32,-0.11800887733698118,0.05318680610469017,0.034837992334041945
6.33,-0.1354780225136233,0.06542212705080222,0.009715445745620553
6.34,-0.12003215408456297,0.10234210294476846,0.04621641302639901
6.35,-0.09860281579577379,0.019512294251108942,-0.01170455623662011
6.36,-0.04455066178631016,-0.06692991100490359,-0.028171019044864097
6.37,-0.024921257078486348,-0.04430576030789068,0.050842958402764635
6.38,0.01488910094214065,-0.030599955320531086,-0.01251768010634009
6.39,0.03972598404023654,0.015858191332359314,-0.01200978058757077
6.4,-0.006389360510235175,-0.010570788272520813,0.02392327869596401
6.41,-0.029892423376866463,-0.028347994973300584,0.04162514743277082
6.42,-0.048704475143201094,0.011062934560291024,0.03756315843880366
6.43,-0.05767963307015419,0.07253258278360541,0.045586357041877815
6.44,-0.0003654991455268201,0.06883236259027557,0.04812422929324776
6.45,0.021332673550151466,-0.030480438471245073,0.03540042385730068
6.46,0.056276645696444465,-0.1069790236485048,0.0018847871674060584
6.47,0.08138257506475932,-0.11084242294147761,-0.06650828216333965
6.48,0.09290109590712997,0.008841234913052927,0.04216369127999053
6.49,0.0995412855421656,0.03475761665930224,0.06865578448710913
6.5,0.04507784110078958,-0.04550121605913385,0.05113147121249002
6.51,0.03779477189330251,-0.07093699866674003,0.02501278438742704
6.52,0.032576113881274654,-0.03867049991026632,-0.018513474620950158
6.53,0.08468798358795229,-0.0019893841394406004,-0.0265671766771352
6.54,0.07260995956668405,-0.0037902761916921678,0.023613578300833396
6.55,0.04025882571296418,0.03950239746893784,0.13367910589418416
6.56,0.07408297624702033,0.0120715337211403,0.17215508036442403
6.57,0.11888676188761348,-0.09851275948693261,0.04035785897750461
6.58,0.13130038005787728,-0.05000085253699965,0.034589655341187756
6.59,0.09434297707249478,0.02923070990146717,0.07979114200729097
6.6,0.10229877341995641,-0.08130505481975489,0.05665083537555373
6.61,0.09995593284657772,-0.14680812003839036,0.06494119875187565
6.62,0.09521534549114118,-0.10895522552538224,0.07612094535590515
6.63,0.1470718498538113,-0.012217765674709568,0.052721495945030984
6.64,0.17253035680411352,-0.0011428924544234107,0.0737279024936039
6.65,0.13661442071537394,-0.03928962417039494,0.10615726283187386
6.66,0.08454940588681455,0.010770259523383143,0.16941757064691168
6.67,0.11156272283071321,-0.035083862131149814,0.04889366194370057
6.68,0.12069369334011477,-0.04272280544087924,0.02756791448114072
6.69,0.03219731450260085,-0.035422389944900434,0.10495448453045092
6.7,-0.022438672250791953,-0.006633716567518854,0.0806641783679521
6.71,-0.006114389973430561,-0.010945868588923003,-0.027722180803392976
6.72,0.03524474979854882,-0.0011263823086721846,-0.026255579057961772
6.73,0.014166600775983362,0.006140378858893655,0.0352727453786262
6.74,0.020161879791087012,-0.008323464434575503,0.026340642936361763
6.75,0.041449257462962755,-0.025505429382306613,0.01968911113747707
6.76,0.04984995550896935,-0.034478122965253155,-0.0011030171641675253
6.77,0.06963152108755427,-0.009931275566421182,-0.01982280441249554
6.78,0.060844935740762225,0.03737124748218992,0.07562008547165498
6.79,0.013072417576512733,0.028809754558611404,0.09776244330652525
6.8,-0.01687671882142183,0.022857598285525874,0.05890093568009786
6.81,-0.011292900757545833,-0.044606532382373554,-0.0156894918533487
6.82,-0.006168414613106326,-0.04534869545655699,-0.026532433004051618
6.83,-0.02516146301154099,0.0031029254796146443,0.005892552988759885
6.84,-0.018347540270114655,0.006387320760658761,-0.013777227546804171
6.85,-0.00010618645685662285,0.001991857337770064,-0.011400491062080687
6.86,0.00896383194631908,0.012378382143452797,-0.034145259081436105
6.87,-0.0335459586187607,0.07248261859997393,0.009615790275757053
6.88,-0.09561690484672673,0.0837137877867888,0.012260844110881302
6.89,-0.1183241077869463,0.0653448073967666,-0.04071592667561778
6.9,-0.14620155479388847,0.05346769669686103,-0.049292418473402475
6.91,-0.1629250132067926,0.05742418976737013,-0.0541393144379403
6.92,-0.138359775334278,0.058145499575988434,-0.04970881436584332
6.93,-0.08886241947756457,0.024268540812753717,-0.07975118757417939
6.94,-0.044316975976982406,-0.026060813086065834,-0.10705599156209018
6.95,-0.03880855923273527,-0.058107280095557996,-0.0685916346568668
6.96,-0.05450512611294652,-0.03921009054249498,-0.03459957445738853
6.97,-0.06083910945652088,0.004586110197746001,-0.0512171122739536
6.98,-0.06214680467914484,0.07044667968161261,-0.04413713769888783
6.99,-0.07716680915599516,0.12428051213421595,-0.009266611380948492
7.0,-0.09235673131038478,0.13646877069512905,-0.0008032147704011929
7.01,-0.08783822067633382,0.07052705344836017,-0.04554169432660147
7.02,-0.07771655937926834,0.018703511149065204,-0.08428917466190386
7.03,-0.0414864849164556,0.005739403889205964,-0.09845495730088898
7.04,-0.021049717911485237,0.017923479066451063,-0.06265338301220902
7.05,-0.0057659721828943414,0.005433841892032203,-0.05645610312000634
7.06,0.008393363877107407,-0.016269415514340295,-0.1114104067722143
7.07,-0.003958457765730868,0.007060664220007694,-0.08599489893493249
7.08,-0.035946338597812016,0.05354284515552293,-0.02319331424654308
7.09,-0.06500122083890295,0.05741195646488547,-0.014396489845982874
7.1,-0.07128208781150566,-0.009383185518415865,-0.07992804801010979
7.11,-0.055584218320397616,-0.0024886931215965355,-0.09002580206876405
7.12,-0.03463200491665286,0.006289828307002838,-0.08440999136268004
7.13,-0.03000906085189675,-0.03959068348870308,-0.10381652194595156
7.14,-0.03134306804376819,-0.0567165241772087,-0.10628730242509891
7.15,-0.03149916256126061,0.025743333217399245,-0.05050167639452068
7.16,-0.013968717270051272,0.053026273466662985,-0.0822016334939805
7.17,-0.020958235913912715,0.0724823860715984,-0.07234416456096458
7.18,-0.05542505288658392,0.05574017244048849,-0.06360135133384553
7.19,-0.06022601110543601,0.03874670976862667,-0.06343749429508759
7.2,-0.08571716496154291,0.043446772341146016,-0.030149718740201406
7.21,-0.10620603282637729,0.0634163260867243,-0.030051913872751173
7.22,-0.12158170481137652,0.04734667145561904,-0.05713632245660016
7.23,-0.10751328688396014,0.03173792618813985,-0.0427638574130395
7.24,-0.08263194440303073,0.03597806896703474,-0.04532096079235858
7.25,-0.06416285902231167,0.03908134029974383,-0.05699192001329738
7.26,-0.05372009525145933,-0.03182232269726907,-0.1009116626340562
7.27,-0.04158817966189055,-0.08939032559949307,-0.12641370652926387
7.28,-0.05061525634165361,-0.07423018129860114,-0.05235040125373919
7.29,-0.054305956557742854,-0.02169154109969236,-0.0696945503680449
7.3,-0.04837399256941386,0.028737771262789674,-0.12431340744788831
7.31,-0.05540295022827591,0.025922211153916984,-0.09839712227347902
7.32,-0.05910527125365348,0.031129899021044145,-0.019804138331692485
7.33,-0.032534835193493,0.027445503874268067,-0.03759183440107007
7.34,-0.008548359887501366,0.019197019878446506,-0.07796467691355519
7.35,-0.009694456824156985,-0.015718819406694177,-0.0466848575562231
7.36,-0.0013623569207481545,-0.038261097127959325,0.009334353289528445
7.37,0.0031297685308002985,-0.048323681993129045,0.010803892591965946
7.38,0.024792411685972383,-0.03401797656217907,-0.034100225163378496
7.39,0.046560167567232406,0.039243256737342164,-0.033406585977881625
7.4,0.07337485997781226,0.08796778500225119,-0.004273993488392341
7.41,0.11573153329334773,0.07959374297589335,0.03566819144716051
7.42,0.12389065676805734,0.02022617668666203,0.04057639980488586
7.43,0.10726112834942475,-0.02733676003406208,0.02749782288388077
7.44,0.10060855365110878,-0.02354694399634151,0.012003468173522422
7.45,0.08884719775977824,-0.009156160475512114,0.0031239528904959484
7.46,0.07318601384514203,-0.018654112708970685,0.014171834737327084
7.47,0.08780375190390645,-0.054691734918676634,-0.014186439244830968
7.48,0.12383822694381748,-0.036394813927082506,0.002698409813807508
7.49,0.15110407614131013,-0.03471292952199824,0.03788543877729778
7.5,0.17657865388567268,-0.04924822333984037,0.05782386474030334
7.51,0.20516597891005067,-0.03556308189738495,0.127583691698426
7.52,0.23708214078817014,-0.040676211880972826,0.16152608000918325
7.53,0.2635105270923662,-0.04914886871149163,0.1569706208721305
7.54,0.2801833232835667,-0.09363997596277036,0.13666871289172378
7.55,0.2830001454291934,-0.11858540081667276,0.1339750895564269
7.56,0.2716687928455589,-0.12199793239470791,0.16157144180832098
7.57,0.2607930964406275,-0.1568731061591163,0.1645084128518048
7.58,0.26261336106610245,-0.187000993536715,0.14105928580145266
7.59,0.29967772660144826,-0.1524641687673785,0.12867032901810074
7.6,0.3254366755563853,-0.07767429299418883,0.17885223215554982
7.61,0.3132710592098953,-0.08151188476277317,0.21319139123593714
7.62,0.26752142911308313,-0.11456974199226858,0.2177919035918811
7.63,0.21496164645660823,-0.0643873632266207,0.24051997548338958
7.64,0.17016497411016515,-0.05180936264063493,0.2155495835425412
7.65,0.13617725713717738,-0.07459387430835121,0.16858422213988494
7.66,0.11554948543646981,-0.07009622064084041,0.14744200336722998
7.67,0.11238465546911146,-0.06717189948176105,0.13317261162091448
7.68,0.13014965690350375,-0.09209984682934341,0.12896050245914964
7.69,0.11703429037729768,-0.08194448585790785,0.16936690926760456
7.7,0.08273061151738277,-0.04393772507898326,0.18317609492393355
7.71,0.08100897131375841,-0.04774777205547223,0.1180824858457746
7.72,0.06042214494080558,-0.05449519718188958,0.11123490680625273
7.73,0.02122915373540973,-0.03933454535956748,0.12941767482470068
7.74,0.003282275655303646,-0.021704717554885018,0.1287770412010294
7.75,0.012002193794020581,0.0030810758774012592,0.13906494636978414
7.76,0.016933669136932495,0.03556553896005419,0.1629847550249825
7.77,0.012351570599717381,0.053378774652945694,0.18643892850046326
7.78,0.01774283333734902,-0.010476528517045126,0.12114579676514291
7.79,0.02717124396540799,-0.04655258866883164,0.08359991647684466
7.8,0.023680055505819603,-0.013421761732508516,0.154875694259352
7.81,0.026127773470621684,-0.02476317356282172,0.17215236023576416
7.82,0.027519013253628672,-0.07807588453169526,0.1348723013998759
7.83,0.006241351428900112,-0.12218321822546678,0.10661366103219001
7.84,-0.009031725831172234,-0.11992398174734364,0.11422472219641888
7.85,0.01557489330201424,-0.11322431251170674,0.06965627600660416
7.86,0.04725812719835741,-0.1069528601150008,0.024996976832022965
7.87,0.0020563244954682745,-0.024749015684344025,0.16189350748410822
7.88,-0.034784649601636485,0.03878328027951423,0.26095172312210346
7.89,-0.031438674701602054,0.008609536433755784,0.19357283789971355
7.9,-0.04994304971429691,0.019879851006253498,0.0847388773503943
7.91,-0.07627381377193128,0.05461395929504519,0.0713738866320074
7.92,-0.1229203022220723,-0.029977410841830414,0.06368307270182139
7.93,-0.15610930969571366,-0.10290013955185554,0.056097670877011764
7.94,-0.1504444607243159,-0.048071873437594566,0.05017331795811974
7.95,-0.09165727849352229,0.06884772012231587,0.05693488269354788
7.96,-0.0668694887599906,0.07051859014130028,0.09741405434421331
7.97,-0.10734097123495444,-0.03072979815061935,0.08612165591740327
7.98,-0.16273677585725155,0.00413748771524469,0.12149510784427058
7.99,-0.18677909329062092,0.04082864461716065,0.06798397047239219
8.0,-0.1732595397816537,0.0560914499266067,-0.002431248955222219
8.01,-0.2341627879958117,0.018823696265989134,0.010126211512256563
8.02,-0.2803085238251197,0.04128332563357133,0.05865270280751589
8.03,-0.2799013821490437,0.11603753398530485,0.06861894624653836
8.04,-0.2396307112871195,0.13220789433431498,0.009395345295217818
8.05,-0.22471565447637779,0.13867921104979536,0.04482408327779427
8.06,-0.23493133130835087,0.09410347296724207,0.02501764212938438
8.07,-0.2063293843634682,0.08874555137540108,-0.023969305346241518
8.08,-0.21282101860367245,0.027211192821360745,-0.009340569293596028
8.09,-0.26262927518273493,-0.027317498149145126,-0.005819264289499456
8.1,-0.2882417951836583,-0.01664129058718592,-0.07752383838880597
8.11,-0.31681571062188585,0.027677809420212644,-0.09513168968119966
8.12,-0.35708763142226535,0.022881722169011114,-0.09211779639391023
8.13,-0.34740078554101206,0.012879531222540817,-0.1029967361938778
8.14,-0.34794631474771187,-0.015164277035728724,-0.11246598919256191
8.15,-0.339416438364344,0.03738283420485625,-0.12468443816667914
8.16,-0.3226600262461438,0.14284115278117812,-0.10428281572032813
8.17,-0.2934085284992983,0.20173617579009934,-0.10505690291049755
8.18,-0.31200122998578467,0.1877468948599192,-0.08171359608425396
8.19,-0.34026945586955376,0.20490183398872858,-0.08540493590422306
8.2,-0.37253612906118505,0.20515769344059206,-0.06708071975917151
8.21,-0.38106999109951467,0.07488549489517235,-0.18648351420124046
8.22,-0.393305349209303,0.05770602593375183,-0.2117916263455018
8.23,-0.4052553847986964,0.07369896601589404,-0.1864471873161019
8.24,-0.3809536573203951,0.05572012953868902,-0.20667187439372506
8.25,-0.3271909961706396,0.039642340749251964,-0.21026522134419703
8.26,-0.2821850137737311,0.0733274890999952,-0.16144585321165522
8.27,-0.3112702788365404,0.1425857754700784,-0.08607912088815106
8.28,-0.307719642842009,0.1860548780106261,-0.10649182700007531
8.29,-0.33544090874438565,0.20069490551441063,-0.1209348057275685
8.3,-0.34459137060221484,0.18542249289058046,-0.13668896237861664
8.31,-0.358032839171041,0.14136523892792785,-0.15692663584865518
8.32,-0.388958030983484,0.11278858074690691,-0.16135993023405557
8.33,-0.3878712817667966,0.09025744789954848,-0.224558843133824
8.34,-0.3780102942474283,0.03127754637948892,-0.30638816507483274
8.35,-0.3766868419420424,0.03647491726913853,-0.3033103190724072
8.36,-0.409393780672182,0.0876904397254068,-0.2526230943996585
8.37,-0.3684498152141299,0.0923340211633249,-0.3103374927349785
8.38,-0.33327710759466217,0.030637946730643496,-0.3604904934147457
8.39,-0.35635354812090997,0.02821074857732949,-0.3081803459018247
8.4,-0.34682973131547307,0.10380254618658621,-0.27166169356569203
8.41,-0.2934025698612475,0.15451110241993343,-0.2505514348034182
8.42,-0.2664809649402547,0.07336572712522514,-0.282970837677858
8.43,-0.22813575088324053,0.09057445263830705,-0.23240828424146137
8.44,-0.1862671100128121,0.10290444515449107,-0.19708727561348824
8.45,-0.11372859098546892,0.06986667674737485,-0.2873849499367131
8.46,-0.07160043897822677,0.04384317168743335,-0.2825698977890763
8.47,-0.06506538416220392,0.06608494228554103,-0.1482569402487085
8.48,-0.04548478653132502,0.022515655493620758,-0.1344623784885452
8.49,-0.020211634593898915,-0.050100927409395854,-0.2190306611844377
8.5,-0.01406646745534255,-0.016899750488878425,-0.18990562903948832
8.51,-0.001730629295432357,0.04330502242323106,-0.12956596333653658
8.52,0.05307338105646191,0.03639585724220285,-0.13411245004684214
8.53,0.08659864329271075,0.004811939533344646,-0.15131907335660272
8.54,0.10598545031825526,0.03845545905675976,-0.06136822480790134
8.55,0.15153134366359974,0.055298305452175206,-0.04976633484809689
8.56,0.1502074112587141,0.0272958188408082,-0.1063511450019725
8.57,0.15627393804900572,0.042520488808623406,-0.13143979762592792
8.58,0.13064895534275142,-0.0025195005719114254,-0.12537951729556282
8.59,0.11117923135863964,-0.05793216961822416,-0.11794783505127494
8.6,0.09936548514811933,-0.02007037701523295,-0.11009990499630443
8.61,0.09786021295798851,-0.02809042626996135,-0.1754975244141815
8.62,0.10666247396004744,-0.07213311713122782,-0.2127874388977096
8.63,0.07763131095173721,-0.1476724675915066,-0.22986023641271194
8.64,0.050135422630245174,-0.038070145025474615,-0.16596617180827195
8.65,0.06937142191418767,0.041987176951408564,-0.17313851001214478
8.66,0.11148051108515322,0.0015478643659939861,-0.2664980698516172
8.67,0.06313092963301994,0.04075305188862571,-0.1284724342702592
8.68,0.025357854953179944,0.13274208146797112,-0.055918099611735654
8.69,0.05379384138920119,0.13751075436338073,-0.08745622880189313
8.7,0.04527212151832313,0.06276133918828428,-0.2253387746563583
8.71,0.0808777559938551,0.18506632099195222,-0.13689352935318583
8.72,0.055554365812779824,0.10585806556500356,-0.04529235995646775
8.73,0.12009712192288699,0.03601881486493249,-0.10404363634520666
8.74,0.13793035477378948,-0.03348772056418725,-0.17006533773261567
8.75,0.1508336393909961,0.010530499477092005,-0.10457901275541599
8.76,0.13971965864457608,-0.02174597471177002,-0.0801801374354336
8.77,0.1203660382504446,-0.07328258288684289,-0.12957951397682588
8.78,0.13250149875200543,-0.019941107944383554,-0.08898611530481622
8.79,0.17026174303938227,-0.05659768980256006,-0.11389163232400608
8.8,0.17300194010489803,-0.062374741500012654,-0.09201508212355468
8.81,0.13676940749762423,-0.06888895166517751,-0.06672280061305677
8.82,0.16421501830425228,-0.039024392073129736,-0.12670843753528585
8.83,0.1894953521918709,0.07483675225188868,-0.04663141674030086
8.84,0.1858635803356436,0.028335123447831883,-0.07929577102209437
8.85,0.167338278245674,0.01490993678098697,-0.012750576692282254
8.86,0.16383924167195343,-0.06826936469239779,-0.0711399546323614
8.87,0.16557347550417173,-0.013185246315327376,-0.06928043388358511
8.88,0.1688706730839154,0.011783468753199956,-0.06358933558103332
8.89,0.2035073078249565,-0.05169589604525664,-0.09205936554707221
8.9,0.24544126493161844,-0.1359694618414948,-0.05084939385872838
8.91,0.2995973951144261,-0.1647158065284728,-0.03222834568631511
8.92,0.33340588558482515,-0.07169018970724121,0.06204708242927774
8.93,0.3446812088915794,-0.027298044877145204,0.08263437621263198
8.94,0.34254480662434605,-0.05727464259740442,0.06423877003760387
8.95,0.3180634668969763,-0.03701360003863973,0.11344200297428811
8.96,0.30801967573648575,-0.07457674618651558,0.091943563092831
8.97,0.31078895139211576,-0.09782591138194326,0.025725546162232646
8.98,0.3662133097522713,-0.05540309747853326,0.047680860813184206
8.99,0.3856865033846396,-0.10581344221631184,0.09831114848508367
9.0,0.44352487915827116,-0.15126856527666455,0.09294720902285487
9.01,0.4789544960588122,-0.10998112542641106,0.11477969743111859
9.02,0.47448305198058227,-0.15215442602412602,0.11291133584383288
9.03,0.5093859216918937,-0.17907878229725582,0.11390929704038044
9.04,0.4684359867441655,-0.18694922032292752,0.15920476493594526
9.05,0.4380868828858744,-0.09456910756938879,0.20982906743462396
9.06,0.4474497704708117,-0.04864314153902491,0.17820015695280705
9.07,0.47182949943688596,-0.12063170833025035,0.15060683474183545
9.08,0.41914326509547417,-0.14285193174839328,0.20786181180843236
9.09,0.4047233411681782,-0.152843375706551,0.16786284240613888
9.1,0.4518035155534784,-0.10930962437314769,0.13268600884471216
9.11,0.4673109065182445,-0.09807752689779707,0.216399955496056
9.12,0.4654073173170255,-0.11678266018266273,0.2738411453271949
9.13,0.47331977891613286,-0.15724133792375922,0.251742263071289
9.14,0.4908271348608104,-0.22363399161198652,0.2364368659825114
9.15,0.46149117835423714,-0.22814189778277918,0.2382596843941762
9.16,0.46734980119850117,-0.1543692267127438,0.206175844636966
9.17,0.4538623330041729,-0.1138395226901539,0.2117628828488787
9.18,0.42973538497050773,-0.14585093512408392,0.3050420398690249
9.19,0.39096109778890964,-0.15535360251239494,0.28122869963939134
9.2,0.35405826323629663,-0.1613811164590348,0.21854839423072522
9.21,0.3236341458733007,-0.0862003764966822,0.22215304613657416
9.22,0.27829444546567655,-0.09195170285315718,0.2105493577734957
9.23,0.30946309683926515,-0.18464213106942148,0.15325792628857215
9.24,0.24563545379372645,-0.1794977706697587,0.2176995069002495
9.25,0.24996756350153784,-0.12465670347604023,0.22439859610943463
9.26,0.2679771475431571,-0.10374415642549885,0.21869551078723604
9.27,0.2686887526892695,-0.1834582362133121,0.15996540908463328
9.28,0.23855968125589802,-0.16282580658174725,0.17596990300982182
9.29,0.19233469527875854,-0.06206433595353217,0.261138285259969
9.3,0.20654101016095242,-0.03783089799167355,0.21429467883749118
9.31,0.1815222344207696,-0.08407386844455077,0.18878124050429146
9.32,0.11273152286733674,-0.09386437858826627,0.20651800332517223
9.33,0.08588088836672324,-0.02521600505651665,0.2541769786999143
9.34,0.07205313193633442,-0.04329372642851223,0.1885814559323842
9.35,0.07482918001405331,-0.026222511585250758,0.13682711671211878
9.36,0.06143921815321921,-0.017541920283826565,0.16991413189066046
9.37,0.06229512966462238,-0.038508298526494046,0.22168414856829904
9.38,0.051813854604046146,-0.13899060353894216,0.18789454983937634
9.39,0.05628257783795,-0.12479286196472911,0.16236893193896743
9.4,0.006903395680738652,-0.05463921040182118,0.1922451363778953
9.41,-0.007588706475220703,-0.044226245054694885,0.1733950910010537
9.42,-0.04004946110695386,-0.07252761436585692,0.19699697577788117
9.43,-0.027251295395713884,-0.11813472872228621,0.1763710857595761
9.44,-0.02276148191377967,-0.11119616220363558,0.17573763282502905
9.45,-0.06114769712686117,-0.10900347829122435,0.1758284546996319
9.46,-0.05171349484863056,-0.03391852180162375,0.16824807371318706
9.47,-0.05417288832837139,0.09571497354904397,0.21627277014199006
9.48,-0.06342677281624458,0.06773595322321878,0.16957877082376904
9.49,-0.12371240398987932,0.03366081341859562,0.18719934255960655
9.5,-0.18140136180133012,-0.04426041095579033,0.12857217967074905
9.51,-0.20779872170291058,-0.012888730993754056,0.06691406160301272
9.52,-0.2622122296516394,-0.03671914635213455,-0.018744176947946802
9.53,-0.2645718501163855,0.057531596789139626,0.030327219877111105
9.54,-0.23209596164675234,0.019842400987501903,0.0006429485281117305
9.55,-0.1792265377717533,-0.006236821490810323,0.011798762422229797
9.56,-0.20425611236790875,0.01489322761155338,0.0668478693310484
9.57,-0.22480569799379063,0.04847679417384211,0.03902211932849573
9.58,-0.2330153683387444,0.06646096998539394,0.03308164321596821
9.59,-0.25742149970681805,0.07476847896374954,0.07853251216991113
9.6,-0.30064284425961796,0.045583844980904994,0.06832781901203064
9.61,-0.2842056338427516,0.030957318678310173,0.01554547047999354
9.62,-0.24933213686976696,0.008264184898288469,-0.015584424366722293
9.63,-0.24778326978386014,0.03502532514023941,0.03737298398181999
9.64,-0.22982114688541677,0.07185053559685267,0.018166791742088025
9.65,-0.20988246287390788,0.0574773939788099,-0.01899809704686954
9.66,-0.180670470182042,0.021678098505429774,-0.023137093594075495
9.67,-0.19382739383637848,-0.0026562477941070323,-0.014302571915096592
9.68,-0.2476442933576436,0.03760020326486494,0.01367112180366188
9.69,-0.2737440562506404,0.08162055232201022,-0.030181488383859728
9.7,-0.3023897929870257,0.0535001037721279,-0.08625612389649119
9.71,-0.33457861273628536,0.05973919818686947,-0.06308066742470318
9.72,-0.35707351059349474,0.07432920417353016,-0.04939772104020047
9.73,-0.3178670951745786,0.05349404762532912,-0.1374435295828107
9.74,-0.27715560555858,0.0384136906740642,-0.18012770161815378
9.75,-0.25143471503054704,0.08000713483405551,-0.10395425151444339
9.76,-0.26344416802933557,0.10328524500178668,-0.017810608804220765
9.77,-0.27747830837024373,0.03507777581171686,-0.06254375854388879
9.78,-0.264768348940108,-0.0004506844824998853,-0.12352325449944569
9.79,-0.2335888166018703,0.036305540942888216,-0.11485089963261737
9.8,-0.22974335621474637,0.051304434314993756,-0.1141837083286593
9.81,-0.2167308920509337,0.07092589115628115,-0.06937766029976694
9.82,-0.15872054456956028,0.07328335869647808,0.004911854278156433
9.83,-0.14145031470545785,0.07389845127142601,0.0736097379253267
9.84,-0.11732605922251298,0.07143699547416414,0.01694654127898354
9.85,-0.0750899482489843,0.06607954965530147,-0.07162431645887526
9.86,-0.06755571870166627,-0.03504715185753893,-0.07195229451359121
9.87,-0.08520867231981652,-0.1005125033656665,-0.06983197783260484
9.88,-0.1262666199885385,-0.0416686999593876,-0.042661671957030405
9.89,-0.12054772794806043,0.015873999080923993,-0.10579122480204099
9.9,-0.10519362864772931,0.09458305307373634,-0.11212099679911273
9.91,-0.1533257607236945,0.10496111253698791,-0.053851645679427164
9.92,-0.2098255787036196,0.14155586458192984,-0.04357469218135861
9.93,-0.21955112586491327,0.13712243095366744,-0.11459366861540135
9.94,-0.2044688906398745,0.07661050642833037,-0.1632138451040678
9.95,-0.2515341218838193,0.05302992546618203,-0.09825313755287497
9.96,-0.29092421582237615,0.07497726894775229,-0.08183008648712256
9.97,-0.29855434205272946,0.07020250400908848,-0.1484377721517012
9.98,-0.2445828311343914,0.10895783028984753,-0.18374956915898838
9.99,-0.18940714012242466,0.1320336703508827,-0.1724154831937528
10.0,-0.20336769098011165,0.0700466162713587,-0.15108400069835495
10.01,-0.20585955669590322,0.015374816134271952,-0.1150022172564576
10.02,-0.18611454885226386,0.00884214914169883,-0.09748559131873928
10.03,-0.1470336281864538,0.03644458843685998,-0.10370219809061339
10.04,-0.163170993854525,0.04018382265728883,-0.08964842464149675
10.05,-0.18743529466254513,0.034929881064865415,-0.06148146609728196
10.06,-0.14401455837330487,0.04210118061654115,-0.05943236713464225
10.07,-0.09898426078792479,0.01943468390480037,-0.10182917847302826
10.08,-0.09723762458132316,0.00727117705872506,-0.11448899959042311
10.09,-0.11958032035842255,0.029183930041872617,-0.07823893704861538
10.1,-0.07500572266105822,0.08137618384974918,-0.05171427345369123
10.11,-0.043137846949074125,0.06219397895656171,-0.040550628216958734
10.12,-0.03501619678795443,0.04374852604336172,-0.04163436392012246
10.13,-0.05561064038748235,0.052824862189497265,-0.02148264855261579
10.14,-0.07213214538151676,0.011212140234342775,-0.06665524947481531
10.15,-0.09074419021879378,0.010096548922301888,-0.08423398490153235
10.16,-0.10073629462642078,0.035727536701521206,-0.07796058197724397
10.17,-0.06296406233060546,-0.0035246535622620078,-0.1074408394590202
10.18,0.01743608573858234,-0.05713772111092592,-0.0995357077560124
10.19,0.09428199889602869,-0.032059506650451326,-0.03892690929493782
10.2,0.13452551880302704,0.0037420673869202636,0.005307488217655426
10.21,0.1565768596104722,0.02135868060732832,0.03488418934509814
10.22,0.1298051793964359,-0.0019934850703333612,0.06413025958599547
10.23,0.09125399233725137,0.010221296453625692,0.07436287890015979
10.24,0.057417527736709925,0.012447259894808795,0.03837233683065453
10.25,0.06513933347911867,-0.019685016403107342,-0.024726372595885445
10.26,0.10215858449071333,-0.05477422684006502,-0.006992959762251162
10.27,0.14773295537837244,-0.07732767766845544,0.0363973701976291
10.28,0.18897571363044807,-0.03677166707049791,0.0758781809917288
10.29,0.2282907250774463,-0.047500384682192066,0.07754533230140896
10.3,0.2540403245059325,-0.12588532457773244,0.040824941971506025
10.31,0.2278280683241922,-0.12924271643374605,0.06169802307620344
10.32,0.1992052321463493,-0.05840757560562991,0.07803156264293117
10.33,0.20484753932782462,-0.008748896173817664,0.06139602062501198
10.34,0.1914710349759017,-0.021801190730087464,0.061663189374271905
10.35,0.14857489653060504,-0.015292333541444034,0.0988253121534339
10.36,0.1229595226105704,-0.03362522455783207,0.06049315805603503
10.37,0.12855152323878208,-0.014562582648806579,0.03395962466741537
10.38,0.11346319410562489,0.0018036258175466444,0.05334348615558334
10.39,0.08964634074341704,0.023103004947827473,0.07624263288853306
10.4,0.07873314514316007,-0.021554498742406933,0.06723105931216027
10.41,0.07414344796689408,-0.12187006945617267,0.03178686123380802
10.42,0.06150915412569,-0.10637040539873625,0.025949696986469747
10.43,0.08565158610980485,-0.0394355510419724,-1.759436519115787e-05
10.44,0.128218123702755,-0.01131319325763561,0.024359316999210262
10.45,0.11679474769585552,-0.031551810789052066,0.12027668152116627
10.46,0.08234037518484431,-0.006095849600815736,0.16706984354247706
10.47,0.060947081661885984,0.03147918881929166,0.10086025679978508
10.48,0.0519182985434214,0.007417052612939235,0.005806145506802918
10.49,-0.0001351459509334596,-0.028483140105315323,-0.0019947251095568472
10.5,-0.04417477990109672,-0.06038990162917501,0.018855137410557807
10.51,-0.05150283875401468,-0.10498754256144124,0.011922825423461339
10.52,-0.029115220025173215,-0.09883671465335032,-0.014350710389632303
10.53,0.03434218603078068,0.005917866417105797,0.004538324920429347
10.54,0.03601006940553437,0.010113202678142115,0.05687231098309974
10.55,0.009802827685779345,-0.0391882080783649,0.06566159179523484
10.56,-0.004749614206824584,0.019534572527598503,0.06832423280026603
10.57,-0.01960257368464165,0.054846367588433524,0.04472799802444181
10.58,-0.04633626393137963,0.049439985918156085,0.028749865371951754
10.59,-0.1121918580420896,0.03289094253810741,0.05827228067884656
10.6,-0.15352120793389945,0.01531387789096477,0.04894639398963219
10.61,-0.14088093019023107,0.04331858998948835,-0.016587857733295495
10.62,-0.07638592215894664,0.13928744266683657,-0.034468505452240984
10.63,-0.03948928606957757,0.11926696817286477,0.005667961881204816
10.64,-0.04771014160017712,0.01924717910263516,0.06534469134127292
10.65,-0.058722196708744165,-0.03626477200366139,0.05575030532152561
10.66,-0.07051202937187985,-0.06061022042866987,-0.030977739486688152
10.67,-0.07962702575971387,-0.024592996910483594,-0.07378729163621338
10.68,-0.11425556277511106,0.023364673599632974,-0.04763208508440852
10.69,-0.14055660090590694,0.008851405497847395,-0.04361427691162807
10.7,-0.13726670924714096,-0.031114275961239106,-0.048941011539480925
10.71,-0.12565284165062432,-0.038872846967914085,-0.05113912615798132
10.72,-0.11202274769292145,-0.009210605674130231,-0.055647015233458566
10.73,-0.11011397592342362,0.017456615045160658,-0.06166260287410434
10.74,-0.10611897049912974,0.06474226944013475,-0.05971198430549322
10.75,-0.11308497282458975,0.14279528121084345,-0.0602648755819497
10.76,-0.11200038195947155,0.17752201185326638,-0.03081482571290782
10.77,-0.15982521031906383,0.06038582226905312,-0.0005253475948879049
10.78,-0.2200008904295239,-0.011178015378381053,-0.07724233116867564
10.79,-0.24972178237745254,0.106893053980787,-0.14440243607985598
10.8,-0.22600317702060405,0.1309931645165353,-0.16897341625969295
10.81,-0.1998762949563277,0.08055848412515661,-0.11165128308866663
10.82,-0.19464258542968385,0.057941623617628404,-0.08024045691474443
10.83,-0.1399609163752987,0.08478249035411327,-0.127312908649991
10.84,-0.11054840162661146,0.03939276592054851,-0.14007380154677737
10.85,-0.15140384658358907,0.008397475242051393,-0.06537694608097729
10.86,-0.21495584383406985,0.08750235326587685,-0.01886512314404576
10.87,-0.21155270417568284,0.13329899732270023,-0.09511759405177642
10.88,-0.18656985299407083,0.08279538457926545,-0.167769949009516
10.89,-0.17572229733169561,0.09159607687631156,-0.11388374606272524
10.9,-0.17022350153031682,0.09622469039317261,-0.06384319367954024
10.91,-0.13924159446816303,0.08053263397042723,-0.07402254242975201
10.92,-0.07573913840270036,0.05187307679115692,-0.10782777361176091
10.93,-0.04761315470628754,0.013732064314690087,-0.09541166881172443
10.94,-0.022186016513332844,-0.060709668471634094,-0.12178271248009206
10.95,-0.023064594355582585,-0.05597104569217076,-0.11802722629154762
10.96,-0.022703226202195004,0.01629326470845669,-0.08719453795060404
10.97,-0.06673169723878437,-0.0003067214926729145,-0.11746160258730647
10.98,-0.0912435949399823,0.04404581668452848,-0.12641309149870084
10.99,-0.08764203542059093,0.11363275899321987,-0.08818432761449553
11.0,-0.08376773319075102,0.09038134143390357,-0.11069906298310082
11.01,-0.05389768006024294,0.010866249326225279,-0.18177031586553816
11.02,-0.034344980092869015,0.01618677279652443,-0.14265606634067296
11.03,-0.010771593200909825,0.011959426559013683,-0.11039508295248715
11.04,0.005992604551113269,-0.09868138816730963,-0.16694677919489195
11.05,-0.004129436464989346,-0.13210396612226397,-0.19798467423587573
11.06,-0.035720238511035486,-0.04303421206500602,-0.13396456940040757
11.07,-0.03298895923495708,0.03030651835762029,-0.13776631271616796
11.08,0.006752367636790057,0.04887862272187911,-0.19610725781795374
11.09,0.010793449887860955,0.029746907932116044,-0.13319195879911006
11.1,-0.003767321875096871,0.05980061311376424,-0.01787087089848764
11.11,0.024652012730480666,0.07631147930772889,-0.030226175643088455
11.12,0.06244919543772579,0.04668705913594926,-0.11220159490170561
11.13,0.08244461364762432,-0.00016174201493452048,-0.10444336881028851
11.14,0.07218532738795261,-0.06481770650035908,-0.08357630856371238
11.15,0.04893114539230615,-0.039584828309008925,-0.09932060657680321
11.16,0.03257222854017711,0.002266785020494866,-0.14896300318799474
11.17,0.06430837727698129,0.0588774927599274,-0.1183086818974139
11.18,0.0715230818199544,-0.029381000387862722,-0.13106805940257105
11.19,0.013105662436255591,-0.06979849285032852,-0.11528309276815144
11.2,-0.006894443293722865,0.008649485914005025,-0.13495479172952785
11.21,0.061041495039216624,0.03544394577931601,-0.1942416398800676
11.22,0.10031851802095164,-0.027841499589189175,-0.14980845832674805
11.23,0.03776415198867495,0.033202996288698085,-0.04507319861054491
11.24,0.02905476377900558,0.09086971265918582,-0.04289922621825388
11.25,0.05426334621919815,0.09999544676928916,-0.13743037862845367
11.26,0.06535004194309128,0.09792479874444107,-0.17742858051383262
11.27,0.04688986318372163,0.1138832306935169,-0.13379614792944816
11.28,0.044733785777167065,0.040161974786402314,-0.10925398519741436
11.29,0.10398212199521688,-0.03480480209590544,-0.10817631831727019
11.3,0.10302791498922621,-0.024065230462402096,-0.08287749260701995
11.31,0.12487676735360194,-0.011824175842695971,-0.10752950785024118
11.32,0.1316945613385691,-0.04317822924558465,-0.07760080948454637
11.33,0.13190034064281506,-0.0854808588709683,-0.05582622927736464
11.34,0.13518853106120213,-0.09441899813730699,-0.048433867473097594
11.35,0.17527789755894121,-0.0911904130544323,-0.0971172040972839
11.36,0.20523619768008747,-0.0797008403889266,-0.06283618938283332
11.37,0.2297523984276763,-0.011441886221983916,0.041553598885989335
11.38,0.2884704789513098,0.0493883470678655,0.06533751122645991
11.39,0.3224084009747403,-0.07268099728393715,-0.0009879985318358524
11.4,0.32032708411088506,-0.056450615596214455,0.053583008097875015
11.41,0.2596826024974547,-0.02880481601663932,0.10744654546979744
11.42,0.2960318922329466,-0.024730207646201863,0.06326359592809461
11.43,0.24490621999342732,-0.09348359150431935,-0.003356341319346707
11.44,0.22027365686539668,-0.07890458128793283,0.009112442614772356
11.45,0.24681716644642748,-0.041573450292036844,0.05197107341675468
11.46,0.2871501483077525,-0.12364705364851555,0.024631368635752292
11.47,0.2968961976585696,-0.1293948877548493,0.02640870714547287
11.48,0.30178122417086045,-0.06428808685355558,0.045369912747331036
11.49,0.29094481628303676,-0.03395266753996396,0.11636333482753954
11.5,0.22886492248283183,-0.0681753541713323,0.10302507402116176
11.51,0.1837016558784468,-0.016363893228344334,0.07484507775120702
11.52,0.17142776038852908,0.039549594601823196,0.04044289956388549
11.53,0.20151991459377064,0.060942406935592164,0.06385905015490798
11.54,0.1657091043316613,-0.09242328350208084,0.06628509922396153
11.55,0.18247343355057252,-0.07025767682958971,0.029113806332654316
11.56,0.20890494318327577,-0.05626905584609471,0.06646257388505783
11.57,0.2444150086253272,-0.15932065138051923,0.04741483722819377
11.58,0.24301843690362382,-0.10100614160937015,0.09409514047076893
11.59,0.20364897386001207,-0.07700514089307328,0.1533896204655147
11.6,0.2335687702085076,-0.10338623568663434,0.111580877521044
11.61,0.26367063214903286,-0.08680790528152105,0.12165133927488017
11.62,0.21043902609468532,-0.108038681889926,0.13204755713328917
11.63,0.18234762455596024,-0.026042351235283354,0.1533365315768684
11.64,0.2257879473084037,-0.07362405438927949,0.07201134609697189
11.65,0.2596243704325474,-0.06248561072115948,0.105038274811569
11.66,0.2240562496029339,-0.03689138260464643,0.16080861434501176
11.67,0.21571944520694847,0.07698892462786311,0.2222723987266736
11.68,0.2393868947899328,-0.053938703148635005,0.1734434424884878
11.69,0.21574931622171795,-0.16214675450483082,0.10476086089689478
11.7,0.15023320861141137,-0.07021551445070967,0.12221266296015798
11.71,0.22978376690856384,-0.02349608584880209,0.06353888899435983
11.72,0.23731902760287873,-0.14385274796517702,0.09380378577289358
11.73,0.18903015365602024,-0.1331180762926644,0.20627403793689159
11.74,0.18881177247542957,-0.0005005993745081751,0.26697683305702075
11.75,0.21935600533972255,-0.07711369537741733,0.13081869295912973
11.76,0.2390033643471087,-0.07338000648788848,0.17838160710143913
11.77,0.18194290129439097,-0.12864876732638297,0.20340454603199984
11.78,0.22624665943719685,-0.16673942661869828,0.17794255733939598
11.79,0.2115237933237728,-0.20184294434215078,0.18495435662223142
11.8,0.26212852581499374,-0.11937098648353801,0.19285225379581297
11.81,0.3107973002066875,-0.043077392634634275,0.24387415594919848
11.82,0.2672439224717071,-0.12282310730837748,0.2548611030207467
11.83,0.2489878679934686,-0.06351457833473295,0.31609609113410764
11.84,0.19418146836387878,-0.09305730886394781,0.2846450224090978
11.85,0.1783815176067184,-0.10592923757433051,0.19640113766880207
11.86,0.14045858870633776,-0.07928756136073065,0.19824966081901038
11.87,0.06169081329647659,-0.058595102902241764,0.23952268432064275
11.88,0.019290892548694424,-0.05907359855915948,0.21972598959930525
11.89,0.03637767257763664,-0.032411314300147896,0.13256555729132272
11.9,0.024141579453091484,0.008511604619305937,0.1662278049546175
11.91,0.004924775543174936,0.020782128443190207,0.22700665193795963
11.92,0.02527087554152256,0.010819319026913344,0.21699564575362346
11.93,-0.006860922341527924,-0.16644098593721987,0.0890210687773455
11.94,-0.04202931332630585,-0.061248613858493534,0.1332237558369837
11.95,-0.10432350549819687,-0.014783880106397881,0.2060437365692024
11.96,-0.09843142991083363,-0.0769806070330307,0.1045481673354342
11.97,-0.10821102834999535,-0.13517172825058504,0.06527406668696512
11.98,-0.17186864104484106,-0.14126685374847367,0.10262465003367444
11.99,-0.1835054857693283,-0.04741588719793425,0.11663792232901804
12.0,-0.18879121686492828,0.024413305326410548,0.11996523068080284
12.01,-0.15209278338163126,0.04944416739054145,0.07633083087631419
12.02,-0.14493377697334645,0.14279454441878603,0.14005773468336383
12.03,-0.14016761795826368,0.13155933335591882,0.17607968950856526
12.04,-0.14357494527604664,0.014468483374205834,0.15612150425523294
12.05,-0.22424748349582768,-0.036166116200314416,0.1381045114819989
12.06,-0.2406349116135217,0.012654270069941203,0.0395193425855644
12.07,-0.23901751710044797,-0.015604276534274557,0.012165537390210928
12.08,-0.24163517238759102,-0.10232070590572692,-0.026992595390142777
12.09,-0.2575397112929318,-0.03118170496625198,0.02674213363877032
12.1,-0.2538820554824845,0.0007693965305665622,0.008172669867756175
12.11,-0.21943287575658596,0.030537853215820757,0.0005807560453723019
12.12,-0.269618722805525,0.05878306623222487,-0.005368152319473059
12.13,-0.31020384977768223,0.11869235009219913,-0.03954906280812085
12.14,-0.42131519350695473,0.209316349870251,0.03475343479513976
12.15,-0.4445585323569898,0.19451802184508754,-0.042352230599496825
12.16,-0.47011955266129335,0.17057219392632908,-0.1125598873892022
12.17,-0.4799869586145336,0.11746639167306505,-0.14878876122560347
12.18,-0.4862891564186476,0.12701534300933884,-0.12194052298899759
12.19,-0.4520811076648225,0.08629517750957993,-0.14139584767479235
12.2,-0.4098205853356715,0.00795403505060379,-0.1844402305819311
12.21,-0.3974055503291086,-0.04724990620167191,-0.20442895167712855
12.22,-0.3848985790774178,0.09933421358744476,-0.12704920735381406
12.23,-0.3592184069796599,0.11836805544201595,-0.11489893835160829
12.24,-0.36913199599167806,0.0766567252515557,-0.16667327594790782
12.25,-0.3893393405457701,0.060172206299686844,-0.1842176215928027
12.26,-0.3817991844936278,0.13049708273335825,-0.1283755413774469
12.27,-0.3904049562582085,0.09584048547801394,-0.1543219330512499
12.28,-0.3470745983364739,0.07278730478576326,-0.219487133316435
12.29,-0.32337363910267747,0.10599248612697104,-0.18735128089626993
12.3,-0.3005424290870043,0.16663223745517422,-0.09711559352929519
12.31,-0.2392704708460909,0.07595365988845895,-0.18049514079114612
12.32,-0.2148964080759405,-0.022615482269683317,-0.2569961987928224
12.33,-0.22567873514392633,0.0022489935306147578,-0.16018537101566063
12.34,-0.22739104221558468,0.010455131863214472,-0.15021941384943363
12.35,-0.1683510940034324,0.005297545985253061,-0.21998859379848296
12.36,-0.0807479124947322,0.02726635034701931,-0.2465902197714886
12.37,-0.07264614960158691,0.1530099207128126,-0.044341087399297686
12.38,-0.06525913526926246,0.20759785823600932,0.07710676780812416
12.39,-0.03683612838750128,0.09300116530445464,-0.05837234291680342
12.4,0.01540591661758807,0.006230826924037187,-0.2189436851936553
12.41,-0.026024859133505298,0.03099213064775499,-0.12563546316895727
12.42,-0.013014317566759597,-0.042035800693031776,-0.06487006094142439
12.43,-0.04137927454963829,-0.14301074804274852,-0.12561501595500263
12.44,0.027997788811074,-0.11774898858293077,-0.2057579737292456
12.45,0.08644254513357118,-0.010371848257548876,-0.15104047466733747
12.46,0.07672278838116059,0.041327949964931415,-0.017098486936790214
12.47,0.07746659722521332,-0.009259166421385993,-0.06585711907289407
12.48,0.08032916910801285,0.013818616935987333,-0.027338441761628477
12.49,0.10484375088830412,0.019122510081539378,-0.03202002307155113
12.5,0.07165346975235076,0.040917952977054146,0.015023094277725517
12.51,0.0254994982921694,-0.007704855734259186,-0.04707784514099114
12.52,0.061988854793798565,0.03403841021524155,-0.08298493069559915
12.53,0.059025121982917005,0.11206135245188185,-0.04128955095653896
12.54,0.08133893947708079,0.17871703615600687,-0.0073256404867209505
12.55,0.07981723337731003,0.020975593979978238,-0.037700756791882624
12.56,0.11010401516587416,-0.08136440526269897,-0.04726144832553609
12.57,0.07515513574528956,-0.09539505379702902,-0.062141619202763704
12.58,0.04192849533581081,-0.005317456001464862,0.024782379682272766
12.59,0.048215667583104124,-0.026775399564505604,-0.0730980580175155
12.6,0.11418281729151536,0.0009702216256886509,-0.1287826852439005
12.61,0.0493830744735062,0.011475166921539121,0.006980238825848944
12.62,0.02043962236178826,-0.01749179803355235,0.006913728251952953
12.63,0.053072619627417356,-0.03361698469846159,-0.11370064523143002
12.64,0.04468570664126341,-0.015268355059391251,-0.09238433403001864
12.65,0.01003422579065211,0.07300202296912829,0.009575726419277678
12.66,0.018585714247251972,0.1169142958571099,0.004443896496552652
12.67,0.028266152673855304,0.07236275880559107,-0.0581453199182457
12.68,0.030691357167695887,0.08919066228570635,-0.029467762932454462
12.69,-0.02257668608459964,0.047730956662430844,0.03920668803623662
12.7,-0.02624124698886445,-0.03641081049948508,-0.060582771803071034
12.71,-0.022263321698613694,-0.04247081388786505,-0.10072719334181084
12.72,0.0027426291445713223,-0.01873349921785287,-0.04552006856021786
12.73,0.025494383730577164,-0.032878907263908866,-0.042369807758502576
12.74,0.057439553668965554,-0.012952612008086834,-0.042021580473631324
12.75,0.06012581689496263,-0.00920528105045978,-0.0003257287808740209
12.76,0.05445273404088653,0.032048462894048994,0.0419408434933265
12.77,0.05895144467279847,0.05933455150885912,0.04102244150698569
12.78,0.025135104795095023,0.03763301802291748,0.03297727859706263
12.79,-0.01866633751570288,-0.007507083675111929,-0.025625003352793885
12.8,-0.033962715902297526,0.03637640924322549,-0.012457113474573211
12.81,0.004051522162673415,0.06875699943697405,-0.024221473807975635
12.82,0.0428286094641374,0.0570785645022492,-0.04972050347631585
12.83,0.08965341186313619,-0.02346011993612628,-0.05308564339475683
12.84,0.08293630628080796,-0.06956512683972532,0.027023801525325717
12.85,0.10356678477604025,-0.09889345139917663,0.009138665750731483
12.86,0.13172041716178315,-0.08452431716080451,-0.04818704407024906
12.87,0.10897213907607932,-0.03270069967466567,0.014179018679885285
12.88,0.09585724237450353,-0.017286103271977816,0.07034557092476165
12.89,0.09929462196360868,-0.051525361166043414,0.039115420633834795
12.9,0.12245936876725089,-0.05126173947581026,0.006079778521828697
12.91,0.09947548735290325,-0.038958593537816,0.014118095923614208
12.92,0.1072638191730992,-0.03350540672351862,0.024979603349469102
12.93,0.12504453501771684,-0.048673920827149615,0.008316653543387353
12.94,0.11631898740565166,-0.0021759252945560007,0.041209111304696726
12.95,0.12039131020191288,-0.023072543923293012,0.056412502076358825
12.96,0.11327069734448274,-0.10653427959792404,0.021476987249254093
12.97,0.08135340977362286,-0.13160105710888745,0.01752801360731471
12.98,0.05263414193515556,-0.12246203544583532,-0.0067550841327394685
12.99,0.06613206950518674,-0.05987162577779839,-0.015828979591865928
13.0,0.06973259875229226,-0.011707342569685133,0.01691609515728711
13.01,0.03492346448711471,0.018647132025446423,0.07771558616399384
13.02,0.019532632773640445,0.03612109316232677,0.12137900745256855
13.03,0.042999582753997956,0.010955331590744407,0.06254228887386541
13.04,0.06762752323347586,-0.0014721191547452175,0.02007333302556134
13.05,0.04618470239840405,-0.03651479662583081,0.01306831448739984
13.06,0.030068321023347038,-0.08880190728166236,0.03066428400775044
13.07,0.02730362397994897,-0.12061843517892053,0.052597799408938196
13.08,0.04899386787907987,-0.10158277456415646,-0.024844391532595548
13.09,0.07174194082128361,-0.030221861891774223,-0.03748976530248606
13.1,0.044172055027789495,-0.006675063021513242,0.03282365336435552
13.11,0.01523360475633949,-0.03887008543360594,0.03629147403040858
13.12,0.018564669884231656,-0.03871837938571879,0.04628816432597685
13.13,0.059914769178604416,-0.03212446585512386,0.01634745274515971
13.14,0.08358618815812477,0.018746582564179094,0.05384660709581897
13.15,0.05254187473854087,0.027122672586718386,0.11359101809631623
13.16,0.03550966614548465,0.03138239276039512,0.10196400597731692
13.17,0.05172461241634082,0.07044142090189207,0.0511055818395303
13.18,0.08371663038203599,0.10923684255774589,0.05120010001398432
13.19,0.09110879692361995,0.06103438497187873,0.1053648183864875
13.2,0.10257868747750148,-0.054249783310931915,0.09416975696555707
13.21,0.09367092863850532,-0.11292097894002578,0.05908881077450416
13.22,0.08755004346061228,-0.07758155238013012,0.05910577803129497
13.23,0.08435431816784686,-0.07236499500478831,0.0590789349514361
13.24,0.0580058583794034,-0.1015088033389626,0.0499616619264334
13.25,0.024836892373468915,-0.08363439238454971,0.056233026007886905
13.26,0.01786067453502295,-0.06701260701187511,0.030296706124534088
13.27,0.02899970916139804,-0.08367049653109426,-0.008523076086305507
13.28,0.012766953581563633,-0.04485930210898424,0.02538462919015217
13.29,-0.008284373402249169,0.009197180314724879,0.06366672955263075
13.3,0.009984103689092957,0.0728504131377336,0.068007041801167
13.31,0.031349937474388995,0.08366236668887597,0.036471403489885285
13.32,0.022791950981816744,0.0395732002251861,0.04193725302716185
13.33,-0.045338399548770586,-0.016525794101034403,0.09135525599136939
13.34,-0.0919489756071347,-0.026705275533511954,0.07689568358204057
13.35,-0.094749896013999,-0.044840917827037106,-0.02289021564637299
13.36,-0.07577034363809297,-0.059076189050624235,-0.0707094477102026
13.37,-0.06782990653255593,-0.018439859401467147,-0.01859342139226009
13.38,-0.056946218763169826,0.002988862180312006,0.01851512070935584
13.39,-0.020540013448662096,-0.0002526245468822139,0.03187841102800125
13.4,-0.015174592863450872,-0.01850090848801301,0.01443520695373361
13.41,-0.041616440620705956,-0.004486680353776149,0.011313237798389848
13.42,-0.09578212397287043,0.043620391836652235,0.028430646171025212
13.43,-0.13940308492355893,0.08107675232191935,0.018220864461525498
13.44,-0.16050050752649395,0.06638589015521856,-0.006351758980625303
13.45,-0.18509449780056894,0.08226902279010911,-0.02831353674863359
13.46,-0.16817190566330434,0.14346814042602724,-0.057797862152250336
13.47,-0.12478246176603017,0.12335673553531926,-0.07663899655867859
13.48,-0.08874665825326469,0.045510448384035,-0.06709627739631932
13.49,-0.05584111761034171,-0.026733427152108205,-0.06824041997873524
13.5,-0.041550605693365106,-0.06286890554892197,-0.06160378725424248
13.51,-0.039450151607107256,-0.07032858474535515,-0.05411214285684124
13.52,-0.03236002789264143,-0.04778058477316151,-0.0478624838735147
13.53,-0.04417753880639203,-0.01616873509366225,-0.026306103341954257
13.54,-0.07006098601157125,-0.0002991251161133457,-0.036507427660685
13.55,-0.08365413480937703,0.06445811045633969,-0.02115125307647037
13.56,-0.07519168931169698,0.09439176319143482,-0.01783567521002753
13.57,-0.03420558136640698,0.04016910341416295,-0.08359465967963622
13.58,-0.007992796479845927,0.032251531253594715,-0.06583203038138823
13.59,-0.002138567906991312,0.05413405651375988,0.022327414977268346
13.6,0.007646486663887868,-0.0033179640167005017,-0.011552120162970688
13.61,0.004160591795434746,-0.0772440650210424,-0.11109883339517954
13.62,-0.05162734672186365,-0.05121524081092044,-0.06941233391004939
13.63,-0.09258090225800265,-0.019762266889914053,-0.04751973831519882
13.64,-0.06905281115707772,-0.01647704737169375,-0.1096768600270425
13.65,-0.03336827000054881,-0.005196105920196086,-0.138789537046572
13.66,-0.031015531448959605,0.04172620052368873,-0.05006190585721499
13.67,-0.03324295764039892,0.05719653814206485,0.0008256958401972789
13.68,0.010717541392165335,-0.004570436621160891,-0.07166486865699088
13.69,0.028870530769881938,-0.0023535708923262187,-0.10489773965687317
13.7,0.010139591172483859,0.03416938811141181,-0.04566983943941937
13.71,0.004496683616655374,-0.021620143403083845,-0.06047102205573188
13.72,0.02262117356520082,-0.03455740076783145,-0.09641469707211006
13.73,0.05439964974114981,0.0469082359984127,-0.06454563423474395
13.74,0.08846818584829254,0.10570913346610712,-0.030472862707282573
13.75,0.08401458538572044,0.02432005557909526,-0.04115075484409899
13.76,0.05561431866891342,-0.05798857613903631,-0.056839390449573694
13.77,0.08110053064338277,0.018312947129470777,-0.010167208225358267
13.78,0.11550680733763799,-0.011486423934670139,-0.023922310068424404
13.79,0.11144353907992606,-0.06321076760537382,-0.03382809656693049
13.8,0.09675072175329948,-0.04144158320532638,0.020746688883836115
13.81,0.11709889132271033,0.0005126991031338181,0.03730935184931098
13.82,0.15198500667413234,0.017441840816440478,0.010221487942716167
13.83,0.17416520018973475,0.027116269985228304,-0.015064487266811916
13.84,0.1740244505131742,0.013961077207772133,0.013784830597946619
13.85,0.18157230398954727,-0.03707147203122934,0.04680455900078561
13.86,0.17475242290107876,-0.04772311813747714,0.06778489076564725
13.87,0.1349650566899898,-0.04467193044151035,0.03910643259599654
13.88,0.10721022076220445,-0.03743054561021543,-0.004856773391409342
13.89,0.0988902978849236,-0.016078865077775006,0.0015846452965348294
13.9,0.09632674373476705,-0.020062180616872385,0.02540571669916281
13.91,0.07216881422997107,-0.05742134594090547,0.0040266763637071745
13.92,0.06467611322108471,-0.06403325856545655,-0.025414057264172743
13.93,0.10327129554719429,-0.05027987115230192,-0.014705354331963925
13.94,0.1316744686043184,-0.032825553239099185,0.016768314470502185
13.95,0.1163435002605551,0.005775990020359447,0.04609209051022195
13.96,0.10080891368241704,0.059789859058602214,0.07749370200601848
13.97,0.08084483046824363,0.0232319599285129,0.0621618730431369
13.98,0.025953524126703598,0.01607760808029547,0.0711819029727226
13.99,-0.03533911442472576,0.020935869061028435,0.022495645235509523
14.0,-0.049618784445736044,0.0016283153467098726,-0.05426416483019623
14.01,-0.05979918399677241,-0.023783071997843883,-0.037313207769224886
14.02,-0.059490656458983375,-0.015755855761979007,0.0006351225542861659
14.03,-0.043786961289532,-0.007420531566357492,0.00047158659633935964
14.04,0.006734000043810271,-0.017760388222358765,-0.037480025202766894
14.05,0.045809250156539055,0.00039747218678656696,-0.011616073267960918
14.06,0.020257810346623096,0.019915380962624532,0.0478967556247624
14.07,-0.04806467483213521,0.03586286189858673,0.05480229354881491
14.08,-0.11592210786257129,0.046722477917095,0.004138915384311496
14.09,-0.14657483775612917,0.06441247303791317,-0.0437655698199851
14.1,-0.1551891196066354,0.09495339476724055,-0.05360912052071937
14.11,-0.13594372674209015,0.11538625985159974,-0.059565577670176686
14.12,-0.12109113337698518,0.08172384756171193,-0.04116161276580435
14.13,-0.07718714292628258,0.009772591953050297,-0.0622425254003324
14.14,-0.03392790592629133,0.017434262681709473,-0.01008340979085644
14.15,0.02050591194624847,-0.028119838061544663,-0.0058678682852633165
14.16,0.057169873895077425,-0.07442678426656316,0.009245692213451836
14.17,0.0520525854850003,-0.06914830044271089,0.052801216377809684
14.18,0.059894728293929264,0.02523002589058185,0.06462207565228092
14.19,0.04544255422503177,0.008157299624884958,0.03402077954419989
14.2,0.038326588347271005,-0.04176862530608989,-0.023864786277247522
14.21,0.017088475141361723,-0.031276482297801736,0.005666170356905248
14.22,0.03830176931916381,-0.008036285953232428,0.01067540816758976
14.23,0.05995953283262709,-0.04316142678751384,-0.020989673257540125
14.24,0.07178053048109657,-0.03516673606029128,-0.009900666455719097
14.25,0.10084096515826399,0.023232442166808115,0.052932606022840174
14.26,0.09730862813781267,-0.032389187408247366,0.06478920075945165
14.27,0.08046302226485712,-0.11779876441163609,0.01669462564814178
14.28,0.0716064124973155,-0.05188567197889073,0.036061600224993294
14.29,0.08416298557447066,-0.0174899772353431,0.03832354213374006
14.3,0.13435874619435512,-0.026355143454001154,-0.010777832890547345
14.31,0.11460037311434944,0.02677726323155881,0.05322351278595037
14.32,0.09755584540157872,0.0505234953133939,0.14433565572230006
14.33,0.13652597707921324,-0.010845382959341704,0.15715448213603728
14.34,0.1712608818894753,-0.05970828881256182,0.06764591312702205
14.35,0.16787894889361388,-0.0457438357124902,0.05453296379487168
14.36,0.13864446854061852,-0.06933040747885467,0.07581532921709602
14.37,0.12557078812752165,-0.17486262839930597,0.086330074899237
14.38,0.11148215452694323,-0.17853151825651387,0.10170339296271708
14.39,0.14159335436321696,-0.07735404001452689,0.045777743879696645
14.4,0.12264920325574089,-0.021279922916607536,0.08659072834320698
14.41,0.07770237035969747,-0.08027561902659158,0.09072543173254771
14.42,0.07434269433317152,-0.04934921241891269,0.0774533432953845
14.43,0.0393937676238506,-0.005501959943083652,0.08914281182455581
14.44,0.08557593430423582,-0.007016277470480065,0.006091875824513126
14.45,0.07189979491913984,0.0697160667536875,0.11576853729947637
14.46,0.03522164306763355,0.007666035071983843,0.14608005791556014
14.47,0.026634691687179423,0.04359899811718387,0.14395057257182342
14.48,0.04811957592486324,0.03387952766893552,0.019435129709994087
14.49,0.07934759270376178,0.10960065816903769,0.08075871560888846
14.5,0.039411944805908254,-0.028836826237024153,0.10279037329876843
14.51,0.0265527744151729,-0.11427556399582753,0.08458691013173679
14.52,0.027456308440197013,-0.14408661574057383,0.04393111797286947
14.53,0.02951575279890799,-0.09174221107441981,0.04707422050222691
14.54,0.05170739630128635,-0.04722837055561815,0.06446338725275721
14.55,0.031237327964895017,-0.01351192189028466,0.11661811165855324
14.56,-0.011041791352298075,-0.036837407244401925,0.09549869185480359
14.57,0.015022117894479527,0.005449842195885457,0.0883933913767467
14.58,0.022170357718121425,-0.022858397255533507,0.07267449598822756
14.59,0.018358956083286904,-0.006777611871416262,0.08107220295634021
14.6,0.015956936837412696,0.008100477200559364,0.09137852137486932
14.61,0.0530713880726775,0.025584342956680998,0.12143455280093084
14.62,0.06605825960246782,-0.002657858807752528,0.10995032389209781
14.63,0.05685341233818246,-0.013204479006075681,0.1011685708760877
14.64,-0.005606475313921156,-0.0067957019167056865,0.15353282896270656
14.65,-0.00670214999559146,-1.5499091175961218e-06,0.10704758521560101
14.66,-0.03073258583533266,0.009365608880219999,0.09521934993615618
14.67,-0.04896374645432207,-0.02913328636700494,0.04411461894602094
14.68,-0.02786141119476759,-0.04302805804068571,0.035723642143890504
14.69,-0.024740232697946462,-0.05677930287237234,0.056994839870070355
14.7,-0.0030285174770475556,-0.06056948763313015,0.07459188470339773
14.71,-0.01135845327360434,-0.06692049955960705,0.06697275188521508
14.72,0.019488608344843145,-0.030961549949785325,0.01791102694838187
14.73,-0.04464185040907236,0.0058715304158631874,0.057129994307237635
14.74,-0.14551916842456858,0.07451794512632563,0.14041994462006333
14.75,-0.14611622549611897,0.056441518366160036,0.026258449231464268
14.76,-0.1616430620000967,0.077664507769633,-0.004435200062409508
14.77,-0.18643137348480365,0.10636721126134398,-0.0018045025098006805
14.78,-0.20151613203307467,0.10327311210872073,-0.008923535852180395
14.79,-0.15538081254843042,0.004019584151034047,-0.0032349515849467853
14.8,-0.11318389707946008,-0.06892673335338534,-0.0892131652495649
14.81,-0.11577134307313602,0.0951309992329403,0.018874316189091127
14.82,-0.08377604394376695,0.002235103393805389,-0.01608394657180553
14.83,-0.08635995296001125,-0.057523690208986844,-0.027589265465906593
14.84,-0.1355485887640597,0.039132544874168264,-0.005018465013250971
14.85,-0.19023067250786424,0.12961892325758828,-0.04734195002961362
14.86,-0.22726584980740813,0.08092173771694043,-0.10957177896341351
14.87,-0.25326479631033455,0.13232732471258005,-0.052466057071715005
14.88,-0.25846239188019027,0.11796878824408227,-0.06601249840094864
14.89,-0.21468335464494506,0.08430436222327684,-0.12865224940361605
14.9,-0.16991016987230118,0.04411837812983983,-0.11216856516407524
14.91,-0.14519478090568763,0.037120886510711895,-0.019341224774879966
14.92,-0.12663563374368145,-0.004029553858247837,0.004962826176795902
14.93,-0.12560054895932787,-0.08243964901996134,-0.11419312514728865
14.94,-0.20188495325200473,-0.02255206045497888,-0.07773275453677818
14.95,-0.22705181237989885,-0.005137783663660619,-0.12532057387985301
14.96,-0.20491320203764254,0.024815537412484358,-0.12875505023838665
14.97,-0.19671961158827977,0.07396894657190534,-0.08168128279478547
14.98,-0.19693050422931882,0.07870516483173978,-0.05093116273971264
14.99,-0.17098759935291966,0.14354760774062625,0.0156857162929043
15.0,-0.12036832707865747,0.04328780600776913,-0.09799769362617873
15.01,-0.06374161011697901,0.06709690517130294,-0.11151663280685513
15.02,-0.08781722121410099,0.157515483374079,0.006015676740455357
15.03,-0.0833717662149041,-0.04822426420330036,-0.07923116291399619
15.04,-0.0958453522194736,-0.09844953677495868,-0.1245327887870724
15.05,-0.11511227283393165,0.008491357278680313,-0.07425048884459523
15.06,-0.09565134453294755,0.10347308588058596,-0.10828786981693436
15.07,-0.12391931923771118,0.04537078045441599,-0.16311971491354982
15.08,-0.11666856993459054,-0.0016372463000837013,-0.12660240004305925
15.09,-0.10701715152839576,-0.0037586259217324805,-0.11793329500141647
15.1,-0.0710397177583018,0.06217117253897285,-0.036037724611436575
15.11,-0.03508562622463318,-0.004647192134438879,-0.14498062661205485
15.12,-0.05108088749830226,0.039676766357454735,-0.05223758445005792
15.13,-0.05881227834315936,0.08947195737687967,0.01958819224049803
15.14,-0.06679525229644939,0.14207738853108265,0.022860516517318775
15.15,-0.06718138287084091,0.11905747583838712,-0.08704579274674179
15.16,-0.06838955201071678,0.09610334753660571,-0.11196574364874759
15.17,-0.09573020339316284,0.03847464132935047,-0.06263751799240672
15.18,-0.10381656892870413,0.010968821474745106,-0.0417425060245237
15.19,-0.10121182861935049,-0.029420731179415464,-0.11225282778324308
15.2,-0.09783319355631023,-0.013570101169093105,-0.09660218753403897
15.21,-0.0891735757165873,-0.014832594381178447,-0.1183360482610919
15.22,-0.09463307641610581,0.03419814154849951,-0.0833558543808716
15.23,-0.11148573211751962,0.02149641070166641,-0.09896794081030531
15.24,-0.1101107913234292,-0.017507212136632855,-0.11299795393802425
15.25,-0.09068780167942653,0.035229846533576345,-0.06315449159399278
15.26,-0.05324131492739452,0.0187740961024656,-0.057219692198960226
15.27,-0.02819717884504165,-0.010311573352470207,-0.08962297599566707
15.28,-0.004859392064805376,0.018158954171762803,-0.10173045853502846
15.29,0.003367265051235269,0.0703267608132912,-0.03924640156255192
15.3,-0.005568414929928874,-0.008810389814703525,-0.07132146496054233
15.31,-0.05987344609333924,0.009178549932910484,-0.028570399605289436
15.32,-0.06948164753049166,0.008026611413234177,-0.10344646590764874
15.33,-0.06775327485887976,-0.009424205097654322,-0.14254370009273046
15.34,-0.08806151334680899,0.0010004235267155636,-0.07974637620884834
15.35,-0.08420826988637314,0.015753354952585927,-0.09693898955359877
15.36,-0.09423793297510388,-0.05141785616491943,-0.17476283635225312
15.37,-0.052008071041919395,0.02871529791044006,-0.09915409964075786
15.38,-0.04182828300414281,0.04070463416115411,-0.05758384690963637
15.39,-0.01667019282592308,-0.01104757946525025,-0.11210321851086631
15.4,-0.03388313621261899,-0.004896806657725182,-0.10248651846300907
15.41,-0.07114030109721865,0.09602389713163291,0.012377016346141323
15.42,-0.05104612196775143,0.07853748436065348,-0.048307697042608386
15.43,-0.027636928908769648,0.13158710219227734,-0.0487101775677573
15.44,-0.031236420936437213,0.12564880524314256,-0.01912537590825231
15.45,-0.03052616093331139,0.017156619143067754,-0.06194669752034413
15.46,0.003943338451312203,-0.09627831220057766,-0.12766149445896705
15.47,0.04040191242786368,-0.06602429987315132,-0.0887397347038625
15.48,0.05883923527179467,-0.036485976950042104,-0.009120128131501107
15.49,0.10157600376583012,-0.05068924184843384,-0.014285367863466904
15.5,0.10031365631926105,-0.08007756792297191,-0.024572834927469762
15.51,0.0839004278480276,0.002543922581162427,0.012061815836678935
15.52,0.060760980173856165,0.03546143817982219,-0.007221040681236509
15.53,0.0546015716613124,0.05468609518903169,-0.02123247432011978
15.54,0.08648641697143848,0.06117011255159437,0.011655624558650735
15.55,0.1718743594008966,-0.005580860386150195,-0.024251676131486006
15.56,0.22817533427686298,-0.06476623119097474,-0.003979283993948924
15.57,0.27686985755184357,-0.07176261604816299,0.02745669177912783
15.58,0.2951687192966768,-0.04851626181285564,0.1261527492487687
15.59,0.3339853972778881,-0.09991251065877449,0.08652017584490386
15.6,0.2693288922429546,-0.11612703396551997,0.11376521677260981
15.61,0.2428179712362279,-0.09990966512778875,0.14061067005626832
15.62,0.27002605173648303,-0.08695549921364717,0.07115577388778287
15.63,0.3029551875130735,-0.04024266073587408,0.08857071540723006
15.64,0.31998515533019284,0.004746968431723465,0.19210147967915212
15.65,0.31682511283221837,-0.003260231495828967,0.2974895388935899
15.66,0.3935048063451048,-0.0197720736188136,0.2588399234972455
15.67,0.4222449569101568,-0.03633217281663993,0.17388621374678956
15.68,0.38982066145317223,-0.030324264675457128,0.23576370807054767
15.69,0.3141028842174082,-0.009248875767526043,0.30506607126795227
15.7,0.27962993188244784,-0.1263535462642335,0.21877792795289513
15.71,0.2593833971619926,-0.20065123592923642,0.10779347189069648
15.72,0.18469242399653701,-0.08028933933121045,0.17319989200056451
15.73,0.1537920357018786,-0.0196271506737462,0.20910864362991952
15.74,0.1615370768605953,-0.15021931207947145,0.08736405039027466
15.75,0.13226367339137482,-0.2328585106724428,0.0400243868643673
15.76,0.07847730517242396,-0.15303273890357882,0.1231040087871591
15.77,0.07195215462688617,-0.062386024423028895,0.13411521666935985
15.78,0.07755975191949337,-0.01538489692309024,0.12727691019279552
15.79,0.023836390084802213,0.012161855503412299,0.16577313185926917
15.8,-0.04966049778811785,0.0908438061825289,0.20415274038076775
15.81,-0.0551632269046618,0.14246692326994878,0.16333216228599207
15.82,-0.04837254767996282,0.1194342062174011,0.12305123729018302
15.83,-0.0634297223364207,0.062316998525383555,0.13325235553909487
15.84,-0.07132539263420953,-0.023644825891215394,0.11691327045318817
15.85,-0.07721298528141887,-0.08162172033458884,0.09045563337195635
15.86,-0.08646777721761138,-0.05333953235973763,0.0901973748463807
15.87,-0.10840837872109016,0.017426132177143144,0.10707374194720225
15.88,-0.151661864262112,-0.01607310140026143,0.025633021492679382
15.89,-0.22730310329338893,-0.01922578907795747,-0.032577114635605205
15.9,-0.32360314619410213,0.05916211971760114,0.0193544137439213
15.91,-0.386364443348561,0.06669208020914573,0.01624665704594432
15.92,-0.38730663085581607,0.04703832139592183,-0.13073446754051746
15.93,-0.3860596365424116,0.13408327750077448,-0.1184958071492086
15.94,-0.40459178368283827,0.12222369978871883,-0.06230753554105096
15.95,-0.3851578281700224,0.08333048007512366,-0.04411402770664938
15.96,-0.3542448121311432,0.09724148339360461,-0.02837640517931039
15.97,-0.35338325413428606,0.10345984180132124,-0.06316597556196576
15.98,-0.3752927632307283,0.08336751674861827,-0.056579059268992864
15.99,-0.38500835510960896,0.047469363188408054,-0.05549898775472942
16.0,-0.39185172985070077,0.01611624364650146,-0.08285190675435253
16.01,-0.3683225639741799,0.03675907649203292,-0.1023948015909196
16.02,-0.34823838598536805,0.04267931387662426,-0.11981852738743999
16.03,-0.3143383261495757,0.04904325730706147,-0.08742436100160476
16.04,-0.2712628786056566,0.05205777130442452,-0.05248310456856855
16.05,-0.24470698889667775,0.04451316788294828,-0.038148937054872635
16.06,-0.23652631084234005,0.039049213903024356,-0.07140267721929183
16.07,-0.25867282855202317,0.07364759413050492,-0.0727317555128913
16.08,-0.3194403395457622,0.09694332538471774,-0.032953752426407024
16.09,-0.3586006136442489,0.15276643049594382,-0.06618848718801738
16.1,-0.36384206179626993,0.26036405294985004,-0.07527458476318614
16.11,-0.3445374264053123,0.21487092121209156,-0.12035420656109305
16.12,-0.33560595351414113,0.07018121253969989,-0.14117314983893295
16.13,-0.32457099630458885,-0.011222954899589391,-0.14877946964108063
16.14,-0.30236119575394665,0.026425666196159252,-0.15777159414603684
16.15,-0.2760868675264416,0.07569297557855613,-0.1774616467501585
16.16,-0.2791069158730396,0.06132939447724066,-0.2031192714762636
16.17,-0.3701500664888588,0.06359511988886392,-0.2032682135191701
16.18,-0.4589884556150781,0.15685966380671493,-0.21031669801436034
16.19,-0.46801111947300766,0.20772529720897434,-0.26180220268286614
16.2,-0.4702094860742052,0.14814280209453035,-0.2575384577567451
16.21,-0.4850904345381892,0.12541390410577505,-0.19622432579414195
16.22,-0.4484745536592925,0.14664968033967488,-0.1983579397716378
16.23,-0.3538694969689499,0.1009322204441343,-0.25666021467467975
16.24,-0.2506746386129932,0.046035130219998215,-0.2522786870865321
16.25,-0.23324604215413267,0.04097073865197909,-0.14727826831331567
16.26,-0.22932092424882294,0.04968287761515385,-0.12511120321845
16.27,-0.2194556707448321,0.005458721047197155,-0.22716373160226616
16.28,-0.21490183135122698,0.0431433419712278,-0.25415059979531396
16.29,-0.24206895003578485,0.10341917183844332,-0.22064477840712707
16.3,-0.24238620971237687,0.12754868204006692,-0.21535547214538375
16.31,-0.21012761152682596,0.15054084568381854,-0.2044980371078159
16.32,-0.17632331628246906,0.1132740360117942,-0.1882383964190029
16.33,-0.12258893844737412,0.06776078766478312,-0.19939111246212737
16.34,-0.08651267610967593,0.004635183757050806,-0.22856420820917062
16.35,-0.032769029563981686,-0.04608656594519448,-0.26717870093397383
16.36,0.006901650025541995,-0.008409592958670949,-0.2221039674286954
16.37,0.034710234705329295,-0.081892521947046,-0.20552813336600725
16.38,0.0696166516168331,-0.10968585444279919,-0.2494684911050371
16.39,0.063922542352602,0.01208931719052562,-0.23232915408971339
16.4,0.06759551795148822,0.057470146079534705,-0.21303313927203743
16.41,0.06660163176655838,0.01461353021401796,-0.20447757330228267
16.42,0.06490655676303164,-0.011763743297184456,-0.17133674401625446
16.43,0.08256177164299469,0.03892490992216378,-0.09336312127157939
16.44,0.1300826424895982,0.030450563004543647,-0.07396009358076507
16.45,0.18486355622863507,-0.04324512711665925,-0.09449098473685204
16.46,0.2044394793614212,-0.016758162595246855,-0.04984994114420462
16.47,0.2253463253384283,0.06092053749512504,0.009253090659468584
16.48,0.24241346020040602,0.04795563092633313,0.014224105268062106
16.49,0.229305093533035,0.006404901016344911,0.008504621541094881
16.5,0.22093973659014368,-0.022561786587277175,-0.01055392782754179
16.51,0.22942412483777883,-0.08540985190179032,-0.04489238735477262
16.52,0.22462509136591072,-0.11913003992049925,-0.04450453244045009
16.53,0.22324480399118102,-0.07519507552037223,-0.03940470554903512
16.54,0.22756223808814802,-0.028224533574299222,-0.02127412938155955
16.55,0.22858551760429482,-0.03265634994915434,-0.031646800518988896
16.56,0.19358517468309616,0.0043533176777880685,-0.0360429678928564
16.57,0.13994488430930388,0.05107001201694705,-0.03502212632155892
16.58,0.10888768423785153,0.0154113948867965,-0.06484381905873897
16.59,0.08333815686170386,-0.037091982622910566,-0.09082495754443175
16.6,0.06178224933046422,-0.022930799747674972,-0.09633983187710912
16.61,0.04498077888448387,-0.017034855982702397,-0.1054911956375278
16.62,0.06600012771912948,-0.04977375303111284,-0.15039117609550293
16.63,0.10223342658453216,-0.04286150881804544,-0.16294582223806103
16.64,0.07845837358857874,-0.03892054847364185,-0.10498531584761484
16.65,0.04308007055533952,-0.044870455647400755,-0.08053878213270968
16.66,0.04246056744372119,-0.05407861323513378,-0.10911372150150167
16.67,0.04684280380818681,-0.018589546692906894,-0.09629638792432904
16.68,0.00575937384211541,0.049525258440463335,-0.06367932208800463
16.69,-0.00957527651822402,0.08675149222382166,-0.07795083025009374
16.7,0.010292116509124573,0.03545919473493877,-0.10994228664534188
16.71,0.030455439360655253,-0.010485951727168366,-0.11717838598862874
16.72,0.035839794478720814,0.044703522705210004,-0.06313379229434431
16.73,0.035505464106861985,-0.0051940116441292926,-0.12553537539630488
16.74,0.03931961055622556,-0.03771756564851105,-0.1681615221741927
16.75,0.0042587208860381314,0.03488361358971657,-0.07386938716051815
16.76,-0.05174339154219306,0.11553412023592396,-0.013497922751474352
16.77,-0.07966500856798221,0.13810270618457668,-0.072668379501718
16.78,-0.06774611019884151,0.11838107202022441,-0.1197724294718331
16.79,-0.028636467990007915,0.031281761639958154,-0.12163516710492205
16.8,0.0021421937247531574,-0.052751515981039845,-0.11719023202072058
16.81,0.04666903523585368,-0.09147302288445024,-0.11663121538363305
16.82,0.09630788324088108,-0.05298701609899653,-0.07840697634829319
16.83,0.11813317748462776,-0.05573966628067688,-0.0983338107868413
16.84,0.11315711908830117,-0.018696075815793207,-0.07278091767239663
16.85,0.051646651952645194,0.01935036627254227,-0.01713705269409329
16.86,0.03200193134465211,0.08316128430647506,-0.020760958864559878
16.87,0.028434408529614454,0.0930822592131886,-0.04858365854900921
16.88,0.04386216099652569,0.04779024618059002,-0.07263247676369046
16.89,0.06312778743229555,-0.015508375057616678,-0.040153746697344686
16.9,0.13095292685582596,-0.15456091551932566,-0.0728313850268993
16.91,0.17603768953929827,-0.196986666519589,-0.047288942324366534
16.92,0.20456224943788118,-0.1036533809188335,0.018549474921233988
16.93,0.25146944452630543,-0.046550803885985995,0.05023170746131772
16.94,0.26022355635717,-0.11354036159463414,0.004695963522063252
16.95,0.24724321724209397,-0.045012355194875495,0.032401315108847445
16.96,0.19465518508599305,-0.009356488824884636,0.06424250049774362
16.97,0.19545505426331794,0.013104882991827818,0.026893408303135996
16.98,0.18771430137637027,0.029629240582617105,0.019746104963305526
16.99,0.15593299749653317,0.050738020126675706,0.08114104555633794
17.0,0.16464778427397891,0.011047997201855276,0.09954732987393776
17.01,0.21640366837192798,-0.05008782753934738,0.02509682072166787
17.02,0.24519550437184945,-0.014432348335971295,0.016892345303713197
17.03,0.23479309185167285,-0.03127903315623082,0.04431433364271515
17.04,0.23973590567869227,-0.20908515820075455,0.008312080678925774
17.05,0.2131399285787734,-0.21359662339406088,0.010755763308723874
17.06,0.1924802916722073,-0.08020606153776944,0.011566576088524207
17.07,0.19263153786786796,0.001158339541014466,0.02677353912642669
17.08,0.1773343737354002,-0.05558153781372782,0.02339225626116665
17.09,0.15563438893995868,-0.11871180690154091,0.04449029538286628
17.1,0.13235758577863657,-0.05629366351974473,0.07845500376358941
17.11,0.17869491376206276,-0.046818319862833496,0.01855468534517134
17.12,0.1664344776439244,-0.10920664781768276,-0.0007975020770525611
17.13,0.1212815676134616,-0.004066291031597248,0.10764195116767933
17.14,0.12072032137368999,0.0476244235416951,0.13020751659202862
17.15,0.16403691965672057,0.04714627353755063,0.10038679178108449
17.16,0.1928460349792749,0.012315880390364704,0.08244824059182031
17.17,0.18355435250378974,-0.06368521751862356,0.059184591982360556
17.18,0.15463300604195956,-0.08822963272699309,0.06371091027422357
17.19,0.13490305211769613,-0.14525013488394656,0.027423661048377845
17.2,0.14667477247830613,-0.12876460930422443,0.053564832650063225
17.21,0.15092324290497777,-0.14807300912596608,0.0533272235950376
17.22,0.11974501042561132,-0.10447580861300035,0.09043578021567256
17.23,0.08487231489575561,0.023956475584933332,0.16436922168162715
17.24,0.1130786028579941,0.043403176258011995,0.11566016786158988
17.25,0.14474496501677095,-0.047882581035673874,0.09117606753125526
17.26,0.12917943425213857,-0.0588877739731186,0.09207323605047976
17.27,0.13893769848971604,-0.02450040730968427,0.12762276995808208
17.28,0.17947425912536263,-0.11412291174458589,0.07530024099510654
17.29,0.19655846141087197,-0.07819279376815924,0.09173718896321799
17.3,0.16330780860173644,0.024260106444391458,0.16368597857387257
17.31,0.13722658738605306,0.0017495488593279038,0.13432699001612008
17.32,0.09001246329910492,-0.056996954434529894,0.12111629147770975
17.33,0.043277111857383976,-0.07087467451382985,0.09101121589887654
17.34,0.015256539159789296,-0.0269427177401538,0.08178691888586302
17.35,0.008224084703294847,-0.02245653968248756,0.04637840987668092
17.36,0.043051368789933875,-0.05837438517480464,0.06864513096003465
17.37,0.060214994333786555,-0.17803880069514838,0.03360655529592736
17.38,0.0720165405656316,-0.08012939425425883,0.08992689554564334
17.39,0.060347050729895574,-0.055353180186903765,0.05833942817728203
17.4,0.03666496945171273,-0.03275396308718886,0.06784224895230168
17.41,-0.027504757497678094,-0.02586532787117976,0.08473418423188378
17.42,-0.0971768182939875,0.07667029779671883,0.1370855719615933
17.43,-0.08871595022314056,0.12120154937850501,0.06499419561328379
17.44,-0.027323964418082856,0.07180836510473866,0.006354409231579493
17.45,0.0027589736971043986,-0.03881840571350173,0.01844330504987692
17.46,0.011185293789788315,-0.08392103526792292,0.09485725047348557
17.47,0.05569433722274001,-0.15210506489842773,0.08719854551316597
17.48,0.13820974464760352,-0.12870614037928857,0.09060970090531976
17.49,0.14961927794296273,-0.14657512784459462,0.07256697816547045
17.5,0.13634875879917266,-0.07583700536821542,0.09951550048930131
17.51,0.04605147896037409,-0.0454946504024814,0.12438639016495089
17.52,0.020078783205742603,0.07064262017089923,0.15151974114316677
17.53,-0.015019855461368385,0.01047711242324788,0.051481396904814354
17.54,-0.011027861840993108,0.010120858640233718,0.004558130537713713
17.55,-0.02862053267046879,0.05778343571606191,0.09535607807833496
17.56,0.042159003624934584,-0.02326518690128744,0.022020823864327636
17.57,0.059108170915240954,-0.06902622729118,0.07311084898432167
17.58,0.0612622050913714,-0.07816736569734771,0.044352297665131823
17.59,0.03544459026404345,0.07281507825273911,0.12947885133259626
17.6,0.030633658514569746,-0.02178419290316069,0.022534840964562906
17.61,0.0068366781882850235,-0.06724835801096032,-0.006142141714707893
17.62,-0.05042561209314981,-0.055943570976246415,0.020316260601066928
17.63,-0.06406006166941462,-0.0379512817566193,-0.019951105958039686
17.64,-0.02528711981252766,-0.013714127731400712,-0.05834646986627479
17.65,-0.041488307434918464,0.025621906551106403,-0.002321691714574209
17.66,-0.07871728497005719,0.04789380655471966,0.0704466521098115
17.67,-0.04658435715794391,0.017510936393559173,0.027228007875515502
17.68,-0.049054457981146576,-0.02996274698026223,-0.059859581854086595
17.69,-0.07099134134731765,0.018619103163409298,-0.023236487902212274
17.7,-0.0863843450939402,0.021345230061097325,-0.007614744139256209
17.71,-0.08593353082771961,-0.008674511107770165,-0.02960301142443263
17.72,-0.10268758380100479,0.007955762729763149,-0.06468150880319676
17.73,-0.08724966834845749,0.05518400902882259,-0.14257365113000792
17.74,-0.10659250454309617,0.09665213199629598,-0.04644019721538682
17.75,-0.12262190559158366,-0.03867891948860519,-0.0419919929365175
17.76,-0.1450234587330463,-0.08447334068041867,-0.10613391264205112
17.77,-0.11989113090853536,0.02479170889644686,-0.07081871474545137
17.78,-0.0710408939999456,0.02514451246840491,-0.137704067266203
17.79,-0.06596733322695769,0.14598803930684973,0.019385524449770816
17.8,-0.035138434127617406,0.08876609238576293,0.014304031560337778
17.81,0.0234187250733617,0.09563335790000697,0.010998815040122864
17.82,0.04702360130335709,0.0027626620948734454,-0.03963608685242361
17.83,0.09198094494210282,0.056615026401421645,0.017710047912002643
17.84,0.09263933333036284,0.07079581097013463,0.10413300294469008
17.85,0.15648778967874072,-0.049266816587168596,-0.03192074779387951
17.86,0.15573895685917868,-0.10153278533609911,0.007753617598018697
