seconds_elapsed,z,y,x
0.0,4.1205630959481,-0.4853308630943298,1.0235726476430893
0.01,-4.59144192514429,-4.79248880386294,-0.19304343778008354
0.02,-5.42676640185464,4.13587608668041,-0.3043695656696434
0.03,-1.4705283366292061,-2.5689496985200155,-0.031198249476579773
0.04,-5.084863925435033,0.7992940009134061,2.928697434716755
0.05,4.065474964347547,1.0831302770405553,2.0516556357560267
0.06,-3.4381885711199875,4.853778635452963,-0.057739058464656524
0.07,-3.8138888725461024,5.657171039185447,-3.1582047318588846
0.08,1.1595921287513937,-8.859507441750397,-2.0743786787098775
0.09,3.073147325480653,-7.75106869420197,2.27030377639858
0.1,12.633152959165152,10.58632956759086,4.096826366496871
0.11,3.5976072724104537,-2.572772765744573,1.317475524796137
0.12,-3.72731486861964,-3.4064682017490084,-0.4865012004810054
0.13,4.81507111564475,-3.4385436874547133,-0.7338819919933416
0.14,-0.29208001524479626,9.50168007309186,2.080108399388584
0.15,-13.331358711907042,-3.875452241344561,-1.9853896971138034
0.16,-8.11240950964471,0.9215614996505692,-1.5183140056708269
0.17,-5.5016335619907775,3.7033844054215357,3.0992400754006937
0.18,3.836859184508095,-7.101629392869373,2.6547568832296857
0.19,10.502260658252334,4.457322270699142,4.648903133363487
0.2,10.79596697774659,4.6965133319945345,1.559939708950911
0.21,-0.8012954668482927,0.0522828773200456,-4.622480698883092
0.22,-0.6933804699142124,-5.959276008414369,-6.248880997374269
0.23,1.9197595285335747,-5.55262695074767,0.06734463370461641
0.24,-0.6094498832455295,0.37694330659014175,2.3818408304573873
0.25,-8.196943473363799,7.124568123224187,1.4960309777331233
0.26,-4.339505181249195,7.368106111505192,0.46766782168069115
0.27,-0.2296030423794254,7.605447268277314,2.619284598115115
0.28,-2.426527367054328,-7.386647005244593,-0.7065464475480152
0.29,-0.26379484133049663,0.5217376701872479,-3.638130266053091
0.3,1.5346990138249639,-4.091932040060472,-4.162281145492844
0.31,4.675031269437909,-0.9043080584775598,-0.24986610380926963
0.32,4.441507720109434,0.37663103310789364,1.9053297903213062
0.33,0.02424716498162845,-2.4633976588357176,1.0767939680519967
0.34,-1.982085288133965,-2.7909695956056635,0.3506431831819562
0.35,1.5337895680401885,0.6861631369294792,1.8951231778810267
0.36,-0.2765646280471279,4.297673105741916,4.100639530192949
0.37,-2.4119013115754386,2.2348817326457615,1.0801082024956241
0.38,-5.198533550143389,2.828458117838805,-2.915727078836309
0.39,-2.1511515996728443,1.0941192032325242,-2.6456429174938036
0.4,0.5401124166565892,-4.681988271576396,-0.318929959639455
0.41,-0.8220080428392247,-0.8594152915872514,-0.46431121204613424
0.42,0.4496198452492537,-1.3151145700746374,-1.6138566108192673
0.43,3.367722338281502,-5.529567855247202,-0.8317468415568767
0.44,6.538958711503022,1.1048085693671417,1.001751695739865
0.45,4.925587371334472,4.537062136137182,-1.5660589077775982
0.46,-3.305477190387931,2.0239861104425994,-5.195403121895845
0.47,-2.531251391705117,-2.046487333999069,-4.164939662005134
0.48,-2.509801569018287,-1.2506067412968875,0.7329866512531096
0.49,-1.476253033767531,-1.5321851187954094,0.7251846100105663
0.5,-2.3293117676577126,5.531309590758165,-0.8185087313398999
0.51,-0.8159847101095186,2.7219276388044777,-1.825405678489197
0.52,-0.2678207071041739,-0.8515681896916782,-2.0038976689265002
0.53,-0.18894562950447324,-0.4246489061447999,-1.61574207090076
0.54,-0.03887836711409414,-5.20993838998824,-1.7545970098561112
0.55,-0.8056812282774136,-3.4927841524507914,-0.3616402379787364
0.56,3.9712192051623507,-2.0625326875868213,1.8983340759547789
0.57,9.51699739609663,2.643595397841885,2.3807465650109387
0.58,6.897429587184565,9.095105079247732,-0.7475836178775722
0.59,-13.094710279609917,3.2763856958737465,-4.961245146711421
0.6,-13.30766417393169,-11.235297511215217,-3.1970959078283854
0.61,5.105286150052964,-7.018004881076428,4.242122323680529
0.62,5.461909170897154,-2.3945773228523533,3.110835506435296
0.63,3.0767213986795925,12.780401252748872,2.519654462587454
0.64,2.9221999912214334,5.057859111574749,-1.5065211288000055
0.65,4.277717791519993,-4.342772733045384,-2.847783605942827
0.66,-1.0166591623751104,-6.492380098039068,-1.150787147687748
0.67,-2.4171472234199665,-1.4915161102829346,-1.5203758470503645
0.68,-5.611881068070254,5.13683242165421,-0.7519737611569726
0.69,-5.5359388823772715,0.3653529089969952,0.07648232576174219
0.7,-4.995112498430559,0.11656229296721518,0.09184883248455014
0.71,-0.800153588722418,0.4044318770177832,-1.8660861890257157
0.72,1.0518451425716115,1.5443791146414951,-3.2749439617917795
0.73,1.9008060447260127,-1.606544240494141,-4.254114508592802
0.74,2.3977543946947466,-3.1268416875179024,-2.606839138116132
0.75,4.066611107592257,1.1410710486352047,-0.23907601383895072
0.76,4.451167998026949,-0.2028219421484503,-0.5823367344233203
0.77,1.6452878604414027,-3.121192230742783,-1.0978838888935945
0.78,0.8929060976294798,-3.2958199192814965,-1.1850715297976744
0.79,0.4539357276902061,1.7477614557403003,-0.7199181825492605
0.8,-1.7707673931369359,1.9887480284106616,-0.5761535958055605
0.81,-1.6334342645199957,1.7187305679180365,-0.10881073875566762
0.82,-2.155670587919067,-0.8772814191413375,0.11170530031588859
0.83,-0.8041843749224964,-2.8178489935605757,0.5245887723957403
0.84,0.7733406767658448,3.6795726340090047,1.8796461917601635
0.85,-0.05663137783423051,5.887004128315723,1.111653504422551
0.86,-0.9557101553519834,-4.12035034203323,-1.0112251007139677
0.87,-1.253202496618779,-10.349512601208826,-1.2158547740125065
0.88,2.845545522259912,1.1123448164712797,0.9587273730898068
0.89,3.912371259531563,8.67948788204745,1.5640328450761554
0.9,0.9377854910957341,7.871575373172929,-0.6994906978395737
0.91,-4.2586518335568835,-2.3277811240708006,-1.9366297998837747
0.92,-4.594686545334122,-9.321991780116068,0.5922587392402807
0.93,-0.20044169151711366,-0.5097843390175842,3.4641775010189595
0.94,1.1519334365460416,4.193287352289154,2.873405460870415
0.95,2.3308107848959025,3.485413915085506,0.5830604106105897
0.96,2.744491959635368,-1.4799306918012076,-1.5398098528728126
0.97,2.406144426351603,-4.777433396555991,-3.3079174373120077
0.98,3.250713411586504,-0.789605152478573,-3.71672633296113
0.99,0.6600384218359592,-1.595690669389712,-2.0321899321896195
1.0,-1.7319064325860385,2.243457649420517,0.38166790802289546
1.01,-4.722324245297545,2.480150441886996,0.704457267218331
1.02,-6.5764070188513015,0.6480553864602071,0.06949660599966931
1.03,-3.831209859288209,0.9636390476363855,0.29976685029121136
1.04,-3.2221040328435944,2.118293896950259,-0.13735694180118568
1.05,-4.259787510448714,3.8071562736617492,-2.7643305198603474
1.06,-1.8400845617965482,0.6804032535237846,-2.478369448775094
1.07,1.2253150921113583,-4.968240112381179,1.3487562315219297
1.08,4.842073642814164,-3.4314783047650077,3.953851554979153
1.09,9.277526509050364,1.5454428554891009,4.552343967145387
1.1,9.097375310526896,2.130819430521195,4.113511341420565
1.11,3.8633286315857047,0.33143397236284317,2.3882794589821
1.12,-3.2936880227516636,-1.7490400537934452,-0.9047483806457705
1.13,-5.72328358283609,-3.0047749953386904,-2.5229965389087052
1.14,-4.883057498224331,-3.745861153393024,-0.26822027358071976
1.15,-4.0125797182124545,3.2585945477746603,2.5782570928152713
1.16,-4.338741683809892,8.134359602133696,2.8944447114468117
1.17,-2.9837940023878584,1.5956384799334102,1.2552583981084577
1.18,1.0014591000760202,-4.6110215879604235,0.4024339597250443
1.19,4.585005292221109,-4.94123541509718,0.3187009294157077
1.2,6.1175934368570015,2.012415703224946,0.23294126840813828
1.21,3.8039416474502947,0.9948083674260206,-1.4467485152983768
1.22,0.30815342926428724,-4.465087351399724,-1.2843167300746807
1.23,0.6554962294367108,-1.726387896805889,1.7461993767208912
1.24,3.054464545855544,-3.385430821879855,2.264304922819868
1.25,5.2894517773914975,0.18368409708263425,2.9010202030938386
1.26,1.914785739056219,5.766035162548553,2.701644383556867
1.27,-4.238328333772931,3.7200526785959966,-1.6609060460571978
1.28,-5.507546508512103,1.097151941698903,-2.713580578198401
1.29,-5.221561562330002,-10.264811443884124,-0.21114857601145218
1.3,-1.1342575906098606,-4.544688740498574,1.1903155852643246
1.31,0.9820147570072029,-0.27342152165330713,0.40335747320420573
1.32,2.8207124796835767,2.9199342942871183,1.5384362302771446
1.33,5.592304333440328,4.8918590490902165,1.3320862632174568
1.34,-0.7573726666667783,-3.628080180807138,-2.3476542657580155
1.35,-5.185491121312532,-1.2751112951570642,-2.7065894313564534
1.36,0.27507967757930246,-2.187562354188449,-1.1823274828360524
1.37,2.538151775975449,4.035767550382154,1.5611150552986102
1.38,-2.75078734415141,2.789075462074018,2.4076424024423044
1.39,-0.4693803620498471,1.246357454282606,0.871246290540561
1.4,-0.6865920771599145,0.8593041144028124,0.3231402151951446
1.41,1.2968197829163963,-3.2742500793452973,-0.6988513942146929
1.42,6.367914019542026,0.9457674688681735,-0.9503784037665249
1.43,3.706952789812032,0.5411335285331779,-0.8358151529578187
1.44,-1.6049462866747497,-0.45132125174161897,-2.3362707478165605
1.45,-6.522396774801236,1.3463753342467752,-2.508125864782394
1.46,-12.519731382583883,3.5339149528412395,-1.2915757101132617
1.47,-8.63304861547859,0.5217639935537065,0.9418194159215111
1.48,-3.2491337756050345,0.1281198045587872,1.8627765838199375
1.49,-1.9552579776190793,2.3071753150561483,-0.02185713040436844
1.5,0.9126552322360055,6.104432626483914,-1.2729107996310605
1.51,4.947929806979164,3.1101125627284008,-1.90396133061811
1.52,5.167966788806835,-1.2864633155196794,-2.8348782533741113
1.53,4.047417621307028,-5.392237496918331,-3.8766954929192
1.54,6.3734773268818214,-2.2735368356938572,-2.1686780501113674
1.55,7.302622555349642,-4.216059414852711,0.18943462329714686
1.56,4.246833675810796,-0.19572035647106129,2.4436169107575236
1.57,-3.5685431248480683,2.5311054985473342,0.27946279806387614
1.58,-5.440870555144787,0.06407569955626649,-2.798096613479581
1.59,-4.510600031907052,-1.7850586415855874,0.4714624343987243
1.6,-0.5252246652845093,-0.3876302511391542,1.8689445005330736
1.61,-5.689663314993609,6.347557574804536,-0.8322464274690337
1.62,-2.084685877927417,1.421537328545172,-2.252748644468184
1.63,3.3643478503095863,-3.812879925890118,0.7254486376342497
1.64,6.179770968375752,0.7667717765923309,1.676909474828839
1.65,1.3652632818432089,2.982112072391821,-0.5412997435409203
1.66,-0.4576974864716187,-0.23293221983731352,-2.5800257750903515
1.67,1.374146524020189,-5.545510248939917,-1.8028062330478503
1.68,-2.1611212214223205,-2.532012678969318,1.1259822820560044
1.69,-0.23765485897260558,6.183955020086911,0.1633351953935409
1.7,-1.3140513522298196,3.7080588541857367,-1.9992038396053353
1.71,-1.0950505342957282,-1.03456368550717,-0.6294148669597822
1.72,1.7430779313252538,-3.8348765604780533,1.1864205654912752
1.73,2.3651528947278555,-3.800205228484077,1.4530878230906015
1.74,2.6400544333877796,-2.3217637408367677,0.43826365645209253
1.75,-0.5197057000344314,-3.557085826676724,-1.2191879095440048
1.76,-1.2425720588876359,0.05011823928724106,-1.4135614018676341
1.77,0.7168830912214571,2.5978576991034883,-0.19536272915607839
1.78,0.08341032783736849,-4.1363935916192345,-0.1925992393575953
1.79,2.6713191136529857,2.865056637335859,1.5870464622978424
1.8,-4.144667937066243,10.165151260420256,3.1165824791688315
1.81,-4.175364955779024,0.859479019124828,-0.5838753131557981
1.82,-3.6810510373907683,-0.6637096152494855,-0.8261356461947614
1.83,1.6460761310855074,-6.3095678783457965,0.40922176701834395
1.84,9.791808960779239,-1.0059864801621257,0.022185165602346964
1.85,10.430594064048135,-0.632505280729203,-0.8615884596323529
1.86,4.767800595600103,1.6410258944830594,-1.3125309061906758
1.87,4.532742320914943,2.0993961568106,-4.297813106383342
1.88,-4.908998680184874,-2.3336223188428815,-3.388761731748368
1.89,-7.46253433893956,-1.5449119573514616,-0.31731780475826493
1.9,-4.913705717135245,-1.2945273570516844,0.7036249822660886
1.91,-8.173699755733779,5.3251524437443605,0.23070328486958985
1.92,-1.5119038479376619,6.985725339181068,0.11693533237244623
1.93,0.15183539779361108,-2.557815441744968,-0.44370515418801976
1.94,1.0015003886431213,-1.6381388272970285,-2.6618286009156757
1.95,2.254033170061007,-2.8084031419681974,-4.770086190482915
1.96,4.149918039248822,-2.7032905424802,-3.28416599797096
1.97,4.683560219495772,-0.36787237383214166,-0.5807770614589535
1.98,-1.9365418853353764,-1.7914938854846214,-0.47294477977591487
1.99,0.8562643862168452,0.7938991221596318,-1.2521988847451642
2.0,0.07388271415905903,2.8363589764214403,0.41594023792281165
2.01,-2.5897695245028087,1.1043268439091318,0.9336349460030157
2.02,-5.2043362632195,1.7993447428937266,0.21136573265219752
2.03,-4.972027197359263,-1.3547115584587726,1.1478268771953823
2.04,-1.615828663957703,-1.8441156379427577,2.993976388073421
2.05,-1.6542165213690503,0.3354230426598479,2.9003899830422246
2.06,1.9850910168600435,-1.119639142086465,1.1677186264936192
2.07,5.941324061739784,3.4603350269272317,1.4251481575268372
2.08,0.7612986100363545,-1.708460027830622,-0.04991630335382396
2.09,-3.907440389019218,1.7509569389041524,-1.9552966781246774
2.1,1.3546596443436083,1.304772259446151,-0.30109172418754604
2.11,-3.8492485793902946,0.6193569540281816,3.2469232320485486
2.12,-5.287089086788291,1.91357560555212,2.5169743918928216
2.13,-3.542260621589681,2.137898080281532,1.6355563665172053
2.14,0.786476630624357,-5.006129173116459,-0.04586334130625053
2.15,4.195540623366842,2.2305398349302066,0.8540360130663643
2.16,2.3989985514383223,-1.0201101123813223,-1.3898108780533864
2.17,4.289983254571146,2.2748856066578758,-3.0828857906783793
2.18,2.421991306739894,-7.168807720181304,-1.7947870740089245
2.19,-2.05026084570102,-1.8477812924085515,1.2175058489132249
2.2,-2.1366324521779543,5.881965861709228,0.8970527676571608
2.21,-0.445205816005367,-5.439510479594093,-0.36290718616280815
2.22,4.36063647405655,3.4991797275112835,2.294169383865733
2.23,2.7106194501399097,2.834984195289677,0.5474480946866578
2.24,-5.617401535623066,3.141030842290974,-4.323354890998006
2.25,0.7925524780300978,-0.4327529123052126,-4.134931546675201
2.26,-5.705212246945734,-5.641546612314795,1.2386298136043026
2.27,-0.7033896969526537,-0.1736266166540065,3.4674686222408924
2.28,3.256446755239601,-4.743639403201913,1.568764223749285
2.29,3.754177441102608,4.34197778642912,2.054273249598997
2.3,-1.710737416394547,4.716300619792032,-0.11155452419442201
2.31,-2.2200885447381444,-3.1287066901158953,-4.309976316940989
2.32,-0.865786835003707,-4.647409569992528,-2.3849508242822655
2.33,2.831938913554785,-4.445301241641976,0.3616664988087132
2.34,2.322243769861222,9.837797070086348,3.4691320840006745
2.35,-7.703043615989437,-7.068430538943983,1.765319068927789
2.36,4.828143294752232,-2.6099030026306265,3.1264780095530296
2.37,5.936696349831657,2.595023446396769,4.5621215706758145
2.38,1.8904172075181283,-1.2154386729939104,0.3260630966982337
2.39,-4.320974118001828,2.5548918779793057,-2.77523049197083
2.4,2.357312281346877,-4.1974778488724,-3.4597128093927196
2.41,-3.2642800948383632,3.344909064945208,0.3071583569799741
2.42,-4.49711692589871,0.6274765831228735,0.9272062890243968
2.43,2.048855445190803,-2.5783886234069597,2.541449037637861
2.44,2.5674764131651027,-2.631829013203348,5.20593191358225
2.45,5.452569219464653,2.150504519560973,3.328798266390236
2.46,-0.8588885607804748,3.8175400077719,0.36634542036778844
2.47,1.4180843404190735,-3.3619591246350558,-3.0829246443468477
2.48,-3.251270388220947,1.199310777513842,-3.151623361813181
2.49,-7.954109855547456,-3.4108424789946192,-2.380118168961171
2.5,2.3719684136542156,-0.23821940530112057,1.4347005874737433
2.51,1.3972143076448333,3.1374718938971746,4.835690193711096
2.52,-3.493046558212104,2.614901748641386,2.597183722813819
2.53,-4.056860171013754,2.440218329453435,-1.0289273321856438
2.54,-0.4256499314898255,-3.7693306618297453,-1.103515485316799
2.55,-0.22931625543869721,-0.21981135169862231,-0.8686445272630409
2.56,0.7697399948330771,-5.056057572120828,-2.3394491110008313
2.57,4.003161429733078,-1.9893966205152531,-0.3842177716048743
2.58,7.82500141705126,4.146743522682041,2.2170742633188634
2.59,3.442548046155323,6.324327512574744,1.8583645826966115
2.6,-3.785902043997187,4.44023602841054,-0.9978529218225991
2.61,-4.92611482331628,-10.235776571787419,-1.8306242734053837
2.62,-2.5925858825048795,-0.4799716977729735,1.1416885327837263
2.63,-6.601176104532449,4.065864413604792,-0.709783065934631
2.64,-0.12481343062269888,7.962265660954515,-0.5744446234331276
2.65,4.090849447306158,-0.6457335878290952,1.6939200495454427
2.66,5.438410498366849,-6.98130520499758,2.118750255104686
2.67,9.822689717225389,6.343153450298402,1.9286362736666274
2.68,-0.24501661514669876,4.673023811947562,-0.29533430373101327
2.69,-7.171746559784815,-4.179222647785051,-4.926369856278597
2.7,-8.739598597013016,-2.605645690938428,-2.803905568924733
2.71,-5.297269497386881,-3.2395094503195585,1.8562888841785794
2.72,5.357749296374776,4.623650315845158,2.2644800412079302
2.73,2.9281225765188124,6.7974863080234345,2.617749036760726
2.74,-1.6243880689211652,4.7276769822668125,1.1583433564327639
2.75,0.76509206168016,-1.6941287397576128,-2.4459126336282124
2.76,0.3731004583388852,-7.877136741883249,-2.6988660075945607
2.77,2.6916560791359734,-5.085093429194757,-1.5123368815971276
2.78,4.196489789724106,2.670718693070154,-0.968060735626533
2.79,0.38157199228738475,-0.39226525061593676,-1.2348151697770515
2.8,1.9016611075361585,-4.192982113788922,-0.15039658929779595
2.81,4.0512082278581545,3.8271467021317167,0.7315801646148901
2.82,-1.6529479192543397,5.83294778737005,-1.3405720977482964
2.83,-3.2384839818993183,0.21564688154350442,-3.659782881654636
2.84,-4.4478655737885475,-1.414043539399246,-2.2349483752715082
2.85,-8.178783661179112,1.9774272096013383,0.1305589547099217
2.86,-3.0739133095061844,0.8696602742390215,0.8359823665462259
2.87,-0.5208506460942273,-6.553434749085598,0.8899291828690213
2.88,2.6526295606276173,1.2759653208335195,1.7249050473119092
2.89,0.6161794523519222,5.959131199615178,0.9764117276425712
2.9,2.602819882260016,-4.218916596594834,-2.284847822993427
2.91,5.296033957268379,-2.8325810228684962,-1.5039330113781306
2.92,0.17532739835924532,0.9939543412501755,0.24265847988265965
2.93,-4.796063328254977,1.575117169808915,-0.11264713429902892
2.94,1.6840219053290826,0.5845543590356047,0.11821439668154138
2.95,0.35782090430630337,-1.9735088678697768,2.138995160844137
2.96,-1.4330255587770393,-1.7512200592050557,1.4323506037186733
2.97,0.42841035689046125,-3.8938449307725866,-0.5388040128112995
2.98,5.435678046410834,3.070516084747072,0.08953559727741572
2.99,4.11133114751904,5.317904202813877,-1.561070566032607
3.0,-3.6559238323694987,-1.6073384070110373,-3.524651780656244
3.01,-2.4502163249061333,-6.319203951717724,-1.3219713673693978
3.02,5.736132728847745,-5.259371212195263,1.601709826907651
3.03,3.8696430127334986,4.931208972574561,3.6622982188460065
3.04,-4.414732267775261,7.331535295080595,1.1402363356013463
3.05,-4.855170331441756,2.3251685947610095,-3.7435696657440922
3.06,-6.347134307735145,-4.990759592010807,-2.5433571774018486
3.07,-2.0430345286007245,-7.166553080841642,-0.2902135965972866
3.08,7.9133815395804765,1.934993403228589,-0.4055997078197388
3.09,4.522035039024375,3.532319641657865,-0.17389776275801686
3.1,1.4715003735652321,3.656455628153469,-0.4224880306965342
3.11,0.9796817707495692,-0.6079676486342483,-2.137616331005094
3.12,-3.4443331558213766,-8.768873594205154,-1.7922715577211201
3.13,-0.24421207451996854,-4.237351673509449,-0.25242280992580207
3.14,1.3409194820021713,3.2411235552863022,0.5880790439570074
3.15,0.0895568187402352,2.51304838115315,1.0375344519524203
3.16,5.335973938713214,1.7788639073648653,1.0397420274399618
3.17,1.1497626580975004,3.5580176357258897,-0.8599276761410566
3.18,-6.583692478373867,1.0768360471512448,-4.209402104322362
3.19,-3.1818175924260794,-4.969864641862289,-3.0840556921490974
3.2,-0.8412214881861233,-3.4585712548274903,0.8023178925039348
3.21,-3.286340789979916,2.4879643730575807,0.8321377882780676
3.22,-1.612891244913224,6.040664459209728,0.6787915363698006
3.23,1.2666062024784088,4.464699205543159,1.1217720735395253
3.24,-1.1795553626111726,-0.7902958480463488,-1.0917460127113015
3.25,-2.07948560329287,0.17879878200695656,-2.4594225692544627
3.26,0.8694443947027201,-2.5364241996984456,-0.6449779841998984
3.27,1.316604759371802,-3.2248409475729294,2.188251001729191
3.28,-0.6860718267862221,2.069433308613995,2.696131780808485
3.29,1.0095358884097512,3.3365708323784644,1.407139954813639
3.3,2.6484111873265945,-1.1300997252699088,1.0894864647274558
3.31,3.5022420349329035,-3.8721710002363836,0.5020243648194631
3.32,0.029602520661569688,-0.34459565195693515,-0.4769211267655462
3.33,-3.254190461123203,1.8164805847866896,-1.5321888701479955
3.34,0.1598998901073707,2.635793644052565,-1.21710251725837
3.35,-1.3122620743354276,2.015689545201064,0.517021768089607
3.36,-0.6738452345690028,-1.375862285801101,0.38528276723251464
3.37,1.7494458740905314,-5.774009831044779,-0.03445425640254324
3.38,-0.6530140301558653,1.8737781408799894,1.0188953574879704
3.39,-1.6991544144337738,4.999635493087856,-1.0743983068083682
3.4,-2.154449227678057,-0.14339988443453683,-1.9625574213809527
3.41,-2.336838679014189,-0.573250860771113,-0.19032322574908359
3.42,-1.3553994768935613,-2.963475239637127,0.3780676913686815
3.43,1.2857595215770825,1.1067185714983698,2.550004770213484
3.44,4.692218307861003,1.1571161553726852,3.2836707526169104
3.45,1.2833715248479856,2.360747012665411,2.4024188274304765
3.46,-2.0880666191270705,0.7528895669904927,-1.3101965230640242
3.47,-2.59984444919378,-4.791003107791283,-2.1229463437881906
3.48,-0.7094361997557204,-5.123909080593264,0.6159325169901849
3.49,1.1321335662478555,-2.0702606362993166,0.541850055604896
3.5,-1.4505998491949461,4.015495755244454,0.8618280044062605
3.51,2.2238149015103477,2.888101282271345,1.0211078861232368
3.52,2.877694874119214,0.21873896218136304,0.8551644071042495
3.53,-2.7249102035926627,-1.2603634578183471,-0.4831641567776769
3.54,-0.5714248693334267,-3.3857145656723913,-1.5828989679504997
3.55,2.6745079867205,-0.8892879449492896,0.5347828989006442
3.56,-3.8800554541000176,0.9039669200934901,1.5727193062536797
3.57,-3.45585348835609,1.313528316538624,0.40287494946266905
3.58,0.26527573889107037,-2.986525687846824,0.8922877662387251
3.59,2.726701753522252,-6.242225496883133,1.8626763068367354
3.6,7.568976869092236,3.94834460530307,1.9440041172981481
3.61,-0.2515756772183727,3.0347709069828257,0.22179525210538334
3.62,-0.29027318333283136,-1.7008888361711652,-1.8116518598720728
3.63,0.010610162139717308,-0.2822854643136033,-0.7066240283335725
3.64,-3.8386055756789874,-5.840219077584663,0.5255589341631822
3.65,1.9405481049254323,-1.3003173712947418,0.6159337822045783
3.66,4.468197906975039,-2.4721781407198393,1.4410452464683705
3.67,2.9615897834391336,3.461277735673069,3.187279297746855
3.68,1.7317768295886142,5.0383368275450975,-0.6329347448383245
3.69,-1.7639096100004958,-0.14974052218997272,-3.298317641395084
3.7,-4.265542636641003,-4.5282784821856215,-1.9158623469806206
3.71,0.924451586362951,-2.090464690986684,-0.10966403293153185
3.72,1.4606793112565146,3.060607403159595,2.189425652898253
3.73,0.35017010355819533,-0.5093547158985651,1.9640767873572331
3.74,-1.9227898018446161,9.846756272911483,1.159124433845796
3.75,-5.873948526800906,2.124406562228891,-1.4148669166960446
3.76,-6.140962432875953,-8.424968582011482,0.2660765058223528
3.77,2.156944065448738,-0.8177662278018498,0.49914578882597505
3.78,-1.27219853009718,3.2805468169338314,-1.9816869723717274
3.79,0.9682726222349125,4.56250196107925,-1.5056145956946367
3.8,4.635512975172693,2.394872250486567,-0.06742280480630554
3.81,1.2301885838607336,-3.8799790412881565,-0.7874053755576744
3.82,2.395713672239587,-4.306477435572652,-1.9117111249444279
3.83,3.3163237174898685,0.742052894245378,-1.408164040638894
3.84,-3.569856441653511,6.391445356573217,-2.1543318939205904
3.85,-5.156753522754024,-0.13195408662534538,-5.500457885633405
3.86,-5.274160434899526,-1.1464449620789692,-2.725835067628658
3.87,-0.1456518889464475,-0.44931818032081844,-0.018307397074950237
3.88,-2.429230886885023,1.3924990898277285,0.48713724880634335
3.89,0.3492691497858675,6.049734568233654,0.9234892158939252
3.9,-0.45425323978412024,-1.1939335375450653,0.30450125074017875
3.91,-3.754858707469797,1.8281490919025316,-0.7083550493831013
3.92,1.1121211299730809,-4.0425088087833645,-3.3542292833006977
3.93,4.046794560424439,-6.065659400602154,-2.0945946062190273
3.94,9.842075918906634,6.289246617017762,0.044279885396110746
3.95,-1.623360419343701,0.4005904762687907,-0.6804559185076307
3.96,-0.7434689689769887,3.286950582058317,-2.859377995807879
3.97,-4.7180211492768445,2.436032345904397,-2.9099590949774585
3.98,-10.068415028826296,-8.211324883545242,-0.7139837854401634
3.99,6.4008586133606284,-1.6072372310395135,1.160821209237883
4.0,10.298850756548108,2.6803320368576333,1.1381825558173109
4.01,-4.639038392103413,7.050927229908603,0.09281059380908066
4.02,0.7123360251906841,-3.508565264595855,-5.641096564873543
4.03,2.5563030152812405,-7.310217447868713,-2.8800201047834
4.04,4.0309796699710585,-2.6414045249789555,1.187374044308595
4.05,7.130300673858481,1.4508853769839871,0.2391910227827585
4.06,-4.54117336274691,2.9233051278911284,1.2842750450936802
4.07,1.077293614370695,-2.8160886244539127,1.0610158232143092
4.08,-0.9740413057037739,7.81486095972211,1.124033668846028
4.09,-14.448434005264497,1.4093954079510183,-0.9810528039376405
4.1,-1.1276252422119948,-10.587132819082658,-1.1206362793837106
4.11,6.9564034263112795,0.8797187129061829,0.6144411705660012
4.12,0.6356027040161344,-1.1843579586067061,0.6749899621569018
4.13,3.5618387520149857,4.140944054123477,0.23338031435708792
4.14,9.457473270312216,2.297878810987088,-1.8895465980095039
4.15,-2.178257546394588,-4.850389421272078,-2.2876386804620354
4.16,-6.834065833440086,-9.245192504963585,-2.021224538626379
4.17,4.593813253180206,-4.501186317119572,-0.30480760077143076
4.18,7.668014257666518,11.0285889815985,3.138805160749621
4.19,-5.865788205822049,-0.1783434795535688,-0.15476412422301192
4.2,-6.2761618823426515,-1.7009003547007535,-4.7621344065845275
4.21,-6.124763503571434,8.69114287812398,-1.9930473109564604
4.22,-2.196217850525996,-9.766766198989542,0.3440689850246311
4.23,3.0413352083177956,-4.140309531758581,-1.2892738274750999
4.24,-3.2040790169264115,2.9552564450322616,-0.7969260590322697
4.25,5.983885365040291,11.428015154674256,0.7367405533767701
4.26,3.5765739691570593,0.28506568636341534,-0.8218638054431651
4.27,-9.25269988946339,-12.002983607594391,-2.3126756937121264
4.28,-0.1487984626968486,6.943400688020659,-0.5790314747992985
4.29,0.18063521426146123,-3.219166940812929,-0.7970152905367186
4.3,-3.45561891071839,3.8979212981141673,0.19537552158124227
4.31,2.635919453737206,9.057518998079813,2.8630700972586633
4.32,0.9739711030030369,1.443781791111923,2.036378951049344
4.33,-1.6041966168717945,-8.0751286271832,-2.0324608013567658
4.34,-0.38357300693274626,-1.8326950719783097,0.05928110112119781
4.35,4.643910207194966,4.8233980436631345,2.704560649118006
4.36,4.19145680905304,1.5308379378360593,1.2695458538523292
4.37,-4.499118273171001,1.4026372384399601,-2.050478229567482
4.38,0.08262916185232012,-0.30012993413816325,-3.8591635861257623
4.39,-6.241866662233224,2.152084845587253,-1.4213137163191336
4.4,-4.838766007300737,-3.6149028946981536,-2.167852073791458
4.41,-0.18891352943559264,1.1299262599597066,0.9253365917795126
4.42,0.6172967098352555,6.200117837292675,2.7119144543755715
4.43,1.431580535569887,-1.7342745068562646,-0.13991028473899922
4.44,0.5489464864197695,-4.107937174628331,-2.0624466777992896
4.45,6.931477579536459,0.4742944755351753,-2.259561800778442
4.46,5.931929708863032,-6.144748339473882,-3.7345409354305152
4.47,-0.07432029658270559,11.605900669531225,0.2135549582714989
4.48,-3.6379619570315036,-5.952286963168133,-0.8829243959917121
4.49,-4.895010564280616,1.0397361592390453,1.8863948271677113
4.5,-6.804804885052444,-5.801612176052998,2.911552982707821
4.51,-0.5012385865255344,3.463294122995541,4.2911844496929445
4.52,2.3805295256959313,9.994670370809857,2.6517924188780073
4.53,1.5474544917863808,-10.039671563323463,-2.2619519656970284
4.54,3.873071053656219,8.828773163421419,-1.811227276469505
4.55,1.9689274202898177,-7.822440677753435,-3.921214624064017
4.56,1.5229610566209815,-4.461745162043897,-1.3768469102806542
4.57,3.6398067867097783,1.0650535313115492,1.1572238622083795
4.58,2.0004946762486746,-1.4936152171777504,2.542908438967094
4.59,-2.658173615794084,1.7054579312373992,3.630845045910615
4.6,0.9540063649257505,-0.19684788165481562,1.9413240720126448
4.61,0.9946137779468576,3.55778720045739,1.3872563115489582
4.62,-8.185100981432635,3.2742292548528997,-0.7969706946008926
4.63,-11.54592874790033,-2.723592197232222,-3.1898727864513967
4.64,-2.079429611710276,-2.920231990263034,2.058843587721293
4.65,3.3269686488586276,-11.212838824766406,4.212585184692158
4.66,9.079202487860682,6.5087811992324305,5.194345293663064
4.67,5.76580458389019,6.397833840967523,2.7905735833015854
4.68,0.05840109324662169,-7.034481790129279,-1.9351444409193241
4.69,-2.055808744640654,0.9843219116288051,-1.8662762923379377
4.7,-7.098861203207954,-7.5633047477644935,-0.8729601420292677
4.71,-1.1729894576921023,-0.9931725168468984,1.850054765787096
4.72,1.9693597400897427,2.7533371209447637,3.274561731604529
4.73,0.7525262527630391,5.963171596578854,5.024723767091645
4.74,1.958538492898693,2.4133424741666047,2.744800741957803
4.75,-0.06582904065352325,-5.978456734002006,-1.327890635246034
4.76,1.1656290464049508,-2.6763806852997956,-1.8761863388835078
4.77,3.9114487004674507,-0.5539478282057485,-1.1450302969809316
4.78,2.436059834176699,0.34314223708175273,0.4007054798644175
4.79,-1.316796788724647,5.8043860522743085,2.4114164494601313
4.8,-0.6135045523278524,-1.7315170020761201,0.7767523115842571
4.81,-2.3256369302446553,1.7756837116749595,0.5101946839599848
4.82,-1.9487391340520914,2.1945046805585835,0.08533584306411343
4.83,-3.8721438524514533,2.8516978235195505,-1.2105186817445506
4.84,-1.3569499565093228,2.5613740434833807,-2.193504532941335
4.85,1.5846881030594768,-5.6300423836025795,-1.1276011703562758
4.86,1.5183342396882755,3.9552252722478043,0.6598436212248949
4.87,-0.09594051038318817,7.230086006616383,-1.8475870924660915
4.88,-3.8630472897593955,-3.9583974716427184,-3.5909397810118957
4.89,-3.105305352405377,-8.121142186787464,-1.7924592532318318
4.9,1.84047391631954,-4.370273625175792,0.8025716571811496
4.91,5.346120164523971,8.89013078260043,2.1892292917772758
4.92,3.8088490678906934,9.57575062666077,-1.0523526263504057
4.93,0.35937892151700696,-1.1483267607468421,-5.613416733078255
4.94,-1.395051803889028,-8.161544675551395,-5.778480498205325
4.95,1.255820419491398,-4.277240489205236,-3.952951807751664
4.96,-1.2637785804006891,4.4020334260240555,-1.9031628912606455
4.97,-6.392145926331569,2.6149286640881764,-0.7737890182488105
4.98,-3.913867766134471,3.154147842113974,0.6873074102017667
4.99,-3.797699076318301,1.1845721131535798,1.6454088039132635
5.0,-0.009553544929314232,-2.925300022261841,1.281581557043357
5.01,0.1944175349315784,3.9743876349078233,0.022548117386508183
5.02,-3.1526142209163717,4.801438467607683,-3.9360637791529083
5.03,0.6037195847580545,0.08337890157751528,-4.307045575956756
5.04,2.8902839510541596,-7.822378798426095,-0.22373879729359927
5.05,7.336912298640949,-1.408478187819527,1.1312755259649963
5.06,8.234968070671378,-1.954562483991115,0.41113722919563866
5.07,2.853229651150076,0.9789240561771224,2.1366029640626865
5.08,0.06544630533565875,-0.5775451483107062,1.5951383372305483
5.09,-1.6742171554593188,2.983562322660605,0.7811216458143122
5.1,-8.149874231573325,-0.6472033163225663,-2.381914475116748
5.11,-5.516375370006165,-4.125525206805949,-2.85856655259565
5.12,0.7990715523079934,3.1395047328400136,2.2225591236385642
5.13,-0.9538677754949257,2.0098768904578277,2.217429417973334
5.14,-1.1868254964584857,5.108367454665156,-0.8791292217034077
5.15,2.380193071623442,-4.631271357984777,-1.8985487883923926
5.16,4.8960012104451724,-5.8182736098231596,0.7938721287642295
5.17,8.575574707689135,4.982694404208218,1.474414342367804
5.18,0.6585801328220373,0.7347942100511327,-1.2751761278435196
5.19,-6.186575005042806,1.922916299684701,-2.999907163898371
5.2,-6.7859270586789044,2.138917338803734,-2.5854200912811987
5.21,-9.624013172376122,-1.5962310971687643,-0.7595808436815237
5.22,-0.5833643935990979,-5.388561310126822,0.04531512161718542
5.23,1.3494311967365589,-0.14852062537945662,0.734399508821177
5.24,-0.03947444590463918,5.292143401526175,-0.644654560681452
5.25,2.019378297486652,0.060474433705906834,-3.1447677482569367
5.26,2.463181212151673,-2.5527243147218703,-3.254823439977294
5.27,4.7354095468107245,-8.58784532982453,-3.1512369327082594
5.28,8.446656684016702,-1.0557717946917036,-1.2500200062275897
5.29,2.1117912679580058,8.229065866573437,0.4093621265857825
5.3,-3.9837800479366954,1.2107255192394242,-1.4129979190687993
5.31,-0.3750821635156262,-0.4917746445369753,-0.8196584491522959
5.32,-3.6901347828588893,3.017111968153112,0.7445916122628655
5.33,-3.406230394679404,1.2440679209397427,-1.4643909146558423
5.34,-3.6925353178651172,1.8173199164060152,-2.7480109752856445
5.35,-1.0073068216689185,1.4078928192823101,-2.5804728629803133
5.36,2.3612232195743577,-2.217416241188795,-0.28765864360449633
5.37,1.5993089287722015,0.7711844372884672,0.8791153424324027
5.38,0.6840405063226802,3.0071736239578186,-1.999122651960928
5.39,0.09852556998057058,-2.680751224108902,-3.6738083966318347
5.4,1.3053871262585492,-7.52013665535133,-1.6597957317470309
5.41,2.1775718753365014,2.991869836629837,0.962780781251887
5.42,-0.047409320579030696,8.371455172491766,-1.1748869522132386
5.43,-0.7846202007295153,-0.28311805956201946,-4.025577321820124
5.44,-2.4954603575734313,-3.5168896629333624,-2.016500372698775
5.45,-2.691280676874567,-0.683162580096437,0.10235022127287509
5.46,-0.4166190681857602,-2.0264346392122223,-0.12548560906488618
5.47,0.7875743076593946,-0.8025799427478513,0.43305204084392956
5.48,3.5530633030174252,-0.4335904833056379,1.725192572163141
5.49,1.8319361423245895,0.8048417074857306,2.04702172117694
5.5,1.0133764768197482,2.794754631852827,-0.24581140366725088
5.51,0.7240223397763442,-4.178616057510702,-2.3986162396164024
5.52,-0.8494213798844784,-3.177939453914534,0.03197618333887347
5.53,-3.3705615782116647,3.5886893455843936,2.630472739992417
5.54,-3.914975297024237,7.446666136941317,1.425454753403767
5.55,-4.706209761815053,-3.2386543118977413,0.0977896894821753
5.56,-1.2239466698908172,-7.18469014510094,1.9146294809349322
5.57,5.696646800092489,4.902172815397063,3.1034337195184896
5.58,1.9977397797209986,8.22327304668879,0.9646310743636743
5.59,-2.841272805261342,1.3456796690263313,-2.834911506533004
5.6,-4.377989161245681,-7.994615879717484,-1.6457261820983817
5.61,-0.8815691171032887,-6.880237761827447,2.5110814373172503
5.62,5.960665793094411,0.3122940008223601,2.2172395387671293
5.63,1.1518343172933736,8.549955433138145,2.1347342099239506
5.64,-2.4252235606400214,2.5613064488335784,0.05276899931807515
5.65,0.27303839969759736,-4.948962553666335,-1.621164010357657
5.66,0.27104428795765834,-5.674806176194006,-0.16482767637830106
5.67,2.816452476198918,2.9594599500685073,1.4382034723982966
5.68,-4.228477333342672,8.366158329248076,2.0313057916374917
5.69,-8.099378835019758,-3.3307515400958065,0.06854574496343421
5.7,-3.3302463734233365,-4.3952084175349055,2.6693267514104777
5.71,2.2679359930929563,0.1877278434732022,4.711162990517703
5.72,5.426222919084831,1.6690617357810822,1.939581925275969
5.73,0.9364336713288114,1.6098958632940155,-1.2606276416590565
5.74,2.2954554398253073,-1.7133468123282016,-2.988890560917233
5.75,4.036399277156839,-2.578570262761333,-1.656751642085887
5.76,0.3486099245667242,2.605404459668297,0.8462322883844804
5.77,-3.8901206507659456,-1.8811551728843068,1.6924602348614044
5.78,-1.9683595778553278,-3.142935539546362,2.634885028970729
5.79,2.3546502594341088,-3.171273278876407,4.0124226227482
5.8,2.027421901373098,9.23121484094879,4.467741109010157
5.81,-2.50613361533972,8.162188682810724,-2.8570171538885543
5.82,-3.332785318763713,-6.676266252316785,-6.464430631797157
5.83,-0.26284351779794435,-9.10907588870317,-1.9040514165274085
5.84,7.152524526520999,-1.2024453304615565,0.7132722118283661
5.85,4.973728127348171,8.0907488302762,1.7655413404902687
5.86,-0.447733962636582,-1.1558428953819904,0.9722186084997541
5.87,3.066822295131562,-5.875274417877297,0.8249355860329508
5.88,5.233711522025544,0.898527165111037,2.7253109060410803
5.89,-3.3137993814314872,1.8731844003761267,1.1488093500222218
5.9,-7.137794202724179,-2.691143441325767,-4.274870149687033
5.91,-2.9527688750341987,-0.194377251988643,-2.0733620583774663
5.92,0.014384413334899841,-3.0368785300244485,2.447818893734471
5.93,5.038138209499718,4.24193131684764,3.267645649945342
5.94,4.140737723413883,-2.06862434961776,0.7069862500722385
5.95,1.720896092913129,-3.195988431393751,-0.5970066084230928
5.96,0.6087357213665645,0.5820423548389916,-1.5533109146387645
5.97,-1.5462871332936796,1.6563530158143769,-1.7821613518873534
5.98,-8.044894209439077,2.2745913773938975,-0.5100210298095549
5.99,-11.61849500153746,-1.2815023062222086,0.8028867140997601
6.0,-11.153120864266384,5.784816208678677,1.7304300850865486
6.01,-8.426234063778987,4.1098354776467065,1.6787999579160267
6.02,-8.48720969843091,5.238464719813396,1.405479827730529
6.03,-5.150925973137472,0.4740053663132536,-1.5211552384953115
6.04,1.134614897394898,-2.984441945954371,-3.289428071313003
6.05,6.1672268280785465,-4.815467947012234,-2.516114863476406
6.06,14.339413162854491,2.3326465679922093,-0.3897810177508595
6.07,18.037893713825557,1.1133441955496142,-1.0882932291513523
6.08,16.67800463513621,-1.764794567408407,-2.819165635072275
6.09,11.244572121168732,-5.010376920293388,-2.623062051874533
6.1,7.543558277218086,2.7726464921888536,-0.7336717829056046
6.11,-3.7132564121070177,7.363467022227233,-1.7132558592991374
6.12,-15.117591486864509,1.7965739911714498,-3.900770165083508
6.13,-11.34648081283512,1.0441753244043195,-0.05342782385643269
6.14,-7.719000074421368,2.792876875961306,2.705466128059641
6.15,-7.097461060648885,10.32581880481178,0.5823457829275757
6.16,-5.453569474366482,4.514345694925705,-1.4906648589548273
6.17,0.7765602818009395,-4.616389897830284,-0.30535245331867716
6.18,6.598301856057835,-4.908022473762362,0.7171120098629841
6.19,7.539654522420425,7.699774964326025,2.043993027940102
6.2,-5.202099405501377,5.657536568514385,-3.2230462319543327
6.21,-11.87718103776889,-12.751752977913014,-6.14921791000159
6.22,-1.8424945773168817,-7.933399245244901,2.8566242192009557
6.23,8.251894174521578,-3.057832121542055,3.691341885260907
6.24,13.110875850095589,3.980433251876282,1.854381928920598
6.25,4.2084346663026215,15.082297240149495,1.2286943999387312
6.26,-8.075651548298604,-4.985782074578204,-9.938511195695733
6.27,-17.171067759707963,-14.07010771831862,-7.733858821598233
6.28,-4.040989838393109,-14.627253006022384,2.49911990123089
6.29,7.181960202343508,5.733430049476871,0.12734827486346736
6.3,-3.835257853144984,4.60612714981976,-0.7928066042182683
6.31,-1.0392306598750152,2.2500303819863374,1.3408209611412911
6.32,2.4966739228480948,15.709473593146285,2.7355567228705566
6.33,-17.96605605025522,-4.478390407828909,-0.6661700792645862
6.34,-0.8761527730184403,-6.2271527669825995,-0.5276345211124146
6.35,5.282015417606486,4.810157456194103,-0.545573314354439
6.36,1.5861900067537549,4.575023356029548,-0.42196525472587043
6.37,8.347618199292516,3.6925266957631537,0.40267551364313287
6.38,7.587728085617916,-5.992848125072975,-1.8312237365114972
6.39,9.670957021112919,1.100330890614984,-3.5849015797040593
6.4,4.254950515336442,2.1981338831046084,-4.113410338933598
6.41,-6.626827548547377,-5.8243138936493795,-4.240441767599477
6.42,-2.192703083547846,-2.8675803550297427,-4.054976446270002
6.43,-4.6826045567567744,-10.407632565578615,-3.206162988319073
6.44,3.804282688103123,1.4527538505747177,0.5687859339147032
6.45,-2.1882628894454017,16.943759044551275,-1.20414260057282
6.46,-15.787230399374003,-13.881948363815951,-10.242720265401326
6.47,-10.673343346123017,-14.863699011301415,-3.4260404464613075
6.48,1.8233574667464472,5.913490198530584,3.6819963559295594
6.49,8.368595268009438,16.776053878112453,1.5273766421635266
6.5,8.445279183018437,9.019202258099323,-1.7010073758966393
6.51,-0.4736562117472831,-4.920508389640125,-1.7637486552019868
6.52,-7.021533859951146,-4.438156440381201,-2.575583364478613
6.53,-2.513192829412726,-14.594254811911474,-4.258191857750905
6.54,6.552725397739731,5.6796187362248505,1.4288899381165798
6.55,17.207320043883993,7.0965954457127784,2.9477859776232327
6.56,7.884734175773373,3.6924851212771257,2.4654255854010914
6.57,-19.10828202321664,-3.5695122141068714,-3.319894403943654
6.58,-6.119794220350114,-8.999017544993743,-5.47921721627776
6.59,1.9459200481708463,5.499897537547173,5.278430689023135
6.6,3.8218413702468763,-1.882398090155683,4.164969968993131
6.61,9.398158464029658,10.449983579170848,1.358138902245604
6.62,-0.8693703392164115,7.407150146096326,-0.15579614469120917
6.63,-0.6081350507360012,7.730945745983454,-5.5884313231711555
6.64,-13.229712504904064,-2.148243680307037,-7.657104091865667
6.65,-7.213099702444224,-9.782658647126242,-1.6302373928879383
6.66,10.702428370850447,2.2849461199124574,-3.5392740517693
6.67,6.156703843519395,-1.5601070964914467,-0.7630152150469434
6.68,-0.24983986449244233,11.970110240619777,4.154439199481891
6.69,5.997679093516417,2.322118390258557,-3.225693523754905
6.7,-10.85695760645211,-1.5903319994761818,-1.6670057508543932
6.71,-3.347872934311823,-5.954780608574655,2.5054851455619755
6.72,5.880068242516075,-8.291127188173485,-0.31897458070379153
6.73,-2.6789734194138175,-1.8768531612011154,-0.12911765167490874
6.74,0.6843249933312364,3.7753248785304154,1.1799424215995353
6.75,9.246563668213513,8.616082735730458,-0.01782156559631059
6.76,-5.515113927398265,-0.12404525888807977,-2.706597438270317
6.77,-9.055470360296578,-2.0557107441816878,-3.8924433123825346
6.78,2.4467780208405805,6.897394150929122,0.14713864043332128
6.79,-5.020841184234349,-8.631250723711913,0.9560796857430687
6.8,0.764854501145889,2.93245037894016,3.550228361143323
6.81,-0.688493005256856,1.89398030770228,2.7820842583866847
6.82,-0.43533546743050217,-6.054231922739969,0.10799154265522871
6.83,4.470668923258575,8.710938498512148,0.8103059358808913
6.84,2.1550609781732866,-9.41950032343675,-0.7643671956049498
6.85,1.420522665001545,-4.168947401104026,0.6139086813522521
6.86,-0.9243052542099699,-2.053161467081627,3.262432259867908
6.87,4.922689673276795,9.579075025937602,4.612392872887818
6.88,2.7700228969354543,6.718706273561375,2.9489668589465716
6.89,0.23033257344419336,0.3153363025990339,1.32459723849377
6.9,3.223816450525468,3.1927831528928663,1.440697772165663
6.91,1.5040243306686696,-8.852603181785264,1.1165794926602242
6.92,0.8896578046733774,-1.3605802717270572,2.5452738393191696
6.93,-4.778265165934978,-0.8122771220347439,1.0496315532035139
6.94,1.2704205978340462,3.8617838422841926,-0.15109378992363018
6.95,-1.4288993352347685,4.268026390948272,2.5995860661111747
6.96,-1.0128401181132194,-1.9736354883668366,1.3867226766325296
6.97,-5.332650768766783,-6.955256638389101,-1.493239986801423
6.98,-4.1310500725597645,-0.16281301892779268,0.18527849390311227
6.99,1.589321226696431,6.452968950091033,0.9577566191313287
7.0,1.2226226471576578,4.491580232207989,0.7873267162371752
7.01,3.455092757012821,0.0041962278113658125,1.5536395692682714
7.02,4.173929561790162,-9.194357402771484,1.6223852902024418
7.03,6.561481644106401,-4.559544804633657,2.3061195247582784
7.04,3.0975879943923808,0.6803446255839467,3.620763957910323
7.05,0.2876987771239185,2.4749306976397696,3.11819893731138
7.06,3.031475355240414,1.9197675020092277,0.4491447292428423
7.07,-3.3669184210712197,-2.903197400106563,0.5622009140636746
7.08,0.2494884386895863,-2.373006514057031,1.4297661580728158
7.09,0.42754545798342963,3.870317533044383,1.8245893073666977
7.1,-4.276462545097405,3.197360160364023,-0.03587515063254637
7.11,-1.3299786401722997,0.3256492012851008,-2.2014856580318103
7.12,-0.30252571475465584,-3.648764882303809,-0.22004764574991945
7.13,3.4215838811919688,-4.158329994152253,0.6839048858193141
7.14,8.574747458849975,0.8699813868374101,0.19187271213904591
7.15,6.198319952468334,5.180502460416403,1.1267304636601085
7.16,-2.472236817853477,5.104314660109877,0.12179692127975951
7.17,-2.8142704024470016,2.348654295026385,-1.881375005981721
7.18,-7.358586458258575,-0.18381952676629143,0.5973625732897591
7.19,-3.374810967188119,-4.958543847629277,2.11623334776163
7.2,-4.586961143352559,0.9767983821417884,0.975778965792016
7.21,-4.511982292444985,5.7213772075315505,-0.6684745479025964
7.22,2.83032087861856,0.17234570936219332,-0.3135398297535247
7.23,0.8052115170759916,-6.01634025751897,-0.20036347853750608
7.24,2.840167316109657,-4.6130287305037765,-1.2232868304896252
7.25,2.7759373801774783,0.022352018289993402,-0.015074034140549279
7.26,0.34493693133488296,2.4246871462481177,2.1807536005678307
7.27,0.37859851258159344,0.694064293482097,2.8209301189725653
7.28,-1.0530443141715364,0.2603778602677137,2.7794751775594984
7.29,-0.8174268255783957,-0.31251104189757395,1.6701205506350687
7.3,-2.4555258512850338,3.9314402047203276,0.9965586990001739
7.31,-3.4618271770726454,-0.37969540194402807,0.15091459506585506
7.32,-1.3787353631848376,-1.8687510100945464,0.5539048008431788
7.33,-0.33676659325320735,-3.4710071463342147,0.9969886403680485
7.34,2.3509118826234743,-1.2093826648895574,2.2067429716192515
7.35,4.016174749425928,1.077182026391101,2.581040429768106
7.36,3.03805288951544,-0.048898927994421734,0.8872410447521473
7.37,0.6927418421304726,-0.2244451305809425,-0.36674048112606195
7.38,1.25472343685625,-2.2609918942624736,-0.7193528034652652
7.39,3.5274384840262187,-0.8932836792562799,0.24002405991374837
7.4,1.0855645389815793,2.640208845490117,1.1305339259045784
7.41,-3.656309929785617,3.339628906597199,0.4349348003388376
7.42,-3.0875056592230714,-0.3409688814317256,0.02450979722007806
7.43,-0.8763406395562541,-6.174250079251662,1.1676566740580685
7.44,3.2754387356780112,-2.33895819859764,2.9431014722305355
7.45,4.58054468027535,5.643489678506891,3.012505463669877
7.46,-2.024734939167024,6.157396027787004,-0.5244966076869019
7.47,-9.070259542966115,-0.2066198278397096,-4.430182145373823
7.48,-10.540629899653227,-9.900628953274854,-1.7625243267878157
7.49,-0.11152033885777844,-9.80802314470236,3.1111890160721236
7.5,9.559074336868951,1.9196391414859886,3.968763174616949
7.51,9.700757521573202,9.058654081217949,3.9436859280298133
7.52,5.095703161861753,3.6559702130841467,0.9556285051539976
7.53,-1.3222149794211382,-5.511001260238625,-3.9377845412090884
7.54,-6.5045706266139645,-8.862662672784777,-3.2936350375175203
7.55,-4.5036673030231364,-4.13488685867841,1.0472712472014893
7.56,-4.367642398517144,4.798379287906285,3.0918425169267856
7.57,-6.792129119648458,2.833878191543241,2.4924687572694206
7.58,-3.4016178812539177,-0.2785741382897292,2.722097862794783
7.59,1.5345587241852703,0.051706107518487976,1.6802407748469725
7.6,1.7416202050970961,0.27708862986721483,-1.6873670834606131
7.61,2.328581192669658,-0.6763145287983702,-4.173299746621934
7.62,4.746078997739923,-2.9958214621382284,-3.4734843421399892
7.63,3.5124935098590577,-3.3856776760338185,-0.3890566270251882
7.64,3.681272051126693,-0.16111320251582584,1.4158001956357875
7.65,4.491771887625255,3.111868640257963,1.1894970119883308
7.66,-0.8612286431043004,2.4578503580106954,0.15104965347229843
7.67,-6.177819338596347,0.19747748192904568,-1.6457945593105043
7.68,-6.467828968772852,4.1757992248642815,-1.4638837539276122
7.69,-5.359258751793218,4.682953554253487,-0.3633380689769324
7.7,-2.3424879174568383,-0.9377589080614247,0.785782524117663
7.71,1.2997058873149474,-5.084427935575968,2.2925217697619775
7.72,4.785148318420878,-5.332905009459589,1.9164022191327608
7.73,8.015309644874293,1.3663165707334564,0.2555316678488779
7.74,8.846475872208165,3.606476621208558,-2.1926597207272613
7.75,6.036232677797143,1.8657866870713837,-2.7336459875752843
7.76,1.340907409183877,-1.9640103773533173,-1.5302528430787863
7.77,-1.5835777181773438,-4.422398798875179,0.6042005845059483
7.78,-4.642688279920892,3.5059464322436744,4.246829552810289
7.79,-8.321531853553093,5.067882611133303,3.4784606227956276
7.8,-10.381439726677918,2.4665816872773,0.5812232510520732
7.81,-4.994868190689388,-1.3377174207923002,0.3884638286311374
7.82,2.5997125643112553,-5.513847790377887,-0.5863037577524634
7.83,6.68385890939849,-1.993809641528373,-1.4159234778174112
7.84,9.251856112678196,0.09186187309156008,-0.5686435639896315
7.85,10.932992865833052,2.01631927056406,0.5193786750088478
7.86,5.184008440532946,2.032631681903597,0.8375098153619877
7.87,-7.4956866924233525,-2.534235441398236,-0.2792340459466339
7.88,-7.442318247901474,-1.6798511034923493,0.11845586529350877
7.89,-6.015992875058656,1.1746997209143888,0.7078479826616018
7.9,-5.853925099907682,4.349232543915892,-0.4417339388425071
7.91,-2.4333521923258914,7.635721887992773,-0.9948651404059108
7.92,-0.7733652150572554,1.6404216794701694,-1.8145391584449082
7.93,0.5396039553292171,-2.6688288424939812,-2.1558197116890714
7.94,2.104158751398916,-4.0700082864160185,-1.2479664819426113
7.95,6.250233520560664,-2.2272806714269877,0.3427981599672518
7.96,9.289969014181283,1.1797092485778629,1.0447253567169883
7.97,1.6953948069607108,1.982731647039604,0.2864435687707212
7.98,-3.2439657513033673,0.7049677225073196,-2.758343041285758
7.99,-5.497081803810177,0.3592400520839853,-2.4472236684120867
8.0,-3.583692367490373,0.016249435588432705,1.4864807397685615
8.01,-1.7019461491978058,1.74339511769798,2.6687944156937453
8.02,-7.7933889722695,5.02358499062744,1.1780251659131467
8.03,-4.3229240552069825,1.1326162371458228,-0.6801555835198491
8.04,-1.756124744552613,-5.2625695013695,0.28309010056613537
8.05,2.820412004034277,-7.138350074165636,0.553002231428826
8.06,11.70196358761298,-2.8962955418491365,-0.453983375018611
8.07,13.768156191411391,2.5999633138944485,0.7245746401213088
8.08,5.886290873718608,1.7785219590528218,0.2663156035816754
8.09,1.3497246368258025,-3.8221064615360616,-2.346109484559135
8.1,-2.0163630313738734,-3.152316282323676,-0.31527662978693455
8.11,-1.4524770567426046,-3.5233201790796698,1.7423008680928205
8.12,-3.4544808091804318,1.008421091701521,1.876368645557816
8.13,-6.214000602684861,3.737371436484139,0.5313150128317691
8.14,-0.9293026303137495,2.5580082697599735,-0.5280059443014111
8.15,1.284610516896354,3.1777835816752003,-0.004887600320922881
8.16,1.2513367754978162,-3.834734790414385,-1.6339558838633876
8.17,4.490973075459584,-1.9095826063356176,-2.4641447048394145
8.18,7.652195910587344,-1.3388542969734938,-1.6416102563927049
8.19,5.057802714389505,1.277576398666052,-0.724467677404285
8.2,1.7041293134025122,7.110670650111155,-3.188071961515884
8.21,-2.3371353519576266,-4.253428797176982,-6.887879180820587
8.22,-3.6080923752625464,0.4277788596815396,-5.984085523376356
8.23,-3.194512858524387,-1.7838729623099947,-4.427935710485178
8.24,-7.307666231298652,7.74186191938437,-3.463414902055169
8.25,-5.718534582216448,7.305833707213609,-6.036661529756184
8.26,-10.013519034414266,-1.2983143842881124,-6.913477881476728
8.27,-7.099465521731676,0.4763702740764996,-4.605774480342088
8.28,-10.07856144511696,-2.884210058672027,-4.866087829226585
8.29,-7.670122183314878,7.1140241108544995,-6.943813204153626
8.3,-2.660224679148701,1.17711245205696,-3.6092693271756846
8.31,2.14471215503807,-2.0836054905889942,1.3604106652461838
8.32,10.22824916769701,1.043722714562386,1.8091713654793278
8.33,12.0956606722599,2.235304907167455,0.9795350247850065
8.34,1.877185552377866,2.7537213023617153,-2.340633971076761
8.35,-1.503883842736659,-9.28203578555978,-7.850502820030327
8.36,2.7695723755535315,-9.679277499969878,-3.8987519544081204
8.37,9.160466914632767,-5.48827559583944,0.4642192725409753
8.38,16.774773743880566,5.7861370680688236,1.5733216319024783
8.39,4.923557462170425,11.217452479678991,3.6000048389953867
8.4,-8.603157351436389,-0.10962825266060076,-1.190461218235912
8.41,-4.962215574537818,-2.011340280929284,-2.407279267606381
8.42,-7.47019267343359,-3.9327859861903285,3.260046498764104
8.43,5.371171780339791,-3.1704438511462785,-0.031541631818163024
8.44,7.543255971818546,-0.4011737850474833,-2.461273748570561
8.45,-3.7090670934599705,-2.022602885717819,-0.9898770687170755
8.46,5.873742547097356,1.3062887344758092,-2.2706754186116687
8.47,3.657255935113442,6.8552597032098,0.644752299080662
8.48,-3.0513234142038814,-12.817797151119796,2.4544236758613436
8.49,4.50071105303218,-14.936714777219004,2.3242318835768137
8.5,13.810981407291859,-8.50409607592164,5.270203518669064
8.51,19.84655521252592,0.601626107543069,11.441452203380116
8.52,15.853265035276436,22.877995951759637,8.218405339070207
8.53,-12.498113524046454,-4.310531309905471,-11.074634635840491
8.54,-35.08588152031104,-19.608406365444843,-3.419130942738636
8.55,-26.144908664792446,3.81680508239445,1.5776450520048135
8.56,-40.83096780774967,0.662673601338095,4.179853342627339
8.57,-4.734189949211057,18.38231455971543,10.856647886110723
8.58,-7.00372628624769,24.811185413761965,10.358671876458184
8.59,-2.8527780836564696,1.1887091733853108,9.955895513672559
8.6,9.482975601624366,4.141350356262841,8.931695980271812
8.61,6.5414804762211585,6.545608971099271,0.29246981086009755
8.62,-20.675419372534165,-10.364654462621871,-11.41631308804001
8.63,-1.0280770338573098,-19.87014559011469,-11.969847544421542
8.64,9.547535581475305,-5.252523355571293,-3.262725369136623
8.65,14.931299117052033,-0.19038629104330257,-0.6026753073075956
8.66,24.432693108642077,9.821537690095992,0.5938482617337877
8.67,15.103997159214048,19.544967447484694,2.6121067477977395
8.68,-20.88682634844968,6.235485066740112,-8.014601081491323
8.69,-13.80004268835072,-11.24434351451613,-12.810951385510975
8.7,-2.9262299303472705,-6.0742669102552656,1.7747745326298863
8.71,9.59989138215474,4.751248980354059,-4.469859926769712
8.72,6.535657601811558,1.1090372772473127,-9.609755185412036
8.73,0.4243633959358828,12.127366236961189,-2.2190019675203914
8.74,19.317569457990935,20.922582207270242,-2.29931433356091
8.75,9.396929567699507,14.30228986236779,1.0053535397464222
8.76,-0.5698675203634536,-9.284661375314313,-0.4408721052245223
8.77,-0.6561153813163626,-22.688198410459147,-4.415358008341677
8.78,-14.28080950227599,-13.79961378366557,-3.9442685016994194
8.79,-11.776352425415132,-13.94492370594021,-9.930408035031457
8.8,1.3120508219208251,-21.772960568194083,-10.069165663068345
8.81,6.89325901517826,-13.845332552963633,-4.074334585386803
8.82,24.06348031457275,6.78083276686339,4.529642138598201
8.83,24.7921595016604,18.928922260808772,7.5270494766148115
8.84,-0.9515088653596394,10.464682534488773,6.969275332186
8.85,-31.310398789586028,4.15200184618859,1.3995176289484477
8.86,-15.1188843414388,-0.30829992086118707,-1.217575042150103
8.87,-21.255854199753532,9.315928287515709,1.0083774600161322
8.88,-27.802445121805395,5.856261915972935,-11.731911203007554
8.89,-7.950572978718548,3.254869562615658,-8.345922575533764
8.9,6.33027580479907,9.71468538128563,-0.5933099249181858
8.91,11.980628933014147,-8.451726410929504,-0.008299887588055747
8.92,20.735473705065576,4.809767092624571,4.161171252906197
8.93,15.7335336692989,7.357148382677678,3.6001404924541993
8.94,-2.147747022345648,-10.25254531430833,-2.389188157465798
8.95,-7.674006667555514,-2.227209269346078,-3.437523140259292
8.96,-2.77975492432527,5.5584774131225005,-1.426917686510007
8.97,-6.809364884855614,7.2471302954051176,-1.2638740713718115
8.98,-9.10227935397859,1.439270419417187,-3.839380244594576
8.99,-5.39369921236817,9.787406946783532,-1.8148063404668429
9.0,-1.378031296075341,8.195730842320668,-0.46636407849277306
9.01,1.0880609558419168,-2.8985572327911164,-1.3944758940558588
9.02,3.9050547354171714,3.2180203477340807,-0.7010378143350754
9.03,7.487728236259528,-6.493255832855053,-1.3905436277958814
9.04,8.80503464466515,-5.265141541790187,-0.6166817197620373
9.05,4.630868901404884,1.585910466842238,-0.44466551689793693
9.06,-3.6223996498529103,-2.720329510776309,-3.6285727950626003
9.07,-0.36067287126835035,-0.4421764429603536,-4.7002596507837
9.08,-6.657559594327429,-4.631180495371658,-3.221996664717697
9.09,-6.464767881889183,-5.992333253543698,-2.7216948336113567
9.1,-1.0175245321458557,-1.309714952455413,-1.812792143408564
9.11,2.4901355995142054,0.07510605559299788,-1.6612629923911666
9.12,6.554854117531126,3.7888937346729383,-2.740936218417059
9.13,6.8044223305175695,-1.961902980259872,-6.370936668115109
9.14,3.475733128838482,-8.893342368454316,-8.026562135421655
9.15,1.2723310885789865,-7.2342752929174425,-5.7899892822944015
9.16,1.8021821677091394,-2.913258909563723,-1.7980510771448857
9.17,1.7513263760808269,3.620953379135285,2.3860613991239683
9.18,-3.2207036693990196,2.229980978121914,4.384973474429524
9.19,-3.552704307666551,4.394877697180551,3.71175264446194
9.2,-1.7605416764334423,3.68282610728137,2.166117628231994
9.21,-0.03024866710643114,2.2291591833409496,0.755712137187774
9.22,-2.1117960824920403,4.8968920925467305,-1.7376868125738352
9.23,-5.23541278286363,1.4619902618599336,-5.619382089380709
9.24,-0.17293271166884094,-0.20659214232784412,-5.261312671832644
9.25,0.7260881759570881,-1.5031613819004728,-3.1682915921199863
9.26,3.513528052043039,-0.06745819675172586,-4.429565802781632
9.27,2.9732857448966206,1.6293482140035618,-5.395977633884724
9.28,0.9338350728758962,3.5539543982653674,-5.229088906808234
9.29,-4.215913072903979,4.626738235080806,-4.9439607289229786
9.3,-8.817316957554043,0.46640505435615076,-2.7906868668361624
9.31,-6.964007556053024,-3.1450275564042554,2.354370333570269
9.32,0.003132726826102101,0.8523415049229691,4.039800475073419
9.33,0.24353475960231774,3.4758490900953523,1.9801069253245778
9.34,1.185244493919703,6.635266927211376,0.45080364744836215
9.35,0.5690074910138166,0.7109739085651141,-2.750517553897867
9.36,-2.87167838085299,-3.748610591232832,-5.34336012001511
9.37,-0.34748699788393106,-3.544767850727869,-3.64139071840342
9.38,2.693801632667751,-0.6980719767981253,-0.7246579626386602
9.39,2.541803119297796,5.131529524754415,0.29207658229387967
9.4,-0.7708366894781119,1.852094003951667,-0.49144702932826423
9.41,2.502282752158859,-1.7863852654741603,-2.91992064901946
9.42,0.37884012556071633,-1.354329389420645,-5.4338855124205105
9.43,-4.059624690865695,-0.1490618406093668,-6.873607906238669
9.44,-2.0551931499464042,-2.7841422551483777,-6.621304478921901
9.45,-1.1850140294267655,-1.1736957979708849,-4.029276255240665
9.46,1.7953432320691651,-0.2189902852182146,-1.5846438052090448
9.47,1.8507839066087608,0.8833127329363473,-0.17819150543577636
9.48,-2.577526254381994,1.9193213176516546,-1.414436072809918
9.49,-4.95002033853595,-3.7514373695815215,-3.86505838557466
9.5,-3.606401961695109,-4.673912609974447,-1.4612633936123516
9.51,1.697012359125859,-3.5989060672036084,1.6729748048116633
9.52,3.280388966381598,0.9145183536285795,2.2662240853743167
9.53,-0.9108728139566564,0.6949239419785724,0.6492300830405213
9.54,-2.745177704781601,-4.473321985925292,-1.2750253962486515
9.55,0.6685778438560945,-5.718425680035177,0.501482005956967
9.56,2.913647600275314,-4.784236742751348,1.5442387207432287
9.57,8.258107857887376,4.718295642143629,1.230649794934437
9.58,2.690198282822431,2.9617551148075174,0.8267527072109657
9.59,-4.713247864330718,-3.456505733377544,-0.7437150424175791
9.6,-1.0172897105064862,-1.6269100900561417,-1.2522606912744523
9.61,-3.70473018987088,-1.0490856961214163,0.13631628291189443
9.62,-3.4461595703439554,4.096081841429119,0.27626561191964
9.63,-1.5529390711992577,3.6961353310835903,-0.9002389236212708
9.64,-3.5466135660992735,-1.6412211385729538,-1.5543784735166615
9.65,0.1901231175240922,2.601684644003589,-1.3288195365635471
9.66,0.03338980845671644,1.3494889087869266,-2.070733298395586
9.67,2.2368485499169775,0.4757365955235177,-2.3161848002590864
9.68,4.180656063851651,-2.1570512281758316,-2.139251425142077
9.69,4.604027726535225,-2.8045850711028795,-1.129549007762398
9.7,4.039671050466783,0.6883657976790807,0.7102371928216825
9.71,1.7294099155226774,2.313298283362442,0.09073697983893016
9.72,0.08176693108956637,1.443007428852601,-1.0355275143814882
9.73,-1.6574477475522338,-2.9602336761327344,-0.17155158420802133
9.74,-2.1628693110648984,-2.2533625134603996,1.286621669290612
9.75,-1.4527226022117337,1.5600982393221987,1.9417806492725176
9.76,-2.5127264735258015,4.6883014605350395,1.1736271727238028
9.77,-4.278222750198008,2.861448729525931,0.2826279286305201
9.78,-3.211932400666161,-2.9975974290690695,0.7700531319261051
9.79,-1.61803409993811,-5.137917072330906,2.0681150923224876
9.8,1.4153835131097998,-2.0094412288725954,3.6334479902569434
9.81,5.462031557228262,3.9347310667467346,5.124046000855432
9.82,4.286758013763718,3.3739381619357496,5.4118699868792
9.83,0.4852799079689456,-0.6334361867001569,2.9364022433146446
9.84,-0.7812928203638563,-3.7875832441693205,0.08687077530800416
9.85,0.07753469012164063,-3.1072792448101367,0.0306963276704987
9.86,2.0011757074710355,-2.0986846082942354,1.0827559834116733
9.87,6.337511117447369,1.3738917412563265,2.30825820229574
9.88,3.8055031062222215,6.715281569354155,2.519617080415186
9.89,-5.361465703076206,3.5133916985515126,-1.2746480709707146
9.9,-8.142861846267422,-3.649197985256133,-2.2813227345662077
9.91,-3.8526989637728044,-5.645324114607883,2.1847990052436184
9.92,4.6564672791465345,0.5807720948186302,2.1944037928722864
9.93,7.117469890108244,8.29704436280629,0.42356275833795776
9.94,3.4983721624820974,6.677853139435459,-0.03835800729387609
9.95,3.6047179228393897,-1.25951533657811,-1.8641801366039086
9.96,-1.26119736812158,-4.8117111522384794,-2.079161139701882
9.97,-4.437734195690777,-4.571206078587411,-0.7607804442026739
9.98,0.5494857009425933,-2.3221198607743827,0.8678989840631918
9.99,0.44819025594021367,1.463748441352533,3.692338522805955
10.0,1.1872746905003986,-0.32193620394124883,4.3557517586915075
10.01,5.416017205309289,-0.014423746900965437,2.426693136412617
10.02,5.393750850130925,-1.0880335893298738,-0.4019352594200302
10.03,4.956437961658355,-2.813317935399954,-2.5952849973517953
10.04,6.2314091873858395,-1.3607248528147244,-2.0667279511579446
10.05,6.9675944477636325,-2.51810000457831,-0.40650403080646735
10.06,7.803351059227892,-4.764344837426827,1.4200451763139044
10.07,10.702226485540326,-2.1223309551469796,3.9970446357201928
10.08,-5.962133091609321,12.044600835366403,4.684006748700986
10.09,-35.47721292926504,4.777671937052467,-3.297915970133712
10.1,-28.815541712172323,-7.435856900226475,-1.6830865756762707
10.11,-13.178903282643418,2.81794119793707,2.0814189633558913
10.12,-7.430824688455775,6.856383797803245,0.49821430100491365
10.13,4.627957801160259,7.707272077296908,3.338340565418699
10.14,11.870475797641843,12.029230214615488,2.407819580824199
10.15,-5.4119015483436925,-5.893166874242287,-8.635840248760294
10.16,-10.414827472201779,-20.033994426511065,-14.556394210110069
10.17,2.7902872845199975,-12.326393324490699,-1.6015000047242376
10.18,15.205642350098225,5.80846932325689,9.03683962865675
10.19,16.48075450895126,9.980624373772265,7.22446624866118
10.2,-2.3531266578728487,-2.2051816943878477,5.101477982014754
10.21,-4.328404175574185,1.444870331566464,3.08211696730079
10.22,5.672315849704121,2.3743687438757295,-1.105139515741244
10.23,-8.721544382019244,2.1949794814688204,-3.0120408728390284
10.24,-9.47387751018929,0.5059605319491707,-5.446225882915392
10.25,1.7693430154400738,-1.2522860871568,-2.441966156140079
10.26,3.731591383521007,1.629822989589455,3.045346380845277
10.27,8.879008472366573,5.581132126254595,4.614956282464733
10.28,11.201996085530535,9.325872520796096,4.040433516712094
10.29,6.136069260573901,0.9104501535721903,-0.6834019280685744
10.3,-0.06064619376555886,5.989192069739696,-3.35087139902961
10.31,-2.3236293467453097,12.846909443242845,-2.0121566346389943
10.32,-8.299925742413814,-20.662385279022413,-4.139676920487441
10.33,-15.561717001129411,-32.65789087162706,-4.206250256105528
10.34,-10.850108737731473,5.5755955746627235,1.0222509801691653
10.35,4.5379983642373825,15.777023809649265,1.9566500941950853
10.36,5.242039807686309,2.7692726118302025,4.235511723905925
10.37,9.05689000216986,-3.8617120955132975,2.8107706791692166
10.38,13.001438623914684,-3.680448090579587,-0.36499913262368355
10.39,-10.275595770375197,-8.306778184975983,0.8354378441736094
10.4,-6.46573998878271,6.277854954817903,-1.5401634470572592
10.41,-7.064519130807268,4.855527955400858,-0.5935377403783232
10.42,-10.963101004636973,-14.908619271489988,4.521135279482807
10.43,4.663384996694481,-3.941666210894732,0.40342648747129406
10.44,-1.3583885438044812,4.231648675302862,-0.737212640160807
10.45,-1.8174191780067954,4.891969936686408,0.8152728665580141
10.46,5.554582203972789,4.377499171288385,-0.3980877472806966
10.47,-10.53937774380799,-3.200190395619183,-1.772595886942271
10.48,-2.418243678754609,-3.926381945821871,-1.0644761356298633
10.49,10.023478407864774,4.839538751993908,0.559827694802834
10.5,5.726110843697625,7.137696494477456,2.474530428181086
10.51,-0.006097995763339096,9.315575268584798,1.3600251488577064
10.52,5.809551806066036,3.6656429364417202,-1.1609997732064699
10.53,5.124389186121653,-4.9877569813322395,0.1873371390045622
10.54,0.9454123922652773,4.305064796432921,1.4797156348472063
10.55,-20.203015618195955,-5.641965833757111,-2.6063964151422327
10.56,-5.398717182474326,-8.801219547092145,-1.213732859632076
10.57,1.7610335546667424,-0.5934572207121457,4.6724431396502135
10.58,5.251953998563553,-2.26131672631771,2.3603498090511317
10.59,11.21292000032521,4.163759748758839,-1.476462693011246
10.6,6.605714119251365,4.832700707490099,-4.151588878578105
10.61,-0.013281655348166142,-1.2631867577213067,-7.387795991928545
10.62,1.6647792453602388,-1.0471448303206852,-5.026049463899471
10.63,-2.701364647790613,-5.960362054197342,1.2445655344300046
10.64,0.914975822903436,-0.7723696838992117,4.153621323152243
10.65,0.5688100892611544,5.722865589313918,5.520363486557187
10.66,-2.8468134532875116,5.703056262484244,6.1297687754866494
10.67,-0.3081132618476693,7.097969235502555,1.3483613957043328
10.68,-11.11801233340242,-4.604834994942169,-4.456648984638808
10.69,-4.664574229401523,-2.913792295013927,-3.030236043797793
10.7,-1.2864128324300288,1.4492338839964733,-1.190243127000666
10.71,0.4664385991902787,-0.2582573020148468,-1.4123952579277956
10.72,2.511310276716041,4.714515913939922,0.23621869659933664
10.73,1.0407118000637692,-2.399917542225498,-2.756390182186857
10.74,-0.7067821573598085,-2.136413155504469,-6.187697640164666
10.75,2.1247269454348596,-1.1896643170174461,-5.589676162314918
10.76,1.0063417364629699,-0.12378646865480843,-3.443931615487976
10.77,-3.174944898986111,1.9413767436949294,-2.1678322083635617
10.78,-1.432670548929594,-4.861567994651416,-1.4722476939572995
10.79,0.2263822823692027,0.3864449996745823,1.7531256827389838
10.8,4.495788637020116,4.910449791848714,2.224119659190489
10.81,0.9065364207992735,4.039597767898783,1.3028973289401111
10.82,-1.090420250829463,-1.181346413281831,-0.060637236332173335
10.83,1.5049547750686356,-1.4375612688535602,0.9088731702038563
10.84,-0.170389230289223,1.9050875726037015,3.200243117315856
10.85,2.7398523768744742,-0.4694557673805252,2.058446556130999
10.86,4.049577136759393,0.6317322490816304,1.3245612588769087
10.87,1.644192830113312,0.4033108517181157,0.38671151260899894
10.88,-1.2451913308052236,-0.20080984046178568,-1.202322335973065
10.89,-0.6728808976380469,1.5524596690478911,-0.6835897060566833
10.9,-2.978892395873854,-0.3077461233861361,0.5320602691907291
10.91,-3.085323734987168,-2.365887158714529,1.347640263115138
10.92,-3.984706203355883,0.80591113272941,2.7834239243207857
10.93,-1.8440484988608827,-1.574296717672242,1.6254269324679467
10.94,3.3849755479467984,0.4550723489336002,1.1517935954755958
10.95,4.157698398830684,0.46203402621648726,0.5850854268108094
10.96,5.724023315897201,0.5646152817634164,-1.1644882510199976
10.97,3.6455276859350985,0.7355413724313778,-2.542125216842184
10.98,-2.5117677417026756,-6.725287016539351,-2.305864332294134
10.99,1.5574192724532339,-0.5459254300648859,0.006139939908732571
11.0,-4.489647621159631,1.4278429160581556,1.2082536546738847
11.01,-3.4952956416546996,2.3222217512169756,0.7405596640778815
11.02,-3.202321836407833,-0.10732317276084358,-0.5732584216956166
11.03,-4.220494300207331,0.9989268501716818,-0.16771386407738068
11.04,-1.3841286255453957,-1.7055509909135018,-1.451729164716253
11.05,2.140844090179858,-2.686913332073913,-2.023282337660779
11.06,3.196462712560882,2.053051725175673,0.039367293224987374
11.07,3.6242008099467466,-4.963909141735885,-0.4883330345752826
11.08,4.4594853999019035,0.7994483999500664,1.0154871257820184
11.09,2.8611888888705836,2.5619424070984524,1.9968271383951384
11.1,-1.4621220663695205,2.5557569220806666,1.4936820348227648
11.11,-3.8827736356537734,-2.5630103028074287,0.06322587364332416
11.12,-5.8564541204041385,6.930888802450461,-0.07107029842602663
11.13,-9.792094852983068,0.7555625661335436,-2.06809425042327
11.14,-2.6333942061232136,-4.133526985674313,-1.106994511332937
11.15,1.8346836988924016,1.1838516444243832,2.15700185446711
11.16,4.992387222387368,0.3049174837458215,1.3198731067447103
11.17,6.25409032587908,-2.210914543687182,-0.060355904465069894
11.18,7.730816954789225,-1.4742535132085028,0.014180183244994645
11.19,8.042116427405189,-0.31288663888686424,-1.0841053653923536
11.2,2.305667101162996,4.882234064519267,-0.6233050501887575
11.21,-9.938267100008085,-1.9099676004672361,-0.6828157281257327
11.22,-6.502621184256621,-2.9339938505449084,0.9028935425742904
11.23,-5.53816957087795,1.3133107671820852,5.017950667573336
11.24,-1.0140842307159028,4.646659445179367,3.846442877606075
11.25,2.9857659383715944,2.6572886716279114,1.2678994743659673
11.26,3.2087477930036115,2.7726257750169028,-0.05807367250701707
11.27,3.1038913188526402,-1.4800481154577516,-3.090650195875839
11.28,2.1031339896176577,-7.728692044721574,-2.9957921633833298
11.29,5.519240583219796,0.2682112803709766,0.5141508559919761
11.3,6.321525415914571,3.8628780315880475,2.8510921293714846
11.31,-3.1970644866471396,-0.13331826024967325,2.7859864238012886
11.32,-9.439031153649152,-1.473548891960829,0.6881584258524817
11.33,-1.9236768002130835,0.7054575730481684,-0.619854163163938
11.34,-5.642537394233337,1.614505524283991,-0.6751325352818897
11.35,-0.5480356414719469,3.9319145030632763,-2.305989419605175
11.36,-1.2956953037999728,-1.1472265427610284,-2.670057297173792
11.37,2.1041655657040805,-4.03184363229158,-1.1597760529916838
11.38,4.477279305934921,-2.240924817406139,0.5959962378344129
11.39,3.6346432838300413,1.9087873790106986,0.9661896688394062
11.4,1.9974341365306667,0.984206790722263,-0.2866614466636656
11.41,-1.2202247170295026,-1.417640354535491,-0.1985317971940499
11.42,-1.173601197463618,0.5621964875800244,0.5940153248501303
11.43,-2.041869804307238,3.63211706091709,1.0514174042972277
11.44,0.5942570622936199,6.2654221025799055,0.31290640649210566
11.45,4.038350438567629,-2.829772821631662,-1.2236853886348449
11.46,1.0481415683967508,-1.023044288443611,-0.35311553181591515
11.47,-11.843423823623093,3.906275774222574,-2.0415192087391456
11.48,-14.381898276751432,-4.9402660337076645,-3.937844396799875
11.49,-5.53344147963376,-1.514756626328092,4.163336948982619
11.5,0.11378272329045891,-0.2421897201803461,2.110602939864877
11.51,-4.327656003767686,8.003351018772754,2.023037566606972
11.52,2.3273516764220794,7.016656883837169,1.6616618599982786
11.53,7.410951229092347,-5.125661993318408,-0.8738149185085621
11.54,10.262973878881402,-2.393523245554781,-0.583529404660352
11.55,10.78447565112528,1.0873936015902992,-0.5011504170506597
11.56,4.616363500011251,-3.58677697872608,-1.3166179994466407
11.57,4.262972491870213,-9.89431972626846,-2.0013521134281165
11.58,6.1055369283001095,-6.2112066645546635,1.8046732925943259
11.59,7.976761694680042,1.1555073675231686,4.258085130380787
11.6,1.5239093837622044,12.773235839563045,3.6180915151895223
11.61,-15.590502527607706,3.960620319956343,-0.8102345760484968
11.62,-10.077337262529998,-2.9862769337656396,-1.176678950816045
11.63,-5.768919032074744,-2.0289691570245916,4.9753845045933085
11.64,-4.365629830027115,1.718728863101262,3.3542019563710945
11.65,-4.970734530278599,2.872321469603034,-0.42458539408917234
11.66,1.896930714076432,-7.201122448797908,0.879460529763091
11.67,12.874621663269302,-5.375283835028255,3.199807586938336
11.68,21.061799026743184,5.194305039601512,2.719632755200422
11.69,12.506476079674211,10.036326938991973,0.6908562464358139
11.7,-3.4427485932691204,-0.4906607281498504,-4.46901422392575
11.71,-3.257952040882711,-15.35838120693536,-6.339705217941263
11.72,-3.125895854235224,-12.930076260406507,0.9215801841383758
11.73,-6.227824002403832,3.5507682703350607,4.63326858218299
11.74,-11.770664660060445,15.886232715042237,2.1528179065474675
11.75,-10.461520259439162,0.694458845333062,1.1506862477179778
11.76,-2.5843911463915834,-5.5434201709285755,4.495476323125151
11.77,5.561537087365688,2.6208773608743674,3.298865568219814
11.78,3.065900525967365,7.444418103309011,0.18151541097871118
11.79,1.2784396463746053,7.750144303275569,-1.774368562003933
11.8,3.6155649991919816,-2.7189726103804435,-2.185406058286226
11.81,-2.8172566274096003,-4.944934146969719,0.7172336398044413
11.82,-2.4884530684558683,1.2583172236067042,1.0477939018451987
11.83,1.3751566699256244,5.059844213342092,-0.006670368088755493
11.84,1.0155816163051528,1.2912784770171302,0.7743819253635383
11.85,6.366649242741692,-3.32837908866579,1.0530036788605766
11.86,6.173829330414205,4.528608509767779,-0.7602126035402395
11.87,-2.552648968660655,5.929833723803047,-6.642205000046089
11.88,-5.13923319452113,-3.313400048595347,-8.8177091688115
11.89,-1.6054909890089792,-13.136314747314861,-2.2060597379769633
11.9,6.752083528438373,-10.43788887879586,2.256380103451586
11.91,13.593806888858069,15.032083611911416,4.779421212873278
11.92,-5.281204569735132,26.774697641279754,2.2600888823562504
11.93,-22.537109842920575,2.552933835192875,-5.519681007982994
11.94,-13.075566514156831,-20.87392641698272,-0.5307900353958294
11.95,1.8434431326004983,-6.07101705865417,4.781822214565222
11.96,6.013032975612218,14.81077127660163,-2.6834698899505844
11.97,0.05217804413463855,9.83114697306386,-7.993245842001993
11.98,1.1978495140778196,-3.70363428572252,-6.171480440532332
11.99,-5.364406709310042,-20.56488930697574,-3.4923948966665286
12.0,-3.262451405976976,-17.268136921089773,-2.328592030437549
12.01,10.205157285417638,5.888802491744368,0.35444055328272833
12.02,11.833623221937552,8.823677746384401,1.7098384077882893
12.03,-1.9093734278543761,-1.1663540374323131,0.95292414159062
12.04,-5.3980594701474285,-4.825089375528328,-0.9946367796487349
12.05,5.976705330457611,-0.12323425376025289,-2.454836232095638
12.06,1.506603996105265,7.4472790991364235,-2.864359227631922
12.07,-10.495896342414438,2.1048390632540954,-4.7047816247018135
12.08,-7.322116231326306,-4.175198066751785,-3.5251511303084135
12.09,-1.760505767196729,-1.0950052085367792,1.9599461244060834
12.1,0.7074005726916346,4.290540405769145,3.9544451203225717
12.11,-7.595254489579914,7.007290226267463,1.371850123048885
12.12,-18.59068221341698,1.155503830147408,-1.9396548384676757
12.13,-11.195729010470282,-4.494823202012428,-1.746750106081506
12.14,-0.8111098461511664,2.129306171491386,0.6978386145620178
12.15,9.796284373828188,13.060957382845594,1.8744295547603511
12.16,16.2523667007606,4.166349025252222,1.7581598128555518
12.17,16.45300478298568,-13.697938056921073,-0.1098780736022874
12.18,11.169431616638104,-8.956156284224738,-0.915937199369425
12.19,4.098459557127877,3.4261183683955516,-4.485594946308872
12.2,2.5263298295664787,-6.229646948724285,-4.534950841946742
12.21,2.2197164328855403,-11.075627692677987,3.9057575772792794
12.22,2.627125784409624,-7.929217494481667,5.7104848872361975
12.23,3.1390746711350372,-1.017273270952036,5.2756087770346545
12.24,-0.8007035534170825,20.49074044641009,6.70537344701205
12.25,-18.600016335000422,22.689579715259974,-1.6710061135471015
12.26,-31.12329082093943,-5.121878328715773,-5.284641657929598
12.27,-13.091351142649815,-15.875156953130377,-1.049930401950331
12.28,-8.132758223810312,0.7002246976047147,-3.2795574033493926
12.29,-5.38142997542641,9.712549933952099,-4.829107150650941
12.3,5.0656905384052555,2.7699510485363334,2.528305227047565
12.31,7.598943571591135,-12.840562939027,5.8271668779819485
12.32,14.862878744398806,-11.683226438626534,2.4358932291219646
12.33,19.538112267444777,8.531537304430113,2.656956192073636
12.34,9.028332309082307,8.896420053607295,0.12154486955498281
12.35,-4.923152960516341,-13.3287403493105,-6.144309513342905
12.36,-9.515800533844514,-21.641509875662113,-3.037749013956545
12.37,2.3792017874613443,-0.6069350978731869,2.4737820379081135
12.38,9.282921231861915,17.26176227550789,3.1182990169977303
12.39,-8.840686440057178,18.757351941115132,2.3711181323635926
12.4,-11.582994035610648,11.128049981314005,-0.4200039857313001
12.41,-7.9049496994612145,-5.999475759204094,1.119642243812966
12.42,0.909209999886336,-6.474672949809598,4.726348428490127
12.43,12.232089223389282,12.548200461812721,3.0624470900224927
12.44,2.4049157357394644,8.361808019123382,-3.9551315719156825
12.45,-3.43416334826039,-15.31209030100187,-8.37947045736226
12.46,2.8245352803932713,-5.49710639562972,-2.051644661213585
12.47,5.93412821505882,5.16877035384586,2.1144016354557786
12.48,4.645517030775433,4.0981187922759394,0.9377992928712511
12.49,-5.43571426132137,1.4871314045290156,0.5537523529642421
12.5,-10.198938147123837,-9.824105928424398,-0.1449293468188942
12.51,-5.719798347441688,-1.3579809905964086,2.563556363866895
12.52,-1.4411915119450571,8.449167734906174,3.918129325256502
12.53,1.6534140248969342,-7.385765219101989,0.5350479712740275
12.54,7.218375966750048,-10.547109636349786,0.4272622419547637
12.55,10.951614080558114,1.9665647904373593,5.649050074725447
12.56,9.617507410420167,6.071778421640805,6.773950581618296
12.57,8.692659890612637,10.580400697510477,3.1562279995440177
12.58,-8.033798011616716,2.472894699214554,0.7666398874616395
12.59,-16.962823432581278,-8.132258368043622,-0.37105502742119595
12.6,-7.76122351813881,-6.1233850102792635,-1.364337596890706
12.61,-8.883014296827305,8.993528839723018,-2.1171677873076633
12.62,-3.4165059413933707,9.437740939023497,-3.323408922038543
12.63,-1.2081964411084953,0.34672470814053813,-1.8652499542423415
12.64,1.4438238639010388,-4.868813704632625,-1.30582305182482
12.65,7.828632899333281,-1.8878019291590935,-1.8142900889618587
12.66,11.40180009026122,5.323171309760674,-0.34490260742087864
12.67,5.544029371586656,3.428699309427292,-0.3009956340801174
12.68,-1.567260221010723,1.8478474633478186,-2.7811476520388436
12.69,-8.30638259117852,-0.04301176114057849,-3.7437193905617296
12.7,-11.174727483922442,-3.6342728809075973,-0.7840615819377711
12.71,-3.5181719765404926,0.6781852404318396,2.1794539506015878
12.72,-5.348174336877213,4.221459075472054,1.9253694814764428
12.73,0.21151114651095834,2.6038923059888135,0.8690461494475429
12.74,6.372724796969051,4.14016503877981,1.6863994529417974
12.75,7.461095686313217,-2.4103143249901717,-1.1605577075439146
12.76,7.023411419377639,-7.549359699476998,-4.579445669695728
12.77,6.448112230373404,-2.4052770456294095,-3.374090990203669
12.78,8.62238859603649,1.224970104673416,-1.274977593570875
12.79,4.9768008141212725,4.827324691730879,1.1688724110008932
12.8,-8.398761024549794,0.033592895251002786,0.7744796024510545
12.81,-9.082605763273042,-0.23991453586629063,0.9723735931988153
12.82,-5.975353598782984,3.338444515968244,5.264504615566055
12.83,-3.570568132796797,4.143558329366199,3.297186489950292
12.84,-7.407927408815041,0.5260065163108026,-2.4724119798029696
12.85,-1.0868523155842682,-0.20470743904512864,-3.8099177094828294
12.86,4.015439292914145,-3.8061948614156944,-1.7323232957768726
12.87,7.902786644190568,-1.29853552760822,-0.7834826980857137
12.88,10.491102734450386,3.50239065638969,-0.5738849675838101
12.89,5.592084625235241,-6.104702343600971,-1.749765066948746
12.9,3.1854610552227522,-5.350733091540711,-0.5957587566010919
12.91,2.2964577236380297,-4.281163913142078,0.8072129773781287
12.92,0.2751391474263139,10.988565025693427,1.3000647160803844
12.93,-10.017817768414794,3.9545473959149673,-1.3575674738280128
12.94,-9.024424456718407,-4.502189300073202,0.6771500147210883
12.95,-5.193326494524154,-3.701985727386032,3.2556481427686483
12.96,-7.753220037493764,6.581598164225445,2.271338188732644
12.97,-2.0824582307229806,6.702430039488997,0.3341748112760728
12.98,2.595476809163298,-1.775848561990079,1.6006681220549952
12.99,6.385370919134212,-3.94103556919769,1.3498837393741503
13.0,11.046410280995913,0.11321702540459493,0.30379353664020464
13.01,5.866889436749564,2.019708209196991,0.6805879655540353
13.02,2.8831623616370528,2.9919426088324865,-1.7994229243771518
13.03,4.745054106651007,-2.54011644948822,-2.295750295360372
13.04,3.8776634509598322,1.1040273130625033,0.8551620577661421
13.05,-8.142756593811251,9.818981406411046,-0.21673788764414592
13.06,-24.895501853601644,1.7078829049266602,-4.193086484891005
13.07,-7.592801703531869,-4.201154761365099,-0.27003651639394677
13.08,-4.115476394910738,-1.8151545476470377,3.07916516951327
13.09,4.8396401640244715,4.1699035721790025,2.103587907028808
13.1,5.662199646449952,2.701503664987761,0.7736923455899846
13.11,-0.06434496234379401,4.024634046819686,-3.414968516191592
13.12,-3.568255497273644,-9.792904959159394,-7.809232318959614
13.13,-1.9895225074000729,-7.262594279612281,-2.2608409482512823
13.14,5.52685710697528,0.028886745547289507,1.5770990028256489
13.15,9.525042039417219,4.89215407065668,2.2229047789391507
13.16,0.7125007488345488,3.445355337200415,2.6103163198482964
13.17,-0.14927333299248086,-0.3364866814652311,-0.22643631448696058
13.18,9.210265902500428,0.298844934988811,-1.455055861618458
13.19,6.926181586698915,-4.0977490669872525,-1.8202154490420421
13.2,2.984976155412403,-0.3730694581804076,-2.9352767959719777
13.21,-4.485930166842253,-3.683655407071795,-3.982468016090782
13.22,-1.605376103187133,-7.770582808294167,-1.4752501696048301
13.23,-10.38756955044703,12.399890708421045,3.6476367261369895
13.24,-15.932283459164022,1.7194342380925076,-1.1968206597457254
13.25,-8.218574585480047,2.5085863686065597,0.9723059725875426
13.26,6.4349578186196625,-1.7991124694622498,-0.01815589719351363
13.27,8.426424790029976,2.425988414800904,0.3353618180803596
13.28,6.8054841916542514,10.9395921089032,2.5783765629030344
13.29,7.036236732049294,1.000493779555852,-3.860151137535805
13.3,3.6529902288983402,-8.189416548091328,-4.120447473108359
13.31,-3.4693135710815253,-23.224071432347472,0.38703506704674107
13.32,4.209599314062238,-8.817905081573162,2.339913498560881
13.33,9.046992435099996,18.199140732287166,3.328270859616071
13.34,-6.301085083964756,6.965197011617227,-1.0095244232169196
13.35,-2.3775330378403887,-0.9182435848539696,-4.282254028228536
13.36,-6.97234265071374,-2.881690918874571,-1.3426730003590257
13.37,-12.93038758769416,-3.248431494434413,-1.3534284034078656
13.38,-5.670979370515253,5.578446525411218,0.11318913118642052
13.39,-0.3774233241818413,1.6904200323138703,1.699275868075622
13.4,4.514254519270882,-0.6248816949218596,1.9980486562338615
13.41,5.755937670946311,0.2488306437520618,0.2137502702956098
13.42,7.753674035430949,3.209268659348628,-1.655118276369091
13.43,5.5239009843190825,2.746597858478469,-1.5628155850225394
13.44,0.8294921562996083,0.8676352311484758,-0.3469648840504025
13.45,-4.781899375607131,0.9936494057461974,1.7811162800350793
13.46,-5.32477467723566,-3.2987133355619673,2.5085960478753537
13.47,-3.635299160044381,0.41402102387287393,3.849012320245832
13.48,0.880074776175378,-0.6499865633074594,2.4513673830971485
13.49,1.893145982934263,-8.776001103838874,-0.9407918130705843
13.5,4.288969746209437,-3.995508138505757,-2.1526326950064463
13.51,6.27630323257932,9.653308540020856,-2.1606347751746258
13.52,6.979816758586155,9.298089853761969,-2.7064751497395
13.53,-2.271070913993033,-2.525932796260054,-0.4164683236602568
13.54,-5.8444364723457864,-10.424203122420662,2.1491490876558466
13.55,-0.01025139492173369,2.521469936538873,5.6418538608358455
13.56,-3.8143585319135913,15.597631978734706,5.796025248524225
13.57,-7.531221927670621,4.652035826017075,-1.1712729450520294
13.58,-9.310417224876451,-3.963108722058759,-3.5490168181861357
13.59,-4.646015262615544,-8.18195778089504,-1.1361154125324888
13.6,3.6075741362278433,-5.589055933866529,-0.3243410853447124
13.61,9.364640471045254,2.4081238950546973,0.8298886709112951
13.62,12.563895191000388,1.0125073033433254,3.7078854136078605
13.63,8.035761231238865,1.5275565088095395,3.655929967820468
13.64,-7.094618628229583,-3.693967099772122,-1.5688813822069312
13.65,-10.049940895202456,-6.105777760438713,-2.305458566699365
13.66,3.1827364433324297,3.1966655667060055,4.148053363861784
13.67,-0.9439280577851771,2.8115121118457025,2.6678567358116037
13.68,-5.655531481176926,1.3929403757715921,-0.5742502229360207
13.69,2.2768469562963634,4.6238239257039035,0.36774871575120616
13.7,1.1167108230796987,4.410462345702533,1.6747096992940247
13.71,-6.17554736274648,-5.23786811897543,-0.8919117365266175
13.72,-1.0079702678466826,-9.024363057542917,0.025226425125352635
13.73,5.914797795144373,-2.3721409036022236,3.0215143557246162
13.74,11.95267985872516,1.6463781696539577,4.170207627144287
13.75,13.591066665287817,7.2495598289078504,4.045268273117602
13.76,2.2764259605126886,4.336107872260489,0.45606023559194886
13.77,-10.337892447483501,-3.4940165099299145,-4.6333108228993005
13.78,-5.996414062755355,-4.354840234992736,-2.2206029117014454
13.79,-7.0501818740322335,-2.2335604734006376,2.241532310130215
13.8,-6.277977414227137,4.169563470415442,0.0050676191504292955
13.81,-4.123899992469434,4.8425212879422315,0.875182702732601
13.82,1.7518442217852137,1.156356703614373,2.9457416905990637
13.83,4.87243700228812,-1.478854370686159,0.6055061664209981
13.84,4.21839185543483,-2.5159199660044433,-1.8133175931720418
13.85,4.55335485820219,0.5325722689083582,-2.5185470884860184
13.86,6.070699339137507,2.420961436189657,-3.938072819573285
13.87,0.8577014033603002,-0.44475888041637246,-4.610047255914194
13.88,-3.226783053204699,-4.034282751677399,-3.790011267631068
13.89,-2.0736944234521877,-3.3736383019546716,-2.2239645984593452
13.9,-3.9539892381319817,2.8035609161471844,0.7437053452198081
13.91,-3.3201195998077635,5.863844679999194,1.811147049827112
13.92,-4.68804762640788,6.039328293924816,0.132165432038766
13.93,-4.767098871954202,2.306642380838646,-3.249923925829413
13.94,-3.5627559016522463,-4.0106449855074,-3.983554987922593
13.95,1.1866116310864676,-3.0899188095868206,-1.7791000554259218
13.96,4.7919385785141495,-0.07203791573094734,0.21921651360663505
13.97,6.302423418080778,1.384230025771889,1.0001436319670602
13.98,8.5278948283633,0.46121698733716693,0.09508757006107589
13.99,5.985095442640148,3.832010404876034,-0.42217900082970455
14.0,-5.079210406347546,5.155403081689536,-1.6605737829750125
14.01,-8.898690283150971,-6.697478413559153,-2.4536281591597158
14.02,-0.9878694681060785,-5.760114868888615,0.7907438581446969
14.03,-3.534347942506583,2.1096825344326855,1.6278332231577346
14.04,-6.496271763605421,6.927854664479201,-0.1505141312475639
14.05,-5.678227618055879,5.638727239638219,0.1458664948961152
14.06,-3.8004763357983222,-5.808149235686707,2.2067855984486298
14.07,6.444959829938334,-8.00808263497254,2.696211854962965
14.08,16.940462239504928,2.714618518043101,2.204499808889114
14.09,13.10498855201692,10.469410658283596,2.557748720804869
14.1,2.2797743963722543,0.6233190733638088,-1.2310692937207999
14.11,-1.6458807052749318,-8.18236192922342,-3.6031973033849876
14.12,-1.2598653809299651,-6.993468891223562,-0.0014038095782332226
14.13,2.3927366401602974,0.23165895617587243,1.1233062789551367
14.14,-8.172552752258962,7.923322116394997,0.2928481648555248
14.15,-12.857114465039903,0.6378344493291792,-0.5217198104659393
14.16,-2.1873180959559844,-0.840714655912815,2.878873391175125
14.17,-0.9752620176207132,-0.5736154414734093,5.89426357392751
14.18,7.27936735028689,-0.5233802887286946,2.162570025295285
14.19,6.639553651206424,1.3338073702055686,-1.043719354516084
14.2,2.0315352549623706,-8.035849655758984,-3.66437921695299
14.21,10.779982050047785,-4.708210099737831,-3.422589146053012
14.22,17.29662248405202,5.1331078924202735,0.05649389150373789
14.23,12.482265935843163,3.0436030768871074,0.34578382742620134
14.24,4.305179443636311,-2.9849030254504956,-0.9988482859134438
14.25,2.265933145510904,-9.69175843672235,0.2776556963982982
14.26,-2.881637135809862,7.261849621707587,4.189111882334106
14.27,-41.377163231821555,21.822822471992332,-0.5159249911731805
14.28,-52.42735977238976,-3.8506906625559965,-6.158018178329317
14.29,-16.026220693140935,-19.00602219873787,-3.6446177270859366
14.3,3.289786381347706,1.762552032871015,-1.3353386422776294
14.31,9.294546829442975,14.088802555587751,1.7255647545359931
14.32,10.545652351628716,17.271320522631758,3.3270742687680595
14.33,-8.455157370092353,8.227970291426281,-5.029908552422112
14.34,-23.343894832239602,-28.88022070937611,-8.563886491374058
14.35,-2.076894674829757,-24.21734901278488,0.5865704379315793
14.36,26.085369766374257,10.39662356686036,4.609556004650799
14.37,30.416429684738727,13.930001915144693,3.9102782071309137
14.38,5.162533196924492,8.705192381362991,1.1537087687606973
14.39,-9.181791587628126,-6.4465036447348485,-8.750257647119833
14.4,-1.0741645524627783,-17.622561973814683,-7.105551435479154
14.41,10.224764570518477,-2.9815544196798203,5.019780054667902
14.42,13.74730249319701,14.945530872948375,6.626428914726483
14.43,-10.89029307433007,6.401914533156528,0.32670145800695094
14.44,-14.541404966671063,-1.5052707611648877,-1.956930448939535
14.45,-4.849825533939306,3.7369163649155683,5.607716246758211
14.46,-0.6810911425604239,6.13225105256354,7.541682937155907
14.47,5.527804662944666,9.531737014608451,-1.1992969520962893
14.48,-3.602031456146101,2.850630709402351,-6.305049510638824
14.49,1.1169777046270881,6.917862947595993,-3.7185780316883847
14.5,7.699039345391459,17.218434928871734,0.4267666516336871
14.51,-6.660343023052993,-24.542056791288488,-2.546962887492282
14.52,-13.655520067500984,-57.27760845629363,-4.526958915234118
14.53,-0.44018053079101654,-6.029171309933349,4.218735394847057
14.54,13.461837154798195,26.469367874715847,6.1186841532084255
14.55,13.551088668449838,6.552053205130132,3.595496555971039
14.56,8.58839298684002,-6.405889308542466,4.230922428038702
14.57,5.610392071330557,-6.529191899812711,3.165958897595645
14.58,-16.945056930731557,11.192582538408296,2.2480602383286925
14.59,-26.62858420644814,10.160549802012351,-1.574653999923893
14.6,-15.753660148967228,1.3470091973800427,2.394938219535148
14.61,-10.844666933547659,-8.002084800907703,0.09387573914102414
14.62,-6.118647655176802,-5.640263516649706,-6.085589335480162
14.63,5.224124531663388,3.680113619683322,-2.1740189032394235
14.64,20.010016184436406,4.743637446110457,1.6453923276951468
14.65,23.31945737286789,9.994281281440468,1.6611819947306115
14.66,1.1922301671942621,-2.8959493839366917,-2.660026849174274
14.67,-2.0689028347686973,-12.111412197167253,-6.731657407409892
14.68,12.02975154846234,10.345173511076549,-1.4856482218071185
14.69,5.579555840788566,5.779023580631008,3.1200939625930943
14.7,-17.440279817916416,0.1427984623620901,0.6281282968375116
14.71,-4.293657235164016,3.461649136956058,-2.864024579664767
14.72,3.838555097635763,9.305313764542523,3.9886211538326317
14.73,-15.094385741464924,11.579400005560386,6.93644608453716
14.74,-14.592089788343596,-7.748146851882214,0.3230241627378183
14.75,-6.893403120550748,-10.818072935799737,-0.8837953672852324
14.76,4.8557527806357825,-3.371990451367745,-0.32311579124778605
14.77,15.221075365913835,-0.254110333019256,0.36256248198051594
14.78,15.063224447929757,4.180356007834146,-0.06644943380447194
14.79,5.561845422602376,-2.0248931556928627,-4.303229293097828
14.8,3.3704647095231004,-0.9123070564870842,-4.123201168440911
14.81,5.195213539460231,4.758476251752084,1.4324418695951324
14.82,1.3939569239702625,-2.434508162796322,3.4627517269699277
14.83,-11.327512289875703,-1.2494183582456007,2.379541628021821
14.84,-10.419962130814795,6.68326757718804,0.22444246180736796
14.85,-10.135788851176688,9.062005703592337,0.7083627205095941
14.86,-3.458171575418388,4.240374821745173,2.2618331497309745
14.87,2.5283073915818277,-8.1836433037777,-1.5952413420743645
14.88,5.339027631826023,-7.465125120512878,-3.4384104086446086
14.89,7.782542081775899,4.826117378462151,1.1184294829138628
14.9,11.148109191452125,2.6472730058542386,-0.26601005534802186
14.91,4.895475245813465,-2.68922078953333,-2.800584426902612
14.92,-6.568222517280352,-11.113295069045265,-3.568979290177016
14.93,-1.1576962677094318,-2.039782459454348,-1.4086255907431489
14.94,-0.7062681611908377,6.509332183524001,1.8606321446619094
14.95,-5.725606302233559,3.65470742447526,1.528331221447175
14.96,-4.308653811629803,7.7294225175569435,0.10142323367976637
14.97,-4.17245449531745,-0.9190546204485146,-1.3380765553975322
14.98,-0.3018192996879922,-3.7869994992630343,-0.035093059173730845
14.99,3.910108153827352,2.667715842948131,1.1327155358768088
15.0,0.6999285148759771,-5.496683330313906,-1.3083439734580964
15.01,3.14217191381668,-2.217502386894194,-0.8253907857445693
15.02,8.835681300285742,3.550509973543271,1.5412772099741074
15.03,6.76747489555026,7.554783985192913,2.280827714894409
15.04,-5.957815265215161,-1.806840827809532,-1.354296254049045
15.05,-4.625276460293057,-1.6708338591508367,-2.898530104967268
15.06,-0.19007171736791714,3.012658032906338,1.5622464097951825
15.07,-8.07331325165087,10.289769901733978,3.1650522311647284
15.08,-8.986628209686618,4.068840802084298,-2.5536556551856306
15.09,-7.768962478458236,-6.696409263846346,-0.7672739112572606
15.1,1.9527814877191023,-3.056550125947782,3.5500587106933734
15.11,6.21473180462993,-5.296750563536959,2.4229013474168393
15.12,7.049573228227636,3.855877911655878,3.317353975015505
15.13,3.123378722773812,3.99471858928111,-0.5548974760083735
15.14,-1.2792069709331453,-1.9957733027481308,-3.7440397480702634
15.15,-1.0559659876066025,-3.983548109812787,-0.7034600055952512
15.16,4.111168720055925,-5.468576633668569,-0.381295445335404
15.17,6.610293504833406,7.7149611757476615,0.979041790680906
15.18,-12.287840831121867,3.1974081709550126,0.08482207353085783
15.19,0.06881520003803393,1.9767027682973826,-1.8487885243266922
15.2,0.5488572593218173,-0.5560914532071517,1.1470971805036645
15.21,-1.9716303130682358,-10.180247370619277,0.04874242606410464
15.22,8.489223462015168,-1.3357793741094661,-1.8059192055051494
15.23,10.201685314536542,4.253749822679133,-0.09893252916958636
15.24,0.6137786540096992,2.719634531503431,0.323106575476378
15.25,1.0865000421943565,-1.264203747150768,-4.353713819721736
15.26,-4.770274949595048,-2.3606048835799545,-2.0573602990655475
15.27,-4.205871293716812,-1.730089620015629,1.7707437963260044
15.28,-3.7669336148817294,4.661805163693842,2.1349705486948323
15.29,-8.863851225259465,5.007415449133448,1.0150669260523064
15.3,-1.751481767149356,-1.0221826614267997,0.16917721799057112
15.31,1.0393051558523219,1.7577425698217972,1.6961487011343082
15.32,5.157224051435236,3.025095153011842,0.3437973386798386
15.33,6.236120074017192,-0.47492157451753014,-2.4786138343852846
15.34,0.2265433709939115,-3.6803041436299515,-3.590367887897839
15.35,-5.243437652888087,-10.343532473079875,-4.118693556935771
15.36,1.6673225310684994,1.0765521932155449,-0.016056959071817437
15.37,2.038327614699416,2.4103012823330103,1.9726210980071683
15.38,2.62206955062428,-0.195736331630824,0.2290109788191966
15.39,-1.9164517875992895,1.485351763157131,-0.29214477940006944
15.4,-6.0523577159866635,1.1852875131119878,-1.4244659155406978
15.41,-3.8620590832921065,4.8122269707744865,-3.2818689418094804
15.42,-6.0025943130709845,-2.0833179635043964,-2.741246037613869
15.43,1.5541029311884726,-2.8985470384843386,0.41545791053022824
15.44,4.727004735974109,-3.3724852338930087,1.8293983573316415
15.45,8.507528937497959,2.313821299458904,1.6735833601667303
15.46,4.128506205192458,4.796715448650223,0.04091453169331584
15.47,-0.14084169978269223,0.2602944697464452,-4.252954175099717
15.48,-1.7287149897217446,-3.384274826057316,-4.168702669914393
15.49,-2.617221249924981,-4.731064518964939,-0.3427050980375418
15.5,3.793476108368086,1.1293953917631123,1.6917895154219464
15.51,-0.8194748869903579,4.777539197898287,3.340277646989461
15.52,-3.350289884074208,4.096346468263465,2.214924420642544
15.53,1.0994106434039765,0.6267517459521549,0.15857767909938336
15.54,-5.415896616123082,-4.396370188375144,-0.036867574163338794
15.55,-1.9684120240143432,-4.123323560613332,-0.7295404038993635
15.56,-1.10751218272291,0.15756347894203285,-0.5579466782216275
15.57,2.101092082877774,1.5763781351125514,0.6621994487713637
15.58,4.36941539767361,2.5637222453050876,2.185311742669472
15.59,3.3383852814735118,4.161884250846786,2.0192787736685904
15.6,0.4841264664854489,-4.384206191585776,-1.0709075594943722
15.61,-2.9236115156844162,-3.338302280397584,-1.2765334429958373
15.62,-3.84767882328313,0.45536542775580824,0.1999800308067534
15.63,-5.559204275502596,3.1839149022682434,2.1697333139206085
15.64,-4.974250722430759,-0.603663716204024,2.4895972586148107
15.65,-2.4154834507684013,-3.395134067503862,2.253572132649051
15.66,2.9981359021434697,-0.49681197665399973,2.4393103828967395
15.67,3.8174107312545833,3.549513862161502,1.8790878704134741
15.68,-3.373034099975479,7.973881621458763,-1.9413292573340606
15.69,-2.8297303513562273,-4.014300903773587,-6.104153110692469
15.7,-2.8070749670063573,-5.469582436983496,-1.100439895526272
15.71,5.738642656904777,-5.510339951446447,1.8102764510224842
15.72,12.705743466750414,5.696142934636852,2.203853693224524
15.73,3.6015136608090086,7.306027136202315,1.2748286752021867
15.74,-5.633825581081031,-2.565852714548896,-4.781676888366523
15.75,3.3956025899110536,0.34776010909981336,-4.301068694678963
15.76,-1.4318487112764657,-2.7044018289636127,0.11686736190418474
15.77,1.4343516175150584,0.11222139668256963,0.1878176509284195
15.78,-1.0761430523546394,4.143477061368659,0.3517585464952196
15.79,-2.750521042679255,0.9465617564380935,1.218586620798367
15.8,3.780195285814922,1.2175633961911636,1.546220136262774
15.81,0.31949128454794357,-1.3146433755280718,-0.17476576221697476
15.82,0.8732929614109635,-2.2002649266797287,-2.6962353439952578
15.83,1.3096171696785501,-1.7416173594927389,-2.917484192361089
15.84,-1.4671603985651314,2.256614008124409,-0.17709145452067407
15.85,-0.59741212579085,-0.20824120225018172,1.4771793929975887
15.86,-0.23446169026268732,2.312651067911016,2.165095606573979
15.87,-1.1919194914217635,0.5923258291509583,1.3967337617751547
15.88,-1.2901513254644017,-0.9880815517782346,-0.02055091919342167
15.89,-3.3861957830015283,-2.9971762058360953,-0.19833316226494171
15.9,-0.8393019691653543,-0.8983675207958618,0.18393458636807228
15.91,-1.492350005654591,-1.3536572247004335,0.011429070748721059
15.92,1.3701897668472376,-3.1200854809916403,1.6621862313613367
15.93,3.8717500216622636,0.5605452058549049,3.006226186438259
15.94,3.281093083306959,0.2966287081953245,1.7467316695848685
15.95,-0.7082260733527157,-1.7727401002867473,-0.0910625929761515
15.96,-0.3427934247534342,1.0924002975891631,-1.2026281681179278
15.97,1.6789448160128075,0.6941106671385954,-0.7825754420584436
15.98,-1.6159773590089117,4.0398423209723004,-0.5139596502667751
15.99,-2.8395858800331184,0.3113282979259957,-1.8367961316205985
16.0,-3.100779308857817,-0.7640651017809758,-0.9862132938454147
16.01,0.2562891858774036,-1.924462891375188,0.6435644791796717
16.02,2.6678672890224795,3.1964252996536566,1.8816842456672054
16.03,2.2569300513178416,6.3059858269503675,0.524304970997853
16.04,0.17639914819854072,-3.0456199644457906,-2.1784161241162003
16.05,0.08355041154276903,-1.8149153358309993,-1.6518606034127319
16.06,1.6418593509410715,-1.2239447517299125,0.26578331067009636
16.07,1.4964936731906773,0.17464740099498305,1.331244193674388
16.08,0.5745335545648395,1.452008788779552,1.0080742135681717
16.09,-0.2778965296951429,1.0587181211557546,0.7625654277638475
16.1,-0.46948785217955646,-1.374341306862856,0.24864958428097736
16.11,-0.32259122887356595,-2.303697470814726,0.1746798490470198
16.12,1.6409540841644459,-0.424049576137155,0.4106263480246929
16.13,2.8873155915008195,0.815082474965966,1.271694627368996
16.14,3.498835450936733,1.1960655103311701,1.6809992868032293
16.15,1.4735906802423029,1.794602603971995,0.8534551999144677
16.16,-1.1702072825872747,0.5004848224788356,-0.3987713672569129
16.17,-3.02164220479995,-3.052306261178267,-1.4060742504145356
16.18,-4.97182625534765,-0.39326662738545887,-0.5387375687471206
16.19,-4.77305026792797,2.5754440942272776,0.6354068922469621
16.2,-3.1964676748778746,1.1120499434898106,1.0175625159834352
16.21,-0.7029745501718982,0.8781542806411471,0.8665836469444163
16.22,0.11935907731201953,0.5012078096057067,-0.059958897200042785
16.23,-1.3718074453682265,2.5604597782653147,-1.6551538280682856
16.24,-3.754681713565618,0.5291888962769047,-3.772486188833257
16.25,-3.0536173003137526,-4.0560891279370255,-3.8107538755023818
16.26,0.24475655496609175,-7.906314026259519,-0.8710467206735292
16.27,7.752605529767658,-2.030782616918685,2.4388470835234024
16.28,14.033494200049512,7.966669361150132,3.592262924967831
16.29,6.738590267562081,7.0358740292991415,0.030135298074478543
16.3,-3.446131344221573,-3.7521848324400353,-5.896416968989906
16.31,-1.5104901270308226,-7.0772512053344805,-5.447549837725894
16.32,2.4706153280837952,-1.7642176004524481,-0.8073042537601364
16.33,0.8754980072486649,4.5320451436666085,0.6849828511588398
16.34,-5.519538906777225,6.114365877947672,-0.36089702503553245
16.35,-3.9346069021580745,0.6541170502025394,-0.9808986926047949
16.36,-0.2044432704741534,-0.3972650473631291,0.8199139354378798
16.37,0.08611328173553066,-0.3743156377225928,0.8096166932508864
16.38,3.627367648741255,0.3010938711742866,-1.1587639825366929
16.39,4.632011472400618,0.11252777295509496,-1.1838717731968431
16.4,5.4698641112368325,1.1860212382292596,0.5877466354889284
16.41,2.985086803702393,3.5310302158702727,0.24646467186575688
16.42,-2.0793296264671755,-0.87539126381651,-2.654421125924174
16.43,-3.9635218236264786,-4.88882362740272,-2.3339716183167547
16.44,-2.367205057220381,-2.698408033776668,1.0280721758660616
16.45,2.4440809372150087,0.2404645848981907,2.6863310957748228
16.46,6.711071354340828,2.64903373427373,2.5759000456133454
16.47,2.279865821234645,3.261907349329441,0.3083631409445603
16.48,-6.492487901984447,1.3383690285270828,-4.843150168077912
16.49,-8.909722776877645,-7.690494820472172,-4.745475716728805
16.5,-4.126303862035705,-11.727266834692395,-0.019950250125116243
16.51,1.6049203721031018,-1.5219323674717475,0.36002904100599165
16.52,-2.811882944502626,7.273261238388545,-0.2453784701217672
16.53,-2.3471102008492157,6.429316660652396,-0.5448989315084349
16.54,-3.0682652261093724,-1.1053645302336874,-0.8033741270075682
16.55,-4.329196452576565,-8.921298150372126,-0.5300398448756483
16.56,2.749582190619722,-4.910722713166782,0.2309642388485134
16.57,2.1291204074784127,5.887015556158971,1.1428431885265147
16.58,-0.2568979060713084,4.315881555576053,-0.6765315937879512
16.59,-2.914321598727526,-3.8583756764354766,-0.9458308683961256
16.6,-2.7544608829963333,-6.827502822659258,1.0382280089808482
16.61,3.621822629021606,-1.259500922769658,1.7017502396334838
16.62,2.247767024024404,6.3729249862373125,2.4916871184169316
16.63,-5.5600641810265925,5.711033452302936,0.9304787452320854
16.64,-3.376132859892429,2.1841767267485075,-1.472183640296899
16.65,-1.2195312944175587,-0.6540786945867076,0.40942331889125144
16.66,2.8114860059890736,0.6145326216702116,1.9013834261824651
16.67,5.241369200526275,-0.6035524188648401,0.9776420016706061
16.68,-4.093553087397009,-0.5623108978988844,0.9124661419191379
16.69,-1.4984352711839908,1.6109467677507314,-0.960512842412167
16.7,1.3324193772400978,1.3798693093648557,-0.7879024358763423
16.71,-1.2028003048386315,2.4668104935755597,0.2729023641322206
16.72,-3.94624690781423,1.8410114520788678,-1.6450409531724235
16.73,-7.5398862164742635,-4.98179704150004,-2.6309858292921
16.74,-1.4277392535948692,-7.846175200265547,-0.31117977517168516
16.75,5.987282019630407,2.953395307282848,3.717435908960487
16.76,7.978436994668291,8.102884002931098,3.020893551862026
16.77,1.8897426898472172,-1.5583318752983641,-2.82209385580355
16.78,-5.95937125060766,-8.47711543980655,-5.487300463280951
16.79,-3.2474496437703806,-11.221364253178079,-2.502022952790422
16.8,4.972889112266513,1.7153885046018096,2.2500154619665325
16.81,8.757690794473861,7.460641389981066,2.922274631278715
16.82,0.7521120755991956,1.4795113753393743,0.5019075767051201
16.83,-4.382735724225516,-1.8804404684071938,-3.699291417256216
16.84,-3.716092535450771,-2.9376391202825096,-5.296028277445014
16.85,-4.724447012047372,-1.939925939754363,-3.899783650614416
16.86,-2.1969840841539416,-2.5030252779868056,-2.6618631741303433
16.87,-3.5924360912162423,-0.6621164892792534,-1.9939324211163485
16.88,0.19399071587630048,-2.8284732714823,-0.09993007087575723
16.89,5.591714151894927,5.665885288050216,2.838456290880901
16.9,2.0864141204237496,7.905940254916836,1.469474965040187
16.91,-3.674438243916687,0.21095443855390392,-2.0068684059510464
16.92,-1.734508608395174,-1.1055399015196914,-0.6101697264202837
16.93,-1.1179559159490313,-5.220411444316998,2.1087377077551195
16.94,-0.48778115520340154,-1.817030604050488,3.6474866450286747
16.95,1.9943869509324217,4.806485369575781,3.4695240383495483
16.96,2.970661683644118,3.076682698301682,1.1437777691968936
16.97,0.966972839565553,-5.860149226284135,-1.6248290249399198
16.98,0.03743241838896665,-2.7978289043175186,-1.73546805208272
16.99,-3.2087230626563974,3.2373201484272793,-0.6487685300019631
17.0,-1.8059019933698854,4.611407119190284,0.7792939410933466
17.01,-1.984595512244752,0.3606265476437219,3.036418571056666
17.02,0.12681016005016807,-2.7425108926928448,4.265542428368266
17.03,1.6002094825373938,-2.2827635874673327,3.0668610591644385
17.04,-2.0619246481014235,-0.2943527403316186,0.10043705086656798
17.05,3.410568203933351,1.6157465391764088,-2.041236947748924
17.06,7.930273193881024,-1.205951913427194,-0.7191329039340514
17.07,8.918095949076703,3.6237562513555317,1.6868000052321155
17.08,-1.1198989374823674,-2.1871640802344547,0.7827981818801408
17.09,-7.978135470294758,-4.956443483894403,-0.12101908347647687
17.1,-0.006924022229090377,0.5948417570337587,1.905363674155107
17.11,-3.9256912647905904,0.41320801988160766,3.3027856521527714
17.12,-2.5543525979018176,2.5775608330699455,0.2060416145689557
17.13,-3.952753018045124,1.629821616250539,-2.278042358922815
17.14,-0.9342976476849096,0.7360196902721542,-0.9428072173505067
17.15,2.457498319654983,-3.928873518432752,1.4132543246791274
17.16,4.793611237424398,0.2695343981149168,2.770916311991656
17.17,6.382513776380434,4.361680958916599,1.5501008976414392
17.18,1.79378817629249,0.3165319391134919,-0.45527902116494046
17.19,-0.2914602910243673,-0.25120829877548856,-1.285536953820223
17.2,-0.780198721464041,0.19543700299797917,-1.4342487686411458
17.21,-4.946377187387548,1.7961152248196128,-1.9985247070330237
17.22,-4.313749973028533,3.7066323293805548,-1.0412123741548944
17.23,-4.238741408681497,-0.2569449408017973,1.6222092162390358
17.24,-0.6051954935903958,1.9845100781614498,2.312389904272085
17.25,0.06156655411175624,-1.0663858228764314,0.744404803516688
17.26,3.475949730812058,-0.4803026799390062,-0.5366125440876253
17.27,5.767347728042064,3.207365133759459,-1.5261670808954955
17.28,1.1580768612288892,2.3115741121458617,-2.7081661463371147
17.29,-1.6552785602998503,0.5236596266281093,-3.389460472539846
17.3,-3.7942436767861505,-3.723708972590637,-1.4739503207895055
17.31,-2.226561349154823,2.3727242576344456,1.8776574866755065
17.32,-0.7886917417746689,4.96051685103852,3.810380409617134
17.33,-2.134741173623328,3.853673669170965,2.554327731004323
17.34,-5.645015701878813,1.329914060247932,-2.4211234189973534
17.35,-4.462727459131774,-6.27530042112042,-5.480571933386983
17.36,1.2445674540429987,-4.475504204743,-2.1666611454951634
17.37,5.697424087620447,-1.1663214107356195,0.5425541052405121
17.38,10.033796797706835,2.4029672652672223,1.6405100280226605
17.39,6.154073813122697,-0.5853340739928712,2.0342676788267937
17.4,-3.2859196596500837,-3.61973192090764,1.2397739294705392
17.41,-0.6330945731483397,1.8780839232969115,0.7428746141633769
17.42,-4.708402565500975,2.4992805733922707,1.8118270760218067
17.43,-4.811594369491703,-2.0076820178823302,0.6622002227243057
17.44,-3.803654658383036,0.48908169314235517,-0.22818310545785198
17.45,-2.5513964662777333,0.9009263580287621,0.6952914753360145
17.46,3.431946670092829,2.778964782381223,1.277658908430631
17.47,2.7885552016212736,1.8765003725442881,0.1782678144551576
17.48,1.6789172045650689,-9.220021478628539,-2.1022557394546038
17.49,7.204806867375202,-1.5932567467270506,-0.3712646092581396
17.5,10.035599235092754,1.0908732345383447,1.0010846184044444
17.51,3.511074821822063,0.14130177181109893,0.9542417993870966
17.52,-4.928882756876946,4.248240001747268,-1.6343299008334422
17.53,-2.0850385575296695,-1.9320738232619579,-3.254727623286534
17.54,-11.337653480855005,1.7490793687435586,0.9055513327161878
17.55,-2.6779188455393066,-1.8227248026964096,1.2423320230413373
17.56,-3.0572754871391687,1.411168599043641,0.8198221926777407
17.57,2.3046430090513557,2.8349601554851267,0.4696787885908556
17.58,6.648609879906416,0.10477409098353653,0.5608454192102457
17.59,7.277552352379228,0.7761845775616056,-0.9470473299605301
17.6,5.261797043472738,-8.101422168961845,-4.069502254639513
17.61,5.960396647440218,-6.10602651318345,-3.4475012135247765
17.62,8.562441953209916,2.3720914178546653,-0.07804222249586927
17.63,-8.865567727950664,13.810914267641282,2.5700486794054362
17.64,-23.69190736117235,-1.7538029677589468,-3.1044671026794126
17.65,-14.886180322428405,-1.9620262423912171,1.5071167665984204
17.66,-3.605150301879949,-6.336445768045231,1.2290906016000556
17.67,-2.8373906428478146,7.034171577740921,-1.1265696331002444
17.68,-4.005838574583377,16.272407086076182,-1.7318035707974968
17.69,3.325927646624434,-4.241166418014266,-3.5696648695755067
17.7,-0.2125247253827601,-14.672842789927733,-2.176278349289841
17.71,8.0934921403535,-6.488201229153645,-0.22078910113767328
17.72,15.19021308384885,6.029610527766926,2.9317729812182693
17.73,7.551642295320637,5.582714342429907,1.8654197256914826
17.74,-7.479039430301339,-5.040400927688823,-3.457737940155053
17.75,-1.4236791684987096,-3.7592776381403517,-2.9221150793764923
17.76,2.630465457679569,-1.8190772727004454,0.7323343219317425
17.77,7.015154683124852,5.085694616020025,1.851640665617751
17.78,1.0104610429991314,10.15402491197032,2.291443441516221
17.79,-9.916523507266172,0.5952932342418562,-0.4347552160469754
17.8,2.8048710545180993,-4.342308209167582,-0.9222095506266234
17.81,-2.0810420547451964,-6.448354935802124,3.210779497167832
17.82,4.390729607743289,-3.1346762409879148,1.9977394558064416
17.83,12.09674686753325,9.864106572858441,0.3104820700702917
17.84,3.7941491141160184,4.356337985566644,0.23281141001255293
17.85,-3.3291320747830433,-3.563302087046814,-2.876771106253244
17.86,1.399316692551,3.070067678325932,-2.1600700146605507
17.87,-7.283063762476389,3.907191962996931,1.536409645619226
17.88,-2.0067562555668164,-0.9017268379375007,1.7872791562320904
17.89,0.42114338446836186,-13.110115471848632,2.123017262936448
17.9,-1.5892991080099244,-2.0758787089260666,3.3118932338212828
17.91,-0.5071212663180691,9.087676110303644,-0.3841446227588203
17.92,3.4555779107480014,4.573958590229331,-3.3435318460937773
17.93,-4.4292673319197355,-9.566182931770554,-1.234880462016636
17.94,0.3738317557505202,-7.078689848964765,-1.8420042725717163
17.95,-6.449513742721788,10.871047620917333,-1.1109936246587742
17.96,-11.360829091527513,3.164035919335187,-1.7507111435477356
17.97,-0.6456326072317712,-0.648859470874633,2.301005074882213
17.98,-0.3811641492201106,-1.5559335215461716,6.238577496040182
17.99,7.312107413261941,-4.484554546894162,1.3003327331457768
18.0,7.139666700679839,2.5978474167018986,-1.3450421469060276
18.01,-0.726076479990594,3.6219220323314856,-2.1957381444521307
18.02,4.891992444424958,-4.398859912478481,-4.77504021700141
18.03,2.316654677987506,-1.7544108492944293,-0.09120449522508745
18.04,2.8828037502631907,-2.0355479827092955,2.8929313505299166
18.05,6.446300366502007,6.378600947429977,4.911024131679963
18.06,-3.1599503439198617,5.61615229448538,6.8089456384135625
18.07,-6.844270963338149,0.08019950153373544,3.905412939856029
18.08,2.5767740704038915,3.844393541023647,2.1464076501918674
18.09,-2.846586106644602,-1.9573815693106793,2.3347968318150305
18.1,-5.826879180679354,-0.2559945177197297,-0.7057599163611571
18.11,-8.732652861103992,-1.9133154450014282,-3.4477806054552955
18.12,-3.056940161181275,-5.220465083204355,0.25959435257378355
18.13,4.606979871439398,0.24334119437032914,6.367320146062663
18.14,10.631926620282414,2.9416519939962558,5.7608294372154925
18.15,10.524348415882855,4.525519939744136,2.168372789909531
18.16,1.4625604754026338,0.13892390468253998,-1.862811038757201
18.17,-2.94042868321724,-6.55619796719998,-5.640478775117802
18.18,-2.8399942990926124,-2.789449203643894,-3.4064279230798706
18.19,-7.3415387651995765,-3.3778872110173044,-0.25777586906681466
18.2,-1.7693299012860098,-1.5158922797956778,1.9035779076044625
18.21,0.34938498829523795,-0.5618503477202377,4.389711280875787
18.22,3.2753476779337367,1.8235675468397037,4.799792490719653
18.23,2.2345012434376477,7.805678375692707,1.658559760252516
18.24,-2.172787991543098,-1.1199656081757152,-4.7225253958003774
18.25,-0.6505704775117979,-5.169216204183091,-4.854728713614226
18.26,2.598427090328368,-5.057945835635277,-2.0449069985236323
18.27,4.711347578825397,-1.3442124287304833,-0.8308314782059129
18.28,0.4645948941689528,4.107280812573415,-0.6175859373527741
18.29,-2.266911661608461,4.300542064050735,-2.913128799749946
18.3,-5.170567298473022,1.7548815437868714,-3.447544126633031
18.31,-6.337613536930602,-2.6857050203930064,-1.9807335496517442
18.32,1.9426446561953172,-0.833313356626254,-0.8418428462813355
18.33,3.0655707948213533,2.762172111630425,-0.4285794412937149
18.34,5.330684719814324,5.788558016898578,0.23318938199068445
18.35,6.107667044731496,4.9915689556878196,-0.37770638786647986
18.36,2.362108183034457,-6.811394699071515,-3.25677871674746
18.37,0.19332504324062513,-11.10257805074887,-3.5901516908133377
18.38,-1.4703365736060907,1.915073683499776,-0.8034479857169603
18.39,-6.95123549859493,8.410843099919852,-0.042678242944795275
18.4,-7.785701961769264,1.3196688963410386,-0.9490839148665676
18.41,-5.534837557295613,-0.5807341839280826,1.3133627934468783
18.42,0.9409237109541034,1.2644622907936085,2.5702917024033094
18.43,0.18857809614411947,3.3890675672922543,1.3293375943564583
18.44,-3.0927173040116993,3.762554562578692,-1.9450268051312616
18.45,0.5191173099391889,0.09810190211695606,-4.256408625043479
18.46,3.0730821003649926,-6.26051808885569,-2.5853136461027506
18.47,6.433378369265692,-7.050260089341957,-0.435403436621025
18.48,12.050671347398536,1.6865513743180123,0.2577784151369329
18.49,4.446820223927471,4.298717012944603,-0.7229935367105468
18.5,-4.986981712186581,-0.017129830947477342,-3.347234315310788
18.51,-2.175170214747748,0.37813359513414124,-2.8873085790105066
18.52,-5.569339340581359,1.8568767698378597,0.6196704047855771
18.53,-7.595062052591565,0.589089811639661,-0.08747398129982352
18.54,-7.582911478904898,-0.6228575456952521,-1.489298958809148
18.55,-3.857637860274621,-1.2597431679689806,-0.26527442292180553
18.56,4.228260368824843,0.18000750221998216,1.3585208168664764
18.57,5.102218064181243,1.4652020642950196,0.5141751593926068
18.58,3.071261905596485,-0.7019779738570502,-2.5112620427199897
18.59,-0.12231970727713531,-2.68652541555581,-2.9289732718611536
18.6,1.7992816196333308,-0.7731104421424666,-0.5648156175024207
18.61,1.7559209795444632,1.288403739445322,1.7399077269082055
18.62,-3.1658283783408976,3.521679634007514,1.8381112521813248
18.63,-4.987445876839005,1.2098451600226958,0.15156470671185474
18.64,-5.182963014512389,-3.983230898043498,0.9620263150701699
18.65,-2.2970288458362114,-4.781714969506775,2.5414289196197855
18.66,4.051970814709642,-0.5026018641375744,1.8931208813533773
18.67,7.364466707282826,2.7464905805887194,0.8529148052104308
18.68,6.988336544984644,0.38716230437914184,0.03562662958073043
18.69,4.7791881399265685,-3.496340908927552,-1.282117456017074
18.7,2.8102567832335295,-2.7722560840962047,-1.898885140972299
18.71,-0.05152082560603536,-0.9751347773331146,-0.6932573132953609
18.72,-1.154848242917502,2.2124885789381192,1.1879537146762156
18.73,-2.377941613863553,2.5024748453783263,2.2686086086738624
18.74,-5.312610568335138,-1.4257212803592751,1.3703951928333757
18.75,-4.356012573689167,-0.39198913828024967,-0.30862958641695526
18.76,-1.8643920420426299,2.158537215416473,-0.5402895528548387
18.77,-1.8864038277713464,1.5506013511460188,-1.3741619968367387
18.78,-1.3761645881029758,-4.887043755823197,-2.541378368088863
18.79,2.9992596565198837,-7.2267054153794845,-0.7221657534487409
18.8,12.096020736381522,-2.721529036421768,2.0557659731326448
18.81,21.11891939092035,3.0390028115298833,3.34880803618519
18.82,18.073700184955165,11.376219681122231,2.5958343408888855
18.83,-1.9631006235364643,-1.8153349346976284,-4.507686023586365
18.84,-10.358007747034291,-12.71021927299541,-7.176954590906418
18.85,-2.4343725237310623,-4.2976987954044334,0.4376790419084051
18.86,-4.415918251231415,8.431720633661188,3.503811429088865
18.87,-13.254225142462303,10.467719214136874,-1.9983643561187456
18.88,-11.23741895557461,3.285183654561954,-3.2030910993979558
18.89,-2.4012571997818988,0.7733821076668296,0.25462399591951324
18.9,-0.9681814401001239,1.4549737134847502,-0.4141787366079438
18.91,-1.4161480126104111,3.2728144092260196,-3.3335801957076
18.92,4.1954322977307,-2.4494934452993986,-4.125744521446214
18.93,8.493266716566216,-5.297856599280988,-1.2095693063380892
18.94,12.477551169233747,-3.4285484844014524,1.2583814662831836
18.95,15.820885022319372,2.549349182410246,0.6021119233076214
18.96,9.218902283360078,7.153738205807412,-1.6987362038448226
18.97,-4.521897196470878,-1.3582868103186707,-4.056868215549756
18.98,-3.083855143081019,-5.088822383952539,-1.817622549934003
18.99,5.865473164862662,-5.137309820329518,2.784948296850804
19.0,15.358269054147542,3.4800596842398717,6.481542970570781
19.01,-1.0496845809038267,20.92162684545904,7.060449419760638
19.02,-40.81319191225802,6.85331296151891,-5.769552875778191
19.03,-37.49316565221192,-12.770754021854557,-2.785811270539395
19.04,-24.998290870904857,-14.6069048186256,-0.52826948286436
19.05,-16.724061948345973,4.008080602138538,-2.299201957944381
19.06,4.043554259614316,25.902508701558336,4.697761988525119
19.07,19.483025600988633,15.689230503123632,4.720340460913099
19.08,25.320089685823554,-2.2062224416624354,0.1448960046932457
19.09,24.25508451066773,-8.577804133554352,-1.425246109090376
19.1,23.104585504093535,-9.02646304985338,-0.58564207901537
19.11,19.096085819100484,5.330737677183231,0.5350857817280018
19.12,-0.9770582534581059,-11.202806570982528,-5.104698591724758
19.13,-24.147529927797354,-25.776967918019547,-1.6762208683968212
19.14,-8.652127515868045,1.3571067415161193,-0.34749075417586955
