seconds_elapsed,z,y,x
0.0,-0.2874594628810882,0.1180466264486312,0.3509608805179596
0.01,-0.37580107688301945,1.416432080303921,-0.5499324092906984
0.02,-0.031125783362225077,0.6998914426550368,-1.7427920716660876
0.03,0.02786864947959087,-0.7570470345880392,-1.5870218094991229
0.04,-0.007092488184278429,-0.9793259510607156,-0.638817084972736
0.05,-0.046470741231733274,-1.5813306065915187,0.9409276461351673
0.06,0.05188804890725012,1.7509242170097954,1.5723276305123473
0.07,0.38269580046840845,1.788222489930613,1.0606352864375022
0.08,-0.1402602632765729,-0.580796189772753,1.2976143553207253
0.09,-0.9090179973698539,-1.0550870611768264,1.0521998028571053
0.1,-0.5776030789715979,-1.1741904566010575,-0.24724566739709825
0.11,0.2785105539496463,0.5005656448539145,-0.9691056114552069
0.12,0.8019264202323164,1.8139114888209826,-1.4203498284618588
0.13,0.4412936844357702,0.26017103229123634,-1.0379879695208818
0.14,-0.2752878906533948,1.1505949379279345,-1.6333472114308782
0.15,-0.6627112484128278,-0.18921973210273618,-0.5705696273257839
0.16,-0.4262609951884307,-0.7130248524770489,0.1033601326722238
0.17,-0.17495188603786707,-0.2929675100629683,1.3583061165978143
0.18,0.03879224024600925,-1.7502055948702537,2.9229001429868053
0.19,0.10057006077442207,-0.8699099304988845,2.901992041649417
0.2,0.3562816177342733,0.9422668639035463,1.3574067926689024
0.21,0.7657205904656511,3.0651905524529925,-1.537920940955587
0.22,0.057222209588717626,0.21939209569302742,-3.120481831573242
0.23,-1.33749309692951,-1.2969958651910833,-2.740057140188358
0.24,-1.4746292490330035,-1.3952670573889216,-1.5829304988852329
0.25,-0.1573406478110855,0.7056935220536401,-0.1730327495653452
0.26,1.097814198911143,1.053199602507789,0.9204597206017755
0.27,0.8566606828318037,1.0626752494028602,1.646772131805958
0.28,-0.10022444368902166,-0.8990794153788735,2.3246919225370677
0.29,-0.6241793192025088,-1.9294047441643078,1.3967943797064415
0.3,-0.7173692107008341,-1.5755093679441061,0.7814483926509789
0.31,-0.28004568491632525,0.7224271445971497,-0.22377801418367488
0.32,0.1385920394454778,1.931956847430712,-1.0596589432514467
0.33,0.0934383623870358,1.9975464716008744,-1.7465951178637107
0.34,-0.20596124837345303,-0.11004183659243855,-1.757727284118256
0.35,-0.42533575601535456,-1.9581678759574142,-1.0574253136394793
0.36,-0.4176113633259859,-0.9910822010379784,0.11920062895610752
0.37,0.07024328774668141,0.4626008844717078,1.2693888526968649
0.38,0.5236377291745661,1.828004648408195,1.3410043469322237
0.39,0.2623032671462677,0.6269419810018786,0.6676189506888216
0.4,-0.4955605790031362,-1.1821771449182734,0.18710164967537213
0.41,-0.6929855162381927,-1.4613889881459157,-0.5713798061220721
0.42,-0.27703724926449136,-1.385736873565659,-0.40711298651834704
0.43,0.040803082572515706,-0.5768211615658517,0.5399207787816382
0.44,0.1806333505953761,1.0275201633632491,0.8202471241199931
0.45,0.3064311291661895,1.8933396318655669,-0.047884235577620116
0.46,0.10988430079066897,1.9104941577951544,-1.4767729824196365
0.47,-0.563104206501336,-0.8895193242679054,-1.914514702859908
0.48,-1.0863590642336205,-1.5486744254960245,-1.0867303867970297
0.49,-0.6415407461877141,-1.5571806474519447,0.5501515436488851
0.5,0.30242979166328454,0.6557037991616586,1.303685252302422
0.51,0.5676205603003265,1.6969251325573211,1.603381094890093
0.52,0.016724242307288723,1.7084076976648768,0.7980751052387249
0.53,-0.7701186601942767,-0.2855105453409216,-0.3319227966036162
0.54,-1.0970323250311742,-2.0506795551634736,-0.8094559840430359
0.55,-0.7278820219662104,-1.8168835775109144,-0.48856518361004253
0.56,-0.13574107865171955,-0.7023630830234613,0.49527671401625994
0.57,0.22377526598256614,0.8017197291915266,1.1806580651933887
0.58,0.44285572425564934,2.5907142730367054,0.10441741395974447
0.59,0.0798287614969918,3.3105246021359567,-1.8612040398703296
0.6,-1.1620931487417845,-2.6032733334990095,-1.722899403946534
0.61,-2.037201703448522,-2.8080145827116607,0.5209697615726769
0.62,-0.9823983400094929,-1.5651966440605793,2.3215338098572986
0.63,1.0140295332145437,3.00123331751178,1.341525419567315
0.64,1.6819461109500444,3.176797828531385,0.2424074424725987
0.65,0.38711627967603457,0.7790047850520061,-0.7923319411202733
0.66,-1.3846842733501878,-1.7331942691456947,-1.2564067593065056
0.67,-1.726696981318119,-2.1821225120935397,-1.457986172372254
0.68,-0.6451780002247183,-0.20914065457841646,-1.0753663870720913
0.69,0.5397074469234472,1.159268262966222,0.19866030633835183
0.7,0.838211206342367,1.4198856918159186,1.1330719171380887
0.71,0.2210186373115109,-0.30599339517660795,1.2110232738540447
0.72,-0.6582309583591026,-1.7046211288327948,0.7185055737204947
0.73,-1.0351509719540486,-2.0277690340848364,0.5569586393113233
0.74,-0.7522255239582768,-0.5203756995214903,0.6259669444012704
0.75,-0.12761004394222997,1.4035839323935064,0.2978638732549832
0.76,0.21961024532661363,1.714494960969145,-0.2529901854426719
0.77,0.0450008324530313,0.6775674563615072,-0.7670970333219889
0.78,-0.36048089150880763,-0.7467081738506401,-0.9644596470741955
0.79,-0.5116997050667892,-0.8955541765830204,-0.9654753030200144
0.8,-0.33125771941581506,0.06322942380176272,-0.3724096873404016
0.81,-0.07560159917128183,0.8652899240759808,0.3136296788548848
0.82,-0.08854798382861877,0.8346653407651792,0.8782667581838665
0.83,-0.2454446313536003,-0.11156402584735164,0.8582116796881902
0.84,-0.21467211616124965,-0.38428080264678927,-0.0910244063336737
0.85,0.024287676910864982,-0.12586766913681685,-1.0483086833715096
0.86,-0.014204058500391886,-0.7985718727979834,-0.39504132779633494
0.87,-0.27586478114236507,-0.7673282438915452,0.9593427074298099
0.88,-0.2183180586290746,0.2330841298984181,1.01103913106019
0.89,0.09969590945077966,1.4521756438226425,-0.2069507725464756
0.9,0.22167186466631747,1.246931109698767,-1.5688412949694484
0.91,-0.26459219292645786,0.06650065832496799,-1.4433436895622553
0.92,-0.8295982950676405,-1.3198571037269788,0.05051975529300401
0.93,-0.6787984335752575,-1.4122524109829324,1.1278636983987689
0.94,0.06260857365125228,-0.4051642174351284,1.4391205043063742
0.95,0.6905983585221855,0.5275951800715423,0.9896732253899975
0.96,0.5830839091309816,0.400589411155521,0.4407153911491499
0.97,-0.05411143481979233,-0.25722444087221263,-0.21958669706608241
0.98,-0.6223372525440033,-0.6357981796498541,-0.9437366363400703
0.99,-0.7537365243012972,0.05532709847602402,-1.16378683896239
1.0,-0.31698369343685534,1.1778573552011815,-1.259647846043596
1.01,0.19046056799955557,1.243131721872489,-1.0225589138278648
1.02,0.30539874712361076,-0.23494608399867611,-0.47590136101512615
1.03,-0.006322018104770399,-1.3299955427296668,0.3438198107361501
1.04,-0.23293526049416008,-0.48529510655584895,0.9901321119137997
1.05,-0.06498407305777806,0.479521307285111,0.940611744730437
1.06,-0.12138821549763142,0.3938181066099851,0.6879091331843689
1.07,-0.5692598984897177,-0.2080629491778214,0.7475039790278997
1.08,-0.6491213645714748,-0.8341024818103813,0.7260741305220123
1.09,-0.13036945074862616,-1.0955694552108306,0.4322287864589923
1.1,0.5208432126268616,-0.30743764742594515,-0.1084858990781104
1.11,0.8758035940656808,1.1616772433919225,-0.924845425907096
1.12,0.7032655239076705,1.7962827514681594,-1.7842692750804137
1.13,-0.019711621715114536,0.13798912770254512,-1.932687395871414
1.14,-0.7041362660855541,-1.2999001118685165,-0.9986340940732531
1.15,-0.4129188826476258,-0.8229066310456921,0.03364505999007106
1.16,0.5284378813940342,0.3586552283513433,0.7402217239341062
1.17,0.9625847870474247,0.38066111262929114,1.5303759129961723
1.18,0.6183593838570692,-0.7920914352048696,2.140529644022947
1.19,0.11447863040435671,-1.5223860863533383,2.137130356783366
1.2,0.16183430662686848,-0.05796365924128066,0.6120933164556093
1.21,0.4796049950612255,1.061867604261354,-1.1021474447930935
1.22,0.42422787416943286,0.8725882552884792,-2.0243070839723236
1.23,0.044569333577691606,0.1541952679358124,-2.040386475943682
1.24,-0.15196954172045476,-1.4272617431212529,-0.5468880087082122
1.25,0.11987879226032402,-1.7154285572185999,0.959938142143675
1.26,0.7008265291953006,0.6700397586124751,1.4723250571757753
1.27,1.237965732219338,3.0010657903548035,0.7133278297109136
1.28,0.9238586569444648,1.0435820691792368,-0.5921969791957225
1.29,-0.22262264019599098,-1.5975136822635607,-0.6065399726887741
1.3,-0.599882077059846,-2.298781446062784,-0.29029660273884056
1.31,0.06193111292257142,-1.597236541619349,0.4005315129677604
1.32,0.8402810285003918,0.8550503828637275,0.7133339374956533
1.33,1.0890575718048288,2.1186532264144784,0.5821996458569567
1.34,0.7307062676188762,1.9314041841445018,0.043000544131665985
1.35,-0.072749313025532,0.3069311813807851,-0.9875875640035998
1.36,-0.7860084205238785,-1.909822450168408,-1.0855435579098658
1.37,-0.7093551176008284,-1.5410723756531604,-0.8099502232745763
1.38,-0.022633231444698865,0.3375342416653935,0.17760847911354616
1.39,0.6950485400659914,1.176353486860371,0.9663554572590741
1.4,0.703488540401829,1.22136807014012,1.133305046222004
1.41,0.20694232380744837,-0.4495144646812337,0.9948936843828021
1.42,-0.32530607357000085,-1.8529053711851113,0.3344424793082602
1.43,-0.4647317960502158,-0.5184189355553761,-0.4210291477526659
1.44,0.07269875202500847,1.1253096582816928,-1.089041938324531
1.45,0.4581728703997087,2.6696034568836016,-1.8108250713765561
1.46,0.11179570671803346,0.13900365180165153,-2.257603216012183
1.47,-0.7444912315831422,-1.5762348576223202,-1.0539127918589328
1.48,-0.9059179819953516,-1.6949120757858687,1.067132009334765
1.49,-0.12901972504101966,-0.9910542853609092,2.6902553428497122
1.5,0.6237915623110009,0.3552644100284532,2.875156520043119
1.51,0.5807450319570421,1.0383920297345846,1.9687540970092634
1.52,-0.056936188490658124,0.5411559224016049,0.43172744685221764
1.53,-0.7492548014615568,-0.6012463197810825,-0.7936669240606686
1.54,-0.9999776221384002,-1.1956987651286348,-1.3932143313650136
1.55,-0.6984758095542136,-1.1782790703111123,-0.6611107836042249
1.56,-0.02806646769713217,1.294529947186326,-0.3014654621726016
1.57,0.5170195543695136,3.348061192360474,-0.6336246462581486
1.58,0.31031515555636124,0.27324192737628605,-1.2681867107075426
1.59,-0.7535833541722163,-1.589259385755613,-0.9288080408440476
1.6,-1.1397170998754682,-1.7950792603481958,0.05879817252924935
1.61,-0.3087211270593482,0.3802228556296101,0.482924850057858
1.62,0.2743155060464796,0.5961127969034423,1.2572728422182209
1.63,-0.11300395648850242,0.31256241125576634,1.7719311742942165
1.64,-0.49092503639829654,-0.6090997488623768,1.2291412604653291
1.65,-0.3012119679218377,0.4691233935995097,-0.6039491030677686
1.66,-0.05000447136462938,-0.04836958671381553,-1.6429398590013515
1.67,-0.14544901644249797,-1.059586799937923,-1.2696606564623656
1.68,-0.2913879689137312,0.03971816027230468,-0.4723673026889099
1.69,0.029331184778089936,0.42616777008066037,-0.14149855504876763
1.7,0.1481952370057242,0.5531672528475188,0.35897935232363354
1.71,-0.15741371244903626,-0.12174992396500572,0.9497017675817991
1.72,-0.5118872010196522,-1.0192129898039495,1.471378709542916
1.73,-0.45401915369934864,-0.8864821519996253,1.4216631591285198
1.74,0.0895682970962074,0.2956428878953017,0.6012842648225097
1.75,0.6183943716724126,1.6193545598335992,-0.7809823006453884
1.76,0.5180698917293955,1.2180390180335152,-2.3818487295935533
1.77,-0.2565203207713534,-0.4111004820053441,-2.9020508607391786
1.78,-0.9015510970684628,-2.2856919740951005,-1.2724178454402275
1.79,-0.6841643251351172,-1.8692290680053836,0.47089545579468917
1.8,0.08355831009111359,2.131311720593621,1.4721360753225938
1.81,0.7437522549438009,2.484488999548975,1.7618311010892935
1.82,0.4889439824587254,-0.3558354254983809,0.910458354850548
1.83,-0.34845058000885715,-2.2586284816799025,0.7104749107710517
1.84,-0.5424068463747644,-3.09706111487544,0.47366600595904673
1.85,-0.16665158985866602,-1.3664002303847742,0.3393718268018842
1.86,0.5278984461287163,2.7818814958716938,-0.6961152120528211
1.87,0.7779519750943839,2.824046581949319,-1.926523823691682
1.88,-0.09023797619516571,1.2998825162609122,-2.716904819274666
1.89,-1.1473182283381897,-1.3715771311436937,-2.3579533630176117
1.9,-1.1880242149702882,-1.7081942647545814,-0.567073432037122
1.91,-0.0028908485490457547,-0.2205570743248293,0.8676763320305496
1.92,0.8357191736435061,0.3938152947474047,1.9558011002431568
1.93,0.4987812670909976,0.5469592021950178,2.5568574332701277
1.94,-0.06162936941512115,-0.0854503899667639,1.644202808060815
1.95,-0.38024636416416946,-1.2370509079043757,0.3448401743148384
1.96,-0.3989995473340594,-0.8413567353016779,-0.8926629509025065
1.97,-0.1357765551204015,0.10907504307647309,-1.4349973794083797
1.98,0.29816584193885654,1.8334403818190546,-1.5107111652236023
1.99,0.43435133142310994,0.7661296740479089,-1.1175415297654885
2.0,0.034231182219860545,0.423902230821049,-0.5607878582894457
2.01,-0.24197437767607427,-0.32810248403979586,0.37043202873789427
2.02,-0.12734525607511785,0.08211747838483313,0.8715407233395448
2.03,-0.04791492485848811,0.4428963447857822,1.2107732861276328
2.04,0.10636546062504826,-0.0681468861811046,0.8796524114034971
2.05,0.37398198015773476,-0.3803616846610103,-0.045956948391827845
2.06,0.3666711678438225,-1.164493244062291,-0.39998027997058977
2.07,0.14596550924004179,-0.7862430916997151,-0.5399815461000876
2.08,0.006499221970263924,0.6298266248181139,0.005001463863915645
2.09,0.22658168727849065,1.529040368008051,-0.10259445192579841
2.1,0.0034490025254991785,0.6418765614951063,-0.07533694885864375
2.11,-0.2687532208942284,0.49729280655917724,-0.2035280440238465
2.12,0.07067789146272296,-0.822012344938831,-0.2948419812058646
2.13,0.3606437668545316,-1.0992579154832465,0.22620439563249195
2.14,0.34123871675330664,-1.6596788599745653,1.515539598897652
2.15,0.2656949078781015,-0.5053326401384888,1.892278131845118
2.16,0.19286104244732064,1.1030297370814368,1.5696533490209035
2.17,0.1564853945851471,1.4158427333188013,0.17981824427305004
2.18,-0.2975098853133393,0.4508374846126748,-0.41247036683791066
2.19,-0.32238108072899874,0.5997070412599035,-1.787927113313092
2.2,0.12644483589343308,-0.6097130541123971,-2.3296552390152003
2.21,0.16089520862700557,-1.7239597877084145,-0.6728544470374521
2.22,0.07764459190066698,-1.2514546559506021,0.9266234636917308
2.23,0.08506253818826921,0.5418503761977994,2.273783795835303
2.24,0.32782029449636935,3.1059404434902533,1.6652347134492453
2.25,-0.033651814856798815,1.0866335354500714,0.6284045975105216
2.26,-0.8067371497952142,-0.8480643973736455,-1.053590174949083
2.27,-0.8785863859222502,-2.010394809840753,-1.5583738104866869
2.28,-0.26038888124878157,-2.4158951849921513,-0.46991670787723255
2.29,0.5312391815639668,0.06894977556482867,0.29953626040285536
2.3,0.8737530263603599,3.1087013369255776,0.7579265138264176
2.31,0.4648990162935156,2.0541645217980515,0.6571161777749603
2.32,-0.6624638078718253,-0.4947137402477776,0.40032973573965486
2.33,-1.2834892761585672,-2.2278132004632787,0.20090433178252565
2.34,-0.6112234755929284,-0.20812834923701812,-1.095132123341351
2.35,0.26199298976451774,0.8809266937193531,-0.4066884981443246
2.36,0.7202197591999001,0.19828893365460878,0.12693195155724873
2.37,0.5255020439266732,-0.3108266852750615,0.5749760172039962
2.38,0.4503709314172288,-0.7435836290786827,0.2582700773124986
2.39,0.3216180084881941,0.36228920159618366,-0.5625330158520546
2.4,-0.08230288069904833,-0.5504854693880807,-0.47736635086664003
2.41,-0.3352571549979971,1.4905433609400192,-0.9758831762378468
2.42,-0.12472039682025009,0.3297000652321947,-0.7831766107616567
2.43,-0.16777107352152767,-1.1940430561083515,0.10566169418453158
2.44,-0.17516762945957307,-1.2390430203804708,1.2886920558506103
2.45,0.5785973701866154,-1.0981763032789904,1.4588081934961998
2.46,1.1720564964986153,1.6501208525214275,0.3576695061367669
2.47,0.861151205058091,1.156515769484731,-0.4969953181621256
2.48,0.04645551234000292,1.3137806812567778,-1.9964058814146146
2.49,-0.6268779430314919,-1.3854751001038976,-2.079915736688664
2.5,-0.8350807030177234,-2.301218985528979,-0.8664647107478542
2.51,-0.3019512599427433,-0.5935781064263075,0.8743902967004691
2.52,0.9153434672962286,1.7644461849789772,1.9305021335505275
2.53,1.5146647231741777,2.175358283013111,1.6090349807316184
2.54,0.7095873265071089,0.09705877650568062,0.6734184350223739
2.55,-0.35757056655722175,-2.0248934868074953,-0.7811692563971112
2.56,-0.6886766634230778,-2.510914662622771,-0.7579278190337331
2.57,-0.3010370156467903,-1.0981535980589983,-0.17012130493443522
2.58,0.3689410992131354,1.2759808106435226,0.4671702915769499
2.59,0.9929955050682351,3.5153293815377,-0.09943759626741544
2.6,0.8700398088477015,2.1259787732012896,-1.0847216810573144
2.61,-0.2351855819260319,-2.191816601846375,-0.6127698608777408
2.62,-0.952253641411243,-1.454932595338167,-0.2785370390769721
2.63,-0.26818261281982847,0.25515098546604303,0.0918158795542546
2.64,0.5800060938906242,0.34441794900147926,0.06113635869261291
2.65,0.16484601209088393,0.25683048802393604,1.1271097017939753
2.66,-0.3654910534304948,-0.5975151241322201,2.1572048318009185
2.67,-0.1577626750389957,-0.708356578632746,1.131943649736355
2.68,0.28281731557794093,2.0613989992335844,-1.0129772717140577
2.69,0.4666629032884705,1.1288643631508113,-2.451577975120864
2.7,-0.0725536934205295,-0.6846455816799575,-2.713739606842102
2.71,-0.8680899953553708,-0.9484766705847156,-1.213411392864781
2.72,-0.7916434673895245,-2.1618153196753207,0.6885980547342604
2.73,-0.1291489242508583,-0.6272188016165559,2.111899581294215
2.74,0.5594888073369569,1.9629799818101523,2.5310721229586948
2.75,0.7248305660390579,1.3630451995267792,1.8671528342769312
2.76,0.023512671974203092,-0.08464543728739987,0.6707342006901846
2.77,-0.641094769509131,-1.2899567854352245,-0.8498203160421787
2.78,-0.4931552957663722,-1.4042188176842576,-2.291967171996952
2.79,-0.07935596768356917,-0.366412316200067,-2.1079233256505563
2.8,0.10386421014599936,0.1864178742497974,-0.5668814855002415
2.81,0.22354285490246764,0.8798847705092037,0.45032370812444916
2.82,0.23012032511240973,1.8623317423734638,0.5057515774672102
2.83,-0.030450919066847756,0.5253002912126581,0.29266204288724995
2.84,-0.4115330355948168,-0.1497923284769636,-0.22728902583221805
2.85,-0.3980180298893733,-0.15473767408270328,-0.8394835165478083
2.86,-0.17070242950107886,-1.0071868668477246,-0.6014908124652605
2.87,-0.1899864548849956,-1.6338285653790088,0.8455585024288923
2.88,0.001941616614034164,-0.2524343976498704,1.2893848121606504
2.89,0.35945999891749036,1.66097001560794,0.7943206193972218
2.9,0.3680298798111321,0.33967271276781286,0.5573571019850818
2.91,-0.10465115734036155,-0.5391341201518566,-0.003816118768521337
2.92,-0.35108965455899893,0.3689578127823739,-1.0402919538870437
2.93,-0.061185268401633186,1.029541467965934,-1.901025960394263
2.94,-0.034410210764413654,-0.9169705284355671,-1.3357416436060947
2.95,-0.23212483012656943,-1.0496470818135575,0.15723458522493894
2.96,0.04842719179665393,-0.797059085423367,1.6999558293777006
2.97,0.3813639124422071,-0.27069235972593586,2.541560007758438
2.98,0.40828971448037293,1.1029909756538412,1.5786342114919285
2.99,0.3650096664532648,1.8993976177165979,-0.6310779228767631
3.0,0.02195512723045373,1.0642782270609203,-2.4969861583482045
3.01,-0.7473115088839848,-1.3973902048980587,-2.235223606172752
3.02,-1.0333753006293904,-2.6674905438995107,-0.26673704541043164
3.03,-0.24015306810193826,-0.39661112943961596,1.0363024522773405
3.04,1.0009630298726155,3.3322790693739455,1.1184299892857543
3.05,1.3729988636692971,1.8215145972801092,0.40782285161152887
3.06,0.12927451443274418,-0.6437251622233565,-0.1664864839326454
3.07,-1.1608770834876618,-2.2976310690075423,0.12789824883187506
3.08,-1.075659184967593,-2.928557127555657,0.3527142442858252
3.09,-0.0886758666547417,-0.08906960180517043,0.5275815731334863
3.1,0.9389563271229455,3.2955866399543785,0.122327991331531
3.11,0.9352223262987978,2.5767556997989907,-0.3475573805999136
3.12,-0.25763434060540946,0.3062357684440813,-0.46794991225460597
3.13,-1.1656972927188425,-2.079973845299945,-0.5033517473237109
3.14,-0.805181777448063,-2.0330563852542465,-0.4563901562829561
3.15,0.18427041896778318,-0.30787668422613895,0.10935139099551311
3.16,0.7510125945223222,0.8379360039872167,0.8176006322565069
3.17,0.6908072693478893,2.831191917505561,0.3942786934379853
3.18,0.20030624157661175,1.664768162231974,-0.755841362960365
3.19,-0.8087618013355449,-1.8583421170693397,-0.9866614613182141
3.2,-1.336621719558619,-1.541634463609241,-0.4290576055509742
3.21,-0.38508926910294583,-0.07711206845653162,0.054893681940426264
3.22,0.8021723525797728,1.2131757251788589,0.16635709611324442
3.23,0.8078007321657932,1.5209071097748132,0.17473263616183643
3.24,0.09135874132947203,0.35985240952910214,0.12492398788636472
3.25,-0.5343114493278034,-1.2679388372230846,0.013234126252999051
3.26,-0.8999091019016251,-1.745805266054121,0.5588066789578847
3.27,-0.6036071442869301,0.047959378785690454,1.0911135381025119
3.28,0.38877002432411084,2.100397122230363,0.5103475384026847
3.29,0.9146361021591569,1.6938701051053915,-0.6677732776965171
3.3,0.27989110470495027,-0.19768599753883442,-1.090533856442155
3.31,-0.5084437269929606,-2.1938018753569604,-0.5170511528675209
3.32,-0.5388159853745735,-1.1841915661584297,0.06989175621397986
3.33,0.05143990496185136,0.9595612264544026,0.3803260166688952
3.34,0.47389862932505394,1.7181453059011156,0.2764042363493593
3.35,0.271431323946027,1.4789263746990704,-0.32141390785191143
3.36,-0.2196006445402675,-0.8428949945067292,-0.4088334310515831
3.37,-0.5774429925392415,-2.4064926357450944,0.34505227609923755
3.38,-0.1914997589334141,-0.19813148498144617,0.4135668615067179
3.39,0.607108932538751,1.5180334133426006,0.06370392486333454
3.4,0.5532784874542256,1.9096311898424232,-0.26906517760197224
3.41,-0.24276601485800645,0.580889904942631,-0.5498769333350155
3.42,-0.8064615363302298,-1.8359786724120135,-0.2747865711423051
3.43,-0.7257638678133607,-2.11896481813007,0.2898146429247862
3.44,-0.17568998396509578,-0.9461708813908758,1.2667290408482308
3.45,0.5736764800381918,2.397701163290258,1.2325412436837344
3.46,0.936055913398696,2.6346605463651596,0.20966652974957223
3.47,0.1392377271774441,-0.35078367462493265,-0.791907856514599
3.48,-0.9441452370998171,-1.9410871039540782,-0.9643029422997564
3.49,-0.8299005992873653,-1.6826223711235768,-0.44622782342627315
3.5,0.180527517653149,0.42898833425938654,-0.03468354957553951
3.51,0.7814152370732471,1.506028717876739,0.5513816001183435
3.52,0.5690133700760387,1.3117862258083475,0.6924532973350158
3.53,0.03145902855064059,0.31469688351781355,0.19460474997451954
3.54,-0.44785696482842985,-1.4276735642861307,-0.06485199438968983
3.55,-0.5741732933046862,-1.4410837172312578,-0.11415908366717253
3.56,-0.012730893192600345,1.0824761416815547,-0.21979252100484092
3.57,0.6699284644025777,1.4546471229150593,-0.4130650156359263
3.58,0.38236578759234396,0.12976253141244254,0.05603081878123728
3.59,-0.2577591386186,-1.3186943027387001,1.0119329994173902
3.6,-0.1334623828797496,-1.93981829663923,0.9109827718704894
3.61,0.3366449562852756,0.665920857891336,0.31286669528800004
3.62,0.6617567874493677,1.5291826977851373,-0.352263952394312
3.63,0.3584801851644273,1.1392594205609736,-0.9566490286335652
3.64,-0.2558095462419259,-0.07165614911219453,-0.8837960172640194
3.65,-0.39264970495394064,-2.083390823066616,-0.2907898144398495
3.66,-0.1914417141113193,-2.237943108341862,0.9980482542090008
3.67,0.4865400795354719,0.9641418119173935,1.1472166486141167
3.68,1.1625227157956335,2.4892925679471554,0.37842196434911624
3.69,0.7459081554907865,2.1289202888967886,-0.8887106373050813
3.7,-0.39866404337700545,-0.6022485894915117,-1.4547461112864333
3.71,-0.9866179486405254,-2.722887736553578,-1.1496720739291766
3.72,-0.7091804818613872,-1.576947389408046,-0.08539801705129735
3.73,0.14570239220621273,0.7524360785138065,1.2466480318361766
3.74,1.121359786418234,3.7918835835305047,0.567030714089727
3.75,0.9314165590878665,0.4900766055059922,-0.3954540182608633
3.76,-0.5222278166853063,-1.949506151139804,-0.4216007240086451
3.77,-1.216285897955954,-2.6272483600273526,-0.03911643704130657
3.78,-0.44319689932281037,-0.32379031491091226,0.19312742810493783
3.79,0.46609103737844393,1.3118357794589663,0.39400870527510007
3.8,0.4528253048553701,1.7616187806675796,0.4269003601770784
3.81,-0.12454397005262896,0.5396452559560441,0.36688155764536673
3.82,-0.5827530420400693,-1.4649995374999234,0.22141774270262832
3.83,-0.51835627607861,-0.8067639870479211,-0.4556840372156636
3.84,0.1914346214518753,1.380359181694404,-1.4732562411283499
3.85,0.4645929236397748,1.3463812507071318,-1.55795596973485
3.86,-0.3689207112882219,0.6192344041250051,-0.8341250158344048
3.87,-1.1860989863760083,-1.2394140490375105,0.3461834212433864
3.88,-1.0622192559399646,-1.4112981795265935,1.2160008069193973
3.89,-0.3569585891475663,-0.8947894810052253,1.4675076983999582
3.9,0.017230954312811936,1.6409337903903256,1.4220391266200914
3.91,0.17771084610187982,2.178297723406194,0.05720277645489591
3.92,-0.37498567610737044,-1.0783396148372213,-0.667684245111229
3.93,-1.3075543684437219,-2.796391448006732,-0.5089400022196369
3.94,-1.2985270019545647,-2.552500100460401,-0.38784492383480684
3.95,-0.5734848516399297,1.653338592005201,0.17347651934766506
3.96,0.28201706318362185,2.6867621401348845,-0.06592059997773436
3.97,0.0055075556158480365,2.101826143699866,-0.694665191917455
3.98,-1.009572819808268,-1.4622721934003373,-0.37813993443172844
3.99,-1.539536001104779,-3.7275792852428973,0.6972535432003439
4.0,-1.034274280571378,-2.888534367032177,1.680608642734971
4.01,0.4029492080685507,4.040595155225938,0.7796402750822673
4.02,1.1013232386440255,2.5746281389988432,0.2615237099082698
4.03,-0.2012535871888086,0.2311911460037328,-0.3923636871856372
4.04,-1.6903899353581997,-1.742616407486514,-0.8257177409315
4.05,-1.460050326067089,-3.709154421115188,-0.9625294753441879
4.06,-0.2765595337421458,0.32247778447096476,-0.8811360982197226
4.07,0.7108537251717362,1.2205832934458924,0.34887636455088944
4.08,1.0854691360041582,3.7323936493299135,-0.32494797417295396
4.09,0.38005356832951764,-0.2513201912307048,-0.7853870861498944
4.1,-0.9967964032721488,-3.1757689039660764,0.4607122490330353
4.11,-1.3692631690506922,-3.469720943741933,1.451457757719693
4.12,-0.35731573387082083,0.2148304797955829,1.8890267890276204
4.13,1.0337067500283066,2.551878998914371,1.0271982434607052
4.14,1.113714505730068,2.2060294285850883,-0.24423438399330366
4.15,0.0562261114469953,0.4454795343252129,-2.0038817238792195
4.16,-0.9720218505105007,-2.0595597864439648,-2.1600714905725384
4.17,-1.1090881805110897,-2.9557905290633806,-1.0182933704353596
4.18,-0.2061616121222869,-0.765071515061567,-0.30303261007009663
4.19,0.9122002557386333,3.044716600088218,1.1179838988060948
4.2,1.5699128510773916,3.2516647151816382,0.8457086519959085
4.21,0.6057449616124604,-0.5346698423601524,-0.9712032974508507
4.22,-0.970908272684508,-2.154426071759749,-0.2861761422264576
4.23,-0.9791953170579851,-3.172058388833274,0.360396527827443
4.24,0.11649594821633169,0.5497717467932941,0.5522193761119514
4.25,1.16806696040525,2.2454317896707017,-0.24622924650056144
4.26,1.01932454189887,1.6863137446791574,-0.1393516662094175
4.27,0.18001034057481602,0.9308037536645716,-0.24107275212327622
4.28,-0.5341109549404843,-1.4446272232865058,-0.9173215997578337
4.29,-0.659860582211337,-1.887322531559163,-0.3344038084086468
4.3,0.215319246170537,-0.19495150196051014,0.08882176117409418
4.31,0.8173655918094415,1.2681240653064194,0.3413916569621706
4.32,0.45249135731152956,1.7774253798298372,0.7359057048067901
4.33,-0.1845134511869878,-0.1280079777173777,1.1427543991164655
4.34,-0.5528147928680556,-1.2518203082183499,0.49299511504289173
4.35,-0.46427172042784065,-1.339834468968418,-0.288474000502839
4.36,0.0570522809233478,-0.45503599998101074,-0.5849121857496554
4.37,0.53398783992863,1.7736865229531662,-0.7526998024378223
4.38,0.2718740224467735,0.836082341093765,-0.5978184177224795
4.39,-0.6700774069067696,1.2951083311194789,-0.5687830079778626
4.4,-1.1510693043393903,-1.817722347231444,0.2113960996310838
4.41,-1.015110554605699,-1.8602966540984833,0.8853790482546401
4.42,-0.179492374460006,-0.4902862306786575,1.1008810063437153
4.43,0.45812555524983506,0.29495780734718213,1.6605001469315175
4.44,0.395954692509907,1.1124944466450934,1.1591430699583936
4.45,-0.16298487301147815,0.11562253720443944,0.3928867185909372
4.46,-0.6831390694271975,-1.1584141141702091,-0.38015951715205754
4.47,-0.6873292293598298,1.8122805371744384,-2.6496602085015675
4.48,-0.6543804097146072,0.35712494572319864,-2.0093472852454743
4.49,-0.3616227205555615,0.17511380295129306,-1.3344332671225274
4.5,-0.26495601169985544,-0.7438918625657606,1.0471656835041954
4.51,0.1616563852022135,-0.9884018292958098,1.5412592336448832
4.52,0.3947575044662758,-1.1055918562486464,1.6735254684240242
4.53,0.278818919338171,-1.154667676495466,2.10010427992838
4.54,0.3160880715733006,0.9810872057725613,0.21312553442578236
4.55,-0.0963168737318775,0.341569718123942,-0.2853802625331226
4.56,-0.5400359705660527,0.2985574366627433,-1.3207486266244777
4.57,-0.5839488815926865,-0.38288706577675896,-1.5689381797455053
4.58,-0.13242366816878998,-0.6836213373545984,-1.1354552084993186
4.59,0.42770003374258136,0.6869649613174813,-0.4397481747715298
4.6,0.7674890928863283,-0.058196182248170185,0.47551006786642996
4.61,0.6200043658016501,0.4124367326710772,0.5057467183965522
4.62,0.29294864179550884,1.5904888820639171,-0.06570978664349654
4.63,-0.014110014066835368,-1.053967344349994,-0.5862013370727672
4.64,-0.49699329947936544,-1.6918827206281466,0.11667766076715183
4.65,-0.4042325952549837,-1.859491560997206,2.014808358880103
4.66,0.7313725287203294,-0.4641996522091905,1.6068653157844486
4.67,1.6052165614499136,1.9392055305564542,0.4005383861658388
4.68,1.4987004435202533,2.265040192086275,-0.8794515640655441
4.69,0.599768561200241,0.34802590780868004,-2.527323805430939
4.7,-0.5190413785163176,-1.269003802246217,-2.235274421275736
4.71,-0.6061189157646122,-1.7727543204432235,-0.8559703369304253
4.72,0.34634182700700444,-1.3516508891757255,0.9742589819751114
4.73,1.3370104984064703,1.296426619276516,2.0155023697171672
4.74,1.6212201395480241,2.0599098739123236,2.140748618790888
4.75,1.0765809605624137,0.9952250900886639,1.2971538898126824
4.76,0.20935319314381948,-0.7866356152520744,-0.4264630664022795
4.77,-0.24926839738686735,-1.8880813006903163,-1.5879982980659824
4.78,0.013827954537207185,-0.7625623831264225,-1.8869439853882382
4.79,0.6744894201068915,1.5586864457934055,-1.5018440112578453
4.8,1.0047755190143752,1.3193970427332915,-0.08550180745829475
4.81,0.8188242531262037,0.661465180338428,0.7304426884124375
4.82,0.32057102667595727,-0.27737866629007135,0.992575655038618
4.83,0.047039634079082515,-0.47243113091914846,0.5973102432779388
4.84,0.024847025296252573,-1.0368543945328548,0.2479474380740001
4.85,-0.10159638431451648,-1.080686412381885,0.835813443826176
4.86,0.1652787543040691,0.9493310856715691,0.20346474816807858
4.87,0.4411340843486876,1.8064600985284804,-0.661179844568443
4.88,-0.044495022181000043,1.1574036336537317,-0.7172335008057884
4.89,-0.7702084403701355,-1.0625387750413573,0.12404202422101152
4.9,-0.8742943008709718,-2.4248036442031773,0.9247611430099334
4.91,-0.14534150578146698,-1.1841212846248579,0.613166920888649
4.92,0.7091224759448456,1.2634021972752156,0.008234376191953347
4.93,0.5817718965789467,1.8926988964996965,-0.0009332726680447573
4.94,-0.47400284347089083,0.9006274167248148,0.2746848280899829
4.95,-1.2969184807814356,-0.7851858770475628,0.13653050277588236
4.96,-1.2279609654532386,0.0483288028092565,-0.9281997234797518
4.97,-0.5684796764724608,1.036086604427457,-1.3185006123253524
4.98,-0.09415932582103645,0.9129801897226567,-1.309255646493002
4.99,-0.3698268223349075,-0.10572580437310308,-0.2755556490456694
5.0,-0.8222504509690385,-1.7128292798153082,1.0901100303017581
5.01,-0.7024509122223218,-1.3694336329598165,1.6272917566597085
5.02,-0.058838231596572754,0.45911005655578374,1.2310461013761484
5.03,0.02701261129835017,0.6593253309706782,0.8738665244825214
5.04,-0.6930591220395601,0.5890887494810844,0.7765853304183027
5.05,-0.9959799115675682,-0.4766591234824637,0.2603875295015581
5.06,-0.6283755939589624,-1.048481398473767,-0.21165386045238105
5.07,0.053017171079611625,0.6834871693551232,-1.294569726712378
5.08,0.4837938761881169,1.1166512195750398,-1.6581551601353839
5.09,0.33360541805212984,1.2431141938196442,-1.9625582219294275
5.1,-0.25455268356081046,-0.06766715868094664,-1.0913580937386458
5.11,-0.7048065273955533,-1.9760852927215289,0.4626138928201542
5.12,-0.7816913289297386,-1.1271918751932715,1.7279282408696581
5.13,-0.17871897370017975,0.9108601627058424,2.0931957666455623
5.14,0.6500241498532574,1.8869913909262315,0.9177723597434064
5.15,0.35819276175879244,0.071570166519967,0.25102151407196377
5.16,-0.5444499295203015,-1.1835187474193074,-0.2992739150421034
5.17,-0.7622346031176896,-1.6653294491257515,-1.1371502092789072
5.18,-0.25663202551272246,-0.10321154003272737,-1.3366851122290817
5.19,0.41507330562785894,2.1293938303270954,-1.408768310007414
5.2,0.3570929261922755,1.431623430260531,-1.0280213307488897
5.21,-0.5221626732393334,-0.7900214492584214,-0.05898027805102213
5.22,-1.2632523174814458,-2.721791616596369,1.6404791407062236
5.23,-0.8352294551787107,-1.4320841101829178,2.345390034499723
5.24,0.40895976300041487,1.3382043035820033,1.5915127248537655
5.25,0.9306131701828028,1.7748003426286707,0.37650048065580055
5.26,0.1716068963742574,1.1388058332612219,-0.9373196141559297
5.27,-1.0405124248029938,-1.5447245999374677,-0.8147138779855801
5.28,-1.4832588809957747,-2.459243484586563,-0.7374086603616178
5.29,-0.8341581893824859,0.30044112724061023,-1.154332699281591
5.3,0.19846612072438213,1.8878299828024003,-0.8805848709926138
5.31,0.4005698406620812,0.9851740226144707,-0.37924504654568236
5.32,-0.2791138284172027,0.34761554709176523,-0.2167703149782954
5.33,-0.8760424184290121,-1.4974612586735971,0.10804480063412793
5.34,-0.981036303367737,-1.452805861957653,0.45527669580902913
5.35,-0.7527182509128078,-0.985565166029577,1.0107105763541184
5.36,-0.6102794305218244,-0.06233882736568752,1.499356861076631
5.37,-0.38566084835801023,1.366109350991453,0.8169771799393003
5.38,-0.15828270041409181,1.2181464104017554,-0.7127207170676177
5.39,-0.45924185971077547,-0.8043663750495202,-1.370419337313669
5.4,-1.0431095752694555,-2.2180533303978422,-0.7138590342602439
5.41,-0.970457827267306,-0.9354800952690909,-0.3326548580118982
5.42,-0.1826793891509811,0.7999920396447049,-0.16496593383971395
5.43,0.24747314859121705,0.7952351292274059,0.5015013471523235
5.44,-0.16956563350053902,0.9994806300322021,0.8505733508864861
5.45,-0.7230017812963291,0.1399295251407766,0.3747480620716206
5.46,-0.8975348429293744,-1.5517532519405037,-0.17852124372294073
5.47,-0.6090490081825675,-1.7866145426827424,-0.4037500999155852
5.48,-0.07881279423337392,-1.0500840204698259,0.030014739827527726
5.49,0.372353947350853,1.0116255843785364,0.2149110355469424
5.5,0.4314624232679164,1.8222231686650998,-0.15259168862471525
5.51,-0.09236695914525322,0.12569878470979945,-0.24922839524243792
5.52,-0.6699446046705235,-0.8897079233550822,-0.5157693092073945
5.53,-0.5226778838954103,-0.24614991729481395,-1.042084788426536
5.54,0.20960957350017534,0.16644365118008658,-1.3073348833109848
5.55,0.3855785069013833,-0.35281073525594997,-0.012487554903313436
5.56,0.09142134486009784,-1.1379052789161102,1.5414028698295632
5.57,0.0665188215457407,-1.3846294194278506,1.6758143617082268
5.58,0.42095919509928337,0.7748346395741201,0.44734079960547635
5.59,0.7135242439933419,1.530725914891104,-0.7866271594301967
5.6,0.31486766214428114,0.0751633923967644,-0.9289990599064061
5.61,-0.20541136689216782,-1.3954643119709347,-0.3165939975219764
5.62,0.09940311707777388,-2.666276865521535,0.3861514711165205
5.63,0.9181185276906252,0.5055495837690587,0.12774793576773336
5.64,1.4641582619571785,2.2586357406309956,0.050544283009620605
5.65,1.094238432991097,0.5559929402178624,0.25533156875727436
5.66,0.14741591004133803,-0.9010004518817396,0.44108103087308337
5.67,-0.0720121825340572,-1.008592284283445,-0.23879889286514988
5.68,0.4913840487738975,1.3756186511871245,-1.2503438953916344
5.69,0.9962665266397518,0.7094029529866424,-0.9554554001128113
5.7,0.8998007594382232,-1.043810522875452,0.08667484395898206
5.71,0.723363640561469,-1.8220920895763273,1.26705849456607
5.72,0.913927309596353,-1.6714905692464126,1.9656534115190203
5.73,1.1263475020433982,1.04158919250616,1.5872384440977252
5.74,0.9785024909853008,1.9828146360936776,0.6981793207071483
5.75,0.4096119957607379,0.8195980782512777,-0.6688579434867774
5.76,-0.1396413299383907,0.26137983896337974,-2.223537168025998
5.77,-0.2181636257248949,-0.36033601319216413,-2.250369024711998
5.78,0.21570925479276387,-1.509111498849045,-0.7561256572931252
5.79,0.5662738842842504,-1.5412211247561665,1.486432278344988
5.8,1.0322456101880166,1.8038263345033414,1.7530574232508696
5.81,1.4610107880292769,2.2314146412088967,0.8951458796515357
5.82,0.7560681842792802,-0.271924935591882,0.37514090450110266
5.83,-0.7128962521365643,-1.40692112575996,0.4505039545041286
5.84,-1.016663966848498,-2.0018110864034178,0.26666097043790044
5.85,-0.06162361817322959,0.7315215696072275,-0.7463780779692772
5.86,0.758913696116245,2.4016134603491364,-0.8052927378664645
5.87,0.9106534848160379,0.8371437311565688,-0.11785947363363958
5.88,0.4737783115337623,-0.6395894909883502,-0.09118823204550297
5.89,-0.006767477729281379,0.38917464749680075,-0.39429732602018774
5.9,0.14838161232477626,0.003745924062564354,-0.56804483928982
5.91,0.21389879439080456,-0.4196892523075091,-0.29471845981575134
5.92,-0.017175183707579644,-0.3800739128264064,0.5135435807057878
5.93,0.10690751905252609,-0.5275448551731613,0.7634363671390025
5.94,0.31114434308963335,-0.47697821256868783,1.2575301220904898
5.95,0.4817373979237739,1.0643396507320284,0.8435771454236648
5.96,0.5145045834563342,1.7508829167139262,-0.4968074652906582
5.97,0.11595173805062198,1.2746742123349017,-2.144657650958228
5.98,-0.545346370794406,-0.00543687105700319,-2.8934770572130133
5.99,-0.746828691311804,-0.3638701288456192,-1.9111023028042688
6.0,-0.14180897516948343,-0.16435111600778038,-0.33296177064789956
6.01,0.37505783574029183,0.36141830852098866,1.5929152398622084
6.02,0.43445366067949376,0.5235122341761783,2.549874292177043
6.03,0.12730542860179078,-1.3961446039931797,2.712925657246231
6.04,-0.351925865671073,-2.441305942048985,2.3794260230393443
6.05,-0.5836329485577609,-1.6692543340521477,2.076848773083781
6.06,-0.3070320929479029,0.1143049281243047,1.152726442230857
6.07,0.051721830739287405,1.106589880355529,0.35740230266324036
6.08,0.14276660851361905,1.1426676047674578,-0.6142863903549053
6.09,-0.15461592687164075,0.8433770039734216,-1.4925822819969508
6.1,-0.3378411033232162,0.9830427295221015,-3.1349311291253112
6.11,-0.35313630945827934,2.484059610299273,-4.263627869895876
6.12,-0.3517565872696987,0.06364229854329118,-3.5844854074080104
6.13,-0.748027702978605,-0.5960520072772043,-0.9348547683512862
6.14,-0.7202810031850313,0.017250790602757693,1.876918688477741
6.15,-0.07196161222561936,0.583092068264788,3.0161988044547217
6.16,0.055576868640331366,0.06022791491758184,3.124872592941238
6.17,-0.5120191213826873,-1.0297172896760833,2.7632670620872464
6.18,-0.8945449009049136,-1.815790429521519,1.9361790214238903
6.19,-0.3479873000909568,1.4951167609206293,-1.0006090595815298
6.2,0.34196168025496315,2.3302908269971283,-3.634764212873206
6.21,-0.2640754359774578,-0.9562790545015702,-3.2714143632445567
6.22,-1.6204427450376175,-1.4251851741088644,-0.7277788825582827
6.23,-1.7202234453240561,-2.447263770248898,2.6885131062598395
6.24,-0.4501334353186399,-2.436669821087292,4.450239535365924
6.25,1.1098510119190854,4.875185218058077,2.326207992050702
6.26,1.2102461233064747,3.0710351484507643,-0.856901294426407
6.27,-0.8704666464096358,-1.2333667429838164,-3.2293466079435182
6.28,-2.6309602050203926,-1.1916155861553155,-2.3238798340988853
6.29,-1.6531009701208712,-2.5930871564397435,-1.5108978290602
6.3,-0.010319847543418081,0.44197534066729594,0.20034885042328532
6.31,0.8206204181199084,2.6158739627719427,1.4063601654290458
6.32,0.5668418510639484,3.600789186493507,0.38260243770532987
6.33,-0.7557821029695684,-1.8278923027462617,-0.2074997224838138
6.34,-1.9362735038676773,-3.2892036787180863,0.39540098808201163
6.35,-1.544638649066503,-2.474172725746149,0.7620908795885614
6.36,-0.19676628469186763,-0.021041584545931524,1.0395671893345328
6.37,0.42733527993961035,1.711054403155983,1.3587789794405636
6.38,-0.036095416017220605,1.8588488601841817,1.791243679709609
6.39,-0.5225737313446327,-0.04172956648038162,0.48273951884780497
6.4,-0.8239378367661505,-0.9841429657938678,-1.3554248698028486
6.41,-0.8531488669789941,-0.058192846465113246,-2.2038359703577144
6.42,-0.5596612044788406,-0.5817627399461125,-1.7188814149543812
6.43,-0.6081952699067874,-0.7783280331461809,0.39506076139402113
6.44,-0.5668615376567587,-0.28702390475514805,1.2401405218349084
6.45,-0.047438246251745864,2.809577951097557,0.19088541701387474
6.46,-0.16471807953511908,0.40024109724157864,0.7486870522605253
6.47,-1.032618534595839,-1.170406891442452,0.8763464114903182
6.48,-1.0898666253759817,-1.267459800420709,-0.1674503552270128
6.49,0.0015625530387992637,-1.838514803933672,-1.4495958338093675
6.5,0.6145943691424273,-1.3886336948363949,-0.6729283317782808
6.51,0.16741767753438525,2.252224359629129,1.3412282007766296
6.52,-0.19446539088581927,3.393600576598208,2.5041969895560827
6.53,-0.5322112289273246,-0.13204909077289217,2.8818939806053874
6.54,-0.779222290431568,-1.6069064319084512,0.7937509114498362
6.55,-0.5268605320590385,-2.9925656220135473,-0.19490560473042395
6.56,0.2988565250246248,1.1750799277170882,-2.1085245837393476
6.57,0.45093413432778195,5.109893317897381,-3.009348619649212
6.58,-0.6182171231814564,-2.382348166064105,-2.7965897810513187
6.59,-2.189439520546808,-2.2946868527512883,-1.2749109992111323
6.6,-2.0502714814582137,-2.8478719475137244,1.3617015155112575
6.61,-0.381893872487735,-2.5481142548994145,2.5839570401018124
6.62,0.8817313888712053,3.8916727003327636,2.227357737400433
6.63,1.2128856804141144,4.449808361370626,-0.2532473369422087
6.64,-0.46604930811181877,-2.4385921322561863,-3.0938225537237583
6.65,-2.3013377524470373,-2.3000779414237713,-2.365264624191576
6.66,-2.0968960324807187,-3.9288567208020075,-0.3040934093518041
6.67,-1.0383649455998014,-1.6831926122088037,2.1089943403388225
6.68,0.28650116729816444,5.085101997538388,1.7873576240682558
6.69,0.7871534635291464,3.232385783728824,0.9268775521935054
6.7,-0.4939730176361997,-1.4969803208236896,-2.190134590318086
6.71,-1.9763702761872877,-2.2620163968767106,-1.9784143104577327
6.72,-1.6101218548279237,-3.6442024639657036,-0.35616052412548715
6.73,-0.14427458035906926,-0.1198696933537528,0.7882890313304078
6.74,1.1272848278245922,2.3153902344295343,0.9599088016789874
6.75,1.2054361251612997,2.098560826677655,-0.27727346718740076
6.76,0.06058037269086072,0.1304590343181652,-1.9530605157405565
6.77,-1.146326295780477,-2.0951734101728334,-2.5058667783441404
6.78,-1.357351437070768,-1.8114335312343932,-1.6834405547317106
6.79,-0.725031731587837,-0.9260132843180819,1.220321462339925
6.8,0.5620704139979579,0.5877112462303723,2.2101387582876275
6.81,1.1333599564712145,1.9357941295819339,2.296845420204197
6.82,0.9849317330295184,0.9336472043594551,0.7617509176078132
6.83,0.24810793027255956,-1.2183157989734834,-1.8029548241711992
6.84,-0.577081739130681,-2.326168198690417,-1.7211144315933173
6.85,-0.5204890390455025,-1.60686177608241,-1.205413019529358
6.86,0.21280044660563113,0.4460548344436682,-0.13927096981992032
6.87,1.098842138735367,1.4342801942480419,-0.40007386573028436
6.88,1.1064076942994594,1.1336916905732264,-0.4681461296371714
6.89,0.5459183820204877,-0.5374081652056035,-0.4721136779656885
6.9,-0.07639499600046099,-2.166820636374619,0.10581733755510739
6.91,-0.3260449354354778,-2.2140990794665765,1.5992948248088152
6.92,0.2703016102519805,0.5440272470150296,1.6778131732236568
6.93,1.226497032427944,2.744539106866512,0.28496518612180316
6.94,1.3659066145625365,-0.3404416434000988,-2.141542917896853
6.95,0.4213564299796121,-1.546934916693428,-3.119658651347841
6.96,-0.04894618057796124,-1.8985545403472153,-1.6361608825055745
6.97,0.26346972934507307,-1.149305901639937,1.1343238261400224
6.98,0.9063430777781842,0.8011375870563526,2.650801208037279
6.99,1.3114657925932693,1.604230358199776,2.2263873809106123
7.0,1.1159307252754824,0.8582129939038537,0.40070924961676774
7.01,0.34842571272345024,-1.0908582113639793,-0.7872012370994298
7.02,-0.21525092921964775,-2.3854970368469077,-0.2413240151299391
7.03,0.2094327334169535,-2.188440876863573,0.44369342539452633
7.04,1.1072126319622948,1.0486619288048968,0.30305699356086496
7.05,1.6400437783687807,2.915388410468819,-0.5646652900468005
7.06,1.252970318230687,0.7327528539857072,-1.5424761034113499
7.07,0.2001724646225365,-1.996223283406897,-1.5664139240703097
7.08,-0.29248601061215684,-2.62075982733796,-0.4191091795307672
7.09,0.23478313427622538,-0.7085414608023957,0.6549147408638377
7.1,1.1069103722971532,1.893397427199231,1.281687338141266
7.11,1.348222379492057,1.7301394791184572,1.0488852493834995
7.12,0.6023145845920685,0.05365382243708772,0.4213747945664702
7.13,-0.10980794558761947,-2.192794408865938,-0.03614530642721335
7.14,-0.050635453458377416,-2.9770603299288627,-0.27217408924891934
7.15,0.6250909420807438,-0.24758260951899969,-0.7732655969972894
7.16,1.2642628536744678,3.4341258086667694,-1.3907410641903177
7.17,1.0490096175710895,1.880500721264835,-1.6927427388227136
7.18,-0.04697625999561081,-1.2888335221238776,-1.1489085739357199
7.19,-0.6582181177907183,-2.3957100485382674,0.6104233983260625
7.2,0.14752831288214113,-1.0523993174008943,1.7525118714572236
7.21,1.2985791457349196,0.7505722112043804,1.719533776395014
7.22,1.2517760366842852,1.03565788832122,1.3114231757546286
7.23,0.46793735719349694,0.5158101888484999,0.5187857015844937
7.24,-0.010775504441803748,-1.2604249441320876,-0.48629933062207487
7.25,-0.010447079625272249,-1.1352045450744308,-1.4560690366437985
7.26,0.39702417876461105,0.3908382701599131,-1.7278319468247083
7.27,0.8394073371679424,0.6903581109095498,-1.0591234302727626
7.28,0.7895929047278685,0.7091830117048447,-0.008271132324854824
7.29,0.5231914515286071,-0.0060224559675019045,0.7779490926993998
7.3,0.4792556300728608,-0.21819625189556005,0.6771172581831474
7.31,0.4510896608329438,-0.5582371651293523,0.571574554963494
7.32,0.3641068012591832,-0.4373231861718677,0.4022369827206291
7.33,0.3834156999669671,-0.4411037147524622,0.4035767398929633
7.34,0.5792986829215919,-0.3348724962747194,0.16319848846647464
7.35,0.7666833172152211,-0.10204738540618294,-0.09626873655496122
7.36,0.89110620025561,0.2046408350995612,-0.23873022014422304
7.37,0.8471435515622299,0.4653450746401436,-0.30891892347071304
7.38,0.5878924147854809,-0.15698926650797224,-0.019810740617365596
7.39,0.36893341367337196,-0.5178462942271316,0.2630570818682011
7.4,0.5275983909879196,0.5493219366547664,0.1001740125985548
7.41,0.9569486066818904,1.801122492801918,-0.4296624770051083
7.42,1.0085476302728935,0.6271345762382403,-0.5410963561169094
7.43,0.5401032943966644,-1.235253614130797,0.24731407612677012
7.44,0.342374577927504,-1.9881505182841592,1.0460603858342687
7.45,0.8089079189696031,-0.03947624955393114,0.9438990412029884
7.46,1.4958778153464927,3.186001216509166,-0.054132366108091245
7.47,1.4714267032253228,2.0047597072060452,-1.015355562544983
7.48,0.3125419077418107,-1.1612990837792883,-0.6333224072115482
7.49,-0.6244233807065382,-2.2537922654661244,0.9789971740099298
7.5,-0.07136671882498347,-2.1811388292278866,1.935501660893858
7.51,1.2523546460700845,0.6504991022242625,1.5484746891496768
7.52,2.052531028106666,3.566425956823024,0.4383866455761283
7.53,1.5517794582252438,2.686511267969488,-0.8854380961596298
7.54,-0.007007004445572007,0.0704964037400766,-1.8575744709012414
7.55,-1.0526093957451867,-1.0764521682906543,-1.8640359678156673
7.56,-0.38537761118577907,-0.33872025481763396,-1.2287113320717182
7.57,0.9841571917965302,0.48947153943552135,0.30328370679830596
7.58,1.452088452757243,0.927549493582999,1.907596370274209
7.59,0.948256563840431,0.25494801767774944,2.5130587626326983
7.6,0.26395299785652315,-0.47607376916399213,1.8298096122011072
7.61,-0.15144800480722936,-0.7409585685572547,0.6510534543827884
7.62,-0.26787759637000025,-0.3359877243448741,-0.18743564989812977
7.63,-0.12518228278085902,1.0539226597823403,-0.7039731473451831
7.64,0.17118374748666482,1.6166067054651985,-1.1012931177748337
7.65,0.34690959753797934,0.9918099603473536,-1.3138866914921694
7.66,0.3220482119992819,0.7317480860541153,-1.0435000839092445
7.67,0.18634194723677272,0.7447772902546834,-0.28681835557079427
7.68,-0.06330177110475732,1.0097854300380293,0.22318723202917728
7.69,-0.3525451318400346,0.48575377639894013,0.6465693930669104
7.7,-0.4989264907250673,-1.089896331867347,1.3724251106433758
7.71,-0.4450968977664238,-1.6738437909150177,2.309263472080219
7.72,-0.04874129875726302,-0.6393304380560939,2.706827520777456
7.73,0.5999773258036758,1.5486799279626808,1.4418043818210955
7.74,0.7096016074258662,2.531660527394369,-0.8501026953682176
7.75,-0.12053135217208322,1.6475280304953541,-2.9011269756937295
7.76,-1.1237321267748186,-0.1318614748042226,-3.3007625526451827
7.77,-1.3412147077341672,-1.0771127193581833,-1.817526730050928
7.78,-0.5325231621705516,0.7149623543836243,0.024234631787816707
7.79,0.6320207976729452,2.4322056779328776,1.4449989237467746
7.8,0.9570829134317772,0.9899471976759309,1.7448599461764378
7.81,0.08102797825279584,-1.1426711554387006,1.700052277921679
7.82,-0.7943237999712236,-2.15619399876118,1.7447011431444228
7.83,-0.854943222924855,-1.4880762697187517,1.2974680932989848
7.84,-0.42586689421062485,0.8319551723263983,0.556592267170883
7.85,0.030810093585412895,2.634868450328244,-0.6200175969893715
7.86,0.08651517118386406,3.179644913679935,-2.2380432305859164
7.87,-0.33864092498841813,0.6590343911920709,-3.3061877984831654
7.88,-0.7910434387457339,-1.4166745499086089,-2.7239625327894843
7.89,-0.6756286128119692,-0.6570824323804733,-0.6325682334042069
7.9,-0.020087288576655926,0.4609192079654133,1.4089809518778345
7.91,0.21721576294749156,1.3831215144444704,2.3946821305737838
7.92,-0.3152613131829634,1.0502094565198656,2.437031140851296
7.93,-0.9612949852667768,-0.4210041352285997,1.541798712364241
7.94,-1.237594679182168,-1.3040050185145078,0.4073136579852228
7.95,-0.9741371729943575,-1.0478869608164758,-0.41133196615047724
7.96,-0.3415039423343378,-0.04471191708293021,-0.9119781870245222
7.97,0.10764450043011975,2.7932076392377083,-1.5505651113226206
7.98,0.002786864581241333,2.437282035415203,-1.9865344801392273
7.99,-0.800832046655552,-0.103698648925302,-1.7070342062735269
8.0,-1.5244832216711102,-1.3330982965632985,-0.3075525108654462
8.01,-1.1664156008029707,-0.79163614312684,1.3273783373657533
8.02,-0.0446444380295864,1.6584730333472049,1.9504154373300229
8.03,0.5488691570961073,1.5790658634129813,1.7761702960230306
8.04,0.030173028835488003,-0.15941587237213306,1.2005818582370205
8.05,-0.6772979898395417,-1.9442321579448818,0.9648950675554135
8.06,-0.7635164708845811,-2.735719165801969,1.0375292902442899
8.07,-0.27174066498333693,-0.26221233079306394,0.5456300568940634
8.08,0.4766504805067256,3.4249932072044253,-0.6649831031290014
8.09,0.5863835779970084,3.3478089010126,-1.8341899725672097
8.1,-0.28393585635436536,0.45528051518425405,-2.568701491288192
8.11,-1.0243109770071062,-1.8875421995324928,-1.772475806198075
8.12,-0.598611576142487,-1.1736414233566794,-0.3106455026637951
8.13,0.44276833879772154,0.6581361757725526,1.2296277633642156
8.14,0.8415170425476608,1.6103617425395154,2.0640708974344726
8.15,0.3081530078964375,1.417755197819119,1.6427497637664255
8.16,-0.49774517722453127,-0.5049948282283736,0.9486568071447309
8.17,-0.9636985811153577,-1.8808065705292902,-0.01076078234875244
8.18,-0.9724321377431983,-1.716086259039699,-0.1871486738661483
8.19,-0.26527172270309074,1.4059815236643831,-0.8810805727141109
8.2,0.35239361357557364,2.635063182087266,-1.719599614160944
8.21,-0.26659034911954693,1.7874033997510919,-1.5039185699900846
8.22,-1.4479750012249162,-0.48049832223568045,-1.111096282402459
8.23,-2.207824845480181,-1.5823092704219512,0.1406325380901563
8.24,-1.7210641206664676,0.2516107750055161,0.36753910978049625
8.25,-0.9748031663086222,1.0508321263385851,0.5773678160495093
8.26,-1.0173257879031885,1.1102943500923814,0.5110936684203629
8.27,-1.8533659597423595,-0.5383272054119597,0.18227535927801014
8.28,-2.50247164899897,-0.18148834477503928,-0.06838606477286838
8.29,-2.193803654784671,-0.7646645133390545,-0.7091226830342413
8.3,-2.2201056952332134,-0.8687603707301728,-0.02385312784615201
8.31,-2.530827925935311,-0.7619176584949849,1.4072702913363844
8.32,-2.2827998278260173,-1.3777339937493953,2.730392203909633
8.33,-1.6007296030730802,-0.8857167023948836,2.739515927709746
8.34,-0.7000791831294397,2.414603696825176,0.5693633842660608
8.35,-0.6351662597751195,0.8167866397896,-1.2484715944645621
8.36,-1.9647940163261581,-1.0445041998818134,-1.9846454539754883
8.37,-3.065062876610083,-2.3798785820551687,-1.2061581573863167
8.38,-2.4397877899817084,-3.2866637305054294,-0.4554771771511008
8.39,-0.9269860173183064,2.117351766151047,-0.6221174512670753
8.4,0.5016231735259342,3.7757031482554506,-0.5348477414279622
8.41,0.5608479392447747,-1.3231075204003862,-0.7575431676508184
8.42,-0.909218825275369,-1.681057397030683,-0.06907232665252117
8.43,-1.3133677576364047,-3.3451799648098834,1.3803730664944733
8.44,-0.5682673240197207,-2.8312447047513714,2.3060509266104896
8.45,0.36723993844188996,2.8371012562921627,2.0840482719920708
8.46,1.1397539775890715,2.958522909274165,0.34343623077881347
8.47,0.6480425104052405,0.1323371297663667,-2.4630370976582143
8.48,-0.6834132345649748,-1.3584400056464376,-2.048434385496769
8.49,-0.9386353276318172,-3.260391193339411,0.4422561477471949
8.5,-0.07846095425546473,-3.48556126092541,3.302771933924783
8.51,1.1420428451485825,0.8487829009069916,4.073080054936397
8.52,3.454271057171458,6.9711434012111,-0.768743754952113
8.53,3.3485871988774516,-1.6666579961641137,-6.145396677613564
8.54,0.6505401104973538,1.9890710561581049,-7.093999422884008
8.55,-0.7471570939682695,-1.4442184839996424,-5.716960142639875
8.56,-0.46372605060570393,-0.620009094784671,-1.960372624213981
8.57,0.5295596184953704,0.9862128631939027,1.0530347552846808
8.58,1.785360641466121,-0.4234807611341511,3.063180315569319
8.59,1.7532604363270547,-0.7221849571291394,5.8726811296489885
8.6,1.5456739905648558,-0.9417782970393287,6.5912129264106305
8.61,2.2101569426118637,-0.7676906120211343,4.260269751215973
8.62,2.505424563226725,0.6945868807602662,-0.1746261844739232
8.63,1.3419435673271158,-1.6214639916365643,-1.5421486541092857
8.64,-0.3735460205257297,-1.3138101876061212,-2.125154776984494
8.65,-1.1041046192271122,-1.5145696845561976,-1.054618393044874
8.66,-0.3856585786124882,-1.717388389354463,0.11873368673477858
8.67,0.8978194222762792,2.969244017284047,-0.36941907681935204
8.68,2.092627772593014,6.271474026384059,-1.36379404773606
8.69,1.4400161978355255,-3.7125079403793517,-0.5059085823505796
8.7,-1.2957890547899016,-1.2968961827224428,1.5274292720783975
8.71,-1.7504827449103564,-2.67680241761931,3.0087225785946803
8.72,-0.7440327125682098,-1.0261305728897496,3.6079025985926627
8.73,0.26825820472913553,5.024556463944677,1.6422636384622111
8.74,0.29008143629578365,3.5565034595744045,-1.1911494728424106
8.75,-1.058454150115856,0.8099813497348225,-3.1139362773803994
8.76,-2.249630354459387,-3.1936149595581758,-1.183693249782907
8.77,-2.2144845528698096,-5.670869041744747,3.0654218762036196
8.78,-0.9700468376106639,1.423260535621096,5.698476553920894
8.79,0.8230486226807079,4.1236755194438866,5.801592638759419
8.8,0.506602170153152,3.125221737382722,3.4791777869266487
8.81,-1.8107337101952643,-0.41228457379439704,-0.8620087305606392
8.82,-3.1772925905183262,-1.5043619173633513,-4.659666389539894
8.83,-2.55222609550356,-2.0268078514462,-7.029629145270842
8.84,-0.9310546454952021,1.9756008999119907,-7.056823645597011
8.85,0.7304969949564298,1.574034377712104,-4.7101848588195745
8.86,0.772834602222878,-2.4162232452776236,-0.06412864017084668
8.87,-0.16608404190867532,1.8606330500983241,3.054916230202986
8.88,-0.5809342739033078,-2.610328223325536,4.927068868080038
8.89,-1.401264852742394,-0.5209796178585498,4.706115206220659
8.9,-1.5650891512841547,0.029950739878531286,3.033695470821344
8.91,-1.3945208606379245,-0.9531095648106062,2.371412810777432
8.92,-0.8936001039122958,-0.2347821690698411,0.019897332162907594
8.93,-0.29160392602369845,1.1518757011314906,-2.761882057527922
8.94,0.02672300072069675,1.4392217714644173,-4.467986640973825
8.95,-0.2598278802677466,-0.08363894890160456,-5.227030630246662
8.96,-1.0551902797011652,-0.8706132879505628,-3.913598904555111
8.97,-1.4009431811858628,-0.4091000163722742,-1.2230016946824955
8.98,-1.0671254155635954,-0.8612787787052403,2.2627423893025163
8.99,-0.5840041834523868,0.1582338057644717,3.643139303809494
9.0,-0.6325756249218418,0.3876638532969854,3.6386113218205867
9.01,-0.923789429635367,-0.7396277306928775,2.436862103125061
9.02,-1.0283516319135093,-1.1896475572809566,0.19700028055330196
9.03,-1.159085877542348,-1.7301664625357334,-0.4018205654504625
9.04,-0.9060223777932591,-1.237295610907068,-0.7163181679782792
9.05,-0.3334127077095666,0.6442156208048332,-1.4563928331229723
9.06,-0.04871112494942613,1.8010468974836322,-1.7536655056220818
9.07,-0.3527463331275038,0.25676356848959603,-1.529102154778016
9.08,-1.0671762756735987,-0.21232465373791118,-0.3655545645850754
9.09,-1.102132986033354,-1.5907986831294934,1.0244124145428468
9.1,-0.496871265981634,-2.069552805296836,1.8665968673232516
9.11,0.2670144828780634,-1.2264147962267296,1.9769709154294886
9.12,0.8501238374937358,0.23273624758005604,1.122477255720158
9.13,0.7468220796977166,0.6438468311472353,0.3302455043322809
9.14,-0.050280662407561905,0.767032200878866,-0.2979433538181208
9.15,-0.7602678669511245,0.5093832942301383,-1.0268758192981629
9.16,-0.8688645485642401,-0.01767845829625032,-1.5959250364252269
9.17,-0.451374683464545,0.27104894598667556,-1.845329115812597
9.18,0.15577364566432128,1.1549582433787893,-1.2730093459171243
9.19,0.6617605363782764,0.43582317863727027,-0.5880478963811102
9.2,0.41525230457108875,-0.9102533546996424,0.4552314137172284
9.21,-0.2014308642945472,-1.200484732521948,1.3333013864775007
9.22,-0.3803987078810031,-0.2699329154093979,1.3609159803390645
9.23,-0.12669018905325724,0.06026272213904443,0.8241312726569819
9.24,-0.14492635241849788,-0.39926264668494127,0.12708591269467384
9.25,-0.39407122518655446,-0.7103744709973425,-0.31992813335480047
9.26,-0.3249490081234862,-1.4404031082756137,-0.4602413929989444
9.27,-0.2671648658630131,-0.4293737827997203,-0.3652383300503454
9.28,-0.3060078475699648,1.5464350076558275,-0.3149977341052029
9.29,-0.37545262087413817,2.5902225220041495,-0.7404379727019438
9.3,-0.8113760932976782,0.20251975017469726,-0.9059368034226893
9.31,-1.3962439805684437,-1.4162900611445148,-0.2769420843850925
9.32,-1.0726236942425378,-1.5742355744579746,0.6824989749931669
9.33,-0.007479845663362628,-0.9506850044973405,1.1965006411659198
9.34,0.4940610458485375,0.787553839475558,0.9373928242386165
9.35,0.032863484505416624,1.3102290141662651,0.4506291135185645
9.36,-0.8075446634254013,0.1893326219268493,-0.2655758027727676
9.37,-1.5992511578556685,-1.5648384917995903,-0.5216034681448819
9.38,-1.666789668052289,-1.8429821191311275,-0.37987004674701874
9.39,-0.8412847121860917,-0.7158953193183211,-0.23097565040215426
9.4,-0.13375777747457512,0.953830797369273,0.2891147020634758
9.41,-0.12219854980860184,0.3569794705773538,0.781707280730403
9.42,-0.6453658128952633,-0.2214526460927472,0.5798466607609571
9.43,-1.230057932682906,-0.17980282579571105,-0.23435620337519547
9.44,-1.6203351429871076,-1.1703079174799411,-0.5562019655931828
9.45,-1.5888057525127464,-1.0054976409617307,-0.4947118708902434
9.46,-1.2257411760190675,-1.0380087535733475,0.14783131742198138
9.47,-0.8355362822861218,0.12610258450656842,0.6049779199252735
9.48,-0.5739671483634903,1.5160828765072252,0.48985844816406976
9.49,-0.6924582644081145,0.34298367504145644,0.2125883498264305
9.5,-1.1789050763691267,-1.5800278338639833,0.0018775930072346125
9.51,-1.3793578168648117,-2.103714322100013,0.3864128177005324
9.52,-0.8166294373641225,-1.135391352127646,0.5569879237905416
9.53,-0.015069717762490553,0.8608954332122315,0.48329322586098805
9.54,0.3025689043506582,0.9990821981523302,0.3512102539834181
9.55,-0.2173343994973366,-0.2742595361271726,0.25109443418662014
9.56,-0.8234515329693137,-1.76120994299528,0.2736330019204102
9.57,-0.6746225531942595,-2.5541630185738793,-0.16745726003467767
9.58,-0.174384182069804,-0.6413654734993259,-0.34595130492439474
9.59,0.2883066187213572,1.5349592248765636,-0.28067297240094546
9.6,0.2932211126511215,0.39958211089891715,-0.3962308949972843
9.61,-0.2994685536544782,-0.7555750065705309,-0.6105569835639013
9.62,-0.5545772282915025,-1.882307806475732,-0.8481272671628791
9.63,-0.3995960681707665,-1.7527566823297662,-0.1706250697049959
9.64,-0.20256594615366935,-0.6905246924069018,1.0455452203383633
9.65,0.016665921196754863,-0.08208144842378584,1.4733876909323766
9.66,-0.022181940427669092,-0.05556444703694985,1.1393677814226075
9.67,-0.3056069962788366,-0.9591383953691426,0.3654076629266345
9.68,-0.6073554164160246,-1.7546688597344555,0.01508625939204615
9.69,-0.6022841866044188,-1.5918671393009274,-0.06573932989478544
9.7,-0.25540665637848003,-0.28116599877640047,-0.33197499031803407
9.71,0.2361412457536999,0.6929533578655735,-0.8278922020434663
9.72,0.31157625724534477,0.3785413622255702,-1.0789283765271933
9.73,-0.16302813511508712,-0.5923254071016076,-0.6380799322566894
9.74,-0.44208133957198886,-1.4260138864504432,0.02852824382721747
9.75,-0.07349860777190692,-1.5135444664610496,0.48764772497401637
9.76,0.6726885065324693,-0.34664705640452553,0.418805776395369
9.77,1.0106919027553978,0.6369666355460534,0.18731015228643358
9.78,0.5899193168324544,-0.28679157173012165,0.1546526856828396
9.79,-0.007771131888466648,-1.5637618310283428,0.32647229023138796
9.8,0.06702042885418127,-2.0354489299691676,0.48975104689073906
9.81,0.8539335032958619,-1.4613111610548084,0.3949140404433958
9.82,1.5820420825941788,0.25281851854443227,0.208208143344963
9.83,1.851662930517027,1.104279282024253,-0.1405232126792046
9.84,1.593746499588191,-0.08611905102298056,-0.4629903132362313
9.85,1.0099654280137411,-1.5489455842141546,-0.5729264194109125
9.86,0.6756219082942893,-2.195858101070002,-0.11054765900548952
9.87,0.9621327839157001,-1.7627040458004664,0.5192388764444232
9.88,1.6586501294431335,1.524045973035228,0.267873290910643
9.89,2.2044946621137345,2.531210486750425,-0.6979485119774094
9.9,1.7034433060698282,-0.6908592189446916,-1.177642041436739
9.91,0.5227273650490428,-2.032575448487675,-0.5115865056506971
9.92,0.4339454629093804,-2.6141133512766768,0.5405875930954057
9.93,1.3399194745970537,-1.315787963420897,0.9646362114447222
9.94,1.9397692893503644,1.6664249211411208,1.0179078172043208
9.95,1.813973351235556,2.055062647223129,0.9389345295747429
9.96,1.0250739697840356,1.117970294788868,0.05598699743701818
9.97,0.16672649139283946,-0.591676273226337,-0.981782229456881
9.98,0.05049650591021923,-2.1940451400013528,-1.2735957806377676
9.99,0.6929346211930303,-1.2932809646186993,-0.7919446908398347
10.0,1.4340165261487339,-0.048054316111080936,0.5071680923470749
10.01,1.7227821434852444,0.4325327969868449,1.5693789623617536
10.02,1.468489511369198,0.405741383299874,1.8030066525576396
10.03,0.9160458995313165,-0.09323256995355314,1.051404292478292
10.04,0.2874556935609884,-0.18881335707010574,-0.26226396646325356
10.05,0.007020412774389358,-0.18811266332954543,-1.163546520118496
10.06,0.2600334733022924,-0.5045250963404864,-1.0585991958819916
10.07,0.7959036249238947,-0.25677640952145103,-0.6036771529076843
10.08,1.6422743796568793,4.522819564456711,-2.741146591825525
10.09,1.857840931569758,0.3196481668987676,-4.469127469293011
10.1,0.5103478408041295,-0.4838528649506024,-2.5109867338355927
10.11,-0.15054765285453034,0.47774729504023483,0.4986449562313413
10.12,0.4558224235846945,-2.6249236318887084,3.2672002861738925
10.13,0.9887470284903106,-3.0302950669035615,5.3179692259602005
10.14,1.5376535215318579,-0.10489932406442248,5.279220237198994
10.15,1.885416673998758,4.706511224339993,3.733974246291682
10.16,1.0236270004397459,1.7573655356640785,0.8039354713684235
10.17,-0.9599955543832897,-0.5872687180796275,-1.6234670159741749
10.18,-1.6614221335510624,-0.6499897402765411,-3.2076852744529725
10.19,-0.19404723312892846,-2.430669027686233,-3.086032349232938
10.2,1.5346302531635894,0.45447548926684433,-1.1669211134523934
10.21,2.5394533505315504,2.3906775851964714,0.753335716915914
10.22,2.1279400164126527,0.8353416785655476,2.1560170235625016
10.23,0.5423654718837692,1.5428514336031653,1.501982173081863
10.24,-0.7901910838122993,-1.0999609837501194,0.3762033691946991
10.25,-1.282076989151926,-2.6590072622785685,0.0662930140709346
10.26,-0.6390210854679719,-1.3006685188402456,0.42748238584689446
10.27,0.6398686606170176,0.4753859370645488,0.9088377465251375
10.28,1.3666589699328682,2.3160029847590353,0.8694361984871188
10.29,1.1976255262182207,2.1126775662645354,0.6721343173393171
10.3,0.567204582662409,1.8463511314791965,-1.0221109081404485
10.31,-0.40201408342842077,0.21725604137406962,-2.2840787006844416
10.32,-1.4742529513317204,-2.0162731130120273,0.7740381035532033
10.33,-1.315432619150472,-1.1266645331246874,4.306694029778697
10.34,0.5450434182071016,3.476607543971272,2.832301137586875
10.35,1.227495049761398,1.838208969701741,-0.8280795680923325
10.36,-0.09967238694387737,-0.4646681261008512,-2.6278490145484703
10.37,-1.172197429661237,-2.9645499262674386,-1.6594372505460004
10.38,-1.02596790930312,-4.5457825390915465,0.7271664477911386
10.39,-0.1270351986364544,4.315546732310816,2.0722701342953687
10.4,1.260986686823652,5.447377490164736,0.2843720069738933
10.41,0.6794866643701984,-0.4148085116970748,-2.4578257303283624
10.42,-1.1210640015712383,-1.0995676984445912,-1.9869375133927927
10.43,-1.1090992201721503,-2.9840284820728096,-0.5279487608714117
10.44,-0.07424869483156116,0.2067537604028833,0.5325998968618785
10.45,0.7043117695798289,3.0777305756035402,1.1446504135042959
10.46,0.90992654734181,2.35404194108685,0.7028772227361364
10.47,0.2752874315751146,0.2961168609891034,-0.48843385923260296
10.48,-0.5791572091040232,-1.7285384379479498,-0.813634046404378
10.49,-0.6569605212862608,-2.6470433226991914,-0.5108953431267248
10.5,0.07416185282167898,0.26004960156720314,-0.21827319723704394
10.51,1.0398695540531186,2.9366082080957323,-0.2698245780150876
10.52,0.9184700258141265,2.0520469344874206,0.2553439350801913
10.53,-0.3443982298545665,0.38254662093191416,1.1631026105511844
10.54,-1.0503869299700643,0.5370953973611746,0.2698207988618735
10.55,-0.664156018797464,-0.09384144150559803,-0.4890825010504901
10.56,-0.25454999187437755,-1.5391076089705495,-0.3454828295365708
10.57,-0.16042305897481424,-0.7203978798850081,0.2311160868905126
10.58,0.22718553886111542,-0.9063837255145595,1.2660393979859839
10.59,0.5853319321162179,-0.7566165513980967,1.4021665022111636
10.6,0.2743513717672818,2.0634838079501794,0.49704801453423986
10.61,-0.28085352450955203,2.719129270545956,-0.7449625844143213
10.62,-1.0241567992902065,0.7086474214092062,-1.7405023319958917
10.63,-1.8701245747161048,-0.0011418224821331258,-1.4608568481519673
10.64,-1.5119698312416188,-1.2463270637546995,-0.6660030515570006
10.65,-0.23086052285766612,-0.46513553704047605,0.16808377623759752
10.66,0.742277146649901,1.5559870936135212,0.7660475255555341
10.67,0.8851618447548197,1.7176082978682718,0.5782363357572378
10.68,-0.07910243818648022,-0.3582795290750709,0.501428738806517
10.69,-1.2317253984084322,-1.5067622147825566,0.3115056984948573
10.7,-1.425193108835877,-1.1359596036321378,0.23847074619317551
10.71,-0.698609215317233,-0.9259657763616371,0.5055052709133299
10.72,0.05210364544721058,0.787193531377568,0.4179831768916228
10.73,0.2538413502685404,1.1207492644971788,0.6046769636045825
10.74,-0.09227941869867134,0.8003926838518438,0.112642602885755
10.75,-0.8122277444481097,-0.5012113196247292,-0.23858153417974146
10.76,-1.2412330207227527,-0.0324776959409826,-0.6897490441080718
10.77,-0.9327709458879196,0.5641544172159272,-0.7731771339471469
10.78,-0.5054079596907218,0.1895273248908967,-0.08632597620376137
10.79,-0.3865585524395829,0.32230188098802226,0.2436778131873923
10.8,-0.3910463058532162,-0.09193570672861551,0.0700547915088448
10.81,-0.538286697389167,0.5480376107989785,-0.2811527396724895
10.82,-0.7280900306967272,0.17071189356328642,-0.15925896793041125
10.83,-0.7746643684582434,-0.4710251601684129,0.027945071703595975
10.84,-0.593979551814102,-0.16778864560434137,0.01906095172614128
10.85,-0.3078982807420012,-0.6192207958004757,0.2811548035553613
10.86,-0.21257756422272503,-0.2990956504380396,0.3961643413297412
10.87,-0.21310908363282377,0.657062221032334,0.11161589304538538
10.88,-0.2605252749016477,0.9032643314433968,-0.4605399417228217
10.89,-0.46519399533810774,0.43885059235292445,-1.1054008310679269
10.9,-0.6838883037773505,-0.21564180899075752,-0.998610980336835
10.91,-0.5782842510853773,-0.9727048897122238,-0.20140411422489501
10.92,-0.2540151400105174,-0.15527607012242406,0.5805796120418889
10.93,0.05802563054138837,-0.3194165614707255,1.2596515960521364
10.94,0.11676950320553951,-0.8552729728620536,1.1326890518912864
10.95,-0.10093401665052988,-0.5462081874199144,0.6577506578421943
10.96,-0.20842139067207466,-0.394303094137463,-0.09808005448253754
10.97,-0.2736731890902329,0.3235474812755769,-0.8955580368076249
10.98,-0.46311920514613814,0.7806904101708007,-0.9432992696183075
10.99,-0.4779939168582981,0.05856781320966989,-1.1232696254714918
11.0,-0.41507401749591616,0.8062878763291141,-1.0702129016414883
11.01,-0.11745049332747198,-0.402415516067997,-0.7473668961913895
11.02,-0.03955824586347538,-1.0416530513145845,0.16071768231327585
11.03,-0.10548808280058107,-0.46831031699616504,0.8706653943930327
11.04,-0.15108156490143715,-0.7936714148086229,1.548293505225811
11.05,-0.1429406092270337,-0.8263548721121549,1.3334888814184667
11.06,-0.14285117111715528,0.24775750942246544,0.4439598974525503
11.07,-0.03238253415356786,0.14821540510142522,-0.23184391583451192
11.08,0.06294346370454898,0.2374448974722579,-1.2279851807435525
11.09,0.15670150608650282,0.22678095926874173,-1.9153189258499268
11.1,0.30579852819789183,0.2883736372338617,-1.7826547081123454
11.11,0.35725059085963484,-0.3757869337303706,-0.5217718206640137
11.12,0.46845456419307024,0.8207093329668714,0.015245105795635205
11.13,0.3840929916877695,-0.16643014912132892,0.9769277016129526
11.14,0.043689241626752556,-1.6521473620991955,1.6819372482668138
11.15,-0.14000855021865394,-1.36644691974387,1.7433050353084072
11.16,0.30609251440171276,-0.886804904874001,1.4028397832455988
11.17,0.7782725872497793,0.17620150296126671,0.930836761577583
11.18,0.8446291675077056,1.1842711979228862,0.05015829777039847
11.19,0.6598810341282452,0.8704509434102139,-1.1208777108307348
11.2,0.3308459019690667,1.240605183792033,-2.7252302249435787
11.21,-0.021020616420964883,1.128567305867279,-2.7980768714080884
11.22,-0.03230171305881033,-1.3230823933670979,-1.3974451132401289
11.23,0.1410144195934853,-0.43087102998857135,0.6182741067696614
11.24,0.8195239133856012,-0.9655222354600057,2.1568698956552157
11.25,1.0780034247492147,-0.9593570327902317,2.9263489095146658
11.26,0.7988245754284268,0.38738090434865874,2.241626327282403
11.27,0.38107941330606254,0.7937620459996931,0.8974779063620746
11.28,-0.13975788763153094,0.4237313569937985,-0.4456187531116245
11.29,-0.4102624455502263,0.04915472102867782,-1.8448844807529408
11.3,-0.13224631543325915,-0.38859633952111927,-2.407933410800089
11.31,0.39438818592910685,0.8658739600762101,-1.8534308393025658
11.32,0.8114414699599344,1.2780373524183595,-0.6628511007030192
11.33,0.6517461147279566,-0.4228469249695219,0.5742693191863227
11.34,0.09462250899871223,-0.6154438694834106,1.239327933172475
11.35,-0.1406498275715654,-1.4308343714191003,1.2874491904818883
11.36,-0.25316862483716146,-0.5764499319909129,1.3068228511840259
11.37,-0.1460691725449878,0.015276257059261125,1.1946548322043715
11.38,0.1136207681583839,0.7708136039620079,0.4237460280669109
11.39,0.37414312703187425,1.2425539759725022,-1.1443358985570096
11.4,0.2977709195979772,0.33993626072863903,-2.2048669373405474
11.41,-0.019818738683560322,-0.3939537366979786,-2.085517670627595
11.42,-0.1509396532031333,-0.7709571656767366,-0.9601138793467868
11.43,0.014696869571145244,0.0428126631336439,0.326241382319304
11.44,0.3270601430179079,-0.0549159337082292,1.2416371466466882
11.45,0.20494186806700065,-0.8104619673340641,2.3175155345554526
11.46,-0.04619002962580891,1.1243616254856856,1.6527734849896092
11.47,0.0470073879096375,3.1941873943409753,-1.178869415573642
11.48,-0.36666830205772805,-1.8403367537985735,-3.008478221893379
11.49,-0.8003107567784586,-0.4454264254136989,-2.3038469802251993
11.5,-0.1801860541996813,-1.272794855175989,-0.23859160702512072
11.51,0.6177838953065111,0.5775660283502116,1.160345128230212
11.52,0.6260094182526902,0.49079954011808735,2.485067078611537
11.53,-0.061398074811577275,-0.7816046363276663,3.8343497757995566
11.54,-0.5912066241713535,-1.2627290859688496,3.553990195516959
11.55,-0.42878388740617424,0.0031862130449780146,1.3930464494936685
11.56,0.02605693901390133,2.0308003808217663,-1.3806925782995654
11.57,-0.01000262589810283,0.6570861719827648,-2.8474279400294464
11.58,-0.37972537520967864,-0.8252367082797938,-2.957367485180217
11.59,-0.39051437278731926,-1.324290440532787,-2.225873608494559
11.6,0.2163020882960368,0.9380616355908098,-2.00462377917465
11.61,0.6887903256330462,2.929869343037982,-0.9499234020609296
11.62,0.449339670002533,-1.1025975707846822,0.6403937711027687
11.63,-0.4563597120418576,-0.5756215552359883,2.1223367658880026
11.64,-0.1639576344521506,-0.36183042690861744,2.0879239799798825
11.65,0.6949566747442171,-0.17242097218927738,1.1441240074882
11.66,0.7370090719999225,-0.8641111375666719,1.1675379937486496
11.67,0.393298139442782,-1.4952222015138255,1.6844911347131262
11.68,0.45060197590874673,-1.4245002010389154,1.0740737426388156
11.69,0.7461512762719996,1.9348329638921034,-1.2717380906618097
11.7,0.8438404836426603,3.5773793923037993,-3.2712565093080634
11.71,0.11754489632672643,-0.8959283566055712,-2.6144226093490577
11.72,-0.9637745075485747,-1.7372622661826793,-0.7353289825905492
11.73,-0.5640820949287567,0.9575018276397513,-0.1365769591066302
11.74,1.1176086176595108,2.0839045330221855,-0.9718488910069418
11.75,1.4644432557454818,-0.5493377613112533,-0.3761628618082866
11.76,0.46439349737721775,-0.7377494110096915,1.106545528470642
11.77,0.06725620908345666,-1.7176806103830469,1.6845273683761257
11.78,0.38551014382524185,-0.5522581100893678,0.8548927907234153
11.79,0.6964814987671025,1.5404894862832796,-0.44513245235396376
11.8,0.42899268449484773,0.6599531959477895,-0.5956583695604102
11.81,-0.11786345080616889,0.6733840164223387,-0.7466249222798863
11.82,-0.2226575524150561,-0.03745003703163763,-1.0184928652028158
11.83,0.15337952124613244,-1.1387464983603892,-0.9307516184105381
11.84,0.4521939466680506,-1.26812803076628,0.3139558996741685
11.85,0.50653326560057,-1.1299609388037162,2.081707933772525
11.86,0.6725577535450707,1.631835040167291,1.9611214450370738
11.87,0.8113272784912898,3.55298011316331,-0.1954789818943068
11.88,0.03339769616303312,0.08719568016652501,-1.9186314855039592
11.89,-1.4759104836166486,-2.148625331029996,-1.2613390463312018
11.9,-1.9069488573355082,-2.3051734772152876,0.707733464094381
11.91,-0.45676231570238046,1.7409618731583416,0.07439842843884859
11.92,1.2775209545983148,4.338275191733187,-3.3441366455037365
11.93,0.9471022259909386,-1.8297787514310293,-4.026141820901856
11.94,-1.532683937081244,-2.4262378582975925,0.03311044978506539
11.95,-2.6387776877047155,-0.5601901859652213,3.4624560476589616
11.96,-0.8083217549475739,-0.3645236968560608,3.659249174070324
11.97,1.1405670570755366,1.286925945278013,2.4202072756749526
11.98,1.0231800312403845,2.4175084225972325,1.270525173322142
11.99,-0.5992911591676999,1.5784582989650051,0.5212176791711629
12.0,-1.8934264405148178,-1.535010112752402,-0.5898710591379916
12.01,-1.9051056115649054,-2.483805570280473,-2.0012066000037945
12.02,-0.7252156785310626,-1.7059669910677173,-2.0773283119107853
12.03,0.5972765354645487,1.4871419085908824,-0.8872458169187523
12.04,0.8701070096868303,3.2876599141994824,0.5857253803806619
12.05,0.011151666598789634,0.9098828044987717,1.2408076287216574
12.06,-0.9281851948586303,-0.6196133116795488,0.14625396299783222
12.07,-1.1229221337129265,-1.1376802043254712,-0.8793542338073068
12.08,-1.0194852441397284,-0.8498488483069812,-0.4888309119484721
12.09,-0.9184488805315631,0.6360162526618727,0.4254944975662857
12.1,-0.4374486570561496,0.8514239695643412,0.7769934101108007
12.11,0.0775922169698357,0.9351439286173032,0.07394471868156716
12.12,-0.09882642626197,-0.16015051169877226,-0.43297073388010887
12.13,-0.8150932029044154,-1.2392758797284746,0.31876888865771374
12.14,-1.047667509429729,-1.2826865222604524,1.1327341892636607
12.15,-0.6352911066949503,-1.9811145880975152,1.6167048266705155
12.16,-0.5300347411464257,-1.8282688329996446,3.495981798996234
12.17,-0.7704836152933503,-0.8361509113249095,6.072976889262293
12.18,-0.28305543164589253,3.947260252079465,4.648787953777624
12.19,0.2427783548953892,3.4811210832459705,-1.6466605185173098
12.2,-0.7542066634258462,-1.110316455089748,-6.225534933677109
12.21,-2.032252665752785,-1.820412718248595,-6.360501871629781
12.22,-1.5478058966831374,-2.7619136063652885,-3.5510558825710263
12.23,0.10786960883905716,-1.9092659595826798,-0.07262179473265418
12.24,1.6306804285166332,4.12916636525988,0.9292330159386364
12.25,2.0758039765910996,1.8680041638647076,-0.335631705046334
12.26,0.1430384687550903,-2.286120056588507,0.34542245586866405
12.27,-2.153268096477163,-1.8273633371609252,2.776485610826084
12.28,-1.59393069433999,0.7286063223445294,2.734659003069737
12.29,0.31378266216497286,0.6907102139788999,1.0534658785758242
12.3,0.5336574309042414,0.1384393794481638,0.3636174273094559
12.31,-0.29656678822487204,-0.8511365952189285,1.7922239977152787
12.32,-0.3834387258925458,-3.3808581281027976,3.1154855251498135
12.33,0.26725311174452615,-1.2186671359089374,1.4034310345713747
12.34,0.9548876787331744,3.0379102645807805,-1.6648127749670678
12.35,0.7502111345805591,2.0564863721963,-3.3875450533407028
12.36,-0.5741194888820875,-0.7480932885525826,-3.163069009781017
12.37,-1.3769482656608554,-2.1771754198110687,-2.5760597066103426
12.38,-0.6135347852355679,-2.113117916999448,-2.0361975311215668
12.39,0.7557340784658688,3.0176769730256705,-1.572881379097234
12.4,1.4675038447737976,1.578519154825635,-0.3624930139622493
12.41,0.5058336800499543,-1.8975297613977962,2.2208993050590027
12.42,-0.5777730446752061,-2.6179394842436317,4.275842097666141
12.43,0.20326009797463507,-2.0565649595435986,3.2221792985445505
12.44,1.7016659814927155,1.3188146023977811,0.8163412694478689
12.45,1.9183327710008553,2.0775081609324006,-0.3372588362568207
12.46,0.82502934106231,1.2322723000829696,-1.8867936387883584
12.47,-0.2908837232176307,-0.40939811887207167,-2.9113701874159434
12.48,-0.4287762395300948,-2.0188953789315587,-2.449840735589322
12.49,0.24159550848139227,-0.1980890552799619,-0.4962379040936087
12.5,1.2138906230356807,0.9856849879472693,2.4176937134821217
12.51,1.796380802471467,2.3498122956565712,3.0403967587556364
12.52,1.4410361116988895,1.220444234848227,1.2387194332921252
12.53,0.4856068095622954,-1.7280612366154222,0.656059354470568
12.54,-0.08812599988188255,-3.1374158571511517,0.6226196525537233
12.55,0.057462682854640595,-0.6843860685057783,-0.09463950663158838
12.56,0.8845600713000921,2.5557003661041118,-1.4498434956039001
12.57,1.5842605996930375,2.5997669340375507,-3.089956105912705
12.58,1.1515959238291762,0.7983538508931891,-3.7215214978982916
12.59,0.042120226262099214,-1.0558687728858231,-1.9403888452903122
12.6,-0.4082609189395179,-1.6077963155415502,0.7462316360251209
12.61,0.2653547417680482,0.42219608801966957,1.7989542024881606
12.62,0.8916616527107746,0.6792256688346909,1.9333578200010615
12.63,0.4847672055718406,0.4833954863735327,1.6791115912420076
12.64,-0.2502654376749526,-0.7056946541422948,1.3895644373125449
12.65,-0.5029620132277185,-1.8273647746303405,0.8341975472498542
12.66,-0.1955388111560774,-0.9705076606103056,-0.2219636806575639
12.67,0.37889478017466804,1.7534555531887088,-1.3651981064702523
12.68,0.5806747342564014,3.100401770246299,-2.278103084088343
12.69,-0.118023844844653,1.195179131777599,-2.423805074783459
12.7,-1.1799253800605243,-1.1341727304116418,-1.168664114675945
12.71,-1.3153171862650135,-1.725506068851916,0.6780222543923216
12.72,-0.36797185180096514,-0.32937780317553345,2.1282379825908952
12.73,0.49157936244429024,0.17480419225025606,2.810780270697884
12.74,0.4819848343563993,0.7661915852965893,2.2713699947411348
12.75,0.07746343062781752,-0.2022583950929523,1.4188864378518877
12.76,-0.3408484527767568,-1.2622242861111796,0.302417872751099
12.77,-0.552557076015586,-0.26600683937137193,-1.173632756298634
12.78,-0.45581296808715127,0.5171107604290015,-2.1403784841445392
12.79,-0.32143847747937454,1.9828461260647567,-2.722680982376732
12.8,-0.3030003063352941,2.858759133282936,-2.3406859212982027
12.81,-0.345885557666928,-0.9844099416623204,-1.3045944116820678
12.82,-0.5576484382092538,-1.0617654870291517,0.3426484928584306
12.83,-0.14317499367035824,-0.8196600784925294,1.88377312405691
12.84,0.3430644513243262,0.21997711589556834,2.680759266381524
12.85,0.22426330709158002,-0.0810327189577763,2.366730512014585
12.86,-0.4295336966657049,-0.46211429906872936,1.6618058194914997
12.87,-0.7323042933026922,-0.8161394398488682,0.3056676262167157
12.88,-0.5462287425065302,-0.6112506330796902,-0.9798088977498377
12.89,-0.18857662948753978,-0.017318770812167372,-1.19762573704113
12.9,0.11619268785937853,0.6600743248219471,-0.9705390448333697
12.91,0.13744554083231206,1.265119298757441,-0.8653399446138453
12.92,0.09717160991467053,2.5182922628780933,-2.0577760754972614
12.93,-0.2133721129205018,0.0042838232918573915,-2.3481334229744837
12.94,-0.8315969276148305,-1.4916328092913664,-0.769864732028384
12.95,-0.8879220492119189,-0.7409659555427157,1.2774685704841764
12.96,0.11401223698108165,1.1428309656524085,1.653952471327932
12.97,0.7590832622425779,0.4649020177306863,1.0293960466742935
12.98,0.1578725364500453,-0.6190209610033319,0.7311355860892369
12.99,-0.5205879623306094,-1.944095076777192,0.8158868151842666
13.0,-0.5634833956992706,-2.182412531529348,0.700949086672272
13.01,0.012939494947060703,1.2422877584142116,-0.42042618798844145
13.02,0.7527559852920811,2.052539414785116,-1.6765322932703965
13.03,0.41445725355228713,0.5616879399354706,-1.8933972166445643
13.04,-0.5269098017916041,-0.27198965117852075,-1.7362426788013674
13.05,-0.5953944417563752,1.9895306552819143,-2.0144756224937304
13.06,0.06025179550230786,-1.0820350361887363,-1.223626770689775
13.07,-0.22099717684397696,-0.8225156949256818,1.060136157106851
13.08,-0.4497729562318977,-0.20125018874149003,2.80072963749711
13.09,-0.06365784706830158,-1.4163745392027114,3.051145793375572
13.1,0.2524290057478527,-0.5187972827840996,2.031022452074708
13.11,0.5935681905886301,2.134851692935303,-0.35983602634643175
13.12,0.2191265634590434,0.7248245290809185,-1.531191887730202
13.13,-0.843704552391271,-0.592710705461893,-1.9848983292985682
13.14,-1.4535363870988252,-1.6655232470671755,-1.0712000404412836
13.15,-0.7282768293561412,-2.323178875670167,0.1973116660142724
13.16,0.41470192169089515,0.7925400271166083,1.4309168142430124
13.17,1.165985576593501,2.0589261180408327,1.9892940683832525
13.18,0.7821843219244601,1.153675721318565,1.7685953608676819
13.19,-0.32890035786115424,-0.20767124804025663,0.7835461222387713
13.2,-0.8028086430977808,-0.539163018944623,-1.4146720760590816
13.21,-0.6129308934886393,-0.5905437635913604,-2.485008127105944
13.22,-0.3920454111492255,-0.10439584837086048,-1.998472966618402
13.23,0.17411498863366118,3.419225658397923,-2.3474312800708685
13.24,0.3797022603542135,-1.4718788987120894,-1.1465090439792271
13.25,-0.45040277006822055,-1.6242428803295572,0.6765233205528185
13.26,-1.0230468291494643,-2.848086261860699,3.463338050455984
13.27,-0.7515211759772107,-1.7735047714157244,4.404313749802595
13.28,0.09703483178053464,2.859721606956374,2.7755500567218814
13.29,0.7257119256303657,2.773521044134917,0.41942042739515706
13.3,-0.02913174692673512,0.7024908387244114,-1.4951209089465096
13.31,-1.376835676173064,-1.1483397288219672,-1.360892149027417
13.32,-1.3384157836874204,-2.7015606256413487,-1.4457100170362374
13.33,0.007634045572151617,-1.1123834428336847,-2.8372723805120335
13.34,0.9367297972805493,2.33417844135528,-2.3055740038826817
13.35,0.8068651595933803,1.2844685637604796,-0.6596228658755876
13.36,-0.6041688884596953,1.1992990678521036,1.1830924909088962
13.37,-1.3476072970265578,-1.7925949278365831,1.725332666944347
13.38,-0.8567370881395764,-1.6023119660288236,1.0637950425991982
13.39,0.07951952395026565,-1.1385187444508473,0.6476761442263604
13.4,0.6413716172538005,-0.47423193740146363,0.4008304110178565
13.41,0.5607647782462111,0.4806569554751744,0.11182860805119817
13.42,0.11874350566881611,0.5880062570169302,-0.5701451764377382
13.43,-0.4659087265946084,0.25372737385733507,-1.0708811998758747
13.44,-0.6939394784785564,0.24342244680510694,-1.2479776807140495
13.45,-0.3927663948877693,0.7708229320734493,-0.9016047716250666
13.46,0.17663269602345866,0.0748242627320774,0.0177935237593555
13.47,0.5879929869135406,-0.5686868055533585,0.5958067235998759
13.48,0.622642924614908,-1.7610897309163185,1.2190256362183112
13.49,0.35710848459148475,-1.9615429628446355,2.144998442304542
13.5,0.3301860135144832,-0.2747083019084712,1.6397545685171924
13.51,0.6982361130039288,2.5351895685156425,-0.980713517245875
13.52,0.4347307739733835,1.7067620508491363,-3.209194264077724
13.53,-0.5182629747233132,0.5323797528460432,-3.355259821079686
13.54,-0.8892059363272883,-1.4114748454569073,-1.3017615413165733
13.55,-0.13145544076958787,-1.5402787673210432,0.4181324166939621
13.56,1.2443678769374955,1.059238202953019,0.8609840678294801
13.57,1.8810861401228052,1.3877710042459517,1.3353738133167437
13.58,0.9828593919544474,-0.09224152779359077,1.4115054809630372
13.59,-0.46911795304188664,-1.514052091676612,1.5626676703815163
13.6,-0.8957488306435174,-2.395271986062371,1.3761003813589776
13.61,-0.28159843488295844,-1.6962227734306694,0.821229412694589
13.62,0.4379037815044581,0.746950644367605,0.5055016309971326
13.63,1.0366520628908487,3.255561866105263,-0.8244841877715187
13.64,1.0236974075566159,2.907721779152382,-2.699042074955793
13.65,0.09577082169177073,-2.2457816123681704,-3.4134212465926534
13.66,-0.5569213652976431,-2.063060382499289,-2.0665204111496367
13.67,0.04493815365927012,-0.8478340597827347,0.368844721389845
13.68,1.1040829991138215,1.0811896881567384,2.4858994833362744
13.69,1.382344967685986,1.8034766723247244,2.9551365488721477
13.7,0.8648762264271264,1.6743237717124737,1.5231228051218024
13.71,0.21784556459955892,-1.2682236506367266,-0.3290751246922602
13.72,-0.18875157553576644,-2.054854377940745,-0.8318962490258395
13.73,0.10752460195020663,-1.1314240024788575,-0.47074088940715747
13.74,1.032441850892553,-0.43369601074936004,0.4047404787995396
13.75,1.6892140769519994,1.3258082920047007,0.4697494728189642
13.76,1.5366828746282553,3.46957262138016,-0.4997337625033293
13.77,0.8483164957477227,1.4082286464569305,-1.7287979975664332
13.78,-0.23728220650573148,-2.085691519873243,-1.7044412532244544
13.79,-0.6560015374464611,0.04832524221273369,-0.5162816190747515
13.8,0.4187953782310524,0.47325859125363645,0.4413320823890936
13.81,1.1043490254841497,0.96684299718555,1.1261649662742175
13.82,0.5995998473080589,0.3654975833719515,1.6396346599966891
13.83,-0.04313090337266069,-1.350681759804715,1.7612114326545572
13.84,-0.2383481348211789,-1.8566667665192842,1.2672802912279972
13.85,-0.036159932429329134,-0.04434021294940438,0.13634685651073136
13.86,0.27684452958501427,1.208004637937818,-0.9828238348678358
13.87,0.07350670192441616,2.3924946878582296,-1.8356286708634115
13.88,-0.6358927527765429,1.3982701654257497,-1.790229154858179
13.89,-1.0613700558670838,-0.5477715107077461,-1.1079537478465586
13.9,-0.7886556982423664,-0.9043225678909227,-0.29099974267687545
13.91,-0.10993621496305805,-0.035627274136919684,0.5141152989918811
13.92,0.3258126181550325,1.354126995619932,0.836602201844801
13.93,0.05675529914483973,0.8343256657349242,0.7864399555765831
13.94,-0.8124379693721621,-0.8488213578101351,0.7512524793559006
13.95,-1.4124981267906016,-2.1526754369939893,0.6840192035907393
13.96,-1.240176530238008,-1.5416950339847757,0.6215473769779511
13.97,-0.5068175280098697,0.13013786175694297,0.5515903175105152
13.98,0.08510074303629453,1.2903136973880291,0.42910100952872254
13.99,0.12586439355890738,2.7030282691806065,-0.7500720455851752
14.0,-0.32380911478377755,2.048219931811226,-2.5914791040568033
14.01,-1.2330168221029711,-2.3128068156917054,-2.2663986698624456
14.02,-1.7145364299865302,-2.358397573770502,-0.24702530234743447
14.03,-0.9136696147668719,0.17956029112110428,1.5183667381272188
14.04,0.37044957421100055,2.9080639556664925,1.7533528810045156
14.05,0.44423884789399515,1.8469664307567515,0.6686468564076968
14.06,-0.8086812018614993,-1.790789947550426,0.26477506214271385
14.07,-1.610826291596363,-3.5340441242758356,1.1945076605530391
14.08,-0.9665294690607895,-3.3633496476526195,1.565674582151614
14.09,0.3360303951978427,1.2872413587745992,0.37758260984570036
14.1,1.0493814421597194,4.815960725571946,-1.1509800245251705
14.11,0.3398833322648853,1.9808437882242065,-2.221669155496053
14.12,-1.1318559552701584,-1.6793098037436232,-2.2190340756087634
14.13,-1.4733594189954722,-2.354578581882327,-1.3455589048202605
14.14,-0.3132998716451979,0.7497778863980393,-0.7125159462092258
14.15,0.855567938125118,2.26599113633007,0.4175362494142657
14.16,0.7854683377954996,0.11189212342567709,1.2078718235292478
14.17,0.006050490684475135,-1.291296646311566,1.7007049402987091
14.18,-0.04802430219349871,-3.200031207756284,1.8949127359056726
14.19,0.34526945152556787,-1.7235621747685612,1.2849724525966066
14.2,0.6071283697858018,1.001771599133215,0.9076166363885851
14.21,0.5760338829071578,1.1597885997307917,0.1691061099424358
14.22,-0.0511571891021535,1.0186116763632924,-1.2093345834606994
14.23,-0.6646839611622236,0.3503083489484379,-2.4116827250549426
14.24,-0.6312039490224735,-0.9674664439793111,-2.638423751786187
14.25,-0.2991328376634119,-1.5836592874080349,-1.1150541521133877
14.26,0.5250232260533946,4.8911052985654715,-1.5017771672926443
14.27,1.4866179783746962,2.33538909704642,-4.7493745574611195
14.28,0.3482695196530712,-3.4668171321007217,-3.566753124316428
14.29,-1.5755827098618642,-0.4907250940871132,1.9578911552353633
14.3,-1.5144715733965348,-1.2776676559293632,5.297243448752025
14.31,-0.32901923869369243,-1.351665869076422,6.106656120791282
14.32,0.9835059518392939,3.1804007174118487,3.7933895749011364
14.33,1.3881444842592088,2.414973341418026,-0.972307226542017
14.34,-0.21483554407436523,-2.3316147589328873,-1.9785847247384425
14.35,-2.0348161946375294,-2.4248947277476605,-0.06803349155744765
14.36,-1.6511506882048255,-3.1121300681559463,1.1902111982897225
14.37,0.08421132668721232,-2.2949715637433385,2.1168839972186144
14.38,1.6390530060302724,5.843646087949501,0.977620853334257
14.39,1.8003417729590279,5.071756324796235,-0.9435110649931227
14.4,-0.3639153198776004,-2.0221249603825173,-1.1311569427320318
14.41,-2.7516246849733035,-3.104028025001286,-0.7861381021546257
14.42,-2.455455438847416,-1.8016247815408892,-1.2716519775816306
14.43,-0.16415824361157072,2.6977725553420706,-1.4441729081276657
14.44,1.6242084896881792,1.8121524263905617,-1.0681059723064577
14.45,1.1971548898478503,-0.3947199012861964,-0.2683702398101171
14.46,-0.027185134749498685,-1.2340786207916794,0.786730198567588
14.47,-0.25846568663872443,-3.4630098403233456,1.6278623491963091
14.48,-0.16803380484168362,-1.496084738005175,2.697593916671501
14.49,0.17496168188746458,1.0971123914505876,2.584134373079717
14.5,0.5043315572032304,2.2379878644367692,0.8862604219211763
14.51,-0.19187479806023444,0.9236583330618262,2.6266582405106975
14.52,-1.158894826822042,-1.4861774334267162,6.1107393537388965
14.53,-0.25199706711093284,1.1163459222552858,2.490120436723908
14.54,1.2542167497394465,0.9291217094336521,-3.9423539377728654
14.55,1.0989248995417111,-1.0604670574284514,-6.3363455657833025
14.56,-0.2160591521092996,-1.5595803698376511,-4.484842161240689
14.57,-0.659702335769071,-1.8014895793638879,-1.3580287170378476
14.58,0.4314830044376643,4.01916133038498,-0.5399830378299497
14.59,1.5765665177519843,0.1129149976487982,-0.4761655149323024
14.6,0.8557017984018733,-0.8030218962414923,0.5684579872000912
14.61,0.07463523258492202,-0.6845747546308651,2.289186119105896
14.62,0.28824742735089187,-2.4044426284993814,2.760164200838651
14.63,0.18159740413526282,-1.387940536620435,2.437735700796661
14.64,0.09016221811901853,-0.18791564220440454,2.224914363166663
14.65,0.7369576905633775,1.001017310833922,0.3343209393552331
14.66,1.1229600160728974,3.3995201639853825,-1.900338917584205
14.67,0.8331608175808582,1.514842184986025,-3.148195279833752
14.68,0.21328483970241957,-1.6701042897301608,-3.9231758868667126
14.69,-0.36432860008066736,-1.4347802940402,-2.651019781654947
14.7,0.09907842399054445,2.478405020228112,-0.8196939569390165
14.71,0.9223002820589341,0.6711108630337064,1.106741163093985
14.72,0.6424964405881772,0.39522642184864876,1.6827645456794467
14.73,0.18314497554669645,0.217223556681869,0.6027387474178212
14.74,0.06881878598525906,-2.6865742997239956,0.9663822067611725
14.75,0.013278188258906622,-1.7186513300931487,1.908967682629479
14.76,0.3882469954437791,-0.6053803459249569,2.583636271196947
14.77,0.7671164375078718,-0.09001766043465215,2.5498033596357574
14.78,0.7032702009183696,1.9343411874614993,0.6680668938421404
14.79,0.14904387596697932,2.752245436066476,-1.811178219127873
14.8,-0.6599247207756547,0.8047045963578561,-3.9435478898777463
14.81,-1.3523255981292566,-1.1515520279391969,-4.180858459963899
14.82,-1.3395792712796724,-1.7553355849216727,-1.9280740052430279
14.83,-0.29822415052985696,1.3738397615793423,0.6420013880330708
14.84,1.0074740433377118,2.3780153993066304,1.7781939746754871
14.85,0.8949690467021703,0.2164539816778075,1.1583661581384093
14.86,-0.4317092659847379,-1.291523100224362,0.7926798127138002
14.87,-1.2431603813341359,-3.237205707455487,1.7745708276502155
14.88,-1.015991050841803,-2.9323981207299825,2.3471626091269684
14.89,-0.2173843561270944,1.6489880813176416,1.3583462931887793
14.9,0.38134793693630753,3.029660715954448,-0.11340617404656017
14.91,0.07317123597304154,2.115271514525602,-1.9327913431696382
14.92,-0.8795433314543004,-0.3562034555440565,-2.9252443844274176
14.93,-1.275082484817666,-2.3285044532763712,-2.925120295139332
14.94,-0.8734225600632282,-1.1662078125553619,-1.7676217859173577
14.95,-0.023257579631713488,1.11776142149407,0.269332225424495
14.96,0.5991093401685288,2.3649728301343673,1.4362004059615372
14.97,0.2815436468483989,0.4890191032967297,2.175694189717893
14.98,-0.5788918757324041,-1.5981054811339002,1.9063176985157944
14.99,-0.9954709058089519,-2.1860603003587147,0.7521525754032865
15.0,-0.5993685130852331,-0.8196931974637054,-0.06989310340625965
15.01,0.14285400513481505,0.5368429244159825,-0.7863334501382605
15.02,0.4003771665956383,1.2201117857035724,-1.3743421804616611
15.03,0.2368625211015327,1.0748375385114715,-2.1297518051978983
15.04,-0.13119810132882004,0.9815891492780908,-1.8034970420751177
15.05,-0.26750168311600164,-1.3036532023383516,-0.8931354848876373
15.06,-0.4042111296140688,-0.984957302015382,0.3568390536210613
15.07,0.15048682288654286,1.9003161443077405,0.48842547408914816
15.08,0.7288030250571704,0.18880350147773672,0.6462713748234659
15.09,0.10467413055331376,-0.7264342905384203,1.138920130862847
15.1,-0.5882325149539865,-1.272708678913443,1.6512470330816438
15.11,-0.3809711139753113,-2.076219118363912,2.1134816121096067
15.12,0.5084859729308016,0.5999516670103513,0.650188927440682
15.13,1.266514235779654,2.1029663171976307,-1.2404229279789125
15.14,0.9825540178381611,1.4088737294572207,-2.7460892590243997
15.15,-0.36299282328109905,-0.4978807343816658,-2.31597203344364
15.16,-1.254149366084477,-2.5782601365751856,-0.345216869172593
15.17,-0.7951723363661435,-2.1250285032990814,0.9242919680691888
15.18,0.40697357596198724,3.2890163137851864,1.645769342781502
15.19,1.3317749715170129,1.873970182911831,1.3294418621590791
15.2,0.5994541683494348,0.32208736664915194,0.41173680996388196
15.21,-0.4108132596589298,-1.8606380833474545,0.21968710189924318
15.22,-0.44854308415905286,-3.7155395999775633,0.08473661900430435
15.23,-0.0313304326489951,-1.4573823961874885,-0.04306301456296152
15.24,0.6617557791922918,3.596045108563673,-0.5568457580038471
15.25,1.001175548935275,2.9249828199694567,-1.0552131086503658
15.26,0.042280299362250195,1.1677885075072323,-1.5696413049334408
15.27,-1.0323456541533433,-1.5288371959827916,-1.35700775954736
15.28,-0.7730332513826554,-1.2123168491724414,-0.7707545064538985
15.29,0.3683562182574136,-0.1869703582517539,0.37809384265735857
15.3,0.8620341874892101,0.05086033150059438,1.8163046447735993
15.31,0.4770683296097198,0.5007631086067633,2.1594165097925178
15.32,-0.018738471623180042,-0.2871532986867198,1.5144316429060978
15.33,-0.3242429515841582,-1.294122592367245,0.6345637779894856
15.34,-0.3873998618773865,0.46603228341839853,-0.4804920289286816
15.35,-0.22411560509524206,1.0453790483876975,-0.9068807427228829
15.36,-0.1404568919805949,0.42485303190765544,-1.7963471130334785
15.37,-0.49582314338025035,-0.08410291543825543,-1.6187182793802175
15.38,-0.46420134163828747,-1.414402257565726,-0.567075016423027
15.39,-0.24520260582235298,-0.14151758951311064,0.6869789998139758
15.4,0.0013323428509730729,1.5907883860916232,1.1807234800588031
15.41,-0.019788895146838716,1.8088861731948835,0.5177132346905373
15.42,-0.5387181658614543,-1.064853510711084,-0.22969187370692695
15.43,-1.0620664629821546,-2.4288298377739475,-0.06138775227979611
15.44,-0.9525730474340345,-2.1755238181242182,0.8393017920832545
15.45,-0.11074650881419756,-0.5927820258317766,1.2524043853674345
15.46,0.7395840885710586,3.0487741389788594,0.3347942197654866
15.47,0.7894981032908471,2.698928985790346,-0.9637794970060862
15.48,-0.27214644913613956,-0.2022981844476027,-1.9223005735739358
15.49,-1.4421234831205063,-1.859687063139658,-1.4999480407787282
15.5,-1.3028423107470495,-2.6173498040864107,-0.26679388365227596
15.51,-0.12358212237941534,0.3407466749462089,0.9060300519348933
15.52,1.1210812511352648,2.4014738080437703,1.4562403547831297
15.53,1.2208346714701854,1.80802737235544,1.1084129160273233
15.54,0.22765609019493468,-0.32279384399138844,0.059435067730567816
15.55,-0.5783485885803517,-2.186665707632575,-0.6336876978911055
15.56,-0.4715445439863122,-1.3455647753439988,-0.9440227787040066
15.57,0.16920725532283493,-0.6894118833163831,-0.3370326901006574
15.58,0.6346981499986374,0.7743793132944852,0.40660482230840167
15.59,0.6920647944016196,1.6320942659983246,0.7097293623138419
15.6,0.372116701189258,0.7417563488014604,0.9592359788984438
15.61,-0.004612866109246966,0.43788681532896095,0.253825766732598
15.62,-0.10349240643771052,0.19126885604832888,-0.8204182544280073
15.63,0.08238817412453209,0.5274649811625056,-1.7776570570154981
15.64,0.18747795792438132,-0.48099225114660255,-1.212128621431239
15.65,0.19793184636024244,-1.4694659106179055,0.26661120999102217
15.66,0.19858344085372578,-1.8548288111450268,1.8771526219433914
15.67,0.38688419532093166,-0.007571515828915354,2.1554403908471778
15.68,0.7770519779660847,3.2019320563694516,0.5793978097831273
15.69,0.43950685850061944,0.653682389050505,-0.6882913007569537
15.7,-0.6438844360915976,-1.3899937495272143,-1.187983685545595
15.71,-1.04997147838358,-2.6861225923518037,8.945305207208598e-05
15.72,-0.23536457918101203,-2.181613734063017,0.6971402264270151
15.73,0.7897215279115318,2.660768778779007,0.5013240712624161
15.74,1.3104858353745896,3.8272751480027605,-0.00437382327690139
15.75,0.5534218018493384,0.4846461451100664,-1.0608510731166179
15.76,-1.1018025903451263,-1.4991398101524596,-1.2889806695249915
15.77,-1.4725697186694024,-2.504360834949628,-0.8064967413926344
15.78,-0.4535266803440192,-0.8174407347204642,0.06385867983766752
15.79,0.6631514514075003,1.3813419199007568,1.133085341492262
15.8,0.9822171128154592,1.6766089490759701,1.4183880593746414
15.81,0.47709141831958835,1.055108275539085,0.6943347359044848
15.82,-0.2668249039903742,-0.8427442779271306,-0.33936999679722546
15.83,-0.6952712208278387,-1.5121798707269432,-1.1154141594041385
15.84,-0.48319826648929753,0.10273464389235781,-1.434807555979705
15.85,0.05529200714635633,0.5063044178019619,-0.7361930204511309
15.86,0.399081502936388,1.0865269857840838,-0.09291877049428726
15.87,0.37589780095078024,0.4421452977363835,0.5344066323018674
15.88,0.18728282196849558,-0.5129753595619542,0.7732745083768008
15.89,-0.11815941475563851,-0.3348470279057558,0.7854051742796874
15.9,-0.12152601723264837,-0.013772372426316154,0.25726441843461384
15.91,0.08729573684451052,0.24959576491596283,-0.2988448273786807
15.92,0.11522360637635404,-0.15373562945555805,-0.4482002747346413
15.93,0.10926272220199934,-0.25747875328222625,-0.4705931182407951
15.94,0.2180084578256109,-0.29130455330485483,-0.23008167566381346
15.95,0.3457593990269158,0.3379320574454984,-0.085086382051134
15.96,0.3455857828340835,0.2966584327635029,-0.23895309881919743
15.97,0.04910593490363507,0.06585536243672432,-0.3887026708661162
15.98,-0.1366797857397927,0.5166468340879233,-0.7929973756174598
15.99,-0.15691765043512473,-0.01418174726789874,-0.5331713922252059
16.0,-0.14343483733496853,-0.24077089714623182,-0.005493637500125159
16.01,-0.16894664030216872,-0.827427807324888,0.8214195534088298
16.02,0.00768882215126529,-0.20374876403430686,0.7096856302529682
16.03,0.26442439085787106,0.5871732750594719,0.13017986829273748
16.04,0.2369694070238142,0.4847323799134944,-0.05045405771484233
16.05,-0.0033693904681918324,0.034046936482892504,-0.30494488819400795
16.06,-0.27689440573599644,-0.3896902410394682,-0.3084024912858741
16.07,-0.21671462398900782,-0.24418504641685243,-0.1885312962524417
16.08,0.15203107804421725,0.30440416044134033,-0.030157444942107568
16.09,0.40955116817901477,0.6262299904660885,0.08002881114347367
16.1,0.2503622047024674,0.3102184240571444,0.2378873166902016
16.11,-0.1029025768860423,-0.25423519681870926,0.24663683271388365
16.12,-0.2445432318387888,-0.8077535046324715,0.11254114882884168
16.13,-0.13405779782139116,-0.5389698628490751,-0.01956300751600007
16.14,0.0965118888232945,0.19360859469850467,-0.07133858077942368
16.15,0.27308759616217165,1.1161607575550792,-0.3139570172122427
16.16,0.18640737663751628,1.0997853305899712,-0.571990769912257
16.17,-0.1351818131239233,0.0593402346960889,-0.5194236095954523
16.18,-0.31536655888923765,-0.20082252680226664,-0.5091447774004737
16.19,-0.18257114348036257,-0.23239897416489383,-0.3178671933078128
16.2,0.0399888946641623,-0.36031146611545717,0.19974085965344854
16.21,0.16716878989909206,-0.6190576678015857,0.7688767917516388
16.22,0.20913218270507541,-0.30367099218154464,1.0094122098844478
16.23,0.2722569601169947,0.6855817882384334,0.5142019930558652
16.24,0.16948874520846127,1.1177665813230253,-0.21974832462967725
16.25,-0.23491940325858357,-0.24325405344486967,-0.4426389294872393
16.26,-0.6870811736791731,-1.606078142859682,0.3257544498724678
16.27,-0.5678308790162181,-1.853344460295407,1.262300691160195
16.28,0.1718004712779847,-0.4418743327531327,1.1889824627619108
16.29,0.9051102387719479,2.440263738045229,-0.05759434935116592
16.3,0.8255127810201696,2.886913751394201,-1.380485024557705
16.31,-0.3115756596456009,-0.22446682105497806,-1.9083910951058674
16.32,-1.4784123038749253,-2.227767401200725,-1.5238627356739294
16.33,-1.331841429182158,-1.3025984203077392,-0.7860081739075733
16.34,-0.15929517082140632,1.2885828489908868,0.09713196866678608
16.35,0.622921041490881,1.694319621105681,1.052111233917258
16.36,0.30483422692065615,0.9165688198807566,1.225643332774578
16.37,-0.40956661026362107,-0.8023323432875935,0.7111518113296376
16.38,-0.7459985446480606,-2.356261174281508,0.03529479849735956
16.39,-0.6441474265888003,-1.7955379418912019,-0.19698668815716835
16.4,-0.1955051035402977,0.2224378318447977,-0.19834644590175277
16.41,0.2755684323852525,2.323449240727834,-0.5472738393803553
16.42,0.1731532902202535,2.3164638230234256,-0.8713194214623969
16.43,-0.5238508797662316,-0.15447136458507882,-0.8826621292220758
16.44,-1.0457825646219174,-2.050074110838032,-0.4580176136892637
16.45,-0.8370805985619405,-2.2198958278438337,0.4416098165044097
16.46,-0.14315499629786732,-0.9905589952333473,1.3016985234952998
16.47,0.6359368078079376,2.733361180656854,1.0049429419133924
16.48,0.8763308301005454,2.702217306148025,-0.7662405711000748
16.49,-0.275785329269558,-1.021975344359033,-1.7141977245365514
16.5,-1.6701245818102803,-2.114215577688825,-0.9280255247025926
16.51,-1.352250752938831,-1.4914394930245183,-0.08957865493520956
16.52,0.15795467189210566,1.1786051976149927,0.04081552308541628
16.53,1.0274374065100311,2.5630911302949184,-0.11769676043886639
16.54,0.5134071823680474,0.6765456722303378,-0.03034710747969671
16.55,-0.6090785502862558,-1.9032823024505503,0.7652601478948613
16.56,-1.1031310162133965,-2.686228627550838,1.405692597492863
16.57,-0.30675745862389714,0.211779743486471,0.6806865562686206
16.58,0.8732945990835821,2.1028120391436396,-0.3509077979902273
16.59,0.877282498752745,1.8524634231401294,-0.832708206777496
16.6,-0.09576174424070216,0.2884199730057888,-0.6379844341912507
16.61,-0.6701792762134385,-2.362195421812486,-0.1305477831370045
16.62,-0.39232817989630625,-1.460779866017205,0.10533832622527736
16.63,0.49392969231185635,1.159013636498649,0.26722103521771606
16.64,1.0166979863105245,1.4589693351736397,0.47319552838603757
16.65,0.43200455313558417,0.645999809928997,0.6525264330320605
16.66,-0.31670546724151855,-1.1787451847184294,0.9071673786137688
16.67,-0.40801420848841213,-2.429388673639487,1.2808971554216226
16.68,0.21179473028078827,0.5329628450304535,0.9198519153628176
16.69,1.0031807338420444,1.2934615614659561,0.06643561918470964
16.7,0.7972935004007196,0.5566219791394158,-0.6909860296088164
16.71,-0.06202889899379549,0.03838158882470688,-1.1005218173154585
16.72,-0.5197094815683153,-0.4451754631537019,-0.6302535849677547
16.73,-0.49051569611208323,-0.9274658608097734,1.030622373907163
16.74,-0.2741806882507552,-1.404737647846983,2.9003357521725164
16.75,0.13549437852047014,-0.14089616126718196,2.968893510804132
16.76,0.6296694796009782,1.1791628450795495,1.4508874220469263
16.77,0.7135326106625312,1.836454409060904,-0.5024831207420799
16.78,0.05849640065233985,0.7119948071851199,-1.9008207569928155
16.79,-0.8916073270082139,-1.4340681041452088,-1.7351022148797974
16.8,-1.1707664144908958,-2.344767699911131,-1.0771727591552238
16.81,-0.5632364053286528,-1.9640734664105102,0.2631499454391426
16.82,0.36515283782219143,1.306608318299975,1.6229118716957025
16.83,1.0061344394547582,2.8537818539346187,1.9542346590754147
16.84,0.5479196800277487,1.2508509543074429,0.5291987893462962
16.85,-0.7696449457136603,-1.0948405518855273,-1.2636291604536614
16.86,-1.4008583078984995,-1.8082027997846128,-1.9127165011056215
16.87,-0.8197570545486297,-1.058014787379023,-1.2407190702204103
16.88,-0.1297458174150905,-0.1860777232075257,0.4609377149610172
16.89,0.23411407700995032,1.179537541516581,1.1239155803077026
16.9,0.2778107821890468,2.195764297345421,0.6331628841198297
16.91,-0.1107836598534635,0.7072218248941813,-0.26442004846485123
16.92,-0.7987300904410375,-1.1778361782735394,-0.7584909930449474
16.93,-1.0501242275182254,-1.8509949368802252,-0.21498817136419213
16.94,-0.3300115561957482,-1.1760812242280452,0.4271091315894645
16.95,0.6587778942849386,0.4471698630123788,0.4376950368605859
16.96,0.9492112953995673,1.299877465547441,0.2638775845417754
16.97,0.4540052480140475,0.4513702589428561,0.32470368851913817
16.98,-0.2520001147157724,-0.1548958261835829,-0.32394940636212927
16.99,-0.49993998927150135,0.4049765742077239,-1.3958230316896678
17.0,-0.18282747251838383,-0.1587262635331249,-1.7922701538368961
17.01,0.1314750718347746,-0.7105166760709289,-0.7870398670081191
17.02,0.2679308578634773,-1.0304024169563544,1.027758530188525
17.03,0.4549585900131865,-0.6137529183220423,2.3304944009504975
17.04,0.7820841332868891,1.0805639439495105,1.9444132360595692
17.05,0.8024420439225071,0.581598626656849,0.663076069754359
17.06,0.1196971871578113,-0.3353911193348637,-0.44832868273102644
17.07,-0.4090993738698918,-0.7452681275372066,-1.5537246828034332
17.08,-0.2817268476680993,0.5412008274561444,-1.7512981870554343
17.09,0.38145287880325085,0.91922789537125,-1.2663123175531243
17.1,0.731731883699763,-0.07578642412970682,-0.49791732819045387
17.11,0.5698280271616173,0.11740420984374361,0.31762946379230694
17.12,0.5167254197532317,-0.731223977633775,0.6813689833178747
17.13,0.3315342929358749,-0.19896413594174311,0.7343784171424276
17.14,0.10872446807800265,-0.27285372481430104,0.6790764159910777
17.15,-0.057945059141881056,-0.5123229378033658,0.9246282579560259
17.16,0.11425078771408019,-0.24823765809032822,0.5051877939989611
17.17,0.5413689054763773,-0.016488580469496722,-0.397081449032821
17.18,0.734608987715706,0.46837808504277023,-1.1371273740799221
17.19,0.4656268493515363,0.4646364204826177,-1.4326600920904666
17.2,-0.08332747582135674,0.36627289716192135,-1.0636669359025355
17.21,-0.26231330710929873,0.3888799310993531,-0.5816361887684446
17.22,-0.13506625254202456,-0.01336078043760297,0.048483940123196345
17.23,-0.09771507436364824,-0.1988590662150923,0.8444277043143386
17.24,0.08379729338848915,-0.6794866263331655,1.0633868319355049
17.25,0.20929953285098593,-0.9050952694687584,1.0934999784496504
17.26,0.2558272004533714,-0.7896531059540621,0.6406751534263834
17.27,0.2049100140812615,-0.090420283855976,-0.2005538204314613
17.28,0.03316863805694131,1.6097484610601696,-1.2102090049623764
17.29,-0.29320240472335185,1.2383038413707879,-1.6647567863507897
17.3,-0.6939226421162124,0.15132670381075553,-1.217341740142731
17.31,-0.612535405161103,-0.9921584370825898,-0.5998009299712244
17.32,-0.15495003126360135,-1.0188651394281574,0.37579593711450476
17.33,0.4226950260961079,-0.006444081117006117,1.1706658303090849
17.34,0.6938328032510814,1.1088716959697988,1.4069052116712264
17.35,0.2849499181221761,-0.057971655097134756,1.2992134529326602
17.36,-0.4739948005646645,-1.1248394309031682,0.6832827140309645
17.37,-0.7904001665011803,-1.3579655164686273,0.1689826400828755
17.38,-0.33464007785482586,-0.8673507781881359,-0.2452415132959767
17.39,0.28737470648600727,0.8432505590868582,-0.42123719197139686
17.4,0.7461903278442419,2.8765275588248986,-0.9479650877744379
17.41,0.7030316629107771,0.9852464880933445,-1.84778940332956
17.42,-0.04426905493093514,-0.8896629427143874,-1.9593611909331938
17.43,-0.43326471268158606,-1.703864849959754,-0.5177210952285116
17.44,-0.015736685915566817,-1.27802238048979,1.2307274141528202
17.45,0.4588849956733194,0.1403890270248851,2.519493673861282
17.46,0.6570318761807317,1.065690511089844,2.288394346580383
17.47,0.5738927227452638,0.9677390839482409,0.9701315718004986
17.48,0.169835920348625,-0.4889789757620905,0.13844121255867425
17.49,-0.14021990123469,-1.1884025815983754,-0.8532522551469983
17.5,-0.05539513163144734,-1.2564512623836728,-1.0117601035726982
17.51,0.4411594630310709,1.1283252701123634,-1.2682446630420467
17.52,0.9592554979434287,2.6295397128551343,-1.601015877713138
17.53,0.5866721653462081,1.2419711432613274,-1.103667766960997
17.54,-0.2866860160581336,-0.22137351483868528,-0.6591170101874277
17.55,-0.6641217697682797,-2.1364475638590363,0.8142272630965663
17.56,-0.1441716777561345,-1.4133905706008272,1.7073649359839087
17.57,0.5026957386435611,-0.7819025394616885,2.264639212621346
17.58,0.6208027626569231,0.723103428398238,1.990493439810002
17.59,0.300516765392927,1.4140498629295526,0.8805292384542043
17.6,-0.2761377811213112,0.5139186162920761,-0.2060283255453949
17.61,-0.7040096045177945,-0.8128716069214283,-1.1903947694128085
17.62,-0.6142903019413576,-0.6463079270708998,-2.32587570768303
17.63,-0.002559191978011407,5.012215021072562,-4.106220692793256
17.64,0.30142883210548066,-1.8528125973908538,-3.367662823889781
17.65,-0.5644770093552433,-1.085581751507766,-0.4736017959020208
17.66,-0.8493332153432532,-1.455587130894395,3.2922735678708226
17.67,-0.06316068164768553,0.10119089257550233,4.144153222154942
17.68,0.605813054908158,1.9701231268677424,2.5007349770537273
17.69,-0.005842388402843526,0.23402616402608845,1.3462733012514045
17.7,-1.093033394067005,-1.3479633366029258,0.7166839133214794
17.71,-1.3215249407474192,-2.46597207918589,0.1859674455034779
17.72,-0.5825055630560828,-1.3803841492990716,-0.7349808053443193
17.73,0.5430407246395563,1.815440221220875,-1.7110430441188103
17.74,1.0042019021267163,3.9034455557916954,-2.0218640637330885
17.75,0.28363307694348433,0.7519887247272065,-1.659949860536933
17.76,-1.0432669587912504,-1.8609912462666764,-0.3340109734713787
17.77,-1.2399362229795563,-3.2310162557676505,0.8686937803709609
17.78,-0.29464268665985005,0.3018365630105576,1.1571267039542446
17.79,0.8193464766904283,3.1878807462563348,1.2832848109906436
17.8,0.9358944688277079,1.1560244997804767,0.9639292080437212
17.81,-0.01517429838873506,-0.480963541974612,0.20843857496910273
17.82,-0.3700867036865545,-2.687628421867292,-0.36977447947585196
17.83,0.07919059839060827,-2.841922862481515,-1.1222968796168329
17.84,0.4163920862414588,0.8229558964714367,-0.873461673053105
17.85,0.7005633759249945,2.721360367103083,-0.17121781086972604
17.86,0.4115193461758816,2.1466039200476223,-0.2453151156862723
17.87,-0.44564147030885726,0.8689801193044654,-0.8608502748289081
17.88,-0.8899546635280607,-2.8195967946724285,-0.15517542245985072
17.89,-0.7737744371463777,-3.021841523848977,2.056885634652926
17.9,0.3313511145547079,1.2443757470864782,2.289947140492414
17.91,1.6236017003161698,3.53844882255242,0.23480799949761422
17.92,1.062083773245331,0.9480847980348591,-2.2075665994000997
17.93,-0.7820865669529771,-1.5253013850941421,-2.299496727221817
17.94,-1.5038273311376724,-2.5131799888604993,-1.132469068637734
17.95,-0.6597392455903056,1.806224337626021,-0.9617698582281581
17.96,0.5012143747024015,2.352572864440872,0.010486967698465105
17.97,0.6213470972097066,0.21943343492466275,0.750462971105725
17.98,-0.09770574285352876,-1.309464457069054,1.5974345875671099
17.99,-0.2004896240597168,-3.229653684913182,2.3504173938896593
18.0,0.3239415031224163,-1.2503032094598452,1.3778239533669223
18.01,0.940141855708446,3.2084155761578868,-0.7957098979405559
18.02,0.6510002622025297,1.3172999689145137,-2.038770427153899
18.03,-0.5683237423621755,0.26405163666823195,-2.6497679539748793
18.04,-1.2020731892493424,-1.1192880082297756,-1.7647266037018687
18.05,-0.4482819931000599,-1.5920373558858203,-0.6610544672844736
18.06,0.7280724185059053,1.587138925203534,0.5227182431818611
18.07,1.7103926736056303,2.2634783695498766,1.2021258949447704
18.08,1.6495652456144887,-0.039060704366381344,0.7813793221053662
18.09,0.5209646679955727,-0.7180473424235635,0.24336674625882382
18.1,-0.024726170128119777,-0.22632871205291788,-0.5618820268327038
18.11,0.1889823253105553,-0.08455039575801213,-0.7017322103557406
18.12,0.2926349200167236,-0.4827257035912078,0.08350433711207392
18.13,0.31351592034101317,-0.3721815731304645,1.0506392657807218
18.14,0.7954122020215731,-0.9744109782347667,1.812946786784015
18.15,1.3551207231045308,-0.27777435215264634,1.4641498203611936
18.16,1.4678343111846408,2.040102961018019,0.18285641672929104
18.17,1.017782504152218,1.677088415678729,-1.043101152719922
18.18,0.04000017735221029,0.7334430147234156,-2.0958839187423948
18.19,-0.6980058380374983,-0.14180933573108073,-1.9429483495646158
18.2,-0.43685330025858304,-1.7055050476007414,-0.6263439182318221
18.21,0.2952589669247775,-1.5453521792884695,1.3556199805675968
18.22,0.9499010030617419,0.3133206258698118,2.5734786557852876
18.23,1.30223665963063,2.8640729092177644,1.7700543544544884
18.24,0.883660794009945,1.6842418043272012,0.2972806627951151
18.25,-0.31305049564994686,-1.3256314788282442,-1.0795580577119404
18.26,-1.1734610177783162,-2.3790804707998956,-0.9632494000252079
18.27,-0.8244481217681043,-1.4071234523574743,-0.3207753689795037
18.28,0.23851087645060176,2.0043712634801216,0.002516530833582272
18.29,0.9467331739425326,3.463232572229185,-0.14404167968487194
18.3,0.4360335631707315,1.9872298299080493,-0.6760042553459947
18.31,-0.7476581758057457,-2.1565219762924333,-0.5811637016374411
18.32,-1.3475071786605564,-2.88406906818786,0.3534919092166572
18.33,-0.8009395006426239,-1.34298279955836,1.335304000605019
18.34,0.16553739147277885,1.3498765137510038,1.5825236164662178
18.35,0.5010299376415644,3.207193764215705,0.9506041335871648
18.36,-0.12578348398704875,1.9866283508062674,0.420396193147896
18.37,-1.0384613920178543,-0.48990453261660244,-0.36535159763848274
18.38,-1.2372737779128218,-0.4386170587691629,-2.1380582124151335
18.39,-0.5913218312219415,1.079118546509386,-3.365997818440754
18.4,-0.18874800618483528,0.23671614971176957,-2.286850280938904
18.41,-0.5168014773073479,-0.26716521461617393,0.0713192721392274
18.42,-0.8935706324734202,-1.3460463531629947,2.379687112241638
18.43,-0.7787494030971189,-0.7196058944671094,3.3469878117992273
18.44,-0.2731273621171699,1.014278279187234,2.552134372017924
18.45,-0.09359214634871973,0.8102275746602475,0.829692858762848
18.46,-0.6990597622800614,-0.36658925999566666,-0.4160926652319914
18.47,-1.3122358379940917,-1.408287679626001,-0.7756423362699731
18.48,-1.133919850638399,-1.7681305587360965,-0.9712348874311875
18.49,-0.4464374021756335,0.8369544850422397,-1.303447095674577
18.5,0.04455063409765027,2.971190794770597,-1.4447342409377673
18.51,-0.3572221737675325,1.1986221832586226,-1.260060170883758
18.52,-1.3587954678626866,-0.3831272017099647,-0.8239639452657042
18.53,-1.6025186073775157,-1.6752525168451453,0.16385549631532298
18.54,-0.959268388864204,-0.995791591904799,1.3748975350236292
18.55,-0.30876638084804636,-0.2189975611701967,2.196201105667047
18.56,-0.21435132752853303,0.0897606998033526,2.044121810623669
18.57,-0.39579084222380073,0.21459306034919357,0.8017754854295828
18.58,-0.5462932722616015,-0.012272412465709537,-0.7673608904445857
18.59,-0.7115474306518159,-0.07098010851046668,-1.7992627245162844
18.6,-0.8172586737355951,-0.6708775622098513,-1.758779094900703
18.61,-0.7631943540021796,-0.2583779699141805,-0.8813632116503352
18.62,-0.3991947491253053,1.002771500924651,0.08189197558139893
18.63,-0.023532758626144124,0.95193380288899,0.9199160279004366
18.64,-0.1487684474654156,-0.05433456905332684,1.4878076976036914
18.65,-0.40824437315087825,-1.32733156188213,1.5264353603959129
18.66,-0.25534002325739524,-2.1540580964454126,1.0028356311458357
18.67,0.140148492924748,-1.443353037364559,0.23276870995552928
18.68,0.33247382268433834,0.2238023865549027,-0.24413644358839298
18.69,0.21190761847672152,1.2111185949875782,-0.5078023164773041
18.7,-0.08231453638309248,0.9886647701372355,-0.957637499344175
18.71,-0.308013829148758,0.30616451171218534,-1.4157469198025006
