seconds_elapsed,z,y,x
0.0,-4.633166581371427,8.594459152817725,0.9162083975978196
0.01,-4.51048464508999,8.65898474879018,0.9207730016960605
0.02,-4.399347560128922,8.715314120310305,0.9269955140915538
0.03,-4.300021791704122,8.763079114076657,0.9426331161522329
0.04,-4.213249125623736,8.802125627255085,0.9702531876694145
0.05,-4.140304267304923,8.832630060731065,1.0063804152903382
0.06,-4.0829631678899965,8.854457018106226,1.047967764166009
0.07,-4.0422168849766065,8.867652473061414,1.0934034339295318
0.08,-4.01557448283429,8.873565159957762,1.142496871393912
0.09,-4.001912486314366,8.873268894932004,1.1916817799448598
0.1,-3.99821763859249,8.86877636010117,1.2366811977905474
0.11,-4.000513179217481,8.86257604106473,1.2731751510286962
0.12,-4.002076114967986,8.857965794345393,1.300069447033507
0.13,-3.9966981151438055,8.857800704725145,1.3176388160881687
0.14,-3.9861751284022575,8.860830761638855,1.3290775275477047
0.15,-3.9778615869673333,8.863570124862084,1.3357087217108008
0.16,-3.980169094677933,8.862318120743216,1.3371523828724328
0.17,-3.9983097132525445,8.854538445787073,1.3345643674884762
0.18,-4.035187963687585,8.837291220624746,1.337834635687584
0.19,-4.094384896227435,8.806833773181024,1.3585967958949559
0.2,-4.17275200470061,8.76311811300626,1.4020231737213131
0.21,-4.26133919755865,8.710595832278857,1.461490001298265
0.22,-4.353170453869218,8.653403278984497,1.528986937660658
0.23,-4.444993229666793,8.59436989314618,1.5962581137716245
0.24,-4.53093312561805,8.537414060144934,1.659076483836773
0.25,-4.600626218279793,8.488083687372464,1.7193734822581188
0.26,-4.647388351104334,8.451533514465304,1.7729253713997164
0.27,-4.67057111088076,8.431479157745425,1.8072496759651515
0.28,-4.672671236338036,8.426494852465732,1.8250159178804586
0.29,-4.6513852574444705,8.440233450998848,1.8158656679471377
0.3,-4.6121440408120185,8.469975336174134,1.7769654896401499
0.31,-4.571855948683333,8.502541503427166,1.724757008755031
0.32,-4.54378054637111,8.526039104995933,1.6824985998732414
0.33,-4.53276144918393,8.537364876998721,1.6546268085283817
0.34,-4.538564908141534,8.53906317234317,1.6297684331199658
0.35,-4.557488805017099,8.534472551445194,1.600726332347322
0.36,-4.58547876346284,8.526678118561907,1.561814960906831
0.37,-4.620663337783417,8.518000320829756,1.504330799628645
0.38,-4.660813810517689,8.509840669383426,1.4243758394835642
0.39,-4.705471022075597,8.501616491011013,1.3228734594189566
0.4,-4.75295116566911,8.492070411194108,1.2094697225429996
0.41,-4.801944322590623,8.479682554009283,1.0976981684299048
0.42,-4.851020152300963,8.46388306476645,0.999616825687513
0.43,-4.89831919692327,8.44567551337831,0.9199700492495926
0.44,-4.942267540673785,8.42676655230556,0.8562670234214513
0.45,-4.983997330204527,8.407354836397465,0.8037009747305719
0.46,-5.025829236403304,8.386818688961371,0.756400127273286
0.47,-5.069907576032331,8.364437439590267,0.7085121083190224
0.48,-5.1149350229603145,8.340775050506451,0.662319858058753
0.49,-5.1564282814174085,8.318196396916386,0.6235013964446185
0.5,-5.192417071882209,8.298101294547438,0.591885395215215
0.51,-5.2269198389592315,8.278359105487137,0.5640422036401382
0.52,-5.267966472249067,8.25392991583537,0.539587332082716
0.53,-5.322981156899873,8.220209775340829,0.5134825120694995
0.54,-5.393580224675752,8.175979362911011,0.4814564734329368
0.55,-5.472164207383263,8.1257576202686,0.4430420617033944
0.56,-5.549589508870558,8.075480566690116,0.39673826779221394
0.57,-5.618319294555783,8.030197537702929,0.3455287245974946
0.58,-5.671583232383574,7.994738252856631,0.2945363653343843
0.59,-5.7064380181187175,7.971504416236101,0.24809865980929446
0.6,-5.725871153059551,7.9587701490487195,0.20598314115472263
0.61,-5.734985380890288,7.953108096500465,0.16788793098861726
0.62,-5.742908744881602,7.947957281477547,0.13874409960313977
0.63,-5.757730192321615,7.937505409813214,0.12201450905561428
0.64,-5.784610140496676,7.918072799746305,0.11222850042933105
0.65,-5.824298470184551,7.889027027632407,0.10332103967424443
0.66,-5.874945522211973,7.851523174594836,0.09048676101992717
0.67,-5.9331119650385284,7.807865764616731,0.0686265634040173
0.68,-5.995459610177689,7.760296375199088,0.03656447856585301
0.69,-6.059225185384792,7.7106927338009905,0.0006020315725461847
0.7,-6.124855732547703,7.658595257272045,-0.03160187882724939
0.71,-6.194770615254,7.602029766227373,-0.052677548944640454
0.72,-6.271101461668237,7.539110448936485,-0.05997109567837708
0.73,-6.349903341559509,7.472878032293555,-0.056531661605892854
0.74,-6.422437225323444,7.410724088923177,-0.04708802419157534
0.75,-6.482892288614799,7.357985221023276,-0.03758874756695436
0.76,-6.5316753657278515,7.314786616748686,-0.028210358110257336
0.77,-6.576873520430679,7.274210107579268,-0.01739163391638418
0.78,-6.628260352014061,7.227414126563526,-0.0058915267890735585
0.79,-6.689944765314152,7.170317683148018,0.005955312275648498
0.8,-6.760629318225504,7.103660016494961,0.017490914530219632
0.81,-6.839718752073532,7.027483377405092,0.024370694300314973
0.82,-6.927208759622446,6.941214732138843,0.02317195304704655
0.83,-7.0186715229057075,6.848706290107829,0.01932042678951488
0.84,-7.1119183915765385,6.751805330904122,0.02022107464984961
0.85,-7.2082724220961305,6.648776592483513,0.027375548696293203
0.86,-7.308177990132383,6.538696202340986,0.04037892816040093
0.87,-7.416458910389226,6.4153661780899345,0.059934477601955485
0.88,-7.539840996815456,6.2695343198432845,0.07593570991204049
0.89,-7.674791385858934,6.103380961582602,0.0810756398101481
0.9,-7.809047991656139,5.930646989855213,0.08086639022962257
0.91,-7.934937069768546,5.761183202973566,0.08229190295924975
0.92,-8.050102303828286,5.599083516385888,0.09144541911144535
0.93,-8.153224901942021,5.447603601556676,0.10975650996165895
0.94,-8.241813384092152,5.31234132492927,0.12933099629702563
0.95,-8.318304216980183,5.191195914090465,0.1528774741052125
0.96,-8.380289890603095,5.089522093444163,0.18685063954520695
0.97,-8.41049401071531,5.038165874236819,0.224267851512652
0.98,-8.405163201199978,5.04528373170144,0.2611626762719221
0.99,-8.371355961944925,5.098989171763488,0.29889753513623124
1.0,-8.310345863629951,5.194288135990813,0.3511976484512126
1.01,-8.224915898606755,5.323028491523456,0.4229607611324422
1.02,-8.129591183877372,5.460198453605572,0.5082085593491795
1.03,-8.034937076689927,5.589178257062906,0.6029579628751625
1.04,-7.942670352685136,5.708006267638576,0.7040484510926691
1.05,-7.85477839900849,5.8157089886129185,0.8025682847546668
1.06,-7.7742022987461965,5.911152776809556,0.8864300681838169
1.07,-7.701405435908143,5.995638095693867,0.9526432140525355
1.08,-7.634851181919525,6.071427754032813,1.007175199801182
1.09,-7.574273836166313,6.138282429819713,1.0582617903770948
1.1,-7.519319714734666,6.195884953082245,1.1131620171200198
1.11,-7.464371635625646,6.250917748597606,1.1735407672406468
1.12,-7.4017398431261485,6.313042263467847,1.235773617118997
1.13,-7.329293414970218,6.384249235950421,1.2998278741073843
1.14,-7.249882160171848,6.4601199851448525,1.3683262971516277
1.15,-7.162657069182406,6.541439395245889,1.4392613753745997
1.16,-7.064924336339773,6.631864494399874,1.5066562738570715
1.17,-6.95723011665774,6.731026033566065,1.5666501656875744
1.18,-6.838099008204112,6.840119398529271,1.6174811043689337
1.19,-6.707553909624031,6.9580369670460955,1.660299945272266
1.2,-6.570371026500891,7.078533483750201,1.6989747928220096
1.21,-6.432815575346749,7.195049538449497,1.7356725896473237
1.22,-6.299015454529722,7.303675633030176,1.7725327192779268
1.23,-6.1721318072196,7.401855384984326,1.811487485651238
1.24,-6.056981264863737,7.486913404312011,1.8505976158809245
1.25,-5.959497701514143,7.556810668496653,1.8831628838365617
1.26,-5.881596345609928,7.611876284254111,1.9064866959528195
1.27,-5.816501908630634,7.656642509045301,1.9269347556390455
1.28,-5.753589907363821,7.6972012984053615,1.9539802794673873
1.29,-5.684583643343521,7.7399548982570865,1.9866871691586077
1.3,-5.606011905440063,7.790175597963506,2.013376485386764
1.31,-5.517838261892288,7.849788710448443,2.0252268830062166
1.32,-5.422487708981142,7.91647161263164,2.023093328950825
1.33,-5.32653964486579,7.984536265427435,2.0105070988300935
1.34,-5.240569179815542,8.046309636301425,1.9902797531103538
1.35,-5.174018989135403,8.093718157893608,1.972407383638097
1.36,-5.123984733881088,8.125468130576266,1.9726155461657098
1.37,-5.067689727843773,8.155924068026373,1.992046038316116
1.38,-4.9825874066951386,8.203748209064711,2.009792368511195
1.39,-4.875938244876028,8.270003556758361,1.9995104789299518
1.4,-4.775602636128544,8.34061453187233,1.9477084024423903
1.41,-4.69864224467309,8.402777126513435,1.866180960538131
1.42,-4.638910474461935,8.452734056315078,1.7888100408461491
1.43,-4.582295796879199,8.494130184292912,1.738149131127206
1.44,-4.525830153499941,8.530268531608394,1.7089742919882376
1.45,-4.475107690582324,8.561293457277603,1.6873722877509818
1.46,-4.435282813071429,8.586878331973772,1.662398950207546
1.47,-4.408087747943156,8.607463436810402,1.6279213341940009
1.48,-4.391438120193348,8.624097298907902,1.584278906035177
1.49,-4.381609420731731,8.638052599177637,1.5346613513490974
1.5,-4.374646659431616,8.650858355746518,1.4814517004040781
1.51,-4.367573715172667,8.663535217088961,1.4272574733169792
1.52,-4.358289241516099,8.676602642291963,1.3753432502609448
1.53,-4.343775111734896,8.690942578775228,1.3300294540670607
1.54,-4.322611920736619,8.706654461417875,1.2958298791455733
1.55,-4.298957699176535,8.721808482009578,1.272447220908616
1.56,-4.28017087987994,8.73349127840089,1.25559931846868
1.57,-4.2736584227451475,8.738374135564058,1.243805334777386
1.58,-4.286488435659919,8.732460709928104,1.2411104311658891
1.59,-4.324839865589999,8.71119899656157,1.2569816821887319
1.6,-4.399298212570474,8.667426555744008,1.2993041638303857
1.61,-4.522943578156111,8.593437924319204,1.3627116719768846
1.62,-4.689032076738962,8.49116064647189,1.4388644533988535
1.63,-4.8618737983287685,8.37623970794069,1.5355870307638326
1.64,-5.016145916464607,8.261929646373291,1.6543490205074367
1.65,-5.160300841261697,8.151890683598669,1.7547408459167406
1.66,-5.290988867240876,8.06202794494181,1.7818132668744224
1.67,-5.377752604765187,8.016125313666578,1.7289484002029931
1.68,-5.413587314523701,8.010466836108487,1.6412910442472646
1.69,-5.421947101220391,8.02315677100207,1.5490214822635708
1.7,-5.420394869751842,8.042298576461354,1.4521292098740655
1.71,-5.428321154537397,8.053278373704423,1.3588266180272346
1.72,-5.4669325881914,8.040157728671328,1.279308125162706
1.73,-5.53312592244371,8.004239281491941,1.2184163221421556
1.74,-5.609538653663338,7.957767252244375,1.1725684766298905
1.75,-5.686037748760459,7.909372272873409,1.1308358382319637
1.76,-5.758978625163792,7.862598830317549,1.0871701523831372
1.77,-5.825959315576356,7.8189754666352655,1.04422907755717
1.78,-5.8860732972193075,7.779183953304783,1.0036595767748786
1.79,-5.93957582234189,7.743435418286187,0.9642512851311841
1.8,-5.98777622930446,7.710827989166789,0.926812422093399
1.81,-6.0346898046753825,7.677881066549089,0.8955623790665285
1.82,-6.084958189275037,7.640720215290132,0.8728504130757564
1.83,-6.1414234656181526,7.5976360489922525,0.8530603297860083
1.84,-6.204564096328998,7.5491172531580295,0.8262042783522947
1.85,-6.272197331006041,7.4976923391805546,0.7823090786190001
1.86,-6.341718635820006,7.445552105890607,0.7165219604985358
1.87,-6.413881691459949,7.391475664091435,0.6277008966973039
1.88,-6.490920544425997,7.3322120481939725,0.5210683303261479
1.89,-6.574249332800729,7.26477175530535,0.40822990080904265
1.9,-6.66792262775423,7.184156782995193,0.30049480948391816
1.91,-6.775490225999238,7.086092526851113,0.20704395743385318
1.92,-6.8916203707473676,6.97501709714131,0.13511806605620236
1.93,-7.002668974364431,6.8643839541061125,0.0902274371071722
1.94,-7.102079529997131,6.761799653842661,0.06728823807120365
1.95,-7.198204831480509,6.659412137255231,0.059117805302084964
1.96,-7.301879300487649,6.545354796319459,0.06877959658423909
1.97,-7.41726473879693,6.413817450634534,0.09551485409967488
1.98,-7.541794758984448,6.266376260153134,0.12247023252002014
1.99,-7.669427263374424,6.109250138635051,0.13335670879023112
2.0,-7.798723096187636,5.943261157844725,0.13050486694845667
2.01,-7.932617285656172,5.763433142739151,0.12126193490589256
2.02,-8.06714578400833,5.573821089433184,0.1093086794204361
2.03,-8.193495051936452,5.3868023536544305,0.09721869513506784
2.04,-8.30116972942057,5.2197510897899155,0.09277730693730823
2.05,-8.385297478259767,5.083478247197926,0.10646324321212627
2.06,-8.446310332370125,4.980860249962859,0.1385937875193787
2.07,-8.484594105608252,4.914185131318803,0.17859785756839378
2.08,-8.507297524331701,4.8732075640950265,0.2179702979160226
2.09,-8.524782762704346,4.840608987083622,0.2575353767701223
2.1,-8.541056977177401,4.8094836238721035,0.29847141194880444
2.11,-8.552029257156434,4.787423611775048,0.3368661374583435
2.12,-8.553632735791254,4.781982936953909,0.37166859789587137
2.13,-8.543831042267898,4.79685039953557,0.40391350341031235
2.14,-8.523729821354163,4.829724471924345,0.435198145366006
2.15,-8.495988735827932,4.875274810109699,0.4682722411147121
2.16,-8.464380731151262,4.926239864444156,0.5057056127436953
2.17,-8.431923327800568,4.977242055899799,0.5468867422457523
2.18,-8.398969004955811,5.0280367815460005,0.5877830883093255
2.19,-8.363453796069193,5.082082270174406,0.6277778119292651
2.2,-8.321929713462396,5.144352433045764,0.6705393061935587
2.21,-8.270423054336907,5.220608899263332,0.7163075288388786
2.22,-8.208132724781457,5.311315597525258,0.7639692181720048
2.23,-8.139780715280654,5.407383118415163,0.8191996229236678
2.24,-8.069358540307,5.501050110824758,0.8890210045040576
2.25,-7.9953672786172225,5.594864690539083,0.9684444567602554
2.26,-7.918377719895131,5.689380592233033,1.0472281621240982
2.27,-7.838363910980569,5.785215429084815,1.1213808421223685
2.28,-7.752282003565708,5.885957952054757,1.193134234636546
2.29,-7.66202779829183,5.988458342226958,1.2640169641676318
2.3,-7.57089724453754,6.088492042482428,1.3334731842781289
2.31,-7.480168227620248,6.184777878804314,1.4007479939860612
2.32,-7.388408655999535,6.278898559687142,1.467401389914996
2.33,-7.293559454676867,6.373073317219863,1.5343290628440305
2.34,-7.191832995835745,6.472739046026423,1.5958980685883166
2.35,-7.079332303851948,6.583303324471559,1.6456854279644517
2.36,-6.956521121667367,6.703785204965557,1.6825274636588512
2.37,-6.828500726229821,6.827051716477506,1.7111582308547162
2.38,-6.702888535978957,6.944179776718414,1.7365335384424183
2.39,-6.5849121351577,7.050161147143625,1.7609016227179939
2.4,-6.473063600970032,7.1468338030202885,1.7857896619935039
2.41,-6.36113100663677,7.240130080454335,1.811967927662231
2.42,-6.24416691825584,7.334509446084588,1.8389443973211161
2.43,-6.120343862256859,7.431478809907422,1.8656606875856974
2.44,-5.993469855554585,7.529061597646009,1.8863108301502918
2.45,-5.872323198467914,7.621546637567457,1.8961019322304455
2.46,-5.762901819537893,7.704494152453847,1.8967853409568496
2.47,-5.66735269525297,7.7765228735090215,1.8909097529661343
2.48,-5.588139899132693,7.8363928667032186,1.8796189077844816
2.49,-5.524107567772837,7.884396162593697,1.8682214152964238
2.5,-5.469993415977519,7.922916495017163,1.8645188017926901
2.51,-5.421423562055205,7.955006836339495,1.869757210787494
2.52,-5.376485946961521,7.982439037655986,1.8825752762932326
2.53,-5.331788031958323,8.007911493159261,1.901406696880285
2.54,-5.286247276540029,8.032211399425439,1.9259272303449377
2.55,-5.247761528188897,8.050214345116187,1.955810738164775
2.56,-5.223204308989746,8.058111819857311,1.9887610280775756
2.57,-5.214271554297802,8.055823158001674,2.021229149611751
2.58,-5.220148934344314,8.044541917605109,2.05075959308375
2.59,-5.23898972613318,8.026004027406072,2.0751901813226246
2.6,-5.26665121057005,8.003784919549934,2.0909343731466423
2.61,-5.29742105576262,7.982658230504648,2.0939742397030043
2.62,-5.325422008041014,7.9665439253429335,2.084304317343609
2.63,-5.346530907279922,7.956079294714398,2.070199398674969
2.64,-5.3611874520327305,7.94990471519465,2.055979881976774
2.65,-5.369764780019759,7.948354034215721,2.039523914911927
2.66,-5.375314219662579,7.949697059892497,2.019557682136539
2.67,-5.383532951407394,7.949957543392603,1.996506468833598
2.68,-5.395943224229069,7.94921745951225,1.9656890944975918
2.69,-5.411294957874029,7.9507615645281495,1.9165605112503057
2.7,-5.427901972981632,7.955092349056498,1.85048306153484
2.71,-5.442669750687803,7.961372815813608,1.7787104689681943
2.72,-5.452099519354553,7.969706956934415,1.7112710983101176
2.73,-5.457409879500634,7.978518219373872,1.652280208178881
2.74,-5.461815706495014,7.986233921289727,1.5996339652910367
2.75,-5.468980737785474,7.990976827351458,1.5507047546974517
2.76,-5.483459640275697,7.990597610891204,1.5007085084461333
2.77,-5.5080700012299895,7.983802573184901,1.445712465831317
2.78,-5.542580637291536,7.97110528830786,1.382466869262207
2.79,-5.583967776671324,7.9535914795248,1.315132569129126
2.8,-5.631229879869955,7.930657311475359,1.2505325217714223
2.81,-5.680510935969549,7.904500941224999,1.191919826470493
2.82,-5.728828706257192,7.878252995149832,1.1329610249547686
2.83,-5.775837432616455,7.852901849418535,1.068443936838706
2.84,-5.82037647779036,7.82894895988622,1.0003784103081645
2.85,-5.863782149296771,7.805091631976429,0.9308983643847535
2.86,-5.907014388395793,7.780388363695235,0.8618904484352816
2.87,-5.945457627140663,7.757697705261875,0.7999021793910297
2.88,-5.9812393787597244,7.735224709459333,0.7492265287440295
2.89,-6.015765247214244,7.711985548305702,0.7114317830285436
2.9,-6.052795371886817,7.6852554386889755,0.6861309543419717
2.91,-6.098321104406722,7.650655392292795,0.6694733933413394
2.92,-6.155920906579216,7.6059087035277,0.6518328729174043
2.93,-6.225079929102114,7.551605204682442,0.6258640027272446
2.94,-6.30375728676082,7.488886887752943,0.5909477926137751
2.95,-6.392112095802311,7.416799485104251,0.5495412605025475
2.96,-6.486639675445632,7.33710499871833,0.5103693486319851
2.97,-6.584772178754934,7.251536613224895,0.475537784994647
2.98,-6.685803908422576,7.160374404957935,0.44631549198294795
2.99,-6.785854808224855,7.067603918438788,0.4139214697112835
3.0,-6.88556292120024,6.972436830639339,0.38000031282309416
3.01,-6.991298050386435,6.868087828228626,0.34847301649061707
3.02,-7.105174101998305,6.751573820339457,0.32107589179562146
3.03,-7.223964936499992,6.625724210659504,0.290530877975636
3.04,-7.34365201202857,6.494380401162428,0.2527854306290994
3.05,-7.466933358223343,6.353641333523516,0.2147144841396364
3.06,-7.5920975887697155,6.204445593651,0.18643746204960499
3.07,-7.7097558683319285,6.058041659899606,0.17194045386692333
3.08,-7.8169139865152655,5.919389447101207,0.16271272621890198
3.09,-7.918438710012379,5.783299064305904,0.1467386373348351
3.1,-8.02327098450266,5.6374385668097515,0.1261312889346891
3.11,-8.13142901753213,5.480677084633167,0.10646225931909692
3.12,-8.225513947494951,5.339051022367253,0.06961912053653613
3.13,-8.297657282282081,5.226697384453329,0.011146518411553267
3.14,-8.356534956881813,5.131787341687302,-0.05280404506002796
3.15,-8.404425372606317,5.0521737241758045,-0.10525321252868514
3.16,-8.440869633115739,4.990264291612286,-0.138414649931398
3.17,-8.464263843249254,4.950355090142948,-0.1433435229656398
3.18,-8.473905191691872,4.934471789733999,-0.1195459176981138
3.19,-8.473484150985035,4.936087905666362,-0.07299990173764746
3.2,-8.467612098728601,4.946665774949664,-0.013621273209554608
3.21,-8.457451169214844,4.96370481809981,0.05650146027892177
3.22,-8.436901742396168,4.9970271739573775,0.1354202665393204
3.23,-8.396519533034635,5.061759624190751,0.2158728894945583
3.24,-8.33617658377711,5.156669142797208,0.29322110622546915
3.25,-8.262779337556982,5.2686059264247564,0.3699924014647217
3.26,-8.183167865607263,5.384996974184933,0.45378438128029813
3.27,-8.100529987092017,5.500251583217559,0.5448517639472383
3.28,-8.017339563229749,5.611584465968564,0.63297105767208
3.29,-7.933207652552065,5.720256882574298,0.7149633129085294
3.3,-7.84648836759099,5.8288662955399735,0.7907175207286969
3.31,-7.75751905274663,5.937113064248026,0.860135946071551
3.32,-7.668564814931726,6.041596064233723,0.9276436907048546
3.33,-7.583907833142654,6.136782651265899,0.9963673865191504
3.34,-7.504210933086977,6.222948355496896,1.0631887252024306
3.35,-7.428211891088327,6.30182546717041,1.1302370238814239
3.36,-7.354099095072441,6.3752582744136586,1.2008817480841285
3.37,-7.276350530445024,6.449077086073236,1.2777591630031517
3.38,-7.191973034574076,6.525986880648832,1.36205060957932
3.39,-7.09951598703299,6.608172085955421,1.4480230704284
3.4,-6.9957268642348565,6.700137264379329,1.528207652639251
3.41,-6.880428275161525,6.80143007432007,1.602258284355525
3.42,-6.758031666379132,6.906112100254992,1.6737270176820296
3.43,-6.633156937357066,7.008933181510351,1.744357492404093
3.44,-6.512117622622887,7.104221849303286,1.8136477436602925
3.45,-6.400080145025495,7.189017894079815,1.8773833172840932
3.46,-6.300826212601561,7.262685761890687,1.929044990362458
3.47,-6.216137961871937,7.324512311965612,1.9697662808370664
3.48,-6.145184406645029,7.373859090117254,2.0080448703716476
3.49,-6.085920114610075,7.411348979053105,2.0501259547847472
3.5,-6.036790676368692,7.4375666479178,2.0998547794026043
3.51,-5.9966042070793435,7.4550666482467935,2.152314217173643
3.52,-5.96851173363169,7.464998673817993,2.1956062702075196
3.53,-5.950539935401493,7.471133868741758,2.223392775823807
3.54,-5.933775881409141,7.479952165233371,2.2385173272794088
3.55,-5.909531555994873,7.496803225586867,2.246248112008242
3.56,-5.871778389802222,7.525882470206569,2.2479571500471005
3.57,-5.821185935775956,7.566727642426836,2.2423511511900998
3.58,-5.767278156860227,7.610021387710581,2.2351198101264416
3.59,-5.721835886224919,7.644245739581412,2.2351906169118383
3.6,-5.691283982616002,7.665577114456388,2.2401905016781476
3.61,-5.673588899696854,7.679345779437988,2.237935706439653
3.62,-5.663932389350999,7.69017468881564,2.2251688283468494
3.63,-5.6611131679964615,7.6985886423614245,2.2031294026388317
3.64,-5.664597820389605,7.704656840958106,2.1727358785934623
3.65,-5.673816766151349,7.707732034619057,2.1374771526500367
3.66,-5.688635817786158,7.70600323517217,2.104065196327422
3.67,-5.709527761294559,7.69787701000088,2.0770496251954573
3.68,-5.734920775525892,7.685150752884301,2.0540801949103438
3.69,-5.762383223155396,7.671771283842236,2.0270567136575455
3.7,-5.791196629034009,7.659296362600134,1.9917765305446669
3.71,-5.820703946259698,7.6484200023014814,1.9470148874054014
3.72,-5.84953148581279,7.640104687647036,1.892470747784654
3.73,-5.876386090317127,7.635198145902817,1.8279130523714386
3.74,-5.900238481414207,7.633952058139098,1.7547607157182956
3.75,-5.921337369633619,7.634105002493506,1.681524237528651
3.76,-5.941658036886534,7.631789727187295,1.6193018534338024
3.77,-5.962359315663418,7.626502522188577,1.567338522942757
3.78,-5.983488787770116,7.619879303365707,1.5182619143425962
3.79,-6.004699995936626,7.612643796179984,1.470063143158816
3.8,-6.026042605700727,7.60447499811793,1.4243088644844122
3.81,-6.049840720710705,7.59367996554951,1.3803449258301148
3.82,-6.07946290118091,7.578081032737486,1.3351325870578012
3.83,-6.122306975244043,7.5522184837768025,1.2847661582837535
3.84,-6.190649739245824,7.505526488529644,1.2292162774694289
3.85,-6.277743497992835,7.441642545007076,1.1743438084540032
3.86,-6.364353506175797,7.3766364247117995,1.116987310151344
3.87,-6.444960989164307,7.315490152011272,1.0553027484482136
3.88,-6.519081982637583,7.257555215655005,0.9987444270070684
3.89,-6.5880707183424905,7.200834972726269,0.9558994401621121
3.9,-6.658255887380131,7.140571496098664,0.9209562176953269
3.91,-6.736690138356113,7.071177227548157,0.8849006146633378
3.92,-6.8292801043547335,6.9866475420613865,0.8449874520860748
3.93,-6.9382671896351855,6.8834843178399865,0.8017314458725939
3.94,-7.059692474442514,6.763467350019115,0.7613641678045512
3.95,-7.186170484123446,6.632386856848993,0.730277066608678
3.96,-7.308365330023848,6.499613720922864,0.7115206039572796
3.97,-7.41925961693541,6.374605223573049,0.6954304283598443
3.98,-7.5190533180685675,6.259825029901659,0.6662135855932584
3.99,-7.613389078044521,6.150011766724286,0.6154780364953131
4.0,-7.708747542773267,6.0362161769322284,0.5510307573173047
4.01,-7.809475677691194,5.910650383106844,0.4897236711277479
4.02,-7.91620015247323,5.770996905404722,0.4381260879279175
4.03,-8.024116785818368,5.623705259496701,0.3868800378650576
4.04,-8.127738332462547,5.476965861881074,0.3239472050243536
4.05,-8.222803278821841,5.3371152818572245,0.2523965034177198
4.06,-8.30614036937336,5.209293828719086,0.1898924588539427
4.07,-8.376658874010806,5.096680434358033,0.14823863556546973
4.08,-8.435896971226803,4.998730569311141,0.12637214975793581
4.09,-8.487025509474194,4.911637565305507,0.12002676037336923
4.1,-8.530844994716862,4.835105927632244,0.1232381157011863
4.11,-8.565557979079669,4.7732677483084025,0.12866719561662374
4.12,-8.59108989531723,4.727042194132625,0.13442550110000426
4.13,-8.6104345972086,4.691420841854836,0.1448441816406938
4.14,-8.6259187737873,4.662255015389283,0.16407597410528885
4.15,-8.636683249881035,4.64117534393687,0.19287401411465085
4.16,-8.641881113403212,4.629712952303184,0.23142682408225843
4.17,-8.642830117048995,4.6254096203532145,0.2773346923400869
4.18,-8.638605033357795,4.630157362152837,0.3255071833335263
4.19,-8.624660643818387,4.6522163229622056,0.3762198649618112
4.2,-8.598568733654309,4.695696576938512,0.4288003173510335
4.21,-8.56441181277321,4.752828847100661,0.4796503635266781
4.22,-8.528195062184,4.812562710479242,0.5271128494763543
4.23,-8.492347446019304,4.870784964557808,0.569528730305142
4.24,-8.457795798076612,4.926474543952876,0.6038726034752679
4.25,-8.423164745917969,4.98192883106009,0.6323138112565024
4.26,-8.383680956455173,5.044944109719713,0.6566177737680464
4.27,-8.334512615179372,5.1235040319496585,0.6733640333409204
4.28,-8.27457967988591,5.218588144364293,0.6815480261652643
4.29,-8.20714211249749,5.322940570145652,0.6895500774556238
4.3,-8.134375211965882,5.430826943631085,0.7098690477859073
4.31,-8.056551847297625,5.540617336655713,0.7475285432579347
4.32,-7.974983790648699,5.6499831758250245,0.8013473135139308
4.33,-7.891055004431794,5.756569560235096,0.8703993240146414
4.34,-7.805239562894608,5.859264939100219,0.9545688817409742
4.35,-7.715985937708273,5.959533594139075,1.0538384146124564
4.36,-7.620975092724384,6.060244858831808,1.1646366840026772
4.37,-7.5180108533824646,6.164756819407479,1.2793519723655815
4.38,-7.406443224966887,6.274601587326406,1.3910298950476403
4.39,-7.288453643509167,6.387336500315121,1.4970913381313253
4.4,-7.1686443162372635,6.497483100026337,1.5983543007013643
4.41,-7.054152128192998,6.598141765777512,1.6930880341962817
4.42,-6.94953548423165,6.687234521288076,1.7747193002129307
4.43,-6.853318812070884,6.769510753603397,1.8362117974446934
4.44,-6.761509010071971,6.8497407168474815,1.8786833558990845
4.45,-6.672972384625192,6.9265300588181695,1.9134885571541924
4.46,-6.591621627006248,6.994004896841043,1.9498711359571068
4.47,-6.52137071519911,7.048531165268624,1.9895304902146846
4.48,-6.461664291564931,7.091697152471828,2.0306422800046495
4.49,-6.41083310987137,7.127033053013887,2.06782789554049
4.5,-6.368922562280595,7.156723895633505,2.0947252303752584
4.51,-6.333379401496492,7.183157856928788,2.111970580803631
4.52,-6.296930653138061,7.210959973882956,2.126131312065947
4.53,-6.252920666494174,7.244492661216339,2.1418874340898064
4.54,-6.2002195223635965,7.284355701950546,2.1597473667787708
4.55,-6.141891803473756,7.328238859976413,2.1778355535580984
4.56,-6.081785885658399,7.372941247582265,2.195564482137716
4.57,-6.024067341641766,7.41497770858164,2.2131098253459958
4.58,-5.972712103017306,7.452212241603324,2.227274509163163
4.59,-5.93091829273356,7.483820482620686,2.233043175288723
4.6,-5.901488446891311,7.5078789556015355,2.230318028174544
4.61,-5.885452057453681,7.522271450012459,2.224236477725274
4.62,-5.880921118305672,7.527516292127014,2.2184785569621353
4.63,-5.884427268515084,7.526722157159824,2.2118636969725647
4.64,-5.893766884153882,7.522017099659732,2.202973829549988
4.65,-5.909705081903792,7.512090400708286,2.1940992777265365
4.66,-5.934469896886431,7.49437987003416,2.1877703302305838
4.67,-5.968920361162683,7.46819973639619,2.183513966044409
4.68,-6.010552210189849,7.4366946741070965,2.176799629424365
4.69,-6.0546113327180064,7.405428504260857,2.1612253899721123
4.7,-6.0976509819294185,7.3787582134583705,2.131196873780201
4.71,-6.137989572334639,7.358980268834452,2.083169994813819
4.72,-6.173676836949078,7.347041433080776,2.018800410192094
4.73,-6.20276451307718,7.341765858151236,1.9476141320530813
4.74,-6.224578665246223,7.340786914784074,1.8806510412899302
4.75,-6.23907633363222,7.343485153456229,1.82119929484516
4.76,-6.247338246600805,7.348994893260064,1.770010869172517
4.77,-6.251129909913854,7.3551400123920505,1.7307263420292582
4.78,-6.25150255987146,7.361457336669726,1.7023096575823662
4.79,-6.251759921091622,7.366905910873865,1.6776160960197657
4.8,-6.258864980858069,7.367131963379407,1.6498648164112732
4.81,-6.281080950424722,7.356073427992671,1.6142329615467703
4.82,-6.323167063813246,7.329286729701122,1.5709727553460606
4.83,-6.381657530582977,7.28753220717844,1.5279631598245036
4.84,-6.449218631904197,7.235769347135528,1.4897355689252734
4.85,-6.521069566947047,7.178298024594607,1.4545138622469895
4.86,-6.595776566182193,7.116662737080574,1.4200440343995075
4.87,-6.675023438675887,7.049126277927058,1.3860423476768977
4.88,-6.761440558741148,6.9727105735797,1.3530525451829645
4.89,-6.856552548560648,6.885977042461879,1.317777333223456
4.9,-6.959564802112728,6.790573197896398,1.2717099431967323
4.91,-7.065316024161955,6.691881513232362,1.2101258451837857
4.92,-7.168428780550231,6.594789674927483,1.1342991892600323
4.93,-7.2676933404086945,6.499300067950563,1.0507805736008273
4.94,-7.364625295730828,6.401742846633427,0.9719630418820968
4.95,-7.461238476364181,6.29877272239701,0.9056114364243062
4.96,-7.558016369399755,6.189935138000402,0.8520634093830668
4.97,-7.652460643175719,6.0786533189994545,0.8094149206269132
4.98,-7.742511642599824,5.968482145055691,0.7722368891355798
4.99,-7.827695415988223,5.861486769102159,0.732240917244278
5.0,-7.906582599767461,5.760041783375267,0.6888504623139365
5.01,-7.978228352116929,5.66523925439251,0.6481754559662333
5.02,-8.04399464265355,5.5756827794856685,0.6111041300824666
5.03,-8.104161466469247,5.491799405582491,0.5751555426130378
5.04,-8.156368594473298,5.417416709385861,0.5421855797912999
5.05,-8.202762794819824,5.350033323997471,0.5102777240334049
5.06,-8.250887709815036,5.279107586961579,0.47108210543262835
5.07,-8.30406370833365,5.198787944390007,0.4275545469906351
5.08,-8.360827479129547,5.11003534363899,0.389491871622414
5.09,-8.417354287553701,5.018543423038354,0.3608665721555075
5.1,-8.47011228733732,4.930498853149492,0.3401704973904916
5.11,-8.516293270213097,4.851418275616656,0.3246979691061997
5.12,-8.553935828414856,4.785608291534321,0.31243271920764315
5.13,-8.583596068804837,4.732712352583121,0.30519196608109295
5.14,-8.607031848621775,4.689761991724479,0.3084629456097236
5.15,-8.62403082916007,4.657678367146066,0.3198383759846728
5.16,-8.633489909322838,4.639171367625228,0.3335140429523534
5.17,-8.636051404289809,4.6330524995373406,0.3517325979242068
5.18,-8.632332328957197,4.638079724834876,0.37581890924006706
5.19,-8.622016940810841,4.655114501674338,0.40101523728238575
5.2,-8.605741093772915,4.682678370857103,0.4284917653610063
5.21,-8.584468005151786,4.718307698124346,0.4626937290683393
5.22,-8.558545002738484,4.761196216253252,0.5017759648011358
5.23,-8.52962641957721,4.808473518000982,0.5417574483724807
5.24,-8.499698189535648,4.856084844398873,0.5855351142445181
5.25,-8.468209071432574,4.904722659756788,0.6343012256431976
5.26,-8.432950121724097,4.959499961425105,0.6767081856813993
5.27,-8.393170895997194,5.02283701682105,0.7034313520479668
5.28,-8.349069299733824,5.093243170930508,0.721660377373883
5.29,-8.30169695619139,5.166457811278437,0.7470924055605134
5.3,-8.252650774181776,5.237754103993844,0.7925805932965696
5.31,-8.207128375566286,5.299043524590307,0.8556140673394503
5.32,-8.17096735483908,5.342860015104588,0.9262944017190775
5.33,-8.138947901566976,5.3767772732602115,1.0080603829828756
5.34,-8.10085330537776,5.416142083338241,1.0998296534991592
5.35,-8.048368975105433,5.476580273373779,1.1826480456462478
5.36,-7.980468754795654,5.563170981659791,1.2371350150745286
5.37,-7.9008336879156325,5.668798174276775,1.2682050926626827
5.38,-7.813854502261341,5.783007591760826,1.2912049015559415
5.39,-7.7250906384640965,5.8972232619638,1.308712372374445
5.4,-7.637416180317765,6.007292683678555,1.3226066296638723
5.41,-7.5469262696253026,6.116446140431984,1.3415964166681074
5.42,-7.45297403971464,6.223962543997917,1.3719590571823017
5.43,-7.35653511530184,6.3267497524464025,1.4212827110474278
5.44,-7.256713824507884,6.42400455146676,1.49606912106968
5.45,-7.155840254778278,6.512872348813568,1.5944884981441907
5.46,-7.060994215568089,6.587109777722048,1.7084226573934829
5.47,-6.975477306389978,6.646571442784799,1.8256390635562398
5.48,-6.899365688910231,6.695389874749084,1.9335465444307187
5.49,-6.831717162997693,6.738190345962814,2.023153205228275
5.5,-6.769457428605147,6.779088474954339,2.094615693563909
5.51,-6.7071660346045086,6.822374033932161,2.153667326643442
5.52,-6.644273237097978,6.867899804371566,2.2033826737262814
5.53,-6.58323164398158,6.912366205769438,2.2471359093527346
5.54,-6.5229184444421096,6.953722924632904,2.294874820483949
5.55,-6.461984130822572,6.990463245688594,2.354847750135268
5.56,-6.401348628075539,7.023617995068582,2.4209148403894534
5.57,-6.341383856045992,7.058401187475983,2.4769650300593167
5.58,-6.282606123261228,7.097841018215467,2.513801864527304
5.59,-6.2268399348420855,7.140346986965937,2.532137028775537
5.6,-6.17370264142235,7.1836315288063135,2.539817002468548
5.61,-6.121223804636514,7.227074772171413,2.5435885708694963
5.62,-6.07104845135535,7.269050749664566,2.5442578779876373
5.63,-6.026698195827593,7.3057499471411305,2.5446142023870997
5.64,-5.989832163537689,7.334444623983171,2.5491290140891523
5.65,-5.9626065602325005,7.356689230077282,2.5488733087094104
5.66,-5.952114063088028,7.371816954371646,2.5296006785127414
5.67,-5.964215289399444,7.375269485730264,2.490692922021196
5.68,-5.995442200760893,7.365824582256345,2.443207809328123
5.69,-6.036122163615228,7.348313010820465,2.395301302977724
5.7,-6.080697450972362,7.326926972601629,2.3475888490090746
5.71,-6.124747517734822,7.307215543005515,2.293893672900343
5.72,-6.1638680730041076,7.293640423337067,2.2314603916537297
5.73,-6.194103034844893,7.2875532223505415,2.166718717677131
5.74,-6.214014913219824,7.288991507480495,2.1039596734668122
5.75,-6.226151578636952,7.296086501640396,2.0426107307023886
5.76,-6.237369294762853,7.303045696383051,1.9826378456377052
5.77,-6.253670497680522,7.30512389931082,1.9227121171817043
5.78,-6.275925228554707,7.302966373904683,1.857246602136429
5.79,-6.301113669266122,7.299341288008209,1.7847990418610866
5.8,-6.330165587954785,7.2916744972315035,1.7118592226956826
5.81,-6.3660723274686575,7.2755141631268305,1.6462121186778018
5.82,-6.408021659618127,7.250045795123419,1.5950686235172877
5.83,-6.4503468161981345,7.21842321707119,1.5676709290292898
5.84,-6.4895868236882865,7.183849581002668,1.564519667603825
5.85,-6.530071651651,7.143828210156015,1.5792159553986065
5.86,-6.57863493724073,7.093933571666876,1.6023800114004925
5.87,-6.639740688958218,7.031667480816799,1.6246188206966425
5.88,-6.7102313764197214,6.962105063827309,1.6345542146620533
5.89,-6.783174997434356,6.89429141411945,1.6208689237996103
5.9,-6.853890374031413,6.832842714422738,1.5831609264546205
5.91,-6.919988023064798,6.779181411658964,1.525247731201078
5.92,-6.981903827143053,6.732007699637349,1.4501806943067643
5.93,-7.039035303722803,6.690800901799779,1.3620372483590037
5.94,-7.09292566269825,6.652198721920381,1.2683143347977726
5.95,-7.144244195121638,6.615011185742598,1.1710659968906314
5.96,-7.193688200978739,6.57799381488532,1.0728003551734855
5.97,-7.242886090752483,6.5390032144579715,0.9758015018994112
5.98,-7.290478295818759,6.498858853960091,0.8854573026478465
5.99,-7.3311461727451555,6.46220644263316,0.8151821947497746
6.0,-7.36596630104738,6.427894226928415,0.7713949170712929
6.01,-7.408109217656747,6.3822026198515,0.7468107498849137
6.02,-7.4683658979868595,6.313211431289019,0.7329556430844135
6.03,-7.545101842152068,6.221635584876847,0.7300987507516409
6.04,-7.630747786732409,6.116362954439993,0.729494665620512
6.05,-7.720921339129517,6.003482639627396,0.7182439822702935
6.06,-7.814012048132699,5.884570402536604,0.6951904791416179
6.07,-7.911252440460413,5.7569355914120095,0.6632082852497132
6.08,-8.01490948508168,5.615205347128072,0.632963014489008
6.09,-8.126367101006059,5.454079039410214,0.6204131942157736
6.1,-8.248070167376255,5.268193342887296,0.6203270053745423
6.11,-8.372949934850995,5.067768742669874,0.6168498394010377
6.12,-8.490019563675974,4.8696482088175665,0.6124331802106568
6.13,-8.594212904964946,4.684242984743848,0.6053201675176375
6.14,-8.682226188825588,4.52084457966473,0.5916990847085901
6.15,-8.759685581904407,4.371150685316197,0.5747487196929248
6.16,-8.824119356572307,4.242127795386271,0.555713201042047
6.17,-8.87111636997527,4.145765811611463,0.5346413576228974
6.18,-8.905355784650599,4.0737038893138955,0.5193128747694832
6.19,-8.926193038151112,4.028213182641227,0.5165779931593381
6.2,-8.932420852608635,4.01267403843585,0.529763890192547
6.21,-8.92533334829802,4.024704518808962,0.5572108384690543
6.22,-8.908693547614574,4.056320672396591,0.5930692200486676
6.23,-8.88546936971051,4.099864379614354,0.6400809948518724
6.24,-8.85655759515533,4.152376241091481,0.6993242285258203
6.25,-8.820376491652722,4.217248947367773,0.7651980960150244
6.26,-8.77547020195656,4.2979921608536165,0.8293989864123323
6.27,-8.723753863714403,4.390249633016574,0.8894418818468844
6.28,-8.666659036842725,4.490717608127269,0.944281465101823
6.29,-8.601887636926119,4.602701117063193,0.9957383956025555
6.3,-8.530094285337105,4.723231763360392,1.047451285577675
6.31,-8.453596386232505,4.8470880374298435,1.1003789971922484
6.32,-8.375838638900621,4.968065479504525,1.1541238450958022
6.33,-8.298321424822607,5.082519944345375,1.2141964694165834
6.34,-8.221762964002297,5.188016211299721,1.2866380504101245
6.35,-8.140528618624494,5.292317090779378,1.3751832597319158
6.36,-8.048301235012135,5.405170537536545,1.4752164002068258
6.37,-7.948317826414992,5.5242663789811,1.572804687754321
6.38,-7.84732760504627,5.6427879341660345,1.6569930492574234
6.39,-7.746779803278552,5.758391077372315,1.7308300830335173
6.4,-7.646763089888487,5.871559637349389,1.7942494771818263
6.41,-7.549822209272185,5.980652762038199,1.8438650417529348
6.42,-7.459744083081632,6.082478374729628,1.8772101700590214
6.43,-7.3746802657522155,6.178359714419706,1.9001164152590706
6.44,-7.289201155409496,6.271940382251331,1.9232170823017236
6.45,-7.203236293733619,6.361557660222942,1.9525498774503822
6.46,-7.119048384489433,6.445098436482199,1.9870727624159272
6.47,-7.039257149455964,6.520764452094647,2.0241595854349472
6.48,-6.9698807703636625,6.582094284349642,2.06542245125672
6.49,-6.915054782061816,6.623609504637566,2.1164464441761637
6.5,-6.873925583362955,6.645730436840293,2.1801390193298555
6.51,-6.84232980119897,6.654686662593483,2.2510527551308446
6.52,-6.807229762466302,6.664319155556946,2.327628619137869
6.53,-6.759710720670773,6.684368925831093,2.407202727712626
6.54,-6.700116581669081,6.7149074582037365,2.4874225463668362
6.55,-6.634408113987867,6.749440472985491,2.568721364538349
6.56,-6.574168735239638,6.778426189095122,2.646158840889019
6.57,-6.534453414997857,6.790359891886003,2.713213115617928
6.58,-6.527138701678825,6.775162570059252,2.7683112797606917
6.59,-6.549872761686159,6.734064137755227,2.8144543327572458
6.6,-6.5850657582336565,6.684210560251772,2.850931536151142
6.61,-6.617081137577111,6.646505817438626,2.8650050545148593
6.62,-6.6381525777910575,6.631753665897381,2.8504402089522434
6.63,-6.64251045904443,6.639454284964473,2.8222184809858026
6.64,-6.634453895991517,6.660930552591759,2.790367617425043
6.65,-6.623054981515012,6.686147011993592,2.75693421829036
6.66,-6.611736853043613,6.709800319472432,2.7264704241152145
6.67,-6.601044975891379,6.730651136829401,2.7008821409184733
6.68,-6.594556871106643,6.747881318369715,2.6735995484635398
6.69,-6.595345793605366,6.761585366420727,2.636760210409385
6.7,-6.6073844669989255,6.768635008809662,2.5880458434970746
6.71,-6.632784019816193,6.764868925856942,2.532265348630133
6.72,-6.67067423001569,6.74645873442564,2.481324810984064
6.73,-6.718180841495905,6.7105499716147845,2.4503268259103104
6.74,-6.767286939057097,6.6615963178063256,2.4487604186274994
6.75,-6.807298971850891,6.612218223838391,2.4716024141043484
6.76,-6.830982006410466,6.575865674219099,2.503126096489699
6.77,-6.836716907474033,6.561158893983351,2.5260237860837074
6.78,-6.827895106109572,6.569550252557814,2.5280722749468505
6.79,-6.809826812271219,6.595978127775466,2.5078543538377467
6.8,-6.783590139181348,6.633950858718765,2.478583788958524
6.81,-6.750929980621175,6.67494814062384,2.4576055425146164
6.82,-6.7165246392650815,6.7099698611967025,2.456529937506331
6.83,-6.68535892551622,6.733095841849343,2.4781776634402792
6.84,-6.6631789675540745,6.741313651650407,2.5152897196516055
6.85,-6.653322447538937,6.735270173897409,2.55722304316895
6.86,-6.6549645021831765,6.717805070730397,2.598559991858431
6.87,-6.663012150326119,6.693669016924595,2.6398862509897834
6.88,-6.664929752505022,6.674736784120669,2.682641751051538
6.89,-6.647962136666451,6.673520194693897,2.7273782489519673
6.9,-6.60766811010042,6.693798871011283,2.775085155218224
6.91,-6.545764331815522,6.732757765188571,2.826903777402384
6.92,-6.466259309453538,6.786214400143186,2.8813771842438625
6.93,-6.372443611145195,6.851945742216699,2.9342108783354646
6.94,-6.269888821624261,6.925889328510171,2.98110450197744
6.95,-6.165296871618038,7.002510400227761,3.0200190715064488
6.96,-6.065279460763727,7.076358554832217,3.0503459906298294
6.97,-5.975134899480229,7.143689111438801,3.0713674752596054
6.98,-5.89747063007434,7.203455496425195,3.0819745133339116
6.99,-5.830571072420368,7.257093451894514,3.0834956965106546
7.0,-5.767651696526871,7.3076627145147,3.0824070810151114
7.01,-5.699099927698455,7.358858865140986,3.088056954230925
7.02,-5.61886726564741,7.413281245076669,3.104771333172817
7.03,-5.529420885409683,7.469645994784295,3.1301025568338248
7.04,-5.439583293596241,7.523369549556498,3.1587501787628716
7.05,-5.3594310667051746,7.569484269050756,3.185586497968963
7.06,-5.296421374882388,7.604980793744602,3.206485848433442
7.07,-5.2538839206655705,7.629489012776571,3.218323675206323
7.08,-5.229515907200728,7.645342445394105,3.2204303314293576
7.09,-5.216768215080021,7.656936934508486,3.2135583462037287
7.1,-5.212386151927696,7.666740935458147,3.1972425028759917
7.11,-5.214290901339398,7.675332473377677,3.1734287521777427
7.12,-5.221050335798559,7.682550673387208,3.1447146837916855
7.13,-5.233995084750689,7.687462487396228,3.1109866275979536
7.14,-5.25458378635433,7.689242628787501,3.0716031456739663
7.15,-5.281646310820728,7.68731850775275,3.0297048500886183
7.16,-5.313375980476628,7.680755507752552,2.9906165577974164
7.17,-5.348065514154763,7.668654400503323,2.9596908021775263
7.18,-5.38638224331047,7.649514266132836,2.939661395217513
7.19,-5.43057921074395,7.621674219453006,2.9306183022367813
7.2,-5.479759491303847,7.58432953381792,2.9359054422341324
7.21,-5.529557099315685,7.537822772731614,2.9621167248049947
7.22,-5.574142977555843,7.483570635817761,3.015504650046746
7.23,-5.6055417643258805,7.425735730340909,3.0989666094492465
7.24,-5.619693598474962,7.370106942903873,3.204257050166537
7.25,-5.625616649141345,7.31743036981821,3.312800918120268
7.26,-5.6414831010860045,7.262320696084998,3.4058963045826087
7.27,-5.679831797400965,7.198984791945701,3.475908439086838
7.28,-5.736874215663484,7.128250467173789,3.527595136947744
7.29,-5.7915108783975535,7.0645983710520674,3.566307937338532
7.3,-5.825373360679949,7.028517501257293,3.5826092930522457
7.31,-5.840413010908247,7.026479849035992,3.562037514406372
7.32,-5.84703614650415,7.046850798268066,3.510459233973873
7.33,-5.855643240617844,7.073307965523258,3.442178794592552
7.34,-5.871965516316942,7.094611949309711,3.369780342193975
7.35,-5.892306201133824,7.104818670179456,3.312405572414311
7.36,-5.912902952944013,7.099943386167285,3.2861233285138867
7.37,-5.9351442391365605,7.07990056965475,3.289242877191032
7.38,-5.960113465652645,7.051626794682344,3.304780355047762
7.39,-5.987568054297686,7.025961000725706,3.309826594750237
7.4,-6.0165412091173085,7.010779686683209,3.2893828641425915
7.41,-6.042648147110871,7.007677238577732,3.24784780139346
7.42,-6.061339920012981,7.012634186534323,3.2020267906194424
7.43,-6.071543682042202,7.020277433181723,3.165786736681517
7.44,-6.073383285235831,7.028304254889714,3.144404357464126
7.45,-6.068669595170889,7.036654380256835,3.1348220895432126
7.46,-6.062847022132509,7.0440270127482085,3.1295261157419683
7.47,-6.062748786557027,7.046235587976401,3.1247395571115373
7.48,-6.074194372871559,7.037314844528014,3.1225911342305475
7.49,-6.104636138760569,7.009111663488669,3.1265474957182033
7.5,-6.158063525720921,6.954672496033252,3.143059459745245
7.51,-6.225266486004819,6.875690277482691,3.1839166472703284
7.52,-6.28835351591366,6.786225528261725,3.2511235310713267
7.53,-6.330225125883666,6.713363963487341,3.320760632037312
7.54,-6.34243937253529,6.683409135574413,3.357950839879095
7.55,-6.327148003037599,6.702508544664382,3.348588850936361
7.56,-6.292335140121199,6.756127881642851,3.3059652516081064
7.57,-6.247748829166931,6.821795186558882,3.2552949818188917
7.58,-6.199662725702647,6.881006329058301,3.2225735509605102
7.59,-6.147605016063526,6.925705080043469,3.2265600802733068
7.6,-6.09325776591708,6.953766483676322,3.2689505377212003
7.61,-6.0462875523460555,6.964424900829878,3.3328704543949907
7.62,-6.017160985794864,6.960344867361215,3.393669737523326
7.63,-6.0083182475814185,6.947910299507244,3.4346435189451086
7.64,-6.014096233484237,6.934771996848657,3.4510688358715336
7.65,-6.029547192253118,6.926376603689087,3.440927414093047
7.66,-6.050868412771426,6.923179147584432,3.40976233566725
7.67,-6.07457752855678,6.919610493267747,3.3746826309986124
7.68,-6.1003700171983555,6.909046281518813,3.3497221761690614
7.69,-6.131015688364447,6.8880376357529185,3.33699021422878
7.7,-6.170762711421841,6.856170271273257,3.3292820779634438
7.71,-6.220042826022986,6.815898498339482,3.3202080411865236
7.72,-6.273332339845302,6.773335619889221,3.307018818320505
7.73,-6.325045641553652,6.734429548794713,3.2879452906972433
7.74,-6.371629756595215,6.699761377405652,3.2688110149261496
7.75,-6.411478723540465,6.666429689931864,3.2590598494941276
7.76,-6.44513212109958,6.634797221572637,3.257250789935104
7.77,-6.474144875292198,6.606238244475972,3.257774367840359
7.78,-6.499558917927819,6.579294473871442,3.26170264520708
7.79,-6.524880546588843,6.551578068178305,3.266918752889113
7.8,-6.553984497040058,6.52162923009712,3.2685699122196477
7.81,-6.58153655330259,6.493633722808509,3.26897584922031
7.82,-6.596672449637815,6.4779302014360605,3.269662291976774
7.83,-6.596396410234012,6.480418081657194,3.2652782060173555
7.84,-6.584227049965301,6.495427375490275,3.259994157488951
7.85,-6.563196672862205,6.514238136385856,3.2648444970111856
7.86,-6.535095493307126,6.534784665105166,3.28010215350091
7.87,-6.501278802275751,6.558637904103948,3.2996117007084624
7.88,-6.461845581592263,6.586508688207241,3.321459797827462
7.89,-6.418648842327247,6.617901295780829,3.342741437353417
7.9,-6.374722149512374,6.651532334239231,3.360004204977764
7.91,-6.331762390746297,6.685840713900067,3.3731219266521997
7.92,-6.287268368377927,6.720416897309155,3.387581099340106
7.93,-6.236925150286707,6.756244742894835,3.409266012393151
7.94,-6.182250025514748,6.792556712217831,3.4365898280529925
7.95,-6.128302134766468,6.826051191255105,3.466736900508841
7.96,-6.077877086324592,6.8538778296468905,3.5004561849890394
7.97,-6.031108725607416,6.875812403214932,3.5381377577120277
7.98,-5.987747793002939,6.893190916377267,3.577764990805594
7.99,-5.950987920792962,6.906091487292999,3.6140840512716057
8.0,-5.925964705050268,6.913829811372223,3.6403498589828462
8.01,-5.914807722222828,6.917817215858184,3.650922442152052
8.02,-5.9170771497218,6.9203953962492335,3.642333999172329
8.03,-5.927381790919044,6.924003343707419,3.6186316451445113
8.04,-5.9351314493597025,6.930269168797834,3.593860692364307
8.05,-5.9381385699115725,6.935620298146161,3.5785489913483306
8.06,-5.944645897995946,6.931076833948121,3.576539089013102
8.07,-5.960406597920116,6.910802536611578,3.589473898254249
8.08,-5.985050543399246,6.876863445444288,3.613532981773148
8.09,-6.01211360860488,6.8396683406982515,3.639142684096646
8.1,-6.036290850044546,6.813329145038471,3.648550492751843
8.11,-6.058118956200992,6.804778147628038,3.6282336871083234
8.12,-6.080744512428826,6.807368106898853,3.5852466242419667
8.13,-6.106087992237167,6.809351056326699,3.538115864725217
8.14,-6.131295329417872,6.807065699292977,3.4987303119669084
8.15,-6.151449831607259,6.804300954114623,3.4686208469679394
8.16,-6.161844268813587,6.8071612569704545,3.4444863130275745
8.17,-6.1597139521637265,6.819566468760459,3.4236958305676763
8.18,-6.145875346280447,6.839946698140439,3.407858898250001
8.19,-6.125315161329157,6.862849950974227,3.3988267629204767
8.2,-6.107153318577608,6.881498555079711,3.3938176077362368
8.21,-6.1008287345924765,6.891219356479704,3.385458173957796
8.22,-6.116861006331626,6.8878563833361515,3.363216141753819
8.23,-6.162165092002976,6.865933875704155,3.3249846142169974
8.24,-6.228342555811686,6.82760440003103,3.280280240579442
8.25,-6.2969413671979115,6.78665958611045,3.233978124803683
8.26,-6.360808004844245,6.751356365612858,3.1824726869438056
8.27,-6.421340668161075,6.72008314781245,3.1266388251212693
8.28,-6.478539112253698,6.689388468226064,3.0740539552672743
8.29,-6.533349475462943,6.65594485795355,3.0303464251492893
8.3,-6.589173047936793,6.617172841811006,2.994153274949189
8.31,-6.650655063396929,6.5713998771074165,2.958748720725418
8.32,-6.721976057450515,6.516908491436232,2.9177025454073715
8.33,-6.805464243953249,6.452261633119941,2.8672607908403034
8.34,-6.900871262654796,6.377983066150832,2.804553499539846
8.35,-7.007110803968831,6.294650543512853,2.72822412212136
8.36,-7.11996825630168,6.203714640138015,2.642884536303871
8.37,-7.236016781370293,6.107881376001802,2.5491796368493786
8.38,-7.352979833597922,6.008870950713725,2.447745026287373
8.39,-7.468566878917781,5.907969610214522,2.341099577407476
8.4,-7.5801899908986305,5.807316343036783,2.2317073345587484
8.41,-7.686018888681711,5.707637753059456,2.1244203928020386
8.42,-7.7869220228585725,5.6062391043080275,2.0246613757000556
8.43,-7.8874069997442975,5.496437992298976,1.9347186512175583
8.44,-7.992077819457821,5.369384459941178,1.8602512710612435
8.45,-8.104560310608987,5.222153719198662,1.7912525877680798
8.46,-8.218472272843673,5.065610224524751,1.7206186136896662
8.47,-8.321480510969478,4.916232822227454,1.6581119970169353
8.48,-8.408987931244535,4.787628581217161,1.591876013896172
8.49,-8.484532443021806,4.682780899066274,1.5002169280512156
8.5,-8.552127045112785,4.595063481957156,1.3832611537986923
8.51,-8.610010541192453,4.5191017849297985,1.2702409006995414
8.52,-8.658082952224126,4.4497512358646505,1.1858832274149829
8.53,-8.698616953135069,4.383303822881426,1.1358600990533603
8.54,-8.732927591818124,4.321319692814871,1.1099220574511597
8.55,-8.762292509047706,4.2661015782514005,1.0919847249792056
8.56,-8.790628408194314,4.212274412610711,1.073019238465857
8.57,-8.818999411746555,4.15664713975744,1.0570373677277685
8.58,-8.846764508275943,4.099542554639323,1.0480139746959676
8.59,-8.873719666206712,4.042222046333506,1.042818100722452
8.6,-8.898029116608743,3.989147061897211,1.04010502540255
8.61,-8.918289925350615,3.9430376172522523,1.0424663978644182
8.62,-8.9340289083984,3.904119582995047,1.0541066610217042
8.63,-8.944357561033538,3.8730316331604024,1.0808317061963864
8.64,-8.949755964255331,3.850076103718587,1.117581125705045
8.65,-8.951853296729622,3.834443523899852,1.1539582735388692
8.66,-8.948972484077533,3.8304892133643738,1.1888702198330345
8.67,-8.939049378960346,3.8410461070371977,1.2287922558460704
8.68,-8.927221886418439,3.8545817609284327,1.2716575089518298
8.69,-8.920829278681287,3.8544864396165592,1.3159526609081114
8.7,-8.914510576585675,3.848109577907196,1.3759743241061826
8.71,-8.89550796832955,3.8637544012276823,1.4528555818743443
8.72,-8.859676226243408,3.917251328371543,1.526600501930045
8.73,-8.814206296052758,3.9981707409473133,1.5790786341632363
8.74,-8.763681273222753,4.093325303250907,1.6160684013246949
8.75,-8.710646355735873,4.192640174919517,1.6479100053856193
8.76,-8.65806716110926,4.288020652517798,1.6793552971157832
8.77,-8.610573219902674,4.37219800368978,1.7063567673930353
8.78,-8.569211172234326,4.445317352004459,1.7255819357020756
8.79,-8.530799338203625,4.512842587280532,1.7405726965462522
8.8,-8.492098033864433,4.576345952394482,1.7638279092136944
8.81,-8.449097642536172,4.637098689406323,1.810995545502579
8.82,-8.400847041953195,4.697713591989356,1.8779736221942058
8.83,-8.34908372248545,4.758833293317542,1.9533993188643697
8.84,-8.293973035172257,4.821603591499401,2.032630063678719
8.85,-8.234672700688787,4.888297963049245,2.1128504461381556
8.86,-8.172193929088278,4.959032625564792,2.1892409015943937
8.87,-8.108457635251185,5.031941991790277,2.258774169437232
8.88,-8.044972282233234,5.103224513884626,2.3248963797227407
8.89,-7.979983500340435,5.172045886827067,2.395702515701767
8.9,-7.912598369871369,5.235810445760151,2.4792268775278354
8.91,-7.843856385504114,5.292609680931195,2.5752295771995035
8.92,-7.776361103315093,5.341527810041672,2.676926925186209
8.93,-7.71265174053018,5.380266225475283,2.7816198051806666
8.94,-7.6504938397786795,5.409928713027608,2.8934928398084065
8.95,-7.588376270191101,5.4342652530367355,3.0091742110868838
8.96,-7.5296514910635635,5.453098743886044,3.120576433242313
8.97,-7.4774637987210415,5.463511821549344,3.2260884299090096
8.98,-7.431385903593522,5.466208106824588,3.326438358175114
8.99,-7.3882139252664505,5.464899764943124,3.423350537972338
9.0,-7.344900215644957,5.462791078257774,3.5186022469773497
9.01,-7.298183038910875,5.46340232555443,3.6135839231942226
9.02,-7.244294118867038,5.4721830136015415,3.707509914149408
9.03,-7.183393021970885,5.49138949198065,3.7965467113018465
9.04,-7.1193980069500045,5.5187162247468935,3.8766312670472116
9.05,-7.0589642928635765,5.5488248476465944,3.9435895232826614
9.06,-7.010356738781136,5.573083768723477,3.995744193817739
9.07,-6.979536790701893,5.585873293928579,4.0316838931561305
9.08,-6.964903435299075,5.58921763774912,4.052300154477609
9.09,-6.960471438534006,5.590050721084643,4.058762172311856
9.1,-6.9631389241398765,5.592745347969178,4.05046665606576
9.11,-6.971833202032567,5.597466234284309,4.028928451246145
9.12,-6.984324960298788,5.603279193274108,3.9991007720855767
9.13,-7.0006246205551035,5.607238516264876,3.9649081307273093
9.14,-7.023201572357866,5.6054703327694195,3.92730047646185
9.15,-7.0515219515657614,5.600121537427633,3.8839416663582917
9.16,-7.082183772976286,5.597138298129104,3.832100898984236
9.17,-7.109237447560384,5.601598801797993,3.7750606709155203
9.18,-7.127857938610807,5.618821029293078,3.713857718946404
9.19,-7.137539155409542,5.651558931730242,3.6449404569580026
9.2,-7.139668893075892,5.69609157238151,3.5706783213049373
9.21,-7.13567007159654,5.746550247399217,3.497050380808543
9.22,-7.128018747361832,5.79700011830029,3.428729648978496
9.23,-7.1201350090236115,5.842225220024248,3.367815853034923
9.24,-7.1146675458503745,5.879164665677801,3.31467816655875
9.25,-7.112708399192403,5.908146658697068,3.2670202723360973
9.26,-7.115407583277167,5.929323389233919,3.222472992418205
9.27,-7.122598383387966,5.943870093839579,3.17950615849705
9.28,-7.133221361776985,5.956499630496977,3.1316846120798787
9.29,-7.146963983059032,5.971869303162165,3.07046362586248
9.3,-7.163549895243417,5.988872620703384,2.997817220545808
9.31,-7.183010137316322,6.002484953802201,2.923097237297846
9.32,-7.207989783537975,6.006727495744691,2.8520241608254606
9.33,-7.243753160993784,5.995139764428032,2.785002420725665
9.34,-7.293068571040437,5.965105966383087,2.7200050842826653
9.35,-7.35650798378214,5.919139459395003,2.648573579612563
9.36,-7.436976156758828,5.856917210592436,2.5605807590771064
9.37,-7.532971201605903,5.778258461490249,2.456402313946174
9.38,-7.637268953414652,5.688574126139255,2.340822917658562
9.39,-7.741977455325282,5.594679773494842,2.2199771789265537
9.4,-7.839412112291718,5.502827888160004,2.104702414984776
9.41,-7.927716043383506,5.4148646384023165,1.9995546246246547
9.42,-8.011178160175897,5.328710678130885,1.8956673542157845
9.43,-8.093913252539972,5.241190898281805,1.7849148172305962
9.44,-8.178007302930073,5.147637521130932,1.6700582266524195
9.45,-8.264838799870613,5.04340174920743,1.5567026985173944
9.46,-8.351904259131935,4.930394210489356,1.4503630420905957
9.47,-8.436316592279224,4.813422187399381,1.3513952318719593
9.48,-8.5150053993212,4.698749266845511,1.2583645991106178
9.49,-8.585106333116375,4.5917996362936755,1.1742567938560888
9.5,-8.647098585012111,4.494374493849901,1.0937204572901005
9.51,-8.703884355047519,4.404859199534323,1.0037395388873256
9.52,-8.75517882927963,4.323185781735226,0.9082574773048905
9.53,-8.80084348077476,4.248628637831919,0.8139661942391081
9.54,-8.84172418880743,4.180366612875126,0.7188653137895239
9.55,-8.879525864597827,4.114420149910736,0.6277117091288598
9.56,-8.916752502648352,4.046367848493413,0.5354833027654312
9.57,-8.953286068192707,3.9770150554587396,0.43599425421356175
9.58,-8.987142998667318,3.9096435754074275,0.33787910736517734
9.59,-9.017734592247235,3.8453802427985577,0.24913584655516854
9.6,-9.045302759519743,3.784865474141582,0.1607543962885754
9.61,-9.069475736728675,3.7293620969049384,0.0714312375459724
9.62,-9.089948022000945,3.679916173729917,-0.009411771306497115
9.63,-9.107600589873137,3.635286593353948,-0.07583772048510204
9.64,-9.123678808630435,3.5935389852928687,-0.12166855987424807
9.65,-9.13890763286389,3.553681503528837,-0.1474697129445497
9.66,-9.15250881884537,3.518146850742461,-0.1560860625402656
9.67,-9.162333815134883,3.493244211627566,-0.13816340127803053
9.68,-9.166971412750604,3.482616299039367,-0.08882999933111346
9.69,-9.167422807347036,3.48245179035232,-0.018584054340972673
9.7,-9.1655432646491,3.4869019012629856,0.06000633191893811
9.71,-9.1613324972057,3.495542044125999,0.1425862089108928
9.72,-9.154512297206793,3.5088260416050545,0.2281948579562202
9.73,-9.14511360697653,3.526494516002931,0.3157065447040912
9.74,-9.131780735604236,3.5513058182448973,0.4091839199384635
9.75,-9.112564708708753,3.587320537242883,0.5103309961714403
9.76,-9.085961002728633,3.637048727696319,0.6202334533400002
9.77,-9.051780624726105,3.6992483279366994,0.7399607210976238
9.78,-9.01078834583794,3.771594523479824,0.8642555327569242
9.79,-8.963903450032076,3.8518149908048187,0.9888214995111723
9.8,-8.913311744478628,3.9343139367172535,1.1134242055422758
9.81,-8.863540400725254,4.008413192498768,1.2394375883270956
9.82,-8.819260876550436,4.063743598630352,1.3685798575527472
9.83,-8.782218167167366,4.100675851083679,1.491413173724097
9.84,-8.751984037457794,4.127632633321818,1.5918190190883998
9.85,-8.726370610411678,4.1516355182247855,1.6684074488436484
9.86,-8.699585124393957,4.176368325941295,1.7447265533657967
9.87,-8.66373288789777,4.207219696187089,1.8456864418722576
9.88,-8.616002231902936,4.245698087073237,1.9759371592224118
9.89,-8.557327137057754,4.2922882651264755,2.1243593029566465
9.9,-8.488831673621094,4.34614281554684,2.2834593326322707
9.91,-8.414253638668942,4.401230723276058,2.447958382882649
9.92,-8.3399629222905,4.450819068465383,2.607483759479641
9.93,-8.271583619221447,4.487837399503518,2.7577063162732096
9.94,-8.21016818681667,4.508783587784374,2.903311656802567
9.95,-8.153760135557748,4.5173949366767125,3.0454747189487246
9.96,-8.101439853415702,4.520693519628158,3.177477074859529
9.97,-8.05134590415916,4.521774390696325,3.300922643264577
9.98,-8.001538131753415,4.523829071221689,3.4172239437866754
9.99,-7.951779676238824,4.5297527676484455,3.5239319412231938
10.0,-7.903595255706015,4.537789119812033,3.6207230555041363
10.01,-7.857852621028815,4.544812038770962,3.710401563848669
10.02,-7.813319045445852,4.552426875420678,3.794195505761674
10.03,-7.767534111394899,4.564074459883899,3.8733937161107015
10.04,-7.717874419321767,4.582274942444041,3.9503886254351532
10.05,-7.66345017163242,4.607550102208468,4.026196575163249
10.06,-7.605935452543143,4.637398415083725,4.1003050068870515
10.07,-7.54753274293206,4.667053895965268,4.173914548008628
10.08,-7.490042451456746,4.691611271389055,4.2492686254104335
10.09,-7.43413244849413,4.709649910166266,4.326794932083327
10.1,-7.381962157260677,4.7218292373500175,4.402219248861915
10.11,-7.338989532605489,4.729007634021366,4.465981474588949
10.12,-7.312862191075656,4.729666172058241,4.5080321146319315
10.13,-7.308003980503235,4.720261245690622,4.5257632567973936
10.14,-7.321023084809168,4.700300197713681,4.5254817750898635
10.15,-7.343218868851916,4.674191361513554,4.516541606035274
10.16,-7.3659754711055845,4.650305540221383,4.504130855218208
10.17,-7.386550118662149,4.63332577679351,4.487912466816489
10.18,-7.405891330680592,4.623201518582106,4.4664233517665375
10.19,-7.423601847499001,4.620557509650082,4.439672522649482
10.2,-7.438902941631729,4.624422885203296,4.409938488743523
10.21,-7.452848356286953,4.631504760337594,4.378849617971913
10.22,-7.467317906449478,4.640783283817537,4.344227641309532
10.23,-7.4830732291122795,4.652873727081859,4.303982571910642
10.24,-7.4996429520852885,4.668136336264675,4.258353670127051
10.25,-7.515719637538372,4.688376061933567,4.207446707241693
10.26,-7.527730752820887,4.718121389255154,4.152335340627109
10.27,-7.532626670344063,4.758837281082472,4.096603178994845
10.28,-7.533295714729409,4.805387555813129,4.0406383766112475
10.29,-7.534940724600966,4.850731155512744,3.9829794535388165
10.3,-7.540560860385003,4.888353145298705,3.925972962849612
10.31,-7.554288662640327,4.910907894411315,3.871076962213069
10.32,-7.578555073967898,4.915607297839721,3.8173031781286753
10.33,-7.610221660803457,4.907155513230313,3.764803209315101
10.34,-7.645560895556629,4.893251378598052,3.710896474985596
10.35,-7.683979485863088,4.881579290994636,3.6462882269685135
10.36,-7.726002313405926,4.878332592016112,3.5606739489882013
10.37,-7.7745875438976855,4.881400782617995,3.4487114921644246
10.38,-7.839689199924094,4.87453601605113,3.3077526822247725
10.39,-7.919900042123748,4.8476916755253265,3.152356328667951
10.4,-8.000662694446703,4.807749861511651,3.006434659285957
10.41,-8.075353985558303,4.761858064285552,2.877171539703899
10.42,-8.143771535661534,4.712689056712967,2.7632176853068944
10.43,-8.20628512577533,4.6607159162264535,2.664829142822547
10.44,-8.263661976613538,4.605965848407682,2.5815392589405644
10.45,-8.315449113929077,4.549715543989931,2.51425296647501
10.46,-8.363136758685819,4.491649753758572,2.459951038736736
10.47,-8.409384083910997,4.430420354525355,2.4128817755530387
10.48,-8.456724314968607,4.362745972871967,2.3702997768936296
10.49,-8.50980555024051,4.2831667338009956,2.3248087333051135
10.5,-8.572667778948263,4.189314759339105,2.263715105615112
10.51,-8.64500009920182,4.083551786159199,2.1799520104522006
10.52,-8.722619957660527,3.9725281951983935,2.0729546693869714
10.53,-8.798969764026333,3.8677418592995365,1.9443450133138502
10.54,-8.867873083349561,3.781382015719005,1.7954477678360101
10.55,-8.925410074103402,3.719350076960562,1.632683735837876
10.56,-8.971701769211476,3.6756430818836683,1.4702000800767332
10.57,-9.010954701436246,3.6369673898241346,1.3189309189093343
10.58,-9.045752869420307,3.5955013548838473,1.1886922091270495
10.59,-9.076139494131438,3.5511470120708584,1.0866511624837796
10.6,-9.100911192750731,3.5102305355931467,1.0102562350303728
10.61,-9.117577076067994,3.482600372260763,0.9544893339975387
10.62,-9.126115144881046,3.4709037162139653,0.9148764657480565
10.63,-9.129632380850149,3.4684185373015075,0.8889431052514081
10.64,-9.13096054072882,3.4676521635665076,0.8782621951043289
10.65,-9.131429802743158,3.465426518725032,0.8821411088000417
10.66,-9.13182983417709,3.461651921423602,0.8927678598819838
10.67,-9.133201921014884,3.456710841765413,0.8978788510481097
10.68,-9.136284986914982,3.4507583006102514,0.8893028568148895
10.69,-9.141438741839863,3.442323568617175,0.868705651312565
10.7,-9.150712879559132,3.4248811154086427,0.8393700737997138
10.71,-9.167712325327438,3.3888484461669504,0.798660681528684
10.72,-9.19429965134823,3.3288167847778496,0.7426854643439503
10.73,-9.229389769479209,3.245766234711709,0.6704251107286078
10.74,-9.271030086275198,3.142910165323224,0.5779924371269121
10.75,-9.316091469139847,3.0267642118728544,0.4592444807547182
10.76,-9.36121929900869,2.903550618466195,0.3094672440178406
10.77,-9.403894973834637,2.7760226922874045,0.1345163536714844
10.78,-9.438764029719056,2.65952612026587,-0.022946018903675827
10.79,-9.459437345199104,2.5839484780504445,-0.10889442239098153
10.8,-9.464633216092235,2.5642743537386528,-0.1247257822257069
10.81,-9.459105740699473,2.5850549290260783,-0.11314152832835392
10.82,-9.447999942941678,2.626159493778415,-0.08921539126467257
10.83,-9.431587793947502,2.6853097870116005,-0.0559875424058813
10.84,-9.411874021882198,2.754071049227769,-0.020018915274824068
10.85,-9.393064301097475,2.817034851506641,0.04575222457169371
10.86,-9.37477778151385,2.8745708845612152,0.1348295640364859
10.87,-9.35888863518376,2.921002953641605,0.21796780226532825
10.88,-9.348108075179939,2.9490273794879927,0.2919580768989425
10.89,-9.341839743720879,2.9608843388635835,0.3636185492256336
10.9,-9.334971506926951,2.971876704723317,0.44151539406969437
10.91,-9.322760674162343,2.9957464812017656,0.5287590834415189
10.92,-9.303042066733145,3.0373624302456714,0.628228819924155
10.93,-9.275409364952456,3.0959229222733593,0.7401041570348723
10.94,-9.240168247073331,3.168645458399441,0.8623187173081122
10.95,-9.198526462756629,3.251345298513285,0.9900775241840096
10.96,-9.154815044155336,3.334706441796697,1.11119977477009
10.97,-9.114332173410835,3.4082371740582587,1.2164639213364645
10.98,-9.0785152886434,3.467781526501123,1.3124031601771655
10.99,-9.04536225488736,3.515389707840453,1.4109223603933994
11.0,-9.01368795402084,3.5533367604205415,1.5148074703081766
11.01,-8.985308932780042,3.580977324781225,1.6152295331757398
11.02,-8.962136348915552,3.596400631753813,1.7071757166696877
11.03,-8.940557209276102,3.603797403918941,1.8018989857039736
11.04,-8.914075214057156,3.611917986702446,1.9131153057615204
11.05,-8.879039089088232,3.6283500120069814,2.0404638596533973
11.06,-8.833142004415194,3.6601507410138088,2.1779807985498882
11.07,-8.774194609861299,3.7126175337433116,2.322378249586089
11.08,-8.702410043271158,3.7843259269687657,2.471695165465747
11.09,-8.618808777230763,3.8707863368767828,2.625676130410379
11.1,-8.526372654300452,3.958621171405328,2.791132627862418
11.11,-8.433430704533828,4.0279729629904635,2.968821377333275
11.12,-8.351501242177232,4.073437726599358,3.1343889578149318
11.13,-8.288524822575651,4.094733601262931,3.271042972605728
11.14,-8.240478273767971,4.083752433694861,3.4033774415865157
11.15,-8.200459266678449,4.040543199612811,3.54831451917443
11.16,-8.165529897146554,3.9684311362120823,3.7065165874551274
11.17,-8.136200270291178,3.871663904938604,3.8697326684746884
11.18,-8.1137406614048,3.7623600414650964,4.021919203884707
11.19,-8.095916929813097,3.662174024825259,4.148653221225695
11.2,-8.077354080944184,3.5929725280098466,4.244483505842554
11.21,-8.05281155157405,3.5640698829346773,4.315001994276881
11.22,-8.027920281266182,3.5637535677534493,4.36145432170059
11.23,-8.013401628529866,3.5714950798316556,4.381799508064306
11.24,-8.010159338665451,3.5791164638439823,4.381513083143491
11.25,-8.009264730205212,3.589923820987385,4.374298307962535
11.26,-8.005671920395818,3.6065383725885423,4.367195704698679
11.27,-7.999527329511449,3.6282925388987692,4.360423705707824
11.28,-7.991033226174418,3.655474752894963,4.353281497547915
11.29,-7.979586205057775,3.689701925806617,4.345378269630911
11.3,-7.964345733953413,3.7338441121893147,4.3355871258029595
11.31,-7.942330714088215,3.7895971834800584,4.327565985838726
11.32,-7.912313077048721,3.8504558975719942,4.328829051990595
11.33,-7.876867211603436,3.903843588262242,4.345647050427602
11.34,-7.84115129051565,3.936895149710026,4.380296535382785
11.35,-7.811238256234072,3.9416185170282314,4.429210176534577
11.36,-7.792886737531543,3.920348182239381,4.48013444887102
11.37,-7.787911293037037,3.8888153102492176,4.516165895896452
11.38,-7.792380055278588,3.867839755004559,4.526475092261117
11.39,-7.800782173882085,3.8670009561269256,4.5126789066918835
11.4,-7.813327147965794,3.879504895800772,4.480098157657997
11.41,-7.83489331579722,3.891578370486503,4.431667911727806
11.42,-7.866056106353089,3.8976123651454535,4.370716442484898
11.43,-7.90126047162549,3.903462106216412,4.301431311579525
11.44,-7.934228759151598,3.9172893244098423,4.227541904857131
11.45,-7.959410817083781,3.94260701091063,4.156086680467468
11.46,-7.975249964702507,3.976079438380513,4.093399847458127
11.47,-7.9849218137616464,4.010745977464691,4.040391486758943
11.48,-7.995558333803932,4.0407520116634545,3.9891301088344724
11.49,-8.008973463440583,4.067130074758498,3.9350431980307894
11.5,-8.020270428509068,4.096665003332476,3.8810301249596724
11.51,-8.025767583779116,4.134060224514815,3.829651639735475
11.52,-8.02939236435423,4.1790365863054095,3.7727679663784834
11.53,-8.038415537113245,4.228079132293963,3.6981073902243455
11.54,-8.053878459059685,4.2773584684394335,3.6066352909675956
11.55,-8.075108672160708,4.321234115446515,3.5054137990878735
11.56,-8.106200158137462,4.351932327514591,3.393829817397833
11.57,-8.151998378373111,4.363184225882026,3.267225046159375
11.58,-8.210689450734332,4.356464135736884,3.1260971053196633
11.59,-8.276608049139346,4.337058711554061,2.9755680008332313
11.6,-8.346449643819541,4.3085710636664825,2.817592723208401
11.61,-8.419346502857284,4.2740732226479805,2.6480110562989947
11.62,-8.494258151967315,4.236961670829505,2.4616994432038655
11.63,-8.569243481779104,4.1983048120681135,2.259702027287603
11.64,-8.64172282887409,4.15621302517818,2.0520377463619126
11.65,-8.708269190948739,4.112302942486701,1.8494185041188094
11.66,-8.76606800820432,4.068647220316317,1.6640788998692377
11.67,-8.812815908059921,4.026371506861369,1.5136449323712573
11.68,-8.850175222930684,3.983546417041817,1.4053519763055435
11.69,-8.885318009558537,3.9318081146384443,1.3271337142806015
11.7,-8.923690507826509,3.865708207475792,1.2621662938003249
11.71,-8.967214837627466,3.786121872389443,1.192880866718793
11.72,-9.014554646102887,3.697293542031935,1.1118378541428815
11.73,-9.063154333761318,3.602287607783055,1.0253644322853541
11.74,-9.109297733182233,3.505212155006222,0.9502185623373821
11.75,-9.154675268635629,3.40239313636641,0.8854373244505747
11.76,-9.204423210137431,3.2835677566208203,0.8150878164856785
11.77,-9.259951676090166,3.1443367239938396,0.7305090329451678
11.78,-9.315347669132283,2.99943147459202,0.6286418952078932
11.79,-9.362420934858818,2.8730174063471354,0.5084046938551181
11.8,-9.39805712696476,2.7774048691247266,0.360146449243814
11.81,-9.424238298722605,2.7052416931331775,0.1809048719341214
11.82,-9.44433342112512,2.640513954474969,0.00037414865169813923
11.83,-9.460240770556117,2.577585748883274,-0.16855488381330613
11.84,-9.472500568333414,2.518686446832604,-0.3119934224070289
11.85,-9.481186800208189,2.470553958168699,-0.41647617927864405
11.86,-9.486785640945218,2.436140359862463,-0.4861111067862228
11.87,-9.49228127672126,2.4052497760967864,-0.5306541423442394
11.88,-9.498074106717748,2.375010457017468,-0.5623264617041123
11.89,-9.502010382378723,2.3535265891365853,-0.5857453357187177
11.9,-9.503530299188302,2.3447764459614335,-0.5960491509007319
11.91,-9.5063979818423,2.3361100960282926,-0.584254161753605
11.92,-9.510483719418994,2.3271432121769,-0.5525920082102103
11.93,-9.513297715452426,2.326696484458545,-0.503788504042224
11.94,-9.515107756604424,2.333114759523179,-0.4351494738421817
11.95,-9.51576281902661,2.345274653344209,-0.3463250622780571
11.96,-9.51387371021515,2.365735687041618,-0.24356454362175378
11.97,-9.508701453995368,2.3954399921044507,-0.12741306848259798
11.98,-9.500363096969632,2.4316452280214684,0.0006155096073716863
11.99,-9.48921529056165,2.4713416541386497,0.13092364909979992
12.0,-9.474806287788269,2.515984491323495,0.26021141002958204
12.01,-9.45676930380253,2.5658747572187313,0.3946287407768059
12.02,-9.43587729951448,2.616844723064239,0.5351185346488321
12.03,-9.412726416926866,2.6678624550045096,0.673196109902175
12.04,-9.387483703433055,2.720346774570617,0.8031258766739754
12.05,-9.360127813126795,2.77267874038536,0.9329575954314718
12.06,-9.330337326931128,2.82386467508873,1.0681188314942784
12.07,-9.29823873836611,2.875852495410576,1.2010768613127447
12.08,-9.262226389542747,2.9354185945987226,1.3284940145567297
12.09,-9.218193216084769,3.008506183278584,1.4642658657155156
12.1,-9.164938036498562,3.0920402948342565,1.6165940449836669
12.11,-9.104294589289326,3.1806980089633954,1.7790373008698988
12.12,-9.037286117529552,3.2736071463257965,1.9444119947391296
12.13,-8.962895583892903,3.3659038784407884,2.1229185301834828
12.14,-8.882137742210997,3.453980986787644,2.312364883721929
12.15,-8.800501389631581,3.5351599152862594,2.4946250579332023
12.16,-8.721267572022604,3.6055474721856475,2.6662455515294807
12.17,-8.646074975607853,3.6591712247508386,2.8328682662405016
12.18,-8.576405703967017,3.695971091212039,2.992393853485635
12.19,-8.510412025709392,3.7220343504841464,3.144638487003045
12.2,-8.444159364385422,3.742875352727595,3.294902081295217
12.21,-8.377259616990248,3.761714289577741,3.4409727952047517
12.22,-8.3131111384756,3.778224894787455,3.5758343588206456
12.23,-8.253633493483404,3.788273317323797,3.7008069877253207
12.24,-8.201831427697138,3.7876457651087083,3.814880613128348
12.25,-8.163176474120158,3.7745847178041605,3.9095919082752535
12.26,-8.138535021569695,3.7499773575302564,3.983953954217905
12.27,-8.1259381956952,3.718536230303122,4.038781688329074
12.28,-8.127296864309441,3.687494656473516,4.064445827872992
12.29,-8.141010852306614,3.661766460465574,4.06026904616434
12.3,-8.156576335864912,3.650428949518158,4.039177163790404
12.31,-8.1637387716241,3.6589630592402185,4.016926100502589
12.32,-8.156626045074297,3.684392388606767,4.008121642972339
12.33,-8.133097200035577,3.720116417661927,4.022895295807199
12.34,-8.094108691079818,3.7635895244426503,4.060882653790846
12.35,-8.045095800829829,3.8143264206481207,4.1106043608471845
12.36,-7.993380453595933,3.8708618570472084,4.158360943694113
12.37,-7.943699295104395,3.92954560316711,4.198338474404385
12.38,-7.902412802319776,3.98133301933584,4.227385389022112
12.39,-7.875261070793174,4.014293660522608,4.246876102799939
12.4,-7.861591730807571,4.023907606834521,4.263079784457091
12.41,-7.858290581115018,4.017809591015956,4.274909009405526
12.42,-7.859711664487168,4.0115295415959835,4.278195407839532
12.43,-7.860516228721245,4.01517823231591,4.273294084818257
12.44,-7.86188517143412,4.026690297014366,4.259918513158701
12.45,-7.8656588748486485,4.041103108045045,4.239245990457087
12.46,-7.87076838906581,4.051812800547412,4.219498187280489
12.47,-7.877849295317718,4.053094105591724,4.2050256640852295
12.48,-7.885399757811939,4.047962114903991,4.195815766774895
12.49,-7.890125549750688,4.050977134986093,4.184003365244169
12.5,-7.892652330751937,4.0750696448892585,4.155720064854689
12.51,-7.897657138422063,4.116989154359628,4.104530654369054
12.52,-7.909352044997968,4.162531454550308,4.035463452822595
12.53,-7.926332677092158,4.205041172974568,3.9572962516393386
12.54,-7.943932075096324,4.243712168304172,3.87997729970461
12.55,-7.958232304714252,4.278344307400548,3.8120820130729665
12.56,-7.967185514097152,4.3093612277390525,3.758087234723155
12.57,-7.973244759058961,4.335465835562252,3.7149921536997046
12.58,-7.982101612801066,4.353320887695197,3.674883258427869
12.59,-7.997654273383401,4.363075299297677,3.629199221066665
12.6,-8.020474506528718,4.370703718068826,3.5691273478675227
12.61,-8.052650080981454,4.380441566388227,3.483616389544457
12.62,-8.103155638938395,4.384291291010173,3.3592028930922346
12.63,-8.181734535439865,4.3642096776405594,3.190203649352761
12.64,-8.271367891243615,4.32035603300488,3.013804139020589
12.65,-8.355246813855118,4.2632248690151755,2.8601049449223432
12.66,-8.437812526171953,4.194998779064579,2.714888613831721
12.67,-8.528451063413735,4.11666525928953,2.5459293064191497
12.68,-8.629419491445201,4.026915710261665,2.3403245307034912
12.69,-8.735056294990455,3.9245442003872713,2.1105953058164344
12.7,-8.833709966615926,3.818933811829388,1.881414149236051
12.71,-8.914778514284121,3.725779532201768,1.6752980040983225
12.72,-8.976789552804432,3.6541054396767034,1.492811900671534
12.73,-9.020602941711989,3.6090703077854243,1.3299995964300344
12.74,-9.048671189056103,3.5882184932908796,1.188805875148343
12.75,-9.067700981781966,3.5776500938439133,1.0701938820599968
12.76,-9.08346403397471,3.5657960653918823,0.9718869585943839
12.77,-9.098241746973294,3.5487356613292635,0.8931914057347748
12.78,-9.113247492234226,3.5261264948629916,0.8274606545629261
12.79,-9.130185020583092,3.497078779974158,0.7612621562091458
12.8,-9.152559444562739,3.4546920714969427,0.681471147723345
12.81,-9.181294258190814,3.3964247145571362,0.5792262833008174
12.82,-9.212356884183093,3.3294532501997867,0.4624728194043144
12.83,-9.241098241954445,3.263512612135271,0.3440888035810208
12.84,-9.26597864552306,3.20213580710233,0.23539549033650295
12.85,-9.288179247007763,3.1428633342671644,0.14232190916741363
12.86,-9.310967579662758,3.0772982131155104,0.06768105954618266
12.87,-9.337353649009776,2.9969835046609057,0.0036479795406648653
12.88,-9.367520944216256,2.9007136135819653,-0.05449750104414295
12.89,-9.395902539367745,2.8058646315870224,-0.10987314541313856
12.9,-9.416563838959314,2.732648246529924,-0.17189095965603876
12.91,-9.428211208884765,2.6866406758986336,-0.244332612631502
12.92,-9.433565937021843,2.660909612619993,-0.31121019659481775
12.93,-9.436537808674743,2.64559981988902,-0.35030037340004383
12.94,-9.440913001754229,2.63004613069772,-0.3497456995472591
12.95,-9.449232637662924,2.604331122297619,-0.3150368123165317
12.96,-9.460976971731672,2.5676285123542586,-0.25771944048141837
12.97,-9.473551655143124,2.527047413591668,-0.18627601244355566
12.98,-9.484717953320636,2.489709297798016,-0.09853431806206511
12.99,-9.49313852597174,2.45919107212226,0.009609023274819587
13.0,-9.49782131226853,2.4372040368901775,0.13465902502413235
13.01,-9.498820282735426,2.4223636388201615,0.2666642914720803
13.02,-9.495177913975239,2.418226038930172,0.40036765711462224
13.03,-9.484670948182659,2.434822364210598,0.5286350811736792
13.04,-9.468570799176476,2.4711935451353604,0.6379987677684333
13.05,-9.447210883252067,2.526238617508664,0.7320981836519437
13.06,-9.418810448600526,2.6025206037850834,0.8243704918139225
13.07,-9.383087552454299,2.6966376380462767,0.9227189659814108
13.08,-9.3426309083813,2.7956124629500616,1.0318662105500411
13.09,-9.301346066174256,2.8839202574231004,1.1544649827724403
13.1,-9.26244743714856,2.952067108960093,1.2874185711091328
13.11,-9.226580510111681,3.000712835029568,1.4252370666653607
13.12,-9.192435130569907,3.0354914759830316,1.565359959359576
13.13,-9.160081442330215,3.0615948955567287,1.698747907768913
13.14,-9.129147775814886,3.086168721961667,1.816966798467426
13.15,-9.09583508975375,3.1184808613051005,1.925634634685037
13.16,-9.054524240587739,3.168118078527657,2.0359065136450902
13.17,-9.001453936620136,3.2390872942861635,2.155634720970565
13.18,-8.935137535187362,3.331081943910777,2.2868892162703953
13.19,-8.856956568365147,3.437226023937721,2.4291582318584917
13.2,-8.77159283508914,3.543579163121313,2.5812002912566876
13.21,-8.685775170303334,3.636708910662991,2.737303187527189
13.22,-8.606062304342002,3.7084169934359483,2.888975112078449
13.23,-8.535417983875858,3.753931712042284,3.036209722654774
13.24,-8.474550218680365,3.7731033059846477,3.1796982744042754
13.25,-8.42305936863889,3.772271902985945,3.314776975326787
13.26,-8.379750212519388,3.7593299880498474,3.437132761304267
13.27,-8.341605067045998,3.739790475184067,3.5494635925916636
13.28,-8.303724900239274,3.7201895117522024,3.657258267624554
13.29,-8.261890851423592,3.705757219941378,3.7650407845565477
13.3,-8.215899232685649,3.6958494503692894,3.873835339438036
13.31,-8.168175627515428,3.6872486552118784,3.981470747041917
13.32,-8.12257276701945,3.6801863366079104,4.080169833568498
13.33,-8.083366005120311,3.676740930966249,4.16047892754753
13.34,-8.052299151544121,3.676694737179911,4.220420218345556
13.35,-8.028322000446106,3.678326374088841,4.264493534867186
13.36,-8.008274925745985,3.682630239334316,4.2983533935395215
13.37,-7.987198128527792,3.690530584979098,4.330656537414699
13.38,-7.9633947959348195,3.7004178662354668,4.365904709748992
13.39,-7.940340092211946,3.711500522514717,4.398381941040279
13.4,-7.923032794094679,3.7255428938534347,4.417703527146981
13.41,-7.91435564118806,3.7417432834050617,4.419572683644984
13.42,-7.913506206309655,3.7545860608785104,4.4101933727742955
13.43,-7.9181084539375854,3.7603226373750345,4.397025956307921
13.44,-7.927095180620398,3.7586511512799565,4.382232208700085
13.45,-7.940171108718706,3.7491855374166385,4.36663287372073
13.46,-7.9546220594566375,3.7347101016202195,4.3527185675690365
13.47,-7.96672003474456,3.718824671834574,4.34419285427843
13.48,-7.976649854432018,3.6975992380268923,4.344077949472222
13.49,-7.987461195183845,3.668099791599465,4.3492065333908245
13.5,-7.999721749068917,3.6392851208845594,4.350890075245222
13.51,-8.011642235736753,3.6229556527098263,4.342586304586984
13.52,-8.023721045645544,3.6208786403133897,4.321955539065874
13.53,-8.038080291835762,3.628995623348103,4.288301540363937
13.54,-8.055586110286987,3.6472194048432383,4.239654142738378
13.55,-8.075706487257893,3.677343919843256,4.174773371280274
13.56,-8.095074958204073,3.719579085228045,4.099105014333475
13.57,-8.1095370251281,3.772472210203489,4.021428671056633
13.58,-8.117270252292615,3.830610390376696,3.9502851610497207
13.59,-8.119903434952448,3.8826376431372167,3.893786486545048
13.6,-8.122639508708929,3.9180577017530203,3.8524627363938087
13.61,-8.129060221772052,3.935147732585304,3.8214118665668138
13.62,-8.137397991053614,3.9390238952684866,3.7996263156189816
13.63,-8.145336770274259,3.9380106520512705,3.7836347259036067
13.64,-8.154202990864702,3.941752983971549,3.760542906160466
13.65,-8.165443449267805,3.9582428597291583,3.7185114901488268
13.66,-8.177786025055191,3.991267139333221,3.655427081226917
13.67,-8.186660123838957,4.040835997789506,3.580265486671802
13.68,-8.18697049228022,4.102747187485535,3.5084436994557167
13.69,-8.179677152599336,4.1655697439530135,3.451064938474953
13.7,-8.171249270066506,4.215496640978722,3.410276087653604
13.71,-8.167506198257366,4.246518782361317,3.3806808414883687
13.72,-8.169581998279307,4.261636246049035,3.356575117159575
13.73,-8.17419507235005,4.268298011120395,3.3368336948444024
13.74,-8.177822396277453,4.2733189970411845,3.3214920514146193
13.75,-8.179374359735373,4.2796079992105875,3.3095500317636777
13.76,-8.17909463944803,4.2866996896946885,3.3010580074359215
13.77,-8.175958207548694,4.29397358248114,3.2993730038882396
13.78,-8.168027150975957,4.3020014849751815,3.308532563470042
13.79,-8.157229202051175,4.308956407530982,3.3260737453905715
13.8,-8.147566782961924,4.310677367244932,3.347450853938283
13.81,-8.141497353586862,4.3050013798097195,3.3694523702639287
13.82,-8.139895187052447,4.292358272020545,3.389395686254237
13.83,-8.141130703768676,4.274379456660677,3.4090872763207005
13.84,-8.143511367527227,4.253512994774301,3.429437291624345
13.85,-8.145304251901694,4.2340145417225665,3.4492502173791975
13.86,-8.145470161028415,4.21749514793698,3.4690469854692694
13.87,-8.144078171498228,4.202648132834051,3.490266387590781
13.88,-8.140825089193715,4.189623443755991,3.513434615223429
13.89,-8.135387607912088,4.1807047234027435,3.5365824830894375
13.9,-8.129133175901027,4.176201851645971,3.5562412938292653
13.91,-8.123471101086006,4.17434798874025,3.5713340374518796
13.92,-8.117825722268595,4.175862783900958,3.582382311601071
13.93,-8.11173628999346,4.181696614891597,3.5893613578330967
13.94,-8.106672625319845,4.187016707589839,3.594597596821644
13.95,-8.103929104148172,4.186728054109854,3.6011107085137004
13.96,-8.103232965762059,4.182203137828965,3.6079326403670184
13.97,-8.105527603122235,4.17494669985045,3.6111836765058745
13.98,-8.111605883817953,4.162898472196469,3.6114354682065066
13.99,-8.120421837495389,4.144561657788595,3.612697889073332
14.0,-8.13086449569292,4.120167822233584,3.617103423049307
14.01,-8.141038486140719,4.092272456593184,3.6258749056211106
14.02,-8.148432112509647,4.0666172043808375,3.6381172361261642
14.03,-8.151170709643317,4.0519920730169865,3.6483095849835903
14.04,-8.149523934852882,4.053999278439753,3.6497552010909753
14.05,-8.146118969549109,4.069380487380503,3.640207466957601
14.06,-8.144457551670126,4.088746965670453,3.622184313444402
14.07,-8.144929488786646,4.10363898799513,3.6042487995003585
14.08,-8.146136117553784,4.11089465485129,3.593244086276071
14.09,-8.148188575073897,4.109187233284579,3.5905423112031
14.1,-8.150832692479698,4.101307896827451,3.593546169037944
14.11,-8.153046073455062,4.089503452115939,3.6019616305573066
14.12,-8.156897078875188,4.072015462303919,3.6130302530483536
14.13,-8.163527260861478,4.048597324161603,3.624346484384219
14.14,-8.170109424538486,4.02417630600995,3.6366940266328998
14.15,-8.174050768229343,4.003193031519261,3.6509753337405635
14.16,-8.17493410797853,3.9871849618958115,3.6664907548384544
14.17,-8.172694676803651,3.978058265433227,3.6813655870282362
14.18,-8.166213968352999,3.977924423027223,3.6958583293916636
14.19,-8.15539192804253,3.9872184539759785,3.70971030465623
14.2,-8.143420211763807,4.000623611659526,3.7215640296329355
14.21,-8.133793857714762,4.010330125862139,3.732158284525038
14.22,-8.126937717448614,4.013324178223671,3.74386011847139
14.23,-8.121821309776323,4.010842361261076,3.757590930279555
14.24,-8.117554824276992,4.005166434649197,3.772833284614216
14.25,-8.11321051961061,3.998679683262987,3.7890216402587744
14.26,-8.106776889761823,3.993860897924189,3.8078259719458267
14.27,-8.097083906835715,3.9900079672851967,3.8323894999927846
14.28,-8.083639839503487,3.985358895426255,3.8654514196209315
14.29,-8.066847454455116,3.980000156303316,3.905826941293163
14.3,-8.048020700675002,3.9723413611666927,3.952167294175938
14.31,-8.029655718715704,3.9584085773041324,4.003167264710835
14.32,-8.01451800187934,3.939012375567501,4.052355054724211
14.33,-8.002596056019378,3.9200265777462002,4.094132116902175
14.34,-7.991359533160258,3.9056851532224286,4.129642672230949
14.35,-7.979713510372364,3.8954369580312824,4.161720280727148
14.36,-7.96948688477721,3.8862717181643083,4.1898021410514605
14.37,-7.962100119379339,3.875878587148697,4.213411405250411
14.38,-7.957931600392256,3.860340332089712,4.235480175870058
14.39,-7.955722723736727,3.8364323712215254,4.261253430702129
14.4,-7.95076782975121,3.807729704033187,4.296082189954822
14.41,-7.938267863798937,3.7811388521033664,4.342413338349425
14.42,-7.91814512970986,3.758955079187491,4.398046338604507
14.43,-7.893037362953519,3.7412010253707386,4.4579109522189
14.44,-7.864265817520322,3.730365971219501,4.5174483483084655
14.45,-7.833315132747874,3.7287922721950824,4.572210677070018
14.46,-7.805881874537636,3.7302465980963015,4.617739492665902
14.47,-7.785377205727916,3.729084456910319,4.653180444347569
14.48,-7.77037705073437,3.7307130020787658,4.676892065508306
14.49,-7.7570396709226275,3.7434766011466687,4.688812638491519
14.5,-7.744863932878979,3.765983054218056,4.690914611012308
14.51,-7.735205878841796,3.7908213574292424,4.686848796653628
14.52,-7.729488150062703,3.8115737405433805,4.679456180648184
14.53,-7.725767401423976,3.825489694106697,4.67424294984883
14.54,-7.722808801915567,3.8287976490305624,4.6764185053383756
14.55,-7.7246443509791956,3.8198271540665734,4.680718864258224
14.56,-7.732701075667233,3.8048310332672752,4.679625581400012
14.57,-7.745114171183616,3.7900886332970947,4.6710492852617
14.58,-7.765271401518775,3.774728356103961,4.649945960989951
14.59,-7.795541394868184,3.758610457975702,4.612180139988428
14.6,-7.829881044490206,3.7490054730020446,4.561553053016564
14.61,-7.8597470461811785,3.7536129794704878,4.506066254967746
14.62,-7.882289718534138,3.77124543855811,4.451645041401498
14.63,-7.8982893894768065,3.7956467618193064,4.402283176065007
14.64,-7.909469399754323,3.8209855419955394,4.360101172126114
14.65,-7.919081714204441,3.841601202028751,4.324395822680872
14.66,-7.931545859222837,3.8551831738507834,4.289320599837492
14.67,-7.949839798370494,3.8639093716946764,4.2473881947596945
14.68,-7.972014870488632,3.8719030363798432,4.198249801976871
14.69,-7.996121914772242,3.881075961611174,4.143559804430117
14.7,-8.022407957808175,3.894206800713179,4.0799231137648775
14.71,-8.048844215240045,3.9163899421009623,4.005910783293934
14.72,-8.07640145380122,3.9481676743922645,3.9182500744396953
14.73,-8.107152201946825,3.986050574291319,3.8149850552374525
14.74,-8.14454357376171,4.022832332252834,3.6947704168895465
14.75,-8.193163214342952,4.049089443538041,3.555940597537772
14.76,-8.25145499502972,4.058205753777833,3.407688428001882
14.77,-8.313871898174135,4.049203713897769,3.26365868204894
14.78,-8.379582041866447,4.024337407830912,3.123316447632054
14.79,-8.449476691072556,3.9887964900470325,2.977143244475968
14.8,-8.52164077511908,3.947722308133157,2.8221235675832843
14.81,-8.592865550784268,3.9096201440464453,2.654173332783498
14.82,-8.658059112111538,3.8843271220436986,2.473281281618049
14.83,-8.715609888045107,3.8698624065726626,2.286898265297296
14.84,-8.766045060343544,3.856231080891297,2.110480445323521
14.85,-8.811218612784828,3.83635041309981,1.9527810229449951
14.86,-8.854842998503567,3.8074311147689537,1.8066659627841304
14.87,-8.897741041093806,3.768389738901899,1.6728898402865773
14.88,-8.939341555469479,3.7202067797251197,1.554849983745503
14.89,-8.978912022661559,3.66660938831072,1.4507406476225644
14.9,-9.01563596165598,3.6136180556702633,1.3526148529986053
14.91,-9.05036696352333,3.5635504886169955,1.249531557588566
14.92,-9.085200826122637,3.512536852003646,1.1360817453080705
14.93,-9.119333894506424,3.4576106327583815,1.0258190017773414
14.94,-9.152935239253216,3.395451213483467,0.9296823199707268
14.95,-9.188256070926332,3.323109979299036,0.8381317636503386
14.96,-9.226003333815767,3.2398852887060805,0.7439911507562403
14.97,-9.26483079257509,3.148858567296507,0.6458241557810461
14.98,-9.302323775373468,3.0561823067118463,0.5442068742426285
14.99,-9.336502778701847,2.967472005702302,0.43984786253753955
15.0,-9.36529413489779,2.890629324419308,0.3243939741925016
15.01,-9.386493681476512,2.832856310030406,0.19622696576637905
15.02,-9.399692295311105,2.7947380382725298,0.07294731140821516
15.03,-9.408364586337308,2.766280483488196,-0.024770189047966684
15.04,-9.41600045974523,2.738927422220946,-0.08679920804687748
15.05,-9.424543249652146,2.7084629258514497,-0.11207263159192106
15.06,-9.434285544702123,2.674288944445979,-0.11286469196761453
15.07,-9.445039573711268,2.63614366885834,-0.11086637455514413
15.08,-9.456047964006094,2.595526195182229,-0.12962037771614804
15.09,-9.466728504696585,2.5543256819890576,-0.16405471453883805
15.1,-9.476610885280722,2.515826886187241,-0.18670241773791507
15.11,-9.483807764002686,2.48826050444933,-0.19072419005456312
15.12,-9.488149299562743,2.4719507779823897,-0.18669233982309918
15.13,-9.49067219207728,2.463598959202484,-0.16781911500305235
15.14,-9.492819976290269,2.457820808553929,-0.12601734630887232
15.15,-9.49409389294239,2.455197116071144,-0.06753412018384922
15.16,-9.49258285218311,2.4619446471325697,-0.0011072915581672048
15.17,-9.487884909054403,2.478944179516654,0.0719358839787536
15.18,-9.481765657720274,2.498833314004412,0.1489736972954697
15.19,-9.475384195709363,2.516678970813484,0.2315068552509254
15.2,-9.467754773602119,2.535593754421008,0.320094725386442
15.21,-9.45798193768131,2.5576122480399754,0.4185541739896255
15.22,-9.44516951285536,2.583529620676841,0.5328725299281385
15.23,-9.428914283559132,2.6135274660734895,0.6593421316525101
15.24,-9.409831789013818,2.644341111370631,0.7949966154225819
15.25,-9.388056055666963,2.672840688433226,0.9431998935372985
15.26,-9.36203161740676,2.7017150327944224,1.1054654171649252
15.27,-9.331852968096767,2.7334213113343955,1.2703608222041154
15.28,-9.299335501760579,2.768871901112859,1.422911824183158
15.29,-9.265103483753448,2.8064326878030075,1.5655136182209528
15.3,-9.225657233499994,2.8518743216722293,1.709651333054841
15.31,-9.177592548935097,2.911493489266914,1.8610453203824844
15.32,-9.12151208088572,2.9828742532584274,2.0170995917502283
15.33,-9.060711277245016,3.0580959802102785,2.1724537353028217
15.34,-8.9970016486579,3.1323360072265936,2.3260289897236133
15.35,-8.931552784907181,3.204574811378236,2.475091416200742
15.36,-8.863273297007982,3.27866387958633,2.619301702022149
15.37,-8.790231964882752,3.36167126708665,2.75660136920998
15.38,-8.711472801002584,3.4606309295404163,2.881321327538987
15.39,-8.628466196336111,3.5721786785019,2.9927763601062876
15.4,-8.544160311250051,3.682964361590613,3.0985101841173637
15.41,-8.46145294990162,3.778550679296562,3.208459673901555
15.42,-8.383984525685426,3.847661444355874,3.3275102291022347
15.43,-8.315927869385348,3.883941149072274,3.4537850486790713
15.44,-8.259404096569396,3.888897778514526,3.5815048924620676
15.45,-8.215135397012322,3.870150242297781,3.7016509214283646
15.46,-8.17781332494626,3.8410005429197733,3.8130033492276776
15.47,-8.142556991694976,3.8166194419293404,3.9116986952026105
15.48,-8.1112259264803,3.8000643107659777,3.9921335868473897
15.49,-8.088431348108399,3.784003421382915,4.053212505456319
15.5,-8.076566048728852,3.759077417146495,4.099816939479574
15.51,-8.075275989780653,3.720896595243079,4.1370171039352
15.52,-8.080462263828453,3.6744330391051676,4.168295268057257
15.53,-8.084783235599215,3.6286939245477585,4.199867637092165
15.54,-8.080429948362827,3.590239958986614,4.2410858672443785
15.55,-8.062527485196425,3.5630515779268697,4.297685687686509
15.56,-8.036009604777504,3.5449643867882052,4.36182383627483
15.57,-8.008678051043466,3.5331407501500296,4.42129256765805
15.58,-7.985578258015323,3.5281590102300933,4.4668496896966365
15.59,-7.970517262255867,3.5284991410641187,4.493422630384104
15.6,-7.964127325328923,3.5277346208967653,4.50534644860002
15.61,-7.965851176872328,3.524229441089018,4.505041779606533
15.62,-7.974031496868415,3.5189254051013923,4.494701646228435
15.63,-7.9864892888857035,3.5148994516103813,4.475686201626667
15.64,-8.000547857769869,3.5163050011250787,4.449388850825434
15.65,-8.01246413141823,3.5266779363554166,4.419634415405142
15.66,-8.020872934261536,3.5452169650311047,4.38944799710933
15.67,-8.02892070481565,3.5657628116009197,4.357969739603857
15.68,-8.039852437719697,3.584290427327573,4.322471388853299
15.69,-8.052007316821841,3.6008000147126125,4.2859675583193875
15.7,-8.064065457195515,3.6157312281547416,4.250583664981545
15.71,-8.076976085542887,3.633759047070412,4.210494374985557
15.72,-8.087892410851698,3.6614943568462386,4.165251884284856
15.73,-8.093824884037586,3.6975323807851774,4.121662582988101
15.74,-8.09617579133978,3.732769355655227,4.08513796978588
15.75,-8.097324703284443,3.7619672295450655,4.055991104056845
15.76,-8.096901239897683,3.788233953559095,4.0323263477364275
15.77,-8.094236410521479,3.8149624270297826,4.012426589192581
15.78,-8.091546067298077,3.8403609088927535,3.993584513879829
15.79,-8.090464026945712,3.8642105636963313,3.9727167408507067
15.8,-8.090691860762782,3.8926646243143694,3.944353866700011
15.81,-8.09335282466768,3.9291071678495557,3.9025054865380238
15.82,-8.100017973681263,3.970899802277039,3.845915641873974
15.83,-8.112260225992536,4.015244705719474,3.7733204803987164
15.84,-8.130767007312949,4.060102238569277,3.6843654114600883
15.85,-8.15351434122776,4.1017850238714235,3.5865986567603065
15.86,-8.176594530656963,4.1399042906885954,3.488948115578446
15.87,-8.19813827163556,4.178465481317445,3.39103444565391
15.88,-8.219497661642196,4.217829502416215,3.2890245283085964
15.89,-8.242528426886203,4.252720815976909,3.1848146858783246
15.9,-8.270530195399985,4.2782207637718415,3.076184922547373
15.91,-8.307666841290402,4.2920714220799185,2.954266469950077
15.92,-8.348571154717446,4.299424744048696,2.825425019084738
15.93,-8.386175165958587,4.304546586305708,2.7037478396046075
15.94,-8.421551106560287,4.3033766666395925,2.5935075482885757
15.95,-8.459355804131794,4.290483406178583,2.4897760020505193
15.96,-8.502682677912185,4.263758234536195,2.3858534602142316
15.97,-8.550690277233386,4.2236003023756,2.2834807179322527
15.98,-8.601070700337667,4.170601256047416,2.189775279812169
15.99,-8.652221549888187,4.106355755526947,2.1081967585131536
16.0,-8.704489594125821,4.034104430261928,2.031073773745622
16.01,-8.756796557237683,3.959941746848904,1.9505307701948305
16.02,-8.80564113401882,3.892424665917425,1.8646889242502158
16.03,-8.849190335023101,3.8364477768500143,1.7722862670387627
16.04,-8.888588540037906,3.789344656151072,1.6737116566924097
16.05,-8.925053345525074,3.7442965133575066,1.5784316478221714
16.06,-8.959375434522116,3.695640980244828,1.4967039277866472
16.07,-8.992905909806833,3.641614800419866,1.4264419301022484
16.08,-9.02639662012737,3.581387480101741,1.3661479072100986
16.09,-9.05916807968983,3.5150453711881675,1.3208676633192236
16.1,-9.091068346699622,3.445259023878209,1.2850908976955253
16.11,-9.12209268164981,3.3764188554029286,1.2473898520407634
16.12,-9.150287278220357,3.3152680102336456,1.204261564638763
16.13,-9.17361691166403,3.26738541586432,1.1568255058744545
16.14,-9.191983488857797,3.232684954092204,1.1075892935203242
16.15,-9.206118350732627,3.2076417676302613,1.0621764705429342
16.16,-9.216985215119278,3.18781859460109,1.027160544713011
16.17,-9.224594805574858,3.1719867418910326,1.0078089724926176
16.18,-9.22874427569552,3.1623640028246274,1.0000530898960487
16.19,-9.230520779168106,3.158307390497968,0.9964617519954493
16.2,-9.231184730633409,3.156369819653315,0.9964537901276219
16.21,-9.230161066232048,3.157721992515295,1.0016480588667271
16.22,-9.2257034105586,3.1685919130864835,1.0083307978382177
16.23,-9.21716544535402,3.1911770647319844,1.0150949423524336
16.24,-9.205334139907608,3.22090346363314,1.0284074592462191
16.25,-9.189841676481315,3.256692874850522,1.0538003153359812
16.26,-9.170113174921635,3.3015008343374013,1.0856287467026362
16.27,-9.148294156327726,3.3506213245094103,1.1186969699249
16.28,-9.126836718912376,3.3957267014663635,1.1572913134521225
16.29,-9.106339119290443,3.4338574343430306,1.205221562474074
16.3,-9.087860947109954,3.464879407878913,1.254973424936166
16.31,-9.072078666070688,3.4897951823768842,1.2994309239159403
16.32,-9.05762319459377,3.5118061843009962,1.340356257976021
16.33,-9.042873441910508,3.5350691552912097,1.3782751410195144
16.34,-9.028161110864248,3.560416192976725,1.4091728407673085
16.35,-9.014646861424106,3.585483830956239,1.431980085647445
16.36,-9.001775837837888,3.609561557156437,1.4523160599085951
16.37,-8.989246030864184,3.632867909550233,1.471697192501307
16.38,-8.978664441691825,3.6529261342845074,1.4866053082993556
16.39,-8.97064633981203,3.6679918437747103,1.4978740254227882
16.4,-8.964231366954422,3.6796317068291367,1.507693989268785
16.41,-8.958567928775345,3.6903703511802135,1.5151070973521361
16.42,-8.95402558517682,3.700122477528509,1.518181223803388
16.43,-8.950677686893087,3.707554988582875,1.5197897020526012
16.44,-8.947434141610227,3.7133941997733517,1.5246225250801457
16.45,-8.943545667207287,3.7190329032649747,1.5336646403387
16.46,-8.941022224853258,3.721433723601632,1.5425461155506701
16.47,-8.941158314620075,3.718579230240045,1.5486307060459137
16.48,-8.943061124921199,3.7131953125069157,1.550554327753966
16.49,-8.946292027119831,3.707211211597223,1.5462170951931817
16.5,-8.94988732469382,3.7024576850620714,1.5367671700247083
16.51,-8.951822265620612,3.7029066739557854,1.5243577309284182
16.52,-8.951023601238564,3.7107438292365993,1.5099081667175671
16.53,-8.948865822937064,3.7224987336912196,1.4936832642042057
16.54,-8.948034425435988,3.730567191653232,1.4784833650569844
16.55,-8.949982402388597,3.730119277038071,1.4677828844807412
16.56,-8.95305056921152,3.7256206258760938,1.460483047384354
16.57,-8.955560844716343,3.7233329874675922,1.4508968467824273
16.58,-8.958539889575349,3.7219827689524836,1.435883852896534
16.59,-8.96198833278999,3.722282869529805,1.4133695064936456
16.6,-8.964813686663755,3.7287508123402113,1.3778456374250287
16.61,-8.967448409430753,3.737814169547938,1.3355194093602871
16.62,-8.97016577544279,3.742086218939758,1.305072755846825
16.63,-8.972447709699681,3.740235299588922,1.294682501647545
16.64,-8.97291766678118,3.7376050212527394,1.2990175871781475
16.65,-8.970380777987536,3.740006967474886,1.3095657458560712
16.66,-8.9653635637545,3.7477922596356166,1.3215991742656148
16.67,-8.958850825962566,3.758847222595364,1.3343060167302496
16.68,-8.951055050959392,3.773428630029848,1.3454118918187208
16.69,-8.942742716822282,3.7916951323522037,1.3493242135074892
16.7,-8.937008745092983,3.8081969901446544,1.340820982440487
16.71,-8.936790034474582,3.81483969457652,1.3232848024450172
16.72,-8.941177405057202,3.811187777870259,1.3040287619979916
16.73,-8.947436643938548,3.8041779109242504,1.2813371285195208
16.74,-8.95413344667096,3.7983063395465124,1.251607904369358
16.75,-8.959868135762866,3.79553333108688,1.2185391576591875
16.76,-8.96203413255436,3.8006677874779173,1.1861770049232214
16.77,-8.9571996672296,3.820989459795002,1.1569615454196185
16.78,-8.944907038970829,3.858014923484129,1.1287064071634751
16.79,-8.92867680152685,3.9037287797102076,1.0996450131656086
16.8,-8.912566680831894,3.947247171169476,1.074828493421779
16.81,-8.89831730589885,3.982573856801941,1.0626208379064919
16.82,-8.884810977256155,4.011683396752118,1.0661360036379328
16.83,-8.871112971552973,4.0391709322753835,1.0763690505424746
16.84,-8.858105570952242,4.066210383428819,1.0816911037581136
16.85,-8.847357570166762,4.0912260829945195,1.075316361888082
16.86,-8.839910620606625,4.111919443536306,1.057484092816959
16.87,-8.834982617078367,4.1277420386880666,1.0368497716585297
16.88,-8.830748860023327,4.140564520054926,1.0217347062762359
16.89,-8.825788118821986,4.152129799465398,1.0176804294592499
16.9,-8.82007731085423,4.162124697089312,1.026279575259797
16.91,-8.81342757120506,4.170922541789321,1.0474041211347234
16.92,-8.805188392200657,4.180759719891926,1.0770324240008413
16.93,-8.796033929324093,4.192549328233845,1.1056900299154344
16.94,-8.788885830649996,4.203064440597203,1.1225572670588193
16.95,-8.786092376936201,4.207149614659289,1.1290999681830212
16.96,-8.787147390236617,4.203579388369486,1.1341702015521287
16.97,-8.791426183207767,4.193834322914279,1.1370698528121885
16.98,-8.797679764017404,4.179976023194274,1.1397260835667036
16.99,-8.802183142658656,4.168341022561738,1.147561999577905
17.0,-8.80084582826674,4.168203731542331,1.1582465300575913
17.01,-8.79331124425948,4.182073886781872,1.1654138521244553
17.02,-8.782560044396808,4.203681030229664,1.1687287063699126
17.03,-8.77164520515135,4.224417107234988,1.1759165492904466
17.04,-8.763979070846544,4.236442204362834,1.1897561326971875
17.05,-8.763123236269504,4.233728451974784,1.2056133439273744
17.06,-8.77024995613549,4.215383459946197,1.217960784689593
17.07,-8.782718519517173,4.18655874538181,1.2274472844949489
17.08,-8.79805063411726,4.152863000310834,1.2320931692750405
17.09,-8.814472748530473,4.118282449410223,1.2308201963444523
17.1,-8.828485150191291,4.08906659631679,1.227860924769474
17.11,-8.837187911400424,4.071139214072367,1.2248598121049212
17.12,-8.84122658578503,4.063466345067553,1.2212037666991455
17.13,-8.842536266746777,4.060714881019878,1.2208901060700104
17.14,-8.842361575385961,4.060446914471707,1.223032472153963
17.15,-8.840580291189642,4.064078267727621,1.22382803263161
17.16,-8.837646273472664,4.071885063848956,1.219052703113413
17.17,-8.83554701980707,4.07999362169301,1.2070972454276976
17.18,-8.834421685223397,4.08533816810208,1.19723555535787
17.19,-8.833040734039955,4.088938116062238,1.1951445457618686
17.2,-8.830632020035006,4.093360471274651,1.1978078111670476
17.21,-8.829764588198884,4.0949351034728725,1.1988137062405568
17.22,-8.8332578455877,4.08686774449941,1.2005625112389513
17.23,-8.839270679320093,4.0703893718078525,1.212210203497409
17.24,-8.845899969819385,4.0510414049258365,1.228555614660663
17.25,-8.852005243861132,4.0324280566018285,1.24569312562837
17.26,-8.852890052960738,4.023839217200059,1.267016132195421
17.27,-8.846453253555175,4.0331604610763785,1.2822481458741568
17.28,-8.837700265030287,4.054042347103667,1.2767142620921201
17.29,-8.831804174981878,4.072252097154706,1.259509402763919
17.3,-8.830038660201067,4.077654609200689,1.254403588753982
17.31,-8.832994279589794,4.067198683363744,1.2674020698007105
17.32,-8.837522934432547,4.048065532369233,1.296675155121573
17.33,-8.839309160004392,4.031907719758816,1.3343633421375327
17.34,-8.835504218497189,4.0312726207596,1.3612592989590782
17.35,-8.826602904618092,4.049278894208645,1.3655300389702765
17.36,-8.815938290430335,4.075327892857807,1.3569065399240527
17.37,-8.805421999285667,4.100802576177175,1.3484291948698603
17.38,-8.793461495613343,4.125667709992747,1.3505971293613956
17.39,-8.779095080845726,4.148706051230608,1.3732159946015574
17.4,-8.764540998941875,4.1652373582011615,1.415437250372999
17.41,-8.752556662076971,4.1726774618010785,1.4667708490273101
17.42,-8.743261679442373,4.174970331782,1.5149543906657452
17.43,-8.736840953948073,4.175506395603953,1.5501772849009499
17.44,-8.732451883186044,4.177754380240306,1.568773724865687
17.45,-8.727939957723898,4.184711428827292,1.575335379100068
17.46,-8.723451306121753,4.19354023021942,1.5767149340460638
17.47,-8.720023333697243,4.199489911552372,1.5798199331645744
17.48,-8.717696543182075,4.200704971354127,1.589402108021761
17.49,-8.715941837564005,4.198162864970588,1.6056536050219548
17.5,-8.715562823475505,4.190542103784013,1.627458910303375
17.51,-8.717650915804716,4.175584290623532,1.6544643994591377
17.52,-8.720586043282998,4.156964224477613,1.6855958934644613
17.53,-8.722552579855995,4.141431676796089,1.7134590985755773
17.54,-8.723009545027395,4.133740319552468,1.7296469141856161
17.55,-8.7247470154428,4.129194844439823,1.7317426961815854
17.56,-8.729244308397375,4.119997179077288,1.7309632072033354
17.57,-8.736667357878321,4.103600260603472,1.732454419208738
17.58,-8.746221246495939,4.082393015915175,1.7343464184187456
17.59,-8.756334031048704,4.060171093605052,1.7354768850050828
17.6,-8.765759725033599,4.038996628218825,1.7373161513750828
17.61,-8.772763181828182,4.02219069246148,1.7409574862589994
17.62,-8.778270547690191,4.010281231513936,1.7406775699420272
17.63,-8.78329896688864,4.000715771271504,1.7373173648639897
17.64,-8.7876017111878,3.9923343966298845,1.7348432717361926
17.65,-8.791133749758204,3.9840853445403526,1.7359239590544389
17.66,-8.793646438413438,3.9764251617733093,1.7407419170129796
17.67,-8.793622399238572,3.9723057688990946,1.7502506911851774
17.68,-8.790416483197395,3.9745503372467654,1.7612176468384912
17.69,-8.782880316065842,3.984467736961293,1.7763291747786667
17.7,-8.771110620811747,4.00218316746432,1.7945415727306941
17.71,-8.757074093494944,4.025734407679823,1.8103625893729751
17.72,-8.74299137382332,4.051192467104987,1.8215973015321367
17.73,-8.73011135942791,4.072572988691738,1.8356559014003069
17.74,-8.719568430074192,4.08513944853294,1.8576977057350696
17.75,-8.712176801300073,4.088875051049661,1.8839905324679624
17.76,-8.709733383906688,4.0830182751046165,1.9078251486590807
17.77,-8.71164884216915,4.065284460486688,1.9367129970884414
17.78,-8.7176936547168,4.038269499190159,1.965823583504483
17.79,-8.727868183155852,4.006915411261033,1.9847363042069666
17.8,-8.739830458707942,3.9759718153622448,1.9943083508447386
17.81,-8.752409079229146,3.9468540273287007,1.9969840892905135
17.82,-8.765497112238501,3.9173628887384795,1.9976609509869758
17.83,-8.777720490063324,3.8862463054958245,2.004756047220718
17.84,-8.788421289363374,3.855407341835878,2.017373758673831
17.85,-8.798036840756305,3.825813026743741,2.0317379253521257
17.86,-8.806034059305222,3.7972297117978298,2.050623113163716
17.87,-8.809533592185877,3.7743413579719833,2.077694579517853
17.88,-8.80939059715174,3.762519010848182,2.099636812562873
17.89,-8.809784697599126,3.758583845887115,2.1050217091571937
17.9,-8.810993286719059,3.7554984988229014,2.105472517681474
17.91,-8.81021072491586,3.7561081684672053,2.1076550254618884
17.92,-8.80603018878741,3.7657453723486856,2.1079350564471966
17.93,-8.799439157511593,3.782782221519982,2.1049340112637274
17.94,-8.791222043059111,3.8016019027729975,2.1053699319029398
17.95,-8.78120099979745,3.820215054717752,2.113481261570297
17.96,-8.769500008760305,3.840743249208535,2.1248436359752496
17.97,-8.757989124514701,3.863546398825202,2.1309612365814474
17.98,-8.748388379601145,3.882971730595232,2.135103999097555
17.99,-8.74217652825843,3.8931273527261854,2.142037872350794
18.0,-8.739409376149059,3.893309321918292,2.152967764036697
18.01,-8.739468932635642,3.8856720872905304,2.1664743633149928
18.02,-8.744058518789766,3.869906596527094,2.1761489610367084
18.03,-8.753957089006398,3.843380216048433,2.1833394855740513
18.04,-8.76377752536832,3.812926976505882,2.197303196941466
18.05,-8.770723724361199,3.78846048096199,2.2118656507883325
18.06,-8.775666635852755,3.7740469670068433,2.2169050378096227
18.07,-8.78027645938627,3.764575802392471,2.214749529359231
18.08,-8.784758705876529,3.7529398225083,2.216721158341403
18.09,-8.784388610176919,3.7448609489087876,2.2317947268313487
18.1,-8.780325127191816,3.7465975448527056,2.244830604757499
18.11,-8.776423670253388,3.7563727491217156,2.2437613618856953
18.12,-8.774583931664402,3.764921558626251,2.2366127677237246
18.13,-8.771863830547197,3.7703335053660854,2.2381621592253755
18.14,-8.767282286585145,3.7793455642137066,2.2409093514377383
18.15,-8.764429571839447,3.7883524121153833,2.236861536327138
18.16,-8.760805486634572,3.793379682900089,2.2425348763348785
18.17,-8.75353796564638,3.7993861157633146,2.2606595257060267
18.18,-8.745028111836593,3.806694298228756,2.2812212805438357
18.19,-8.737298980777055,3.8124926078795927,2.301067915099366
18.2,-8.730370004863575,3.820049644731993,2.3147780001383955
18.21,-8.72613267145642,3.829750481128581,2.314723813771552
18.22,-8.728506367115786,3.831465341676877,2.3029240092475405
18.23,-8.735730702544782,3.8202537359046853,2.2941322429813575
18.24,-8.742422062110975,3.8070224543062396,2.290630506495869
18.25,-8.749786152478311,3.796393855776735,2.2801343450859575
18.26,-8.758589920862109,3.777687836153448,2.2773913276127797
18.27,-8.767411336416211,3.750133656820248,2.288951133454832
18.28,-8.773881493663007,3.7259697993572547,2.303585297767665
18.29,-8.777168961144804,3.7165983378355296,2.3062046771698133
18.3,-8.779910498785464,3.7176208606308996,2.2940937449236696
18.31,-8.782597446331634,3.71969066319824,2.2804133000107547
18.32,-8.785189578031856,3.7206573489432517,2.2688137975913762
18.33,-8.784745249832149,3.7262262340077674,2.2613944396320758
18.34,-8.780656259389936,3.7388703227279874,2.2563884733813575
18.35,-8.774403051098322,3.756173355814814,2.2519672304880007
18.36,-8.768437423792948,3.7730295800775506,2.247028605255397
18.37,-8.764997537046849,3.782705259108511,2.244173510847837
18.38,-8.76173272469179,3.7864277502181647,2.250627488096312
18.39,-8.757415500651874,3.792087844367822,2.2579002684814085
18.4,-8.75314782177934,3.8002673528839055,2.2607042438851632
18.41,-8.750139074890086,3.808277953431539,2.25887408445428
18.42,-8.74942227978607,3.8123104729501405,2.2548312792741707
18.43,-8.75019835479635,3.8122263167567816,2.2519672701779196
18.44,-8.750456422498864,3.8116795762643325,2.251898047511201
18.45,-8.74759021496789,3.8144165490778126,2.258387581622735
18.46,-8.742230123665296,3.820550765084132,2.2687375770777742
18.47,-8.737121586832194,3.8257511881225943,2.2796236566572343
18.48,-8.734388807447738,3.824458009997925,2.2922338611855926
18.49,-8.734369057551106,3.8153958826336876,2.3073533084072184
18.5,-8.737667705873232,3.800200605324384,2.3199077413896814
18.51,-8.741758418795868,3.7841947123303514,2.3306425639200175
18.52,-8.745004609591636,3.7720826713930884,2.338088743297476
18.53,-8.746079447715644,3.7690348086976084,2.3389807888542724
18.54,-8.747911633754795,3.772828618193014,2.325965459061585
18.55,-8.750340982723815,3.7759871740814743,2.3116637071113253
18.56,-8.750559729635794,3.775876745750321,2.311030537826221
18.57,-8.747272658493946,3.7781457681756803,2.319743091243656
18.58,-8.741134213594904,3.784080026369086,2.3331654732145264
18.59,-8.735792338881756,3.785516727825183,2.35077188430146
18.6,-8.731013463771859,3.7815937952947256,2.3747196421540897
18.61,-8.72490720197761,3.7806929318744444,2.398472674861103
18.62,-8.718574497882777,3.787221870713245,2.4111819549179976
18.63,-8.713840256107671,3.797118373279069,2.412728854615756
18.64,-8.708870759450651,3.807243807701728,2.4147079945582783
18.65,-8.703293284117809,3.8187350078292734,2.4166709217127567
18.66,-8.698595223644766,3.8307172106995107,2.414620673874605
18.67,-8.6960251970034,3.8386309254709468,2.4113065621237975
18.68,-8.694423494190186,3.8415281894268745,2.4124767615701534
18.69,-8.691654889652611,3.8436825964618313,2.4190137350908003
18.7,-8.690666136206,3.844469934503696,2.421309287879191
18.71,-8.694180711390203,3.835932244139564,2.4222255044777508
18.72,-8.700699845912563,3.8187275441160913,2.425988928013071
18.73,-8.708338737435769,3.8004885716531853,2.427235192473713
18.74,-8.718360798164708,3.7813253683654993,2.421175762125764
18.75,-8.730456043292074,3.7584741205977905,2.4131577733638676
18.76,-8.741931710952365,3.7360959933159217,2.4063491710259224
18.77,-8.753075045588648,3.7170133714408875,2.395367503473809
18.78,-8.764915349682232,3.694836588598987,2.386353607186275
18.79,-8.776610826660805,3.666957859191316,2.3863612114698936
18.8,-8.784868699594512,3.6415513797832384,2.3948798446524333
18.81,-8.789293121921888,3.626615123923598,2.4013278609645954
18.82,-8.791413885545106,3.6221580342917985,2.4002955591020876
18.83,-8.791817312541896,3.6261213583261838,2.3928171695131444
18.84,-8.791723986928714,3.63448400499349,2.3804413213026865
18.85,-8.791291765006482,3.6395595096644846,2.3742812621169738
18.86,-8.788470583558098,3.6398750554688486,2.384205814098934
18.87,-8.781353629162155,3.643735311467669,2.4044378688469537
18.88,-8.774415184336684,3.6531693356963313,2.4154353294859954
18.89,-8.772261769559343,3.658729326396399,2.4148429018093016
18.9,-8.775353820584616,3.6525570290473373,2.4129461205387965
18.91,-8.78193384654443,3.6343292317695735,2.4165214588788375
18.92,-8.788702135027401,3.615387273587215,2.420335487767004
18.93,-8.794208218007801,3.6049387951048986,2.415926756981098
18.94,-8.798666863405225,3.598746429676674,2.408918467073866
18.95,-8.801761757364917,3.5901057680811737,2.4105064108735266
18.96,-8.801656833900646,3.58270043028434,2.4218759489412185
18.97,-8.79824316062654,3.5829244842822088,2.433911524154603
18.98,-8.791516234757331,3.589577110158491,2.4483638578935456
18.99,-8.782629435662193,3.596178740427245,2.4704539476516874
19.0,-8.774050453254764,3.5994494272726567,2.496043064253964
19.01,-8.769137171551241,3.600695910322003,2.511495163970328
19.02,-8.7689758665967,3.5983079424823643,2.5154769885251116
19.03,-8.769482155718235,3.591301271834445,2.523702763458091
19.04,-8.768107669029657,3.5866736502599217,2.535044158724098
19.05,-8.766324161251449,3.590051628012025,2.536438312772076
19.06,-8.765614085810888,3.5991761844422587,2.5259190160858225
19.07,-8.765003300939796,3.6101292716056346,2.512370337264607
19.08,-8.762959027728714,3.621145304939924,2.503632881867049
19.09,-8.760006164477183,3.6323558183142155,2.4977189308587735
19.1,-8.757672667123016,3.642574794713602,2.4910109671447285
19.11,-8.756036110662563,3.650303516561883,2.4854494026945315
19.12,-8.754922126425578,3.6550650840404684,2.4823809452095302
19.13,-8.754055104975038,3.6568073332343207,2.482875677074977
19.14,-8.752307884682,3.6580151551004763,2.487254973887452
19.15,-8.748672641871014,3.662587565968894,2.493306748746129
19.16,-8.743926525113308,3.6707662434151156,2.4979199479272185
19.17,-8.740127582696712,3.6776044160522448,2.5011576257686587
19.18,-8.73783819237345,3.6798957397806555,2.505778278144929
19.19,-8.736744219990573,3.680724523015271,2.5083775020011623
19.2,-8.736968026465409,3.6820846907812927,2.505601147839363
19.21,-8.738296482984799,3.680436769113459,2.5033831655938656
19.22,-8.739655043667366,3.6734777582263725,2.50885270771657
19.23,-8.74029189898997,3.6663611836243852,2.5170426772025274
19.24,-8.740182423902176,3.6657096596129928,2.518367332612412
19.25,-8.740172473849825,3.6701668925414803,2.5118981736313772
19.26,-8.740384008912885,3.6731439880902808,2.506810902783712
19.27,-8.740382025506815,3.6752510260695472,2.503726089731274
19.28,-8.739386586807633,3.6818618289562064,2.497470852483963
19.29,-8.737553625442821,3.693240515246628,2.487057978133859
19.3,-8.736299963912888,3.703892591612319,2.475595893019098
19.31,-8.735901840462297,3.7090251475965554,2.4693168193423545
19.32,-8.736531008591449,3.710963642360146,2.464170562533112
19.33,-8.739251657834204,3.713590865800841,2.450505963026201
19.34,-8.745447037644094,3.71566110819472,2.4251050735994046
19.35,-8.755785203824924,3.7134973288144475,2.390849659398594
19.36,-8.7674629921923,3.7077390302072155,2.3567707981953596
19.37,-8.778270879792998,3.7022932980202574,2.324882699040893
19.38,-8.788281615431824,3.6975813307573904,2.294367739204835
19.39,-8.797518498673805,3.6923396569233815,2.2672685073618073
19.4,-8.806415165595483,3.6858502860873776,2.2431655169219065
19.41,-8.8157094100342,3.6777931085176077,2.219757768127716
19.42,-8.825415374580123,3.6688572671554027,2.195848709685966
19.43,-8.835240836461166,3.6610896245590863,2.1691263762878545
19.44,-8.845390503351885,3.6562965699641006,2.1355540697945052
19.45,-8.856160219698655,3.6547672839873293,2.093061684341278
19.46,-8.86780634624776,3.653260095279838,2.045844203719941
19.47,-8.880341476218899,3.6471664818466425,2.001913724797837
19.48,-8.892830310657457,3.6368837950082917,1.9648658796183935
19.49,-8.904825326576583,3.6271211910122,1.9282227683513864
19.5,-8.917199453617831,3.618718434118938,1.8863395502204212
19.51,-8.929945344771536,3.609374081909917,1.8434757716160994
19.52,-8.942359187419859,3.599003543523016,1.8031459004175239
19.53,-8.954332072553651,3.589849671169254,1.7614762246723084
19.54,-8.966537979229088,3.581999648000677,1.7147061107450627
19.55,-8.980013113848383,3.570701397654421,1.6670919390589458
19.56,-8.996002655564517,3.5505909386956844,1.6232422240504811
19.57,-9.015858342038852,3.519710548501272,1.5796588442545754
19.58,-9.039992236272967,3.4793982952836453,1.5301369296847687
