seconds_elapsed,z,y,x
0.0,-8.02620275375545,-5.556275113746524,-0.9371535704709588
0.01,-8.010927855944125,-5.563405726783585,-1.0217161507598882
0.02,-7.992027485523784,-5.575882599552085,-1.0988217416171389
0.03,-7.988556859037636,-5.585458386168107,-1.075103169975597
0.04,-8.02223946593302,-5.554679758406097,-0.9794440947094969
0.05,-8.085543729581147,-5.474989813935319,-0.9047714533470245
0.06,-8.14348223390782,-5.39137472572358,-0.887078902978399
0.07,-8.155690719507334,-5.357371315400113,-0.9765137602716024
0.08,-8.134489065723587,-5.381673479348209,-1.0187010294738355
0.09,-8.080808713544311,-5.461048695628103,-1.0234022341925175
0.1,-8.018264361512896,-5.555176636048314,-1.008714877373082
0.11,-7.971882809487566,-5.623767601633141,-0.9963075159056309
0.12,-7.955533486532004,-5.641577862051518,-1.0258398753617304
0.13,-7.967674070611643,-5.616868517119494,-1.06636938464969
0.14,-8.002662376900695,-5.566143946740539,-1.070165866211952
0.15,-8.053504819023717,-5.502364351243598,-1.017334671702667
0.16,-8.096339217880164,-5.447665527730912,-0.9707583953666007
0.17,-8.125184068010746,-5.410465278144027,-0.9372826108061602
0.18,-8.147528841315738,-5.377432545670544,-0.9334723017009418
0.19,-8.145029108876884,-5.3784881530901965,-0.9489927217343298
0.2,-8.118879525402365,-5.4145586817694955,-0.9675663396470903
0.21,-8.07343338764474,-5.481363803479391,-0.971725089568641
0.22,-8.034140194033686,-5.539218861051992,-0.9694571901129252
0.23,-8.01433456882057,-5.563644156077554,-0.9932695447440745
0.24,-8.030921342031263,-5.535766668060379,-1.0144686543384083
0.25,-8.081147190395992,-5.461461006846466,-1.0184938926283162
0.26,-8.120873251274602,-5.407560686570956,-0.989777002920848
0.27,-8.144563633537155,-5.38051628754096,-0.9414713358853719
0.28,-8.141246066920635,-5.391280489086192,-0.9080056690187388
0.29,-8.126409186814454,-5.41536035473099,-0.897541158781472
0.3,-8.107716392043406,-5.437650505878665,-0.9307317451984919
0.31,-8.074403347534567,-5.471066368849312,-1.0194845405126094
0.32,-8.024094368532891,-5.522914459730662,-1.1317699305067126
0.33,-7.986765259365225,-5.571100492464225,-1.159465305717705
0.34,-7.9889269231991165,-5.580193384151691,-1.0990032832714165
0.35,-8.025610367777796,-5.542251964103159,-1.020505689179011
0.36,-8.086716831497805,-5.465307952505075,-0.9506738336322617
0.37,-8.152547785203641,-5.370811237104305,-0.9270492750587602
0.38,-8.198111872599236,-5.299168977226065,-0.9380184981192541
0.39,-8.198881992587104,-5.290908213193375,-0.9766479476921669
0.4,-8.14745319357535,-5.360450022575315,-1.0255497628218673
0.41,-8.068582435414358,-5.4719101867546405,-1.0604712517638495
0.42,-8.010908802031512,-5.5562183678597465,-1.0600469529792875
0.43,-7.98731269719998,-5.593700172321459,-1.0409907783529273
0.44,-7.9819468783984595,-5.604834554201945,-1.0220284126913157
0.45,-7.991852067792475,-5.5968088219871674,-0.9879190866277967
0.46,-8.022468407790967,-5.557579010725878,-0.9605193666194847
0.47,-8.070839231504909,-5.488653000303982,-0.9513331210216128
0.48,-8.119299138800029,-5.415518285880266,-0.9586610064628254
0.49,-8.14602764735819,-5.378474831946194,-0.9402301316726233
0.5,-8.152804581257424,-5.377371784516926,-0.8861861398943415
0.51,-8.12833092052402,-5.421665367721104,-0.8394588129957558
0.52,-8.08342832788936,-5.491678729421156,-0.8174595586022178
0.53,-8.030694367974847,-5.560865138132642,-0.8678128343785538
0.54,-7.990600922429699,-5.607976132689236,-0.9332122081424163
0.55,-7.982605222629538,-5.613492737375211,-0.9680183192937335
0.56,-7.993316575720997,-5.599408716550945,-0.9607956695718401
0.57,-8.0185223945491,-5.570859957209035,-0.9158457891095517
0.58,-8.040128865253418,-5.542338123618842,-0.8994958077354714
0.59,-8.056765795204452,-5.519805089097781,-0.8885753337089045
0.6,-8.094011499291655,-5.477746749176054,-0.8035260149077632
0.61,-8.151130434150618,-5.407705555100775,-0.6959386860090762
0.62,-8.194543620512901,-5.338205997552169,-0.7223136458324825
0.63,-8.19345241777519,-5.324938244247266,-0.8226569132425778
0.64,-8.129242739920619,-5.40069752403254,-0.9550038643488857
0.65,-8.037253614512972,-5.529706863390494,-0.9945108654829613
0.66,-7.961213344681178,-5.650921037478042,-0.923209186661021
0.67,-7.939919639661232,-5.6959838713868125,-0.8260356965829823
0.68,-7.98706016252996,-5.6348767956855905,-0.7880005385256961
0.69,-8.067866412617226,-5.511127574190755,-0.8368377142765466
0.7,-8.145391066448623,-5.3866198620389305,-0.8968914496715773
0.71,-8.192516123143605,-5.316998016240411,-0.884344442605864
0.72,-8.187124703180563,-5.3329546266665195,-0.8359816439955482
0.73,-8.139166754648112,-5.412473674471265,-0.7915421094500181
0.74,-8.084361872047559,-5.494505161486086,-0.7887418827468519
0.75,-8.048669185322218,-5.538063770293936,-0.8472739103130211
0.76,-8.032573965576926,-5.549286400956851,-0.9230361209040665
0.77,-8.02256942992564,-5.553381412621964,-0.984178918972238
0.78,-8.021744157278311,-5.555600720240141,-0.9780554893039681
0.79,-8.04307845161302,-5.535509827481342,-0.9137939049127837
0.8,-8.090310644865449,-5.478118875631722,-0.8393413407568752
0.81,-8.143112221025598,-5.4063403458386246,-0.793789652719879
0.82,-8.167257550689294,-5.36902781431278,-0.7996120545738308
0.83,-8.137736115314969,-5.407030740919686,-0.8418333733088678
0.84,-8.079017967358526,-5.48948843367138,-0.8735906156338145
0.85,-8.036716157277874,-5.5500206395849965,-0.88232897447968
0.86,-8.023288338823402,-5.568856391570036,-0.8860337638988733
0.87,-8.016244810186478,-5.575380946309087,-0.9081100672304321
0.88,-7.9969364298778425,-5.5952072290742665,-0.9551283772813784
0.89,-7.996613515768632,-5.596522933830818,-0.949373402730209
0.9,-8.04281692521916,-5.543907010006847,-0.8624981484727389
0.91,-8.11026670219044,-5.455400688840344,-0.7929598099085277
0.92,-8.16145283051828,-5.377508740805327,-0.8008665300204139
0.93,-8.164955416504535,-5.357363715778214,-0.8937362449871228
0.94,-8.126203770962801,-5.402360048021513,-0.9733726928680703
0.95,-8.069940631605252,-5.485112060278469,-0.9782392725405654
0.96,-8.014180370831504,-5.572001570256726,-0.9451753091759889
0.97,-7.971166921657493,-5.637424321239611,-0.9216967374656786
0.98,-7.946552908575035,-5.667078726284734,-0.9518267104349004
0.99,-7.949479139035177,-5.652986075473609,-1.0092541914557378
1.0,-7.994160503649943,-5.586522051771807,-1.0251015998384647
1.01,-8.063782218429218,-5.493546256712304,-0.980475138472107
1.02,-8.122155043406126,-5.416007595655543,-0.9312119474875267
1.03,-8.148076447498179,-5.381113629340415,-0.9069724460666148
1.04,-8.153969321234984,-5.376186243516056,-0.8830485455383247
1.05,-8.141997261895723,-5.391891228565897,-0.8970519916821095
1.06,-8.098925477570202,-5.446548651885141,-0.953487665338296
1.07,-8.023288105910625,-5.54686155782893,-1.0124145545117755
1.08,-7.945169481100121,-5.651681905845472,-1.0491519175673867
1.09,-7.900689384487255,-5.714149546304492,-1.047725412890925
1.1,-7.9155550671475225,-5.699507009133088,-1.0140419210085332
1.11,-7.9809910618998945,-5.614726431953886,-0.9709360450749444
1.12,-8.077197497044825,-5.486510780244869,-0.9059585346937095
1.13,-8.158738777063801,-5.370769467710691,-0.8706222730134374
1.14,-8.195392858046661,-5.3102216344238204,-0.8984732170297077
1.15,-8.18731943961932,-5.316775955335216,-0.9319810665117604
1.16,-8.138231880069648,-5.384507978490859,-0.9712879255474902
1.17,-8.075276567108912,-5.47788111078627,-0.9750583001790156
1.18,-8.028952832428173,-5.547366825175315,-0.9655560242861619
1.19,-8.005569068692482,-5.575472190479151,-0.9973510242269746
1.2,-8.004178897431794,-5.5677466036498595,-1.0501946765935524
1.21,-8.016530354440826,-5.541182336494885,-1.0956371065790793
1.22,-8.039529232208682,-5.507978055650212,-1.0940835934802287
1.23,-8.072522855170922,-5.471084973903468,-1.034810789154086
1.24,-8.102994313687319,-5.435657776848024,-0.9820035944968841
1.25,-8.127068598785069,-5.404877739247447,-0.9530820796632065
1.26,-8.125918362166699,-5.402513323763704,-0.9756063947027069
1.27,-8.10151472083625,-5.429432575732359,-1.0275796208137564
1.28,-8.067088009775981,-5.472164050696949,-1.0708795195779937
1.29,-8.036042447567782,-5.5105305899209425,-1.1071861314856584
1.3,-8.012155622021222,-5.5379873969308555,-1.142712964763437
1.31,-7.9933400018042855,-5.558234984363787,-1.175888703229685
1.32,-7.995808785088712,-5.555163657684897,-1.173376858635819
1.33,-8.03067961774579,-5.515537293015546,-1.1200319554627471
1.34,-8.082550515106485,-5.452485509951736,-1.0541590898740276
1.35,-8.11989767789682,-5.40092695682276,-1.0331313340818404
1.36,-8.128762437159821,-5.383090320158063,-1.0562196379221154
1.37,-8.126296539701412,-5.382453366975721,-1.0783682071471314
1.38,-8.122488455186462,-5.389013222216943,-1.0742565046982886
1.39,-8.101981960363192,-5.418458483371744,-1.08052068968124
1.4,-8.053900915990553,-5.4827466507832465,-1.114076656068184
1.41,-7.991659274622276,-5.5634033764271145,-1.1618421185482968
1.42,-7.9567397683771395,-5.612971894128525,-1.1639188369906985
1.43,-7.973066177838383,-5.599782309165813,-1.11419514652812
1.44,-8.01741699802704,-5.5453168462798885,-1.0671801573180284
1.45,-8.066809862779353,-5.477742153375136,-1.0438742663348646
1.46,-8.10576033326941,-5.419500207885284,-1.0465659122653466
1.47,-8.129742704514806,-5.38414526787901,-1.0431658872258043
1.48,-8.138557520300719,-5.376709348519914,-1.0124369377655467
1.49,-8.118133517100649,-5.411025825455137,-0.9928017143969526
1.5,-8.069038818400065,-5.481627987928427,-1.0049960380177583
1.51,-8.006862433637828,-5.56267912183707,-1.0551500534618197
1.52,-7.9574663332183455,-5.623746965298265,-1.1053954474581318
1.53,-7.9572200401032935,-5.621189469364367,-1.1200196877882862
1.54,-8.000105624370002,-5.566012537174622,-1.0888079689463022
1.55,-8.055241575546642,-5.498639069448321,-1.0223331496483241
1.56,-8.099417647868325,-5.441816516623568,-0.9776325369119407
1.57,-8.124131412986088,-5.405848340382083,-0.9723090634531368
1.58,-8.130873144045188,-5.391337039200046,-0.9960701193441643
1.59,-8.105383939132322,-5.4218581225125515,-1.0367554125493497
1.6,-8.048915219128732,-5.497804094548268,-1.075075855770736
1.61,-7.979106931648197,-5.588156745937899,-1.1280829799158942
1.62,-7.927403919735127,-5.656154143530944,-1.1549201100103106
1.63,-7.925732487833156,-5.664232719905394,-1.1263117767890791
1.64,-7.9807481498915065,-5.602078124136265,-1.0427671064878412
1.65,-8.068329765907444,-5.493192788483068,-0.9433018508423597
1.66,-8.142717026425144,-5.388187600697681,-0.9117190042967648
1.67,-8.176447486604308,-5.33310612624893,-0.9347162250619788
1.68,-8.169528706836259,-5.340389555198648,-0.9533707676350578
1.69,-8.136202947612318,-5.393026948893015,-0.9412978989783339
1.7,-8.093710273091714,-5.458020018176429,-0.9331523513563609
1.71,-8.043957529460814,-5.523423892629756,-0.9766251675495816
1.72,-7.982369716997124,-5.596391314455962,-1.06187637378302
1.73,-7.913847681272987,-5.677475240344846,-1.141805845205435
1.74,-7.867180551806173,-5.738788401816075,-1.1590629595017052
1.75,-7.8874337137012045,-5.726708327878304,-1.0758532819912077
1.76,-7.976761939757461,-5.624265641751613,-0.94740427800508
1.77,-8.0913098592154,-5.468821385954341,-0.8847934728558826
1.78,-8.183489288915904,-5.327451919754705,-0.902149592976477
1.79,-8.212756595765562,-5.275837108241271,-0.941384016157767
1.8,-8.178114856876428,-5.327074942762932,-0.9530746487096211
1.81,-8.104213717748829,-5.444055670842169,-0.9204771084062707
1.82,-8.015777190711535,-5.577058890687808,-0.8989550488244529
1.83,-7.937667351921915,-5.681455753404425,-0.9385113948521244
1.84,-7.8882673287497616,-5.738583469048249,-1.0062694341621023
1.85,-7.885058686971746,-5.73353344347794,-1.0592556530380792
1.86,-7.913017728439039,-5.693007548744129,-1.0692996329736624
1.87,-7.968192616705026,-5.625204171746491,-1.0153685830718178
1.88,-8.048577277924354,-5.521659437149425,-0.9466494383332553
1.89,-8.138505620391502,-5.401697404192537,-0.8655465493624888
1.9,-8.199893850297855,-5.314394280598492,-0.8294111434262299
1.91,-8.194140810954812,-5.318121990785153,-0.8617314297313942
1.92,-8.124834556923778,-5.415903436692846,-0.9051712409228003
1.93,-8.03185681404014,-5.547682913930788,-0.936215141219394
1.94,-7.955745530981089,-5.654664113742283,-0.9478230005174502
1.95,-7.9321485684888575,-5.687439363506634,-0.9510193391608438
1.96,-7.959354480250011,-5.64768121083128,-0.9599207866861234
1.97,-8.008837124772075,-5.5769071524979,-0.9618019792711748
1.98,-8.062083535672906,-5.504381430320963,-0.934261253432955
1.99,-8.097165497731366,-5.461036045901086,-0.8845269095832201
2.0,-8.10852340819686,-5.4511297405551415,-0.8408916254351475
2.01,-8.097202138919132,-5.4696758158725185,-0.8295129147643264
2.02,-8.076526543768557,-5.499714717244751,-0.832424900071205
2.03,-8.059563399281785,-5.522019871710144,-0.8490503431772433
2.04,-8.0437122028999,-5.5423768989848154,-0.866564489969355
2.05,-8.03026237467911,-5.559593763323546,-0.8809452065992333
2.06,-8.021591186770182,-5.571514847526012,-0.8846722852488741
2.07,-8.024430065440226,-5.571764230857033,-0.8567322451270317
2.08,-8.04324674288895,-5.5502953647772095,-0.8186572772686769
2.09,-8.073808038774363,-5.5124181484319665,-0.7720902167480057
2.1,-8.11050203038504,-5.464317237481075,-0.7281443432089597
2.11,-8.133741652701922,-5.432740271653597,-0.7055109053113949
2.12,-8.1335982321149,-5.4331094918289695,-0.7044516960653442
2.13,-8.11621644160872,-5.456042665593,-0.7270401251054317
2.14,-8.07978706650532,-5.502337643497276,-0.7810178305052304
2.15,-8.035291598024747,-5.558568009728266,-0.8397083665267828
2.16,-7.995348085182594,-5.614990383639203,-0.846017792108604
2.17,-7.982583157934651,-5.639610174810296,-0.8018164371922507
2.18,-8.00561848232326,-5.613499689114242,-0.7537734572945174
2.19,-8.05251560347086,-5.549334863767545,-0.7284886155002835
2.2,-8.099807003925465,-5.479550483291203,-0.7326280987440589
2.21,-8.131188455683363,-5.431526037458371,-0.743121152602939
2.22,-8.143906912670337,-5.413156586205562,-0.7381410091054157
2.23,-8.127038924918427,-5.435214728923198,-0.7612920750008008
2.24,-8.076951698396352,-5.501704542826848,-0.8137812539774206
2.25,-8.01442589157476,-5.584948851015032,-0.8633360710329032
2.26,-7.9682532744836045,-5.647117924684601,-0.886855786394137
2.27,-7.959409834656742,-5.661895620644969,-0.8723662398553454
2.28,-7.983660930703155,-5.632354484165808,-0.8411506715837885
2.29,-8.027272959574145,-5.572896991174692,-0.8215791766027389
2.3,-8.088359343691943,-5.488734856820502,-0.7876596842389433
2.31,-8.142425590952724,-5.410562520117868,-0.7718607226378588
2.32,-8.170197111681587,-5.373318189333739,-0.7384358407900924
2.33,-8.161495497663223,-5.391566783911175,-0.7007126433645159
2.34,-8.116875938905455,-5.458940725399394,-0.6967060592737246
2.35,-8.060244881658658,-5.538466417342795,-0.7256750871627967
2.36,-8.015616037803614,-5.5953521930958825,-0.7817581485538145
2.37,-7.987837424891418,-5.630062345615642,-0.8166369496499266
2.38,-7.99078685216287,-5.626724685487667,-0.8109422178315702
2.39,-8.01580748369702,-5.5958609901934855,-0.776581915611663
2.4,-8.057135549975648,-5.544314242854379,-0.7157597334248746
2.41,-8.096112465517384,-5.492960428262126,-0.6708150364692406
2.42,-8.121541543077178,-5.458533255652432,-0.6442821479507151
2.43,-8.138155652011827,-5.435321618504218,-0.6308618296837359
2.44,-8.121693323086255,-5.4587477476764965,-0.6405964642553003
2.45,-8.098997818217741,-5.491627350576198,-0.6468822440580972
2.46,-8.079002324707329,-5.520052863719735,-0.6549697184000399
2.47,-8.058965937657893,-5.547445741851789,-0.6701809526035667
2.48,-8.036508861351486,-5.576016724106618,-0.7019101553234571
2.49,-8.004141246711244,-5.620675619943046,-0.715373519060853
2.5,-7.996315422811188,-5.634063748984779,-0.6975617632062296
2.51,-8.023465729490937,-5.6018931017998135,-0.6423417301713436
2.52,-8.074116014859367,-5.53306648234113,-0.6027646702960703
2.53,-8.121680008966488,-5.462545335755036,-0.6071671843954611
2.54,-8.144677983439571,-5.425812181537778,-0.6284881476038848
2.55,-8.146764713110898,-5.420264645636954,-0.6490793903763359
2.56,-8.11895411633623,-5.461673552294876,-0.6502672493020223
2.57,-8.070030908721058,-5.532801288269439,-0.6576387080995432
2.58,-8.009994960615504,-5.615482882521003,-0.6898388390237263
2.59,-7.976619821656524,-5.6610965309703305,-0.7040697247612338
2.6,-7.995737134050157,-5.6346017913966895,-0.6998098215976493
2.61,-8.04646798481962,-5.566061268389215,-0.6656937800482433
2.62,-8.115438993401899,-5.470283048109342,-0.6205774110562801
2.63,-8.16291191709691,-5.399798979145856,-0.6156919202197733
2.64,-8.173333526282645,-5.382363274791188,-0.6301867793676016
2.65,-8.15254022804679,-5.414349030841577,-0.625471249713856
2.66,-8.10759525299522,-5.481027940003473,-0.628764126015823
2.67,-8.052458996090822,-5.557746270764601,-0.6628583288881578
2.68,-7.995759002544308,-5.628708746243027,-0.7452409687350069
2.69,-7.946149805364992,-5.68658609704191,-0.8315475358481156
2.7,-7.93033289722771,-5.705143758368759,-0.8552845086491628
2.71,-7.947716192918692,-5.684404882356929,-0.8316831519812798
2.72,-7.993657799027685,-5.630109942348934,-0.7573109282803183
2.73,-8.059283508772772,-5.545939811625419,-0.6787567945465665
2.74,-8.116171268985186,-5.463925200261256,-0.6660486846958081
2.75,-8.159226381319495,-5.399832465821811,-0.6627263179576994
2.76,-8.15044230505736,-5.407787488642039,-0.7046101083101355
2.77,-8.095300797765375,-5.485297812564051,-0.7401851977524361
2.78,-8.024274942877996,-5.585787691232389,-0.7617359587544426
2.79,-7.9653107145129365,-5.668027656976064,-0.7730891677231903
2.8,-7.95610201940568,-5.680493716039642,-0.7763757187399327
2.81,-7.986458335960772,-5.6361077696789605,-0.7880477571410647
2.82,-8.02858596196014,-5.575779319745055,-0.7891656203452477
2.83,-8.061004339355835,-5.530391303730099,-0.7780269386843258
2.84,-8.076121405935774,-5.511449242877237,-0.7553046634026378
2.85,-8.088018776273913,-5.499706596633418,-0.7124201547112413
2.86,-8.076240405547761,-5.515816901022112,-0.7213971884671636
2.87,-8.055974211119299,-5.542459783378257,-0.7434474066582358
2.88,-8.033539887137652,-5.572327443030758,-0.7627012518773251
2.89,-8.012365979522288,-5.602968868002513,-0.760965997641089
2.9,-7.997459369374595,-5.623850836663486,-0.7637549576825703
2.91,-8.007346044391166,-5.61001891524033,-0.7618030695494188
2.92,-8.034991312286543,-5.571156954718539,-0.755774631975078
2.93,-8.071911241971074,-5.518199708737491,-0.7509728114662299
2.94,-8.094631193126327,-5.48622946159684,-0.7406811517765544
2.95,-8.095573058160044,-5.48643762074238,-0.7287316359640168
2.96,-8.083972114525755,-5.504119869123976,-0.7241104579749406
2.97,-8.065493789160655,-5.530716642750478,-0.7275663638900866
2.98,-8.065015902620239,-5.529278517702666,-0.7435103509669483
2.99,-8.06229045283571,-5.527167111878882,-0.7873789821087164
3.0,-8.043146013301955,-5.547588987420372,-0.8378622051171286
3.01,-8.010341170939425,-5.590173580243135,-0.8686293532108582
3.02,-7.992693650941992,-5.619532362157037,-0.8410731212806424
3.03,-8.025929223500984,-5.580949795243062,-0.7789238759453807
3.04,-8.082849140849353,-5.50165326132885,-0.7540928006672616
3.05,-8.133216605225018,-5.4258704750499716,-0.7619466594677609
3.06,-8.149705337261354,-5.394383261954042,-0.8082787062472043
3.07,-8.14586872708574,-5.401435091295686,-0.7995137412942723
3.08,-8.134322278102793,-5.426253051220261,-0.7473945088603499
3.09,-8.105279876331165,-5.470162600927574,-0.7425694208591856
3.1,-8.069331776694844,-5.515009092888805,-0.7994379343734458
3.11,-8.033969906070762,-5.551365236671149,-0.8984829425103272
3.12,-8.013740649061686,-5.571149142207246,-0.9553227944292558
3.13,-8.010837167644684,-5.577583835854173,-0.9417154915907979
3.14,-8.016473839452733,-5.580275591883666,-0.875330005826395
3.15,-8.039566977600261,-5.557292871688253,-0.8070617631987953
3.16,-8.081715719941727,-5.502705421014112,-0.7579705959296463
3.17,-8.140115102615082,-5.421802907364061,-0.7154296415374543
3.18,-8.177941079658284,-5.364744954324845,-0.7147940249870125
3.19,-8.166178866988247,-5.3768691169729586,-0.7562398500195704
3.2,-8.117039727909864,-5.444687755000772,-0.7983722179880645
3.21,-8.054995530018381,-5.533451589585987,-0.8165135172704967
3.22,-8.00504271786065,-5.6040729368447,-0.8269215031435293
3.23,-7.990235481532019,-5.624695490044268,-0.8301807616832008
3.24,-8.004494972114529,-5.6076097508877565,-0.8079102327534032
3.25,-8.033758180833944,-5.570152973507361,-0.7754627825972189
3.26,-8.076363061417085,-5.515619351699675,-0.720074324751071
3.27,-8.12471341930176,-5.451538627687624,-0.6627427143076094
3.28,-8.155663798830275,-5.404537729658615,-0.6680984452791924
3.29,-8.14862659339073,-5.411109939262131,-0.6994393108380071
3.3,-8.109463010467312,-5.4657690167344315,-0.7285668529698268
3.31,-8.058776843927047,-5.541694072994756,-0.7172515948399397
3.32,-8.011747209036464,-5.612057897827954,-0.6973315169407744
3.33,-7.979682231216407,-5.658133238246063,-0.6931279520335892
3.34,-7.974560127989018,-5.666571378419927,-0.6829030663832685
3.35,-8.00994238174363,-5.619140483878906,-0.6586842011053741
3.36,-8.072358928698417,-5.532869979203283,-0.6266197651633076
3.37,-8.12313823519287,-5.4590065660595775,-0.6193700883280274
3.38,-8.142072495322477,-5.431794914681052,-0.6101994284866391
3.39,-8.125594175256913,-5.459735528351975,-0.5793345849896626
3.4,-8.09953989508252,-5.501145090846952,-0.5520985482976938
3.41,-8.07266996420107,-5.5404477811407284,-0.5523110776258625
3.42,-8.037539709512037,-5.5874988254924025,-0.5886543853153307
3.43,-7.99414805806099,-5.6433926337518665,-0.643691885747394
3.44,-7.9561057080891455,-5.69438425106363,-0.6667218909875581
3.45,-7.960504449564164,-5.692043642299626,-0.6319976610456695
3.46,-8.017491742637922,-5.61856725557368,-0.562340978397672
3.47,-8.100227699577145,-5.504454617569077,-0.503305789774249
3.48,-8.165315766894981,-5.407818927704013,-0.5023064939493361
3.49,-8.186415891731741,-5.3734783275453335,-0.5278255344197238
3.5,-8.16708672943808,-5.401785934166141,-0.5371670868267867
3.51,-8.121215178058861,-5.470938509174843,-0.5318380847392148
3.52,-8.06792327292818,-5.548682217920411,-0.538000802646114
3.53,-8.02756653704544,-5.603564223839179,-0.5722871722841826
3.54,-8.011185687139058,-5.620768567518807,-0.6304536077890643
3.55,-8.013865826723958,-5.612137592280651,-0.6724276873723872
3.56,-8.027308431697973,-5.594117741006494,-0.6615225106631112
3.57,-8.05881629111253,-5.556504048700817,-0.5894047005098924
3.58,-8.108678493054468,-5.491813921307817,-0.5069598869250124
3.59,-8.162098181143529,-5.413376402974393,-0.4935615130204605
3.6,-8.189855864440203,-5.36515838485094,-0.556211930224732
3.61,-8.162300796872625,-5.396828342527318,-0.6461786541701791
3.62,-8.089878165431246,-5.498327255476875,-0.6978216747978329
3.63,-8.005833222311187,-5.619468254412314,-0.7029271460784347
3.64,-7.951090184556917,-5.699754957696543,-0.6801777852047213
3.65,-7.950881419075853,-5.702693448153938,-0.6577075618806253
3.66,-7.98803655058169,-5.647753294789419,-0.6796467334354184
3.67,-8.037407476324484,-5.5728908268738335,-0.7151606194234006
3.68,-8.084914782500645,-5.507016034197235,-0.6888326276394048
3.69,-8.125307895711423,-5.456255773591594,-0.6141837763481689
3.7,-8.145787156873446,-5.431459736450492,-0.561692683385112
3.71,-8.135355983417114,-5.446432674577025,-0.5669971291055795
3.72,-8.103430112669082,-5.486807595874463,-0.6305181116025416
3.73,-8.06155718744411,-5.540408976501963,-0.6952450948139515
3.74,-8.013191964270295,-5.605311492233374,-0.7333052289714335
3.75,-7.970405652431072,-5.666115090544464,-0.7329112397386496
3.76,-7.956713943909043,-5.689298909239902,-0.701770609559072
3.77,-7.989635039823906,-5.648245746654598,-0.6560572691237155
3.78,-8.056513736406133,-5.557404580795299,-0.6113636246575324
3.79,-8.118103941260047,-5.4704677835143185,-0.5822680760095713
3.8,-8.141079001438218,-5.4366813893583625,-0.5793608404100802
3.81,-8.122640416107174,-5.463779311956824,-0.5823945185380331
3.82,-8.089417345886908,-5.514458329455063,-0.5670365808712357
3.83,-8.056983977328256,-5.563089151012543,-0.5536609231815763
3.84,-8.021547698478226,-5.611553127588818,-0.5779462531726436
3.85,-7.987846621602346,-5.653320721957293,-0.6349717765568192
3.86,-7.96678041702823,-5.680897111925534,-0.654179777380192
3.87,-7.980837136511426,-5.667583975962527,-0.5931252136227027
3.88,-8.034308493704751,-5.6007629436168855,-0.49650042823290935
3.89,-8.1001738826102,-5.509715245990688,-0.4442152384708905
3.9,-8.145476521304682,-5.440006946687475,-0.4753147580265905
3.91,-8.147826393379333,-5.431349739263473,-0.5319954062124224
3.92,-8.116331405266463,-5.479080218945215,-0.5224029628655303
3.93,-8.070785817649211,-5.550958466400394,-0.46566892526716774
3.94,-8.028370986730161,-5.614215025414534,-0.4418487889624487
3.95,-7.998917779623901,-5.653420253454839,-0.4747762043660289
3.96,-7.985655050546532,-5.666574104327247,-0.537152383432243
3.97,-7.99508507226707,-5.651288847027936,-0.5581750997268244
3.98,-8.022713794560106,-5.617176339125528,-0.5011836606203862
3.99,-8.053558948938456,-5.578052430847065,-0.4415898005087081
4.0,-8.087355556516329,-5.531612649945521,-0.40625326395801026
4.01,-8.12565057766028,-5.475570084607805,-0.40128207968415397
4.02,-8.15566000220543,-5.430126221462582,-0.41096436240097006
4.03,-8.152165390809387,-5.433584500424905,-0.4336439651468368
4.04,-8.10924898917879,-5.494934606362868,-0.4621719909975274
4.05,-8.055502529768022,-5.571763573162327,-0.4824217781177135
4.06,-8.017103178790324,-5.624074298330571,-0.5150196764082068
4.07,-8.007470249611217,-5.6340358942165,-0.5550367255856948
4.08,-8.018603513037108,-5.614342619708143,-0.5924395918892734
4.09,-8.03301829832894,-5.592237685366138,-0.6064203173544481
4.1,-8.046385030435825,-5.575413962259428,-0.5834422651747245
4.11,-8.069410140625417,-5.546697433670348,-0.5366347512359937
4.12,-8.094132257821649,-5.512372909797389,-0.5184495489622798
4.13,-8.101964218685483,-5.496331865658944,-0.5636738171365053
4.14,-8.087677602587494,-5.509408196543556,-0.6362180578559635
4.15,-8.060818611063326,-5.543286851543527,-0.6817694976545233
4.16,-8.03569058177504,-5.5780292628507615,-0.695193846286376
4.17,-8.020611120650397,-5.600270063241909,-0.6906826241238254
4.18,-8.01502309762544,-5.607071350887797,-0.7003203694499778
4.19,-8.021134302601425,-5.595976456571015,-0.7187963578136319
4.2,-8.041695169578551,-5.566111650051975,-0.7207413395438477
4.21,-8.073410721486615,-5.5232420870554,-0.6951209453212219
4.22,-8.104691347448542,-5.481378527794496,-0.6618824523559168
4.23,-8.114305038184513,-5.466150869177754,-0.6704111552344102
4.24,-8.099572992906321,-5.482526965705438,-0.7130351757824778
4.25,-8.06610454700177,-5.524737738529572,-0.7643014682929687
4.26,-8.020566741315182,-5.58600184695756,-0.7974331766270878
4.27,-7.97500546176197,-5.650412537046051,-0.8007705102998792
4.28,-7.947327760311427,-5.692977252689503,-0.7744649604594424
4.29,-7.961790570944132,-5.677102882514338,-0.7416828069883831
4.3,-8.016665270866172,-5.59980596432176,-0.7368063992653577
4.31,-8.07724724644434,-5.508599038730174,-0.762369769959309
4.32,-8.116262465284148,-5.449051313298241,-0.77707655842697
4.33,-8.11679390888805,-5.448438309451126,-0.776184408835079
4.34,-8.088680766931837,-5.494642163684613,-0.7424509834301202
4.35,-8.053879773347333,-5.548380473247674,-0.7211628840961748
4.36,-8.019729406274067,-5.593797232224785,-0.75019646263066
4.37,-7.997158093455117,-5.617111076688889,-0.8141410747032501
4.38,-7.981207208465555,-5.628886363299365,-0.8861674319888558
4.39,-7.978743789939219,-5.630014360475497,-0.9016436869541102
4.4,-7.989907008046052,-5.617829030213099,-0.878360099326342
4.41,-8.008957162010157,-5.594128658776191,-0.8558247987777787
4.42,-8.04597849947627,-5.546968641669767,-0.8139177519452524
4.43,-8.085609342172964,-5.49161564833224,-0.796631678669732
4.44,-8.121678153384503,-5.440891708355884,-0.7776125804550504
4.45,-8.137168254516359,-5.417213994816507,-0.7813997381951893
4.46,-8.119191698716685,-5.438953678788663,-0.8162685476820789
4.47,-8.078742410410854,-5.492967471579947,-0.8546495025955411
4.48,-8.030156977120946,-5.5562995383323655,-0.9016556587062563
4.49,-7.999358184162963,-5.598390628331088,-0.9156167640054317
4.5,-7.995307453750781,-5.60636342129913,-0.9022618055369434
4.51,-8.020194096385216,-5.577535732653287,-0.8585993508960474
4.52,-8.059111937940736,-5.52521918155013,-0.8319999832517905
4.53,-8.10173667590794,-5.463139263171682,-0.8279210088780069
4.54,-8.124146094355375,-5.425920554534199,-0.8530444457368277
4.55,-8.112721003739018,-5.438691636887248,-0.880083369204364
4.56,-8.076709745214224,-5.488878943796511,-0.899227811284738
4.57,-8.028485689059195,-5.556884306456559,-0.913097371712656
4.58,-7.991968967449769,-5.608541750316736,-0.9179315822094651
4.59,-7.972680610865983,-5.635246525344479,-0.9222954552465259
4.6,-7.976550418928169,-5.630804125869124,-0.9159939477482836
4.61,-8.007012746976093,-5.589938853931637,-0.90013102876045
4.62,-8.05251186465148,-5.529315654363397,-0.8678431424997141
4.63,-8.095303253046326,-5.470589267306474,-0.8416598869769322
4.64,-8.116599538769,-5.440715330537395,-0.830475770341117
4.65,-8.10600033795876,-5.45624813844665,-0.8321146615593633
4.66,-8.076494410688642,-5.49932128231801,-0.8353029068416967
4.67,-8.049133925758488,-5.541239438342004,-0.8223142801157156
4.68,-8.027576887223365,-5.571538962609034,-0.8283713959922271
4.69,-8.001531557786937,-5.602357136106377,-0.8712392347733166
4.7,-7.975491077202015,-5.632717656893533,-0.9132844163698358
4.71,-7.970632730971295,-5.6401768892151605,-0.9098287125295006
4.72,-7.994831427023479,-5.6148277067637995,-0.852194279512908
4.73,-8.03785956683968,-5.564000495260308,-0.7772570933471117
4.74,-8.07676136170971,-5.514536829713473,-0.7250155617931652
4.75,-8.102172576223955,-5.478105056205622,-0.717912007869694
4.76,-8.0955966785051,-5.483781561446238,-0.7481554447196141
4.77,-8.07060715376645,-5.519916704394825,-0.7523583561273426
4.78,-8.03605359064259,-5.571768760940233,-0.7398087862414394
4.79,-8.009052145093305,-5.611793868695464,-0.7301262670017745
4.8,-7.989027766236341,-5.635074709835611,-0.7691362648007244
4.81,-7.96398660426401,-5.663674510290245,-0.8172254414115939
4.82,-7.952349206284517,-5.678656178753576,-0.8266631396987825
4.83,-7.961552338233536,-5.67516518092249,-0.7591386688826102
4.84,-7.998997178332277,-5.633411001069362,-0.6712371470674804
4.85,-8.057441725580553,-5.55180828829399,-0.6518925268985309
4.86,-8.111597948333062,-5.472742919070016,-0.6489036532514173
4.87,-8.143871577949602,-5.422966727473962,-0.662600621707534
4.88,-8.12726805068294,-5.4463971888668565,-0.6742543260097592
4.89,-8.072428169897284,-5.529270116711609,-0.6581512465635195
4.9,-8.009248278018516,-5.621110824988823,-0.6520307859515
4.91,-7.968051114803935,-5.6764290056107924,-0.6771933142328159
4.92,-7.969971831829111,-5.671245571903983,-0.6977875687891931
4.93,-7.990753883614525,-5.639686735744058,-0.7156444841341432
4.94,-8.025657606809732,-5.596498972245396,-0.6620891790590845
4.95,-8.070889054947806,-5.541763931159154,-0.5656475173383081
4.96,-8.114177060217358,-5.484168593378049,-0.5043820626638387
4.97,-8.13729456401777,-5.450412650379801,-0.49779456992368526
4.98,-8.124554556226938,-5.465129717202447,-0.5425226366148272
4.99,-8.096135091202566,-5.507681007953445,-0.5369817978433752
5.0,-8.055307451446426,-5.5675780824641805,-0.5332092826489099
5.01,-8.003804308703886,-5.64206539631237,-0.5258387632093757
5.02,-7.97105537715973,-5.689350596072593,-0.5137539824745305
5.03,-7.970186820498914,-5.691716348070832,-0.5006891440255171
5.04,-8.009189927540103,-5.640005835512616,-0.46165464342353485
5.05,-8.061554389620408,-5.570128998132754,-0.39385929724075147
5.06,-8.101712210951815,-5.513888070610489,-0.36002543349252414
5.07,-8.120321403889262,-5.486545207380202,-0.3585336524318836
5.08,-8.10983412496268,-5.50084892080446,-0.37624167564618255
5.09,-8.089463634814118,-5.529552228979519,-0.3935033016414201
5.1,-8.058166016312509,-5.575302478040469,-0.38984250034641366
5.11,-8.013096157500623,-5.638831619420713,-0.40459595315225716
5.12,-7.9632899482588515,-5.70687853999027,-0.43326612823921035
5.13,-7.934211732048388,-5.747467646728049,-0.4303806020322136
5.14,-7.949147139830012,-5.728500779589583,-0.4060432883684916
5.15,-8.005741225260357,-5.652777541773942,-0.3503150986966729
5.16,-8.078492566120445,-5.552921061344449,-0.26934329716631433
5.17,-8.130137076270065,-5.478388666293487,-0.24168565791268068
5.18,-8.146029750172216,-5.4547546938855795,-0.24127717414495217
5.19,-8.135178849861227,-5.4710602687836944,-0.23733517768135226
5.2,-8.098383578773445,-5.526183607761671,-0.21642461046357495
5.21,-8.04090197966959,-5.6091552182297795,-0.2248140152029519
5.22,-7.988002051490793,-5.6822174941142745,-0.2718992211227428
5.23,-7.956109320295661,-5.7242344950716335,-0.3221832289827516
5.24,-7.953644240294731,-5.726737137059238,-0.33818372621562826
5.25,-7.964470819115179,-5.712317665066378,-0.3266867979468828
5.26,-7.984643386260681,-5.686545715815633,-0.2786026503191981
5.27,-8.029981755533582,-5.625521954348246,-0.20512279402204373
5.28,-8.085108187448265,-5.546617337169791,-0.18833998407342556
5.29,-8.128651309800748,-5.48273473040721,-0.18678663111954663
5.3,-8.129528128014199,-5.480284153203149,-0.2162558073755853
5.31,-8.08256872387278,-5.548081633223793,-0.24371704132957756
5.32,-8.016070555774828,-5.643453204709345,-0.25051296005057483
5.33,-7.959573591913123,-5.72310811605761,-0.24778656541940489
5.34,-7.944746545238076,-5.743982834776861,-0.24066454015835845
5.35,-7.958945692897128,-5.723296577291054,-0.26257810339669474
5.36,-7.971689120690992,-5.7030283588084565,-0.3125961627456184
5.37,-7.980238699758199,-5.689783333196767,-0.3334753652693194
5.38,-8.014906990457042,-5.645399833040634,-0.23443988887822204
5.39,-8.078602608510039,-5.558353415012418,-0.09041999586857043
5.4,-8.152049380724868,-5.450383377143387,-0.0757563649775148
5.41,-8.194288154098631,-5.385384410506158,-0.13743425920908803
5.42,-8.160853504496458,-5.430703663722253,-0.2659466428657239
5.43,-8.054822677681093,-5.580531964465814,-0.37224073198542057
5.44,-7.927402361457659,-5.760896874325706,-0.363619599655922
5.45,-7.85670946708852,-5.8630259553332955,-0.2478170801179847
5.46,-7.90974371056877,-5.79525631506156,-0.09789861466477372
5.47,-8.066437901859807,-5.574722000240614,-0.08246976953144032
5.48,-8.226711388818845,-5.3353693308983114,-0.1363843544415981
5.49,-8.304582866027463,-5.213066768776251,-0.1679082092270126
5.5,-8.289400366600864,-5.23720513336377,-0.1536309768159813
5.51,-8.220433191258634,-5.346484889760645,-0.06009555355849529
5.52,-8.13178721203932,-5.480849073599912,-0.015638299916498156
5.53,-8.056415108605275,-5.590590971369459,-0.07920510765679743
5.54,-8.002896114755842,-5.665344592742351,-0.16241821055210456
5.55,-7.976080907020538,-5.701809185900794,-0.20460740439733938
5.56,-7.988116990946864,-5.685660227657466,-0.17911934503253324
5.57,-8.033515766780857,-5.622897283060823,-0.10787929210685168
5.58,-8.096647407151055,-5.532702031530583,-0.04387875993092274
5.59,-8.136868019619975,-5.472931794040948,-0.08166333571285721
5.6,-8.120321409254739,-5.494965352883227,-0.1788563395937497
5.61,-8.046530031628242,-5.599946000098077,-0.2420768212408942
5.62,-7.964850496923245,-5.7170905209016745,-0.19700458959276712
5.63,-7.942497544144115,-5.751674256326529,-0.05284099871990149
5.64,-8.009641231266038,-5.657281247796095,-0.005582789453673536
5.65,-8.13934099359481,-5.468312574596349,-0.0679015476703237
5.66,-8.245537229822576,-5.304829475298227,-0.18359702585724147
5.67,-8.258941388188399,-5.279366631547766,-0.29114432152089026
5.68,-8.164597692588893,-5.423003130202805,-0.28974079037468053
5.69,-8.026969000763726,-5.629404634290188,-0.1747597312912155
5.7,-7.937658400085476,-5.758582765771081,-0.04615061778497333
5.71,-7.940483606335143,-5.754174645093054,-0.06407527453783633
5.72,-8.003040540774203,-5.664415972166234,-0.17104533818568168
5.73,-8.065428423152571,-5.571644888136042,-0.2712062341237363
5.74,-8.09600071824361,-5.525239596571251,-0.31119008192711395
5.75,-8.094477566845084,-5.528972019542402,-0.2811363941780127
5.76,-8.079763797267617,-5.553524188595045,-0.21161274306647118
5.77,-8.071701044695995,-5.567255061398915,-0.15311138902610072
5.78,-8.0807142165317,-5.554672462641144,-0.13292104958511314
5.79,-8.10955396539892,-5.512365199079928,-0.13515257401541414
5.8,-8.147172094735955,-5.4565465885712285,-0.13798352471285272
5.81,-8.180038152498426,-5.406911973662076,-0.1482069106078098
5.82,-8.193489002996685,-5.385005548850997,-0.19328651460993107
5.83,-8.17850803258428,-5.404074447677105,-0.27573167254441777
5.84,-8.14609047766166,-5.448683992616432,-0.34878318315269075
5.85,-8.102336387023806,-5.511700939083801,-0.37671728101362145
5.86,-8.055056980502588,-5.581358248244764,-0.3648870864231474
5.87,-8.020401026406459,-5.632771837029872,-0.33903115560931585
5.88,-8.024441899941978,-5.628248260924796,-0.31719836959344516
5.89,-8.070254340840789,-5.560758810271186,-0.3396566975416202
5.9,-8.122702551085396,-5.479076616687701,-0.4108432734533661
5.91,-8.150597086370611,-5.434769944921329,-0.44869040754610334
5.92,-8.14786133722125,-5.442097983491779,-0.40537522953847227
5.93,-8.133524060097466,-5.469244813617694,-0.31822497102288777
5.94,-8.124875239061286,-5.485325358642676,-0.26060530574799085
5.95,-8.110850359588119,-5.5041948497468525,-0.29338785725093314
5.96,-8.0780307566418,-5.545728696575858,-0.3949913875420217
5.97,-8.03395601564367,-5.6023078963585355,-0.487698576585194
5.98,-8.004182065250378,-5.642085375317314,-0.5197721168830114
5.99,-8.003265388538281,-5.646549130355784,-0.4828766281433063
6.0,-8.029497071890912,-5.615517889206642,-0.4005367928055036
6.01,-8.070289743858156,-5.5615954461776935,-0.3279118180359457
6.02,-8.104370289153396,-5.513029878313677,-0.30900483574845855
6.03,-8.118100437084506,-5.49112597906786,-0.33752466445323126
6.04,-8.105379065746474,-5.506784854371697,-0.3838705447264762
6.05,-8.069339836986885,-5.5551654790335245,-0.44038178413479995
6.06,-8.019960803893605,-5.621074589789445,-0.5012477167528487
6.07,-7.973462514613878,-5.682394322478031,-0.5507003749066411
6.08,-7.949230497586577,-5.7145644823823964,-0.569034124721067
6.09,-7.945084493215904,-5.722074746695363,-0.551001692114839
6.1,-7.952449766924594,-5.715052003670846,-0.5164265763103727
6.11,-7.980427994175388,-5.678403126964118,-0.48737890765969444
6.12,-8.04312147844333,-5.592384151768033,-0.44517975907053575
6.13,-8.127130204217488,-5.4730116478375965,-0.40039917681805154
6.14,-8.18916833521066,-5.38026950441403,-0.3987716614973137
6.15,-8.187303139264165,-5.380348857399891,-0.4343933068697465
6.16,-8.122283902195683,-5.472917630293353,-0.4893302842335474
6.17,-8.031533200028466,-5.601519734485954,-0.530352968525864
6.18,-7.957580312990462,-5.705962874401441,-0.5355375200222956
6.19,-7.923347901985904,-5.754464521182559,-0.5261945080626738
6.2,-7.926600804576334,-5.748840092040666,-0.5382984098541777
6.21,-7.9628908703977945,-5.694750527646535,-0.5746064627535427
6.22,-8.023078269603552,-5.609922856751802,-0.570828044400602
6.23,-8.082890314488042,-5.528815711730945,-0.5161342887395207
6.24,-8.114492158198486,-5.48647654421466,-0.4729242615377599
6.25,-8.11796289598533,-5.483466310621664,-0.44775929164960354
6.26,-8.102390909555405,-5.50503270816248,-0.46415624605049915
6.27,-8.068345106647662,-5.550489886956217,-0.5123384916663224
6.28,-8.019780446958876,-5.6150579435943815,-0.5674306827426829
6.29,-7.975330192688881,-5.674614621539343,-0.6017954870323955
6.3,-7.961129644487706,-5.696275549347468,-0.585569264962614
6.31,-7.990405414582261,-5.6602720421693675,-0.5318244137393079
6.32,-8.051542405486817,-5.577620060687132,-0.47893433878622915
6.33,-8.108252050698507,-5.497285375110232,-0.4524859220121046
6.34,-8.134963291990008,-5.459114493749297,-0.43661057724236
6.35,-8.13895263770296,-5.4556951272060505,-0.4034777292885425
6.36,-8.130941955949558,-5.4694173676196245,-0.37879410208650677
6.37,-8.107576975408763,-5.502090303075822,-0.4043206475594825
6.38,-8.058965317599666,-5.566159923113136,-0.4867033370230938
6.39,-8.002781396271368,-5.640184450055116,-0.5582583188331453
6.4,-7.9816261053979,-5.671589580216047,-0.5445328379044495
6.41,-8.005876975613148,-5.644653553072768,-0.4593925703208737
6.42,-8.064834436842014,-5.567675897147893,-0.35248356661120905
6.43,-8.130126022547971,-5.474626939057608,-0.3116246401034006
6.44,-8.17082580599441,-5.411481849034325,-0.34981329734719346
6.45,-8.176108007494992,-5.400214607393781,-0.3986316277773815
6.46,-8.156031772806253,-5.432371747738117,-0.37080914719648
6.47,-8.118007629896761,-5.49273718998314,-0.309856837813904
6.48,-8.070387900687937,-5.563164193480311,-0.29800196376719995
6.49,-8.03085037181713,-5.616616429628106,-0.3569433332977694
6.5,-8.004102099857345,-5.648711888026809,-0.44157181573747534
6.51,-7.984659733393102,-5.67275441370732,-0.4849148973504777
6.52,-7.978627686437513,-5.684052863721612,-0.4502254073397833
6.53,-8.006840315001256,-5.651045678145491,-0.3508281526312253
6.54,-8.070268016474056,-5.563822408736045,-0.2854436798810164
6.55,-8.14704845983122,-5.451049789518723,-0.27948313720522894
6.56,-8.195732744608208,-5.376762467129826,-0.29953587875653737
6.57,-8.18155513588336,-5.3959566358658115,-0.33932157178961647
6.58,-8.115622149289988,-5.494098402472586,-0.3437797566798313
6.59,-8.03642729031697,-5.609532579422926,-0.3400727896996674
6.6,-7.984236841119616,-5.681360654008519,-0.3781937584713224
6.61,-7.962957943895054,-5.706281130632653,-0.44606361431690167
6.62,-7.955651684954476,-5.710880419045827,-0.5129020255346662
6.63,-7.975942559696191,-5.684139234639964,-0.49451700668027404
6.64,-8.028579208412365,-5.618033108296494,-0.38092246401162544
6.65,-8.0935757243326,-5.528940444840367,-0.30382838596702544
6.66,-8.144795034320698,-5.454567939829886,-0.2813701339277649
6.67,-8.164578742640849,-5.42201715874089,-0.33291620681213047
6.68,-8.148850438791053,-5.4417530204820315,-0.3913763504355736
6.69,-8.088095279371993,-5.527343627642151,-0.4456414888576806
6.7,-8.00895685336434,-5.6385990330108156,-0.4794482811261915
6.71,-7.948616551302188,-5.72386557682109,-0.4751495564274196
6.72,-7.936527612276498,-5.741315058810299,-0.46819614068467597
6.73,-7.986288929329377,-5.67152139889819,-0.47077923212875866
6.74,-8.065380975508406,-5.560886497998767,-0.43956622318760324
6.75,-8.134743331672553,-5.460646266979211,-0.4190407507912043
6.76,-8.168070220692766,-5.4115059683792035,-0.41023680386225525
6.77,-8.168261224430152,-5.413031969452923,-0.3858081673088892
6.78,-8.14873449888566,-5.4431050741834985,-0.37532970416553857
6.79,-8.112237077614978,-5.495308869366332,-0.4034410659321918
6.8,-8.051260257103218,-5.577008398982828,-0.4916098915483523
6.81,-7.976617708584666,-5.674255263854591,-0.586151376543475
6.82,-7.9371435402624035,-5.726187474964813,-0.6184530938924517
6.83,-7.9680745827757935,-5.687440418466495,-0.5764207859066972
6.84,-8.05303740020869,-5.574703897464699,-0.48751746213858904
6.85,-8.14982646448598,-5.437325831563271,-0.42708339492221364
6.86,-8.212562946954977,-5.3416288384086785,-0.4357460156562545
6.87,-8.227493343609968,-5.314682284081507,-0.48225058468629983
6.88,-8.207415410486991,-5.343724092600173,-0.5030814329159169
6.89,-8.145768301225962,-5.434820912890649,-0.5272498684420898
6.9,-8.063749439930731,-5.551138810282505,-0.5733972032416533
6.91,-7.997929129626743,-5.638214586588393,-0.6422432351157877
6.92,-7.977540566711762,-5.659110026316138,-0.7094008098150354
6.93,-7.988086513183668,-5.640586831879233,-0.737920126789664
6.94,-8.004291194179268,-5.619057438723736,-0.7265090964619614
6.95,-8.034157560692723,-5.582116977501319,-0.6798922026696924
6.96,-8.093044955845292,-5.504162263502131,-0.6131687626816363
6.97,-8.161924457888611,-5.400368230243245,-0.6230061510208709
6.98,-8.205871042596277,-5.328588100175591,-0.6630299699512817
6.99,-8.189571590232267,-5.344147137745479,-0.7354858080187887
7.0,-8.125482757481082,-5.434922017045753,-0.7794390188874131
7.01,-8.049916563862944,-5.546702729357947,-0.7759981211467961
7.02,-8.007702046163406,-5.6118926247794665,-0.7438924084595906
7.03,-8.008607332367932,-5.613448966329901,-0.7223279648645362
7.04,-8.025080706940866,-5.585716695210812,-0.7537347252139794
7.05,-8.040933641152426,-5.5536088019018655,-0.8191067427854897
7.06,-8.062508762622755,-5.524319652979855,-0.805083037677801
7.07,-8.08848941245657,-5.4959220751622615,-0.7357459356499101
7.08,-8.113015690732832,-5.468630891111563,-0.6657540561820449
7.09,-8.137630354745106,-5.439368207988914,-0.6020538971684819
7.1,-8.147251694207805,-5.4227015402498635,-0.6220602905506911
7.11,-8.128753660927565,-5.444045475671138,-0.6753029837625052
7.12,-8.078305721458483,-5.50866320638281,-0.7521847648810774
7.13,-8.024060697381817,-5.584717473592103,-0.7717886175937889
7.14,-7.996126051219295,-5.6301047044969295,-0.730920882470742
7.15,-8.00732405635984,-5.617420434597968,-0.7054962909722458
7.16,-8.04403982076821,-5.562930808480397,-0.7194414909900274
7.17,-8.08214563193874,-5.502931140932057,-0.7530284691451963
7.18,-8.105773218308759,-5.467708692659711,-0.7556199611412764
7.19,-8.116948373221705,-5.456368472612618,-0.7166128921940367
7.2,-8.12141071395679,-5.456087693773623,-0.6664635838603324
7.21,-8.110105964849268,-5.473603146399081,-0.6603231166745644
7.22,-8.068843984621346,-5.525747877793352,-0.7279706031967725
7.23,-8.024453839605998,-5.5797761452717225,-0.8028747865333178
7.24,-8.014323384381038,-5.5938793161570946,-0.8058632559085178
7.25,-8.040869256479237,-5.560602547437847,-0.7708487946875717
7.26,-8.084872133999315,-5.502430745955741,-0.7268777994621903
7.27,-8.114632733333327,-5.45868379140135,-0.7251155870855849
7.28,-8.128985673380654,-5.433045978780872,-0.7562910055855074
7.29,-8.136918829613892,-5.422090955453883,-0.7494486214873027
7.3,-8.136254088683204,-5.430548779260393,-0.6933312243768047
7.31,-8.116042953135054,-5.4648341739004405,-0.6598700456245403
7.32,-8.077141443220496,-5.516125367289408,-0.7081197233060162
7.33,-8.037710368265595,-5.558609563826241,-0.8167335337374055
7.34,-8.016409691291795,-5.580146357220488,-0.877186457909148
7.35,-8.007237120618205,-5.597381153763661,-0.8504468944113146
7.36,-8.013898760142256,-5.600346894583028,-0.7635661293232164
7.37,-8.05486764280443,-5.5521533787567625,-0.6793612229597041
7.38,-8.126142120675354,-5.453724498639422,-0.6256383109300235
7.39,-8.196845333778844,-5.348270643580265,-0.6145785800399861
7.4,-8.221259193323325,-5.307500985935749,-0.6411949649374683
7.41,-8.179309054159475,-5.365675101341342,-0.6899493513286885
7.42,-8.08928334011522,-5.494343628728806,-0.7372438282079524
7.43,-8.006577387801578,-5.6141684626602215,-0.7386616557432328
7.44,-7.970511965371794,-5.666919472158216,-0.7261857578866976
7.45,-7.972219262472602,-5.664393404265229,-0.7270219837204206
7.46,-7.996319909019565,-5.6295891041019175,-0.7325418026686651
7.47,-8.027542114383392,-5.58311348463577,-0.7463072160892149
7.48,-8.077234460530766,-5.515623875011635,-0.709420856694046
7.49,-8.14313011834292,-5.431424151401192,-0.5982946199078685
7.5,-8.185301596024532,-5.373422521541064,-0.5452871924000653
7.51,-8.180729830239512,-5.3745955458579004,-0.5972479720646794
7.52,-8.1206367998095,-5.450569519735708,-0.7160715115311502
7.53,-8.034160422346353,-5.566391111293954,-0.7971716307409069
7.54,-7.964838433555502,-5.664592991042545,-0.8019379056891007
7.55,-7.938066645363702,-5.709254487651989,-0.7492567225471377
7.56,-7.959148882187129,-5.68564753264015,-0.7030138372955922
7.57,-8.02033513263965,-5.59806040425877,-0.7096818673364828
7.58,-8.088828577501754,-5.496086893088089,-0.7301086419263441
7.59,-8.128708150282975,-5.436381530988871,-0.7349108102667088
7.6,-8.130020091588007,-5.439337795558046,-0.6969007253588185
7.61,-8.11089724046732,-5.475489476793501,-0.6343111424046634
7.62,-8.087997565818501,-5.51018036208103,-0.6258429734140641
7.63,-8.057844327752608,-5.545625708506444,-0.6964871540327875
7.64,-8.016716543879253,-5.591966181484295,-0.7943099762756184
7.65,-7.978513899973161,-5.638503275290945,-0.8489677332451067
7.66,-7.966502586455854,-5.657909698283619,-0.8321524965675142
7.67,-7.992170726716967,-5.630232752032234,-0.7709771177087779
7.68,-8.046911121466964,-5.558552789586059,-0.7190550605832723
7.69,-8.113511030207642,-5.463849206646364,-0.6970408809775474
7.7,-8.149831641505715,-5.403692029988749,-0.7416597184880321
7.71,-8.141658789305906,-5.4103803682156775,-0.7815897160214076
7.72,-8.109355292586292,-5.4624724282384465,-0.7541229483901829
7.73,-8.07321842579788,-5.520454033886562,-0.7194945350821569
7.74,-8.049567711517584,-5.55305721405139,-0.73294684999009
7.75,-8.033542031073162,-5.564115545180737,-0.818922247541295
7.76,-8.018137547327871,-5.571861722585672,-0.9131244452062938
7.77,-8.011164838866966,-5.580503005536081,-0.9209663305157952
7.78,-8.02352241749948,-5.577001062743544,-0.8293373085657649
7.79,-8.060905565643464,-5.537321927595331,-0.7258723609639481
7.8,-8.120426985118245,-5.456573273094968,-0.6723126449726262
7.81,-8.17204473110614,-5.373281405011188,-0.7167949615028976
7.82,-8.18180632303558,-5.347064636767164,-0.7973051258847844
7.83,-8.140063012021985,-5.402379274156056,-0.8490126885740163
7.84,-8.070359223993856,-5.5087832889255965,-0.8297729050458693
7.85,-8.010725539271482,-5.602329955096832,-0.7820312913625805
7.86,-7.992042005855838,-5.631529964081747,-0.763812721090345
7.87,-8.008638433387226,-5.604823816531244,-0.7854616939100919
7.88,-8.043182815716825,-5.551381775680374,-0.8115363766541417
7.89,-8.084150167584303,-5.494082118224969,-0.7940091158308461
7.9,-8.116298164541044,-5.452418354701313,-0.7529625077887891
7.91,-8.125787158848466,-5.440134322765588,-0.7395233712636943
7.92,-8.119639670401133,-5.447235139765543,-0.7544044305699311
7.93,-8.106193120314805,-5.462603885254178,-0.7871493248828514
7.94,-8.079793606697434,-5.498495947582251,-0.8079092287837074
7.95,-8.045902385998179,-5.550173595074505,-0.7925489134424323
7.96,-8.03225381637273,-5.577273843190492,-0.7395171098029605
7.97,-8.042682802445624,-5.566496038710111,-0.706581266255658
7.98,-8.073124469030196,-5.522144178252527,-0.7068412151283362
7.99,-8.104621588310343,-5.471929620351853,-0.7367857783824712
8.0,-8.119287245227595,-5.448578897220701,-0.7486118888144562
8.01,-8.116490465029093,-5.456828706851436,-0.7178153873622588
8.02,-8.10137490819167,-5.484997905784526,-0.6724448818073727
8.03,-8.089435698521028,-5.50565168519227,-0.6474285061636088
8.04,-8.078935487492744,-5.5192575568857665,-0.6623411914309292
8.05,-8.061056455767337,-5.541368613176154,-0.6944488176408161
8.06,-8.03686363708961,-5.5716099641572825,-0.7319151296205282
8.07,-8.020101438295669,-5.594624302145801,-0.7405066262138184
8.08,-8.029508937004342,-5.585533276456404,-0.7058030109171265
8.09,-8.063985900494545,-5.541297379877056,-0.6594098725044842
8.1,-8.105029818961217,-5.48523841340687,-0.6243553248704711
8.11,-8.128893340281012,-5.449460814939993,-0.6280989865773292
8.12,-8.122057966605489,-5.456529681939634,-0.6545829549487758
8.13,-8.098597886064425,-5.491279270786898,-0.6544167473895576
8.14,-8.067497602903916,-5.537582408360704,-0.6481114023716602
8.15,-8.036323359667024,-5.58050952396157,-0.667192418593432
8.16,-8.018737480769726,-5.600986703183572,-0.706127660913354
8.17,-8.017174602779209,-5.59933929370244,-0.7366283679965352
8.18,-8.025161955363087,-5.5887798016879175,-0.7296986184075196
8.19,-8.035812434451374,-5.578450665198039,-0.6900977518353595
8.2,-8.057255430592582,-5.554025885212321,-0.6342908501935017
8.21,-8.09477589096275,-5.503225099549219,-0.5983198517621335
8.22,-8.1349636005928,-5.444913746567933,-0.587045591586533
8.23,-8.154544327011976,-5.416625781620057,-0.5778804314907161
8.24,-8.143993238491547,-5.432711622795378,-0.5752854524992208
8.25,-8.113145242415555,-5.4782956407369685,-0.5782717982578749
8.26,-8.07606103961537,-5.531865863451478,-0.5874186114557904
8.27,-8.050944782127262,-5.566530137526212,-0.6051092263806825
8.28,-8.042531745796563,-5.575463706439795,-0.6340022726604642
8.29,-8.0469153247654,-5.566936144149375,-0.6531895520434562
8.3,-8.063520943907745,-5.54657325889995,-0.6197864381582586
8.31,-8.092394163261229,-5.512469581684629,-0.541830378677866
8.32,-8.126220560987125,-5.468296900867591,-0.48121148807443337
8.33,-8.147845467699232,-5.435590139728935,-0.48657425931152226
8.34,-8.14957169148099,-5.428260295111336,-0.5367038261571192
8.35,-8.132223764269959,-5.450167532065362,-0.5765001065145355
8.36,-8.101643789680084,-5.494156873669666,-0.5891267202993343
8.37,-8.071062767012,-5.539633497155611,-0.5832293839758396
8.38,-8.052969415559607,-5.567090098115981,-0.5722407778724629
8.39,-8.05341711705892,-5.566715523984726,-0.5696205989810895
8.4,-8.072804642580046,-5.538555042205929,-0.5692593782569227
8.41,-8.102221274965794,-5.49641220642006,-0.5595427158083753
8.42,-8.127415957735776,-5.460725967731864,-0.5436770880107845
8.43,-8.135619430973085,-5.449029223549019,-0.5386647585058717
8.44,-8.130611682542876,-5.455191215968127,-0.5516320046008727
8.45,-8.116455348763202,-5.473205320385233,-0.5805491557268623
8.46,-8.086221336631393,-5.51377199700022,-0.6167661546887034
8.47,-8.035859738622168,-5.5826674427552065,-0.6530705277985299
8.48,-7.990743579564006,-5.646109070288816,-0.6624827424988434
8.49,-7.9859882597476775,-5.655001601490557,-0.6442365846983475
8.5,-8.029796806874549,-5.595180819577936,-0.6196154511678904
8.51,-8.093468558497985,-5.503711727689276,-0.6100822400220645
8.52,-8.140672724961311,-5.432779601440103,-0.6193905655131803
8.53,-8.146026350163014,-5.422461325881649,-0.6397735536852936
8.54,-8.114954837321044,-5.467781104945539,-0.6480489394530654
8.55,-8.079878144923425,-5.523203440977185,-0.6154090349602195
8.56,-8.052025333115184,-5.565920666282556,-0.5960912738436405
8.57,-8.031949063122495,-5.5916073687601235,-0.6256753904900629
8.58,-8.01727635640654,-5.604054712329014,-0.6975079655238884
8.59,-8.008164315308525,-5.609822693570546,-0.7544413268700549
8.6,-8.002105193621231,-5.618305987560368,-0.7557833581977523
8.61,-8.000222414412852,-5.627523630766365,-0.7048262373645725
8.62,-8.02107504698338,-5.608512164443007,-0.6118690395341037
8.63,-8.075624041384103,-5.537100839135199,-0.5401724926256222
8.64,-8.143372291034717,-5.439247023725922,-0.5169026738522858
8.65,-8.18493254046309,-5.373510647806009,-0.5489932428439077
8.66,-8.171067772123292,-5.388233694567783,-0.6078371343718764
8.67,-8.11442610951908,-5.469950097790453,-0.6348640585167832
8.68,-8.060833628638425,-5.551226794808291,-0.6126358014337955
8.69,-8.036210955010631,-5.589435074479269,-0.5896649616379009
8.7,-8.036727727220965,-5.586718321424138,-0.6080223232105648
8.71,-8.040683462876466,-5.577082315800448,-0.6431679919106494
8.72,-8.052647359516486,-5.561111398643871,-0.6316368021171036
8.73,-8.086715739769879,-5.51951673190243,-0.5546522589238994
8.74,-8.124825045437264,-5.47035025387457,-0.48092013565716835
8.75,-8.153257076847433,-5.42914997831119,-0.4676441188398488
8.76,-8.15753300274367,-5.417381848356311,-0.5252164489408764
8.77,-8.135157607212715,-5.445777148219906,-0.576452326162946
8.78,-8.089761465230774,-5.511664230876897,-0.5883016073180322
8.79,-8.04059645426658,-5.586587723325209,-0.5543596906155313
8.8,-8.009663255665561,-5.633786359345636,-0.5250145575649487
8.81,-8.007758150630917,-5.635247487201213,-0.5385407650778701
8.82,-8.039131708556198,-5.587851198269957,-0.5635768639321354
8.83,-8.082825000636747,-5.523965059566797,-0.5683277910938253
8.84,-8.111398337535098,-5.483948829833401,-0.5491027533912001
8.85,-8.114132556612018,-5.484097955598117,-0.5054264895217171
8.86,-8.106603907746935,-5.499616634393002,-0.4550456800875976
8.87,-8.097091857747506,-5.515797102419508,-0.4281852953689758
8.88,-8.077384367715291,-5.542837061380576,-0.45030044422156806
8.89,-8.04819751162277,-5.581480071852845,-0.49315729395255603
8.9,-8.010959662055397,-5.630959069822312,-0.5350241720177161
8.91,-7.991120886507597,-5.659458308130207,-0.5317501263669104
8.92,-8.003732325369304,-5.646256690095056,-0.47926707060231827
8.93,-8.049471985561638,-5.587267249052067,-0.39554962305582897
8.94,-8.10282152658279,-5.514510551428674,-0.3206103482228724
8.95,-8.132249266895297,-5.472637520150845,-0.2947004502398499
8.96,-8.134495029750779,-5.4691884188609015,-0.297234908389046
8.97,-8.118131785554,-5.49321796389388,-0.3011756344701677
8.98,-8.081606367109794,-5.545514235780063,-0.3232780997762794
8.99,-8.031135187340595,-5.615773014827182,-0.3646256013469365
9.0,-7.977517412388355,-5.688897382433512,-0.4058488174521423
9.01,-7.946069982806106,-5.733193957160571,-0.4006545508811329
9.02,-7.948330350551308,-5.734209229156325,-0.3354824462307809
9.03,-7.97936030338092,-5.695363754185498,-0.24821905639260605
9.04,-8.0390312157446,-5.612796047953738,-0.19794457392869735
9.05,-8.111476655289046,-5.508057441578205,-0.1833107985286499
9.06,-8.164014476643754,-5.429875088840154,-0.18653827654635513
9.07,-8.17386895109582,-5.415320733852469,-0.18038394086683598
9.08,-8.12933017036965,-5.482286920582664,-0.16712784570766007
9.09,-8.059106020603613,-5.585442518646631,-0.14908764707875968
9.1,-8.00484887233822,-5.663443494112335,-0.13163655309680442
9.11,-7.986825198461136,-5.688741552358663,-0.1384240665015167
9.12,-8.003476215767906,-5.664240872779961,-0.17563318187460575
9.13,-8.029754075576294,-5.625436090000769,-0.21799852820865515
9.14,-8.064107563696401,-5.577119003662691,-0.18936287052632428
9.15,-8.106904904707758,-5.517210241514451,-0.08572036628102529
9.16,-8.135588734418986,-5.47556754191023,-0.0005018008712565724
9.17,-8.140770189440872,-5.467898297738229,0.0180556217385986
9.18,-8.124277207267033,-5.492313924606521,-0.026820019112811715
9.19,-8.091183084541756,-5.540756867992916,-0.05340522693826677
9.2,-8.053919270382774,-5.594654407634529,-0.0657356611481475
9.21,-8.02656592855707,-5.6338489279690185,-0.06509111066066983
9.22,-8.025108091522611,-5.636008187532287,-0.05862816832072254
9.23,-8.050201838171647,-5.600232147667864,-0.04360277008717784
9.24,-8.088009005486855,-5.545642979403235,-0.005011547349906646
9.25,-8.116771601851054,-5.5033063467895635,0.04245043966989467
9.26,-8.1246881729029,-5.491128807285122,0.08512144979720368
9.27,-8.117746599304576,-5.5013825863922,0.08579149883918043
9.28,-8.1091110752477,-5.514439862739747,0.06016858692391388
9.29,-8.0996107272541,-5.528681684760249,0.017334443833306876
9.3,-8.073153291680494,-5.567257638014393,-0.012016158509566643
9.31,-8.038443538626517,-5.617250138527149,-0.015126460507014453
9.32,-8.013626298191637,-5.652622267251772,0.0011415244233190182
9.33,-8.020135696580605,-5.643306130931106,0.029810202307395176
9.34,-8.050265021142838,-5.600260892284515,0.02592627486667589
9.35,-8.092513390146863,-5.539045349112588,0.023844070080718628
9.36,-8.122923917967139,-5.494288142303037,0.03596861087378401
9.37,-8.122572341036248,-5.494836830913877,0.03118088217771812
9.38,-8.112877509815446,-5.509052382805852,0.043929512412385914
9.39,-8.097006761566831,-5.532218143080017,0.05843221964962441
9.4,-8.082517351692612,-5.553558690807274,0.03440980219348082
9.41,-8.062492548027437,-5.5825918338683325,-0.032768101059034486
9.42,-8.035143662135871,-5.620897078011308,-0.11083798727692079
9.43,-8.015587318804412,-5.647842802556449,-0.1502358098199773
9.44,-8.009345143933537,-5.657546587617056,-0.11275135164040442
9.45,-8.02982962419339,-5.6294056601006925,-0.040369678367540233
9.46,-8.07447627850022,-5.565298315311652,0.017004192283008968
9.47,-8.126703488167308,-5.488758455300627,0.01864751936967923
9.48,-8.161080800325852,-5.437545401930144,-0.014443454178903336
9.49,-8.152242666728966,-5.450609526251178,-0.04083425006419784
9.5,-8.10015795785139,-5.527376753797632,-0.0708713782116488
9.51,-8.032373317226472,-5.625136529249575,-0.09323918950183083
9.52,-7.986344244773415,-5.689881834524576,-0.11803698717024427
9.53,-7.986095718423901,-5.690178375809127,-0.1200399370889202
9.54,-8.010555421408379,-5.655881511325109,-0.10996844023532848
9.55,-8.04723584530915,-5.603836744939169,-0.09379225576545826
9.56,-8.09244753567458,-5.538840516168706,-0.05680268387598041
9.57,-8.136686352605173,-5.47395459965012,-0.018126434639072445
9.58,-8.16042463201907,-5.438512505212366,-0.015875179353024838
9.59,-8.152838110881358,-5.4495720667346825,-0.05863795673810421
9.6,-8.123341080641701,-5.49301008185996,-0.08994304801521852
9.61,-8.08493011875712,-5.549139318282458,-0.10434679844191097
9.62,-8.050446515100347,-5.5987125350843,-0.12253189897073596
9.63,-8.037000765593447,-5.617608488550635,-0.13933986370978377
9.64,-8.045241233026646,-5.605277364649706,-0.1586357303990855
9.65,-8.069115608094476,-5.5709534284376785,-0.15457988955947846
9.66,-8.09830424559251,-5.5286590986617234,-0.14701273175271173
9.67,-8.11777870705256,-5.500183114345676,-0.14137637206611048
9.68,-8.128119133132873,-5.484939173139135,-0.13963661596233268
9.69,-8.131251255796375,-5.480155482113473,-0.14499447604484877
9.7,-8.132791441864383,-5.4776737392415535,-0.1515632221175725
9.71,-8.115208160076783,-5.502589299184822,-0.1857380267898575
9.72,-8.079161467669175,-5.553531995882517,-0.23406452244751286
9.73,-8.040690293585902,-5.606842361011468,-0.2837343664780884
9.74,-8.019354364575483,-5.6355941127999465,-0.3168560696069087
9.75,-8.029528120663699,-5.620802286398573,-0.3213016992011016
9.76,-8.062831920040006,-5.573563784773102,-0.3088740918395289
9.77,-8.108672446781267,-5.508100381462936,-0.28246132597583173
9.78,-8.145196293546263,-5.454525434010469,-0.2723441105536657
9.79,-8.156010531773664,-5.437660382625434,-0.28578996660200456
9.8,-8.144568714278114,-5.45386953536306,-0.30172385043213457
9.81,-8.109161402309303,-5.504944559549542,-0.3263627072247614
9.82,-8.069859191164085,-5.5604141879038345,-0.3587849025219316
9.83,-8.040542222734755,-5.599627571332004,-0.40455222657163925
9.84,-8.02812853906922,-5.613678346538963,-0.45377763197119786
9.85,-8.029436851309002,-5.609267201237894,-0.484390732461664
9.86,-8.031130577888845,-5.607087932639624,-0.48117904787379245
9.87,-8.04750803335429,-5.587427632874273,-0.43277852513387977
9.88,-8.085523386126434,-5.537065981321835,-0.3650872597583456
9.89,-8.140932680331751,-5.458464431468309,-0.31468410087364884
9.9,-8.185111115069217,-5.392300490881009,-0.31135670129826215
9.91,-8.185666878985705,-5.388241942438854,-0.36097870491848677
9.92,-8.135340439454597,-5.4589763828114,-0.426709108386843
9.93,-8.05828511296289,-5.5683263514897705,-0.47439618955508955
9.94,-7.994155958639592,-5.659180716052879,-0.4864101868455116
9.95,-7.963859977971114,-5.702719006140214,-0.4756819577315761
9.96,-7.9661604899404574,-5.700255754495694,-0.46633701128579513
9.97,-7.995711737316309,-5.658549862546487,-0.4673209111252178
9.98,-8.048005744239292,-5.584839560630228,-0.4544951703537321
9.99,-8.108454063742903,-5.501628480078992,-0.39052099670484175
10.0,-8.154096038964902,-5.437955081539219,-0.33059189849898646
10.01,-8.169498152304197,-5.415551563775846,-0.3185167670826827
10.02,-8.153495635782226,-5.437841176758091,-0.34450931366547666
10.03,-8.10756077089943,-5.501559737294374,-0.40992874251164607
10.04,-8.050243120035393,-5.582240927814768,-0.4479180256800138
10.05,-8.004986954989015,-5.647273714298005,-0.44501392608281753
10.06,-7.993654967932556,-5.666544283196128,-0.4018494218234672
10.07,-8.024145709051925,-5.625763986785782,-0.3635895284327494
10.08,-8.08184883972977,-5.543494380887275,-0.34791914637443827
10.09,-8.134581172014554,-5.4659557383762385,-0.34862415082636894
10.1,-8.156031738641282,-5.433767620769571,-0.35163265062812366
10.11,-8.15080885951586,-5.443017858570193,-0.328164376992851
10.12,-8.12727410263328,-5.47967934648588,-0.30003783845032955
10.13,-8.092287143260808,-5.531321599417501,-0.29806071257336675
10.14,-8.060316709848294,-5.576570788688975,-0.3205505764538078
10.15,-8.042928884746566,-5.599746033979606,-0.3527734161196737
10.16,-8.047531773564048,-5.593137300591593,-0.35211925475145317
10.17,-8.073512590069283,-5.5582425762953065,-0.3039273407177085
10.18,-8.116909462908582,-5.498068817222187,-0.23418602565987692
10.19,-8.15903280429857,-5.437043895756128,-0.19609925366532024
10.2,-8.17367097637546,-5.41446505392943,-0.21110294361329845
10.21,-8.154385835656193,-5.441924393079837,-0.24663176616260413
10.22,-8.11614454211926,-5.498502314329417,-0.2518029198897319
10.23,-8.075577660763674,-5.558806190464182,-0.2327734435915173
10.24,-8.047452323369425,-5.599396987294633,-0.23516570126448258
10.25,-8.03811645224542,-5.611680393651823,-0.2605373772282173
10.26,-8.045631369160636,-5.599280196968205,-0.29293725533154696
10.27,-8.058869464653736,-5.579558926245969,-0.30544526594431315
10.28,-8.072758690868179,-5.561499512124971,-0.26325676239532353
10.29,-8.092811644961783,-5.535058408996208,-0.19613205465792663
10.3,-8.126109738860896,-5.48760731569629,-0.14613260881390422
10.31,-8.161969487504297,-5.434299605546749,-0.1412626803019719
10.32,-8.176912772268837,-5.410805414192554,-0.1770837273432285
10.33,-8.154912281047237,-5.442341727431497,-0.2162574753078648
10.34,-8.104398667243142,-5.516174415162684,-0.24131890180797994
10.35,-8.053804839470596,-5.590106683696832,-0.2367807494024487
10.36,-8.029464506628843,-5.625279477635624,-0.23300044375530868
10.37,-8.032442297389208,-5.620668219697522,-0.24119863018387877
10.38,-8.046507258469083,-5.599495303645635,-0.26322789245993106
10.39,-8.060165996318394,-5.579198462135656,-0.27665582139325773
10.4,-8.078673682955895,-5.554370042114011,-0.2274194550843154
10.41,-8.103377779012094,-5.5209750457255025,-0.15305321337308042
10.42,-8.12541677240693,-5.489388436701361,-0.11918184469280471
10.43,-8.139783498111928,-5.467555966562471,-0.13902372691289472
10.44,-8.137828843065252,-5.469291088169112,-0.1808289975209667
10.45,-8.113223974764473,-5.50500296770824,-0.19941477818032258
10.46,-8.069706611905422,-5.5684398873194105,-0.20212838845675796
10.47,-8.027631768504802,-5.629126215546587,-0.19876474247784526
10.48,-8.010148556426648,-5.654573993219658,-0.18301642722803999
10.49,-8.031880947475527,-5.624665779820123,-0.1429658268914243
10.5,-8.081105541921204,-5.554592092828221,-0.09981603628455735
10.51,-8.124369026195353,-5.49167416589442,-0.07531886079555983
10.52,-8.137790152234533,-5.4716830698616885,-0.08482877413741018
10.53,-8.128404844164102,-5.48553417685741,-0.08990896083295001
10.54,-8.109809824098276,-5.513292112451485,-0.0662640568740033
10.55,-8.084089887437438,-5.551092183265511,-0.05103289689546068
10.56,-8.05249035330652,-5.596608630455789,-0.06793731265956744
10.57,-8.026204287087891,-5.633700321152932,-0.1056337731216665
10.58,-8.0226307868468,-5.638564652097229,-0.11950170402293805
10.59,-8.049179430822011,-5.601116762377674,-0.07998224454181754
10.6,-8.096897321189509,-5.532362775908467,-0.010984861613737271
10.61,-8.143889636096953,-5.463024216615573,0.03560924749956787
10.62,-8.167956518068742,-5.427133251754196,0.025674024836866188
10.63,-8.160572646674037,-5.438281960061976,-0.004993423526240371
10.64,-8.132829555783907,-5.479628785887146,0.004297761353461654
10.65,-8.092761046159275,-5.538465421123731,0.03556820556190114
10.66,-8.052454608409084,-5.596991040365792,0.028092082206438437
10.67,-8.029941578268964,-5.629234378128441,-0.028110044714695206
10.68,-8.03310645673095,-5.624077642559546,-0.09163816592884393
10.69,-8.049749705092738,-5.59995806676581,-0.11010206633606132
10.7,-8.061791236249796,-5.583260739841568,-0.060607961652696184
10.71,-8.075993817514375,-5.562882135092062,0.02680145926851032
10.72,-8.110491860022341,-5.5113620656828335,0.11076283230529242
10.73,-8.156442722342847,-5.442889883389814,0.12661487719009876
10.74,-8.184498877500435,-5.40158406987699,0.07797522961065421
10.75,-8.167624120962408,-5.427540635528557,0.017091604254389117
10.76,-8.110728511678186,-5.512080696472889,0.00012346450007961741
10.77,-8.047195153821225,-5.604409830291705,0.026844635584889004
10.78,-8.012107218039429,-5.654567522690857,0.045563608000490974
10.79,-8.010328560879623,-5.657161167094551,0.03789231041728067
10.8,-8.023164775698524,-5.639032755847119,0.009399232553341779
10.81,-8.039793815074907,-5.615296708711956,-0.01563046290798552
10.82,-8.068434396478885,-5.573564037131738,0.050905312043982125
10.83,-8.109180652231247,-5.512537039434092,0.14349041372185475
10.84,-8.149218477779407,-5.451740590524868,0.19449298706807275
10.85,-8.172135668156887,-5.418296109628895,0.16661053136757817
10.86,-8.15762204007377,-5.441942828694429,0.07652104754966209
10.87,-8.103810881320761,-5.522238783045206,0.017154618518691128
10.88,-8.037702902343817,-5.61803443875987,0.020788406038521817
10.89,-7.998824656934269,-5.672809989717747,0.08186276178171453
10.9,-8.00710371396995,-5.660403281601431,0.12638266339758214
10.91,-8.05112519156622,-5.5978770153302255,0.10715361008973001
10.92,-8.105298624312914,-5.519771373493919,0.06624303907553401
10.93,-8.133511741797363,-5.478514957852242,0.04493875354126666
10.94,-8.126052037245433,-5.489284803171048,0.07002396620322071
10.95,-8.103621191144034,-5.520951086057083,0.13856490356251913
10.96,-8.09120636470493,-5.5382528785670155,0.17437879252313446
10.97,-8.09307919089165,-5.536205713438031,0.1501526306945045
10.98,-8.085134558359,-5.5491855966579715,0.07783940920731247
10.99,-8.064537159732863,-5.579473357300898,0.05273303601973314
11.0,-8.04892187344176,-5.601442705292622,0.09184950485596469
11.01,-8.058158945363703,-5.586766319556219,0.15348649172952078
11.02,-8.099544440150197,-5.525333601960704,0.19197155594155405
11.03,-8.152007211330305,-5.447823466301387,0.1862421427734566
11.04,-8.185546096100913,-5.3977843352815285,0.17519050898520716
11.05,-8.174212051941208,-5.415104025949284,0.17020779397283317
11.06,-8.128035009084279,-5.483607627133947,0.18399953976925174
11.07,-8.074761305651572,-5.561373658432376,0.1954673685389832
11.08,-8.046147173776987,-5.60323428836516,0.18264395096156688
11.09,-8.050472159483375,-5.598128788187828,0.1444490724450855
11.1,-8.071847526875338,-5.568155336309764,0.10377052919551945
11.11,-8.088883793824216,-5.5435267005079485,0.09768978054905042
11.12,-8.089034513392805,-5.542334988485198,0.14128476294049797
11.13,-8.088830256767322,-5.540656212778758,0.20414874102343597
11.14,-8.103170431063077,-5.517676936048708,0.2525648205422386
11.15,-8.132487680393488,-5.474444519033701,0.25094556392836753
11.16,-8.15067534701973,-5.448478801397891,0.22522967364215418
11.17,-8.140555319072057,-5.465002695762069,0.18744634016791573
11.18,-8.104377866965741,-5.519271379168946,0.16206794128473567
11.19,-8.055835799529637,-5.58996558544831,0.15841579331318864
11.2,-8.024638484670334,-5.634806410632254,0.155603573892197
11.21,-8.0185682131718,-5.6435159109223925,0.15389429766853632
11.22,-8.031905243373362,-5.624718147333334,0.14600771796066372
11.23,-8.043974714697699,-5.607414348134871,0.14733360584150743
11.24,-8.051009607227012,-5.596304510235822,0.18108378772769776
11.25,-8.061770804262878,-5.579661295831152,0.21317360264364688
11.26,-8.068476357342448,-5.5696771156933975,0.2208086292430194
11.27,-8.06727912881429,-5.572644314240903,0.1866606921038616
11.28,-8.058834792366405,-5.586070312289512,0.14548289232460804
11.29,-8.040029509221602,-5.613763995503276,0.11729142473805446
11.3,-8.015833427147408,-5.648543797227432,0.10267877250437411
11.31,-7.98920090015256,-5.686180230076002,0.10096515631803465
11.32,-7.981702829430705,-5.696838101191259,0.0939443471251025
11.33,-7.992772697392759,-5.68143346777629,0.08506116755446909
11.34,-8.026595033654846,-5.632928735400079,0.11742543891719079
11.35,-8.069936058143528,-5.568770801659326,0.18531269348896265
11.36,-8.107174963214721,-5.512332701373257,0.24019015487316206
11.37,-8.135658012098707,-5.470702377333426,0.22948864430442326
11.38,-8.135333444017384,-5.473360328818481,0.16958393676636957
11.39,-8.109902089849996,-5.512636219184745,0.1009980432535478
11.4,-8.050136829712567,-5.600300991581352,0.034510137306599825
11.41,-7.977712843637406,-5.703103593280221,0.005768044593418302
11.42,-7.9266907676314595,-5.773864138044912,-0.005176467662342257
11.43,-7.926528441827107,-5.774121374831341,0.006099141998046106
11.44,-7.976279043387946,-5.705166846129965,0.003933228027435055
11.45,-8.044314440547948,-5.6088060371119015,-0.0014622260782490674
11.46,-8.10891580930075,-5.514634442890866,0.062557108543326
11.47,-8.146167324504301,-5.458542338299998,0.1198396909053306
11.48,-8.147572998784481,-5.45568891309157,0.15121283488306161
11.49,-8.131882604606862,-5.479169331060074,0.1468014400173997
11.5,-8.101669025516856,-5.5246735295271545,0.10584594992543414
11.51,-8.062266785096423,-5.582986613926674,0.013890179005926036
11.52,-8.014531762568573,-5.650663332479203,-0.0858595633032314
11.53,-7.975329638744186,-5.70501047259721,-0.1314194444950181
11.54,-7.962699490843911,-5.723029015484357,-0.11284342257006283
11.55,-7.977300354990536,-5.7035658686417525,-0.04876174747312898
11.56,-8.01782534420308,-5.646662068640313,0.007853493719995703
11.57,-8.079824735918296,-5.5573811728088,0.047790986443070324
11.58,-8.135210808153188,-5.475582976813173,0.0819361803972689
11.59,-8.154136161236536,-5.447645108111797,0.059957850837063585
11.6,-8.132017901626618,-5.480733121533682,0.04520689046265556
11.61,-8.080962194862847,-5.555919514266622,-0.0018427303364216311
11.62,-8.031873592462745,-5.626560796303018,-0.03406828147779986
11.63,-8.009069991506756,-5.658907182973772,-0.044101454409662184
11.64,-8.01796587065646,-5.646253587252295,-0.048766208312025466
11.65,-8.036764939685314,-5.619319749182629,-0.0632667991514959
11.66,-8.046287571516858,-5.605322630847289,-0.08941491538539408
11.67,-8.049050443706086,-5.601463666533269,-0.0818198720548886
11.68,-8.05806445369896,-5.588928908024119,-0.04133998885433656
11.69,-8.07489247895787,-5.564751932547063,0.000680927499501096
11.7,-8.087415065408372,-5.54651589550772,-0.011834123139362718
11.71,-8.092438849053712,-5.538932005470101,-0.055060629792214794
11.72,-8.091949300258461,-5.53943622257473,-0.07333313964711605
11.73,-8.091620155133084,-5.540026672683193,-0.06427448878541331
11.74,-8.080069184467437,-5.5566722565480795,-0.07808712434023582
11.75,-8.067987022253599,-5.573338489680384,-0.12374614344794821
11.76,-8.04976572709171,-5.597499958872866,-0.19875759146065913
11.77,-8.041932719807015,-5.607598576757804,-0.22846361410105942
11.78,-8.049938812214238,-5.59833738212262,-0.16348534333584613
11.79,-8.06743254048162,-5.574959940715943,-0.08069277707833585
11.8,-8.084954234301744,-5.54985985969073,-0.05141759397007353
11.81,-8.101018431614913,-5.525591107918697,-0.10439112289832396
11.82,-8.114251542733667,-5.503967226430838,-0.1876628748011763
11.83,-8.101115873873546,-5.521025451514298,-0.24498619461433244
11.84,-8.0586247848227,-5.582523092869338,-0.25169252146145077
11.85,-8.008801547105762,-5.654988133435706,-0.2240505906833646
11.86,-7.983496480977827,-5.691391935227415,-0.2053035830187723
11.87,-7.9954753191050125,-5.673683023856348,-0.2267228553019788
11.88,-8.036557534415133,-5.614451166393953,-0.2472908112047401
11.89,-8.081749317954259,-5.5502238919961755,-0.22417131479226457
11.9,-8.107009568549373,-5.514443088075081,-0.194089391049064
11.91,-8.10511667625897,-5.517464245022144,-0.18664956071026279
11.92,-8.087383247377074,-5.542666962416839,-0.20811982513116348
11.93,-8.070296586974774,-5.567880973006258,-0.19818193817773824
11.94,-8.055436678052054,-5.589710296414748,-0.18761540311707028
11.95,-8.03211256877886,-5.621956363775867,-0.21913959071044467
11.96,-7.998673128741642,-5.666580615048155,-0.2841178027901903
11.97,-7.973707068761494,-5.699191927794855,-0.33093917268484163
11.98,-7.969671532502097,-5.704691808074402,-0.33258825357078725
11.99,-7.9948611746254965,-5.672320079762897,-0.2748069660053684
12.0,-8.044295306677245,-5.6050258558378925,-0.20211898932863775
12.01,-8.10878281492408,-5.512773957052063,-0.16056062900103518
12.02,-8.15711257720359,-5.441147427363779,-0.15933598309027586
12.03,-8.169826218114098,-5.421260347995661,-0.1842717040934841
12.04,-8.139588339736473,-5.466241201286213,-0.19003421844003293
12.05,-8.084721815262256,-5.546969502728169,-0.19248123786783825
12.06,-8.0316912016263,-5.623041314148391,-0.2068057502520957
12.07,-8.000284661526328,-5.666207448088316,-0.2438074820192141
12.08,-7.996844826176025,-5.668759440207979,-0.2927320780407658
12.09,-8.004140665876047,-5.656783250615948,-0.3238271839115396
12.1,-8.017524572356683,-5.638835199512638,-0.30246197486680254
12.11,-8.049234575606192,-5.597715970832471,-0.2024126173665829
12.12,-8.103415608839128,-5.5220809108761415,-0.09946726011486971
12.13,-8.149497072896343,-5.453937923449337,-0.09926305268559285
12.14,-8.160410280778919,-5.436077660724744,-0.1584962917099166
12.15,-8.127119545148666,-5.483162511951114,-0.2311334239620613
12.16,-8.072188635780574,-5.563581472458361,-0.23309038387647948
12.17,-8.019367012003594,-5.6409863581523645,-0.19553403467075234
12.18,-7.990649248189921,-5.682494608006334,-0.1707629074860087
12.19,-7.9947359835933876,-5.6762948842785645,-0.1833041920884088
12.2,-8.016520995561589,-5.643547009817875,-0.23405362913811395
12.21,-8.049620876341622,-5.59539018368109,-0.24997804486500405
12.22,-8.09119923741565,-5.538705619350928,-0.15034422985101806
12.23,-8.117218209191728,-5.5023221264928805,-0.07460288599085717
12.24,-8.116874999713422,-5.502713344664167,-0.08007354510313919
12.25,-8.10767739363448,-5.515275489824038,-0.1296343357873129
12.26,-8.09785044292461,-5.528563536638835,-0.17350024631776245
12.27,-8.077800573656212,-5.557464910439818,-0.18182742844281646
12.28,-8.032255562814715,-5.622435468247655,-0.1975724858517855
12.29,-7.983040758920711,-5.692091882517512,-0.20275136840072355
12.3,-7.975703369439735,-5.702544047756392,-0.19729790195617158
12.31,-8.016278337898939,-5.64586373962103,-0.17623473987218738
12.32,-8.079525192039082,-5.555883767710842,-0.14380285603664136
12.33,-8.133340687435425,-5.477791090235929,-0.10895868055983488
12.34,-8.15430992329457,-5.447044229712656,-0.08546593858271781
12.35,-8.138014772517307,-5.471336050127553,-0.08039681264794463
12.36,-8.100123371438348,-5.5273694636489985,-0.07501234112888207
12.37,-8.067793602577026,-5.5745170453504596,-0.07311381809725703
12.38,-8.042481400458696,-5.61036838443312,-0.10537604415163959
12.39,-8.017465614973931,-5.6442625981982495,-0.17676432920995766
12.4,-7.996468523896363,-5.672625792271593,-0.21928897828033697
12.41,-7.997003752454178,-5.673104245757808,-0.17822469062548962
12.42,-8.026729210050561,-5.633093800167296,-0.08046980532805723
12.43,-8.0728906571012,-5.567490033779037,-0.010704895936132292
12.44,-8.112558226098466,-5.509555059613168,-0.017276520795491232
12.45,-8.130331617944858,-5.482949008065431,-0.06906164187014344
12.46,-8.12552645589316,-5.489856612716438,-0.08521793378945972
12.47,-8.105810060275061,-5.519335696918111,-0.03384451275192295
12.48,-8.079874014035518,-5.557423360534691,0.022127892053075707
12.49,-8.058879630411987,-5.587813368510976,0.012620896042504893
12.5,-8.04171471504222,-5.612198325445342,-0.05307241790776909
12.51,-8.033279639144775,-5.623746218992136,-0.10119841146443832
12.52,-8.041500381695592,-5.6122337570621745,-0.07971104684036763
12.53,-8.056913497743297,-5.590637979243407,-0.02640271378784436
12.54,-8.067530177338812,-5.575420192251225,-0.00444498756176268
12.55,-8.078382932136217,-5.559655011286326,0.0002059573528973993
12.56,-8.104298732770753,-5.521709873442602,0.019955433332331955
12.57,-8.132316370925697,-5.4802283895807795,0.04835445696306946
12.58,-8.143089143997786,-5.464056941924841,0.06737674247185459
12.59,-8.124054956870072,-5.492374374812137,0.0384321909566102
12.6,-8.085019534926763,-5.549700747045062,-0.03398252299136875
12.61,-8.050539922206502,-5.599336861429161,-0.07747284637249184
12.62,-8.035227688388817,-5.621495659601254,-0.060877108419784984
12.63,-8.046172441905991,-5.60608468969265,-0.008589193747293647
12.64,-8.075818772422375,-5.5632606250444345,0.02629579208270262
12.65,-8.107759254564108,-5.5166508755480415,0.017617188568079617
12.66,-8.128961614322062,-5.485451866117337,-0.003418799556443707
12.67,-8.132602171149523,-5.480057075178986,0.0014843602042964143
12.68,-8.12000103403139,-5.498690749989323,0.008735193050473433
12.69,-8.098774905821339,-5.529851533524104,-0.013742865469731875
12.7,-8.080591036482053,-5.556248914003519,-0.04686666429325472
12.71,-8.075499640721848,-5.563589384347079,-0.05604512679056532
12.72,-8.07699804355727,-5.561561838290966,-0.03580063109479593
12.73,-8.077623605844511,-5.560744187776983,-0.022466505242321255
12.74,-8.079553934786398,-5.557766545459442,-0.044910523281157425
12.75,-8.09196471484538,-5.53911851649104,-0.08831477056418367
12.76,-8.113146022673776,-5.507564674001987,-0.11645745497475628
12.77,-8.128425669113547,-5.485195013759001,-0.10703090383011465
12.78,-8.12998319993676,-5.483491304555967,-0.06658942687125345
12.79,-8.115668570301041,-5.50496958470837,-0.03432751206187307
12.8,-8.090897672559239,-5.541242586215901,-0.04080256634224322
12.81,-8.069563295205835,-5.57170682019129,-0.08655909290555192
12.82,-8.058445947002163,-5.586428224881172,-0.15027701205549995
12.83,-8.056283296879375,-5.588379798175227,-0.19122898664721955
12.84,-8.059459211261778,-5.583233701313984,-0.2072683345897134
12.85,-8.06487606473181,-5.575545909073677,-0.203409094704194
12.86,-8.074210744704931,-5.56265428682421,-0.18489155101775498
12.87,-8.080612475131812,-5.5540323307509025,-0.16338599942375293
12.88,-8.08084372228832,-5.553867732488311,-0.15778010951592583
12.89,-8.076294146818828,-5.559535078320667,-0.18687347130585305
12.9,-8.07458309667396,-5.560341897299585,-0.2315491060375256
12.91,-8.080358004763557,-5.54991173644306,-0.27594922793610116
12.92,-8.088400138233792,-5.537641771851045,-0.2874550390086891
12.93,-8.092012869132214,-5.533491398501305,-0.26448154037287386
12.94,-8.086256641418103,-5.543138395359159,-0.2371299663182094
12.95,-8.077155718685752,-5.5563866082829865,-0.23748348580695672
12.96,-8.071055643509746,-5.563752392329802,-0.26961252600190566
12.97,-8.077060622577429,-5.552893896473953,-0.31042127878886006
12.98,-8.085816996868248,-5.537408095091386,-0.3556528985656319
12.99,-8.081790863685717,-5.540294429423749,-0.39967152826341534
13.0,-8.064792209392955,-5.564209843194533,-0.4108173147704312
13.01,-8.050374056207046,-5.58703824545228,-0.3826200607702286
13.02,-8.0535975344363,-5.585226840513673,-0.3386187196917174
13.03,-8.073819596734578,-5.557076148063238,-0.3198382404582743
13.04,-8.101715141640248,-5.51437660110771,-0.350825323000352
13.05,-8.11661118772466,-5.487039604043241,-0.4261800910281386
13.06,-8.105388609040697,-5.4968377057359685,-0.5063419892268343
13.07,-8.07833212127557,-5.535045424306001,-0.5230224912284409
13.08,-8.052058155191203,-5.578285551422506,-0.4643257174017428
13.09,-8.049798188568928,-5.587428226072513,-0.38806812805337226
13.1,-8.066970758063668,-5.563241768998653,-0.37987423531352504
13.11,-8.090442016637502,-5.523643158495342,-0.4497723656913019
13.12,-8.106296903577954,-5.49404355148442,-0.5223132355433483
13.13,-8.103499836333476,-5.495922366553683,-0.5463090336148095
13.14,-8.087563489672522,-5.522222984157427,-0.5158162487441991
13.15,-8.068555913888048,-5.554386609301288,-0.4655729188225896
13.16,-8.062582494921116,-5.565255932558167,-0.4393395439532253
13.17,-8.076787945374733,-5.544459738215259,-0.44111658363679707
13.18,-8.095181750360716,-5.516239769719585,-0.45742464565154095
13.19,-8.094366570130614,-5.515228670485762,-0.48341381145147116
13.2,-8.06136759777779,-5.559013276951437,-0.5297718696463627
13.21,-8.024246609909614,-5.609996001002269,-0.5559201029085136
13.22,-8.021847331222112,-5.617756309684958,-0.5102222046685616
13.23,-8.058257232917295,-5.571950369276016,-0.43127045130933395
13.24,-8.10409327572046,-5.510366713885158,-0.3576945179436057
13.25,-8.129259666855168,-5.474880450097403,-0.3331513616983077
13.26,-8.12082466941092,-5.484313658792417,-0.3795691197692059
13.27,-8.090265793475451,-5.5251226078567806,-0.43579801300962423
13.28,-8.05644996942004,-5.574292763236655,-0.4365896074460984
13.29,-8.035007563144736,-5.6088177508024355,-0.3865129548855834
13.3,-8.032911840012959,-5.6140451345344085,-0.3536950690122035
13.31,-8.046099235239714,-5.594962367011322,-0.3562515809820802
13.32,-8.062094487000715,-5.571380314959281,-0.3641390413992781
13.33,-8.067413216231916,-5.566313664451716,-0.32075845892370314
13.34,-8.065350996407707,-5.5725542378536534,-0.2578561941700692
13.35,-8.062064977505562,-5.577953596388155,-0.24478535583908087
13.36,-8.069465394193049,-5.566546110194931,-0.2599413546055886
13.37,-8.089873203665727,-5.536897693963219,-0.25856992879422513
13.38,-8.09984464191918,-5.5234345819618085,-0.23330562808914726
13.39,-8.089561801759393,-5.540842450919925,-0.16597453314280763
13.4,-8.072403976678013,-5.567643422266539,-0.08311645442893728
13.41,-8.068768592756744,-5.573495255222962,-0.035966422603994685
13.42,-8.072929153218514,-5.5670040426341165,-0.07875760537096717
13.43,-8.078061589836867,-5.558404169448347,-0.13778380614164115
13.44,-8.075481006169165,-5.561664715894188,-0.1576259268483968
13.45,-8.06724417817486,-5.5746202722161255,-0.11488049877955352
13.46,-8.053211605861826,-5.595909240292125,-0.030617862676945676
13.47,-8.046176046199605,-5.606079477849165,0.030464020923244645
13.48,-8.050784133748657,-5.599380698735515,0.04659781490683348
13.49,-8.074337114965905,-5.565340305131788,0.0472306959246834
13.5,-8.101355055782292,-5.525808568786263,0.06001130686585739
13.51,-8.111447886831822,-5.510583274156385,0.09021431370448482
13.52,-8.106593759231467,-5.517566390715042,0.09980625142247522
13.53,-8.091703714755047,-5.539271694454562,0.10536598566895349
13.54,-8.081848046246765,-5.553258714947587,0.12399697223049504
13.55,-8.077277629667492,-5.558954019999448,0.16084681588117924
13.56,-8.072447351994748,-5.565313007218175,0.1823187568522933
13.57,-8.06984436358001,-5.569473694807971,0.17010895816615607
13.58,-8.073595290333525,-5.564379712949915,0.158487172545655
13.59,-8.091380411304648,-5.537641792839077,0.1852601679927233
13.6,-8.09934591255258,-5.524559459643885,0.22383952195551526
13.61,-8.103121928240762,-5.51601437116267,0.2882621907738319
13.62,-8.106741971768537,-5.508238314732513,0.33213007688137186
13.63,-8.118017925626807,-5.489659011119697,0.36294880094342863
13.64,-8.122949259347251,-5.48309815080011,0.35171912204260614
13.65,-8.090463252636706,-5.534004666484738,0.29872498635897354
13.66,-8.046286558279629,-5.598838853924915,0.28350562298054216
13.67,-8.024079646641017,-5.627557468689742,0.3390262356804464
13.68,-8.045426780845382,-5.591828306145036,0.41552296230308006
13.69,-8.090057496807542,-5.52069745902023,0.4927838089972258
13.7,-8.130096405625453,-5.458391617208348,0.5269671714358277
13.71,-8.15044483531926,-5.427453301342142,0.5323093633460965
13.72,-8.136390524406732,-5.446329351858197,0.5540811937518604
13.73,-8.112379776545108,-5.47587772592999,0.6118630127273255
13.74,-8.083314746216363,-5.51292776487893,0.66180374002147
13.75,-8.058423799683224,-5.54634231657487,0.6857599290918772
13.76,-8.051427954725673,-5.557429643621594,0.6781347849508832
13.77,-8.05489001413153,-5.550886222146366,0.6904965013350282
13.78,-8.068356226417905,-5.522372355932083,0.7585249592561357
13.79,-8.072910421954727,-5.503401853865311,0.8432310982524064
13.8,-8.064843135833927,-5.507062287803142,0.8949557140243203
13.81,-8.05302986635889,-5.526976599902964,0.8784110944172776
13.82,-8.037361456700785,-5.549133539444729,0.882133467286728
13.83,-8.03996682635297,-5.5321022677663185,0.961663945910589
13.84,-8.053093751832597,-5.493617573254331,1.06669274276579
13.85,-8.075788349933498,-5.441866575683753,1.1567377537866361
13.86,-8.097707370060533,-5.406637148511207,1.168669105699516
13.87,-8.104680920370471,-5.397338838945004,1.1632846103000474
13.88,-8.093851011335712,-5.417190376353491,1.146206806729503
13.89,-8.05777320983885,-5.464307151314841,1.1763482184755032
13.9,-8.026969296208817,-5.5005697947536305,1.217312838667727
13.91,-8.01445358581127,-5.517775219322218,1.2219006265301804
13.92,-8.024784864890579,-5.507048876884739,1.2023256216642326
13.93,-8.038095374884112,-5.488540140904683,1.197747034293895
13.94,-8.053048187977119,-5.4439763718571905,1.295989432807228
13.95,-8.078281851129109,-5.3676061694008155,1.4489076422521303
13.96,-8.127863782089765,-5.2768501390204765,1.50412258574212
13.97,-8.167348579175583,-5.233410868500078,1.4406618399413118
13.98,-8.14967332507549,-5.281977945882771,1.3608410222029306
13.99,-8.078709158797123,-5.403500453855049,1.3055365586543208
14.0,-7.984181806959938,-5.534893936454545,1.336469393946935
14.01,-7.912404807308073,-5.6171852831512075,1.4180979708760673
14.02,-7.8985965849307735,-5.622628918316984,1.4724264444384125
14.03,-7.946870959684723,-5.5607969856213195,1.446683193795033
14.04,-8.026147672128765,-5.462736442096049,1.38144987272315
14.05,-8.08529096188678,-5.372822025658374,1.3888369295120493
14.06,-8.096616215712032,-5.320298135551065,1.5191927232716786
14.07,-8.079504233032678,-5.313304044861306,1.6310207174436613
14.08,-8.068646751809341,-5.312525915972147,1.6864927554215012
14.09,-8.084359089627343,-5.291978131959968,1.6758464276980303
14.1,-8.081512810664838,-5.29374052792698,1.6838687859284298
14.11,-8.05363142677137,-5.345720472859699,1.65258613452068
14.12,-8.006547643456182,-5.430789999708611,1.6033913417356502
14.13,-7.963106309315655,-5.500306393400679,1.5829685091791057
14.14,-7.948171654361984,-5.515183647796891,1.6059359002237337
14.15,-7.965318180751951,-5.474121865401925,1.6602746349359638
14.16,-8.01936671830701,-5.38820510371447,1.6810422423464397
14.17,-8.068576440696758,-5.31473065046905,1.6798566702083666
14.18,-8.079004853210447,-5.300592798452321,1.6743304954838558
14.19,-8.041279153575271,-5.350084869910981,1.6976833969499159
14.2,-7.971601877682456,-5.4343072262351315,1.7580569645021904
14.21,-7.928282212734669,-5.488273388351958,1.7863934044955467
14.22,-7.935514834753435,-5.494620397205917,1.733828082519553
14.23,-7.958248565121428,-5.481795359649431,1.669222421390111
14.24,-7.97226421860544,-5.4655929171518265,1.6552792933146085
14.25,-7.972275690531431,-5.442132480059939,1.7302554987237828
14.26,-7.9666498322010675,-5.4134136267248785,1.8429274070919441
14.27,-7.9696826415343685,-5.385884968434738,1.9096335364144912
14.28,-7.980497861132201,-5.375877110549401,1.8923313283511156
14.29,-7.979509575663874,-5.40323659012502,1.8169099618000684
14.3,-7.94918157650481,-5.465310651125754,1.7633318894624717
14.31,-7.88979568104699,-5.538655452480021,1.8005733320807626
14.32,-7.844535330794197,-5.5731665120788545,1.8901182036654263
14.33,-7.846186250129967,-5.5538117667521405,1.9395669920418954
14.34,-7.898430635575311,-5.486516862357259,1.9182440831650849
14.35,-7.968176255979865,-5.40284004077608,1.8672975988278775
14.36,-7.995048127858542,-5.359945103333679,1.8760704496304965
14.37,-7.9677964445872576,-5.374407136755915,1.9487827429015572
14.38,-7.920822483740158,-5.41859009392822,2.017283233492097
14.39,-7.910428620141969,-5.436041912976023,2.010896881400796
14.4,-7.940383556113697,-5.4180981754869295,1.9399975462534411
14.41,-7.96104532251759,-5.406842826353855,1.8863002309848422
14.42,-7.944723773710188,-5.428403488981692,1.8928619466577912
14.43,-7.902502104973655,-5.470076201054575,1.948699895994557
14.44,-7.872402014449916,-5.493437661180345,2.0043876241046914
14.45,-7.884997083922972,-5.474483030819282,2.0064916747182457
14.46,-7.918400607853519,-5.453016708851753,1.9316730932865889
14.47,-7.936995487556199,-5.456546925298868,1.8438876864342768
14.48,-7.917450012129095,-5.487574512421332,1.8353385116679333
14.49,-7.8732466426787076,-5.5191665550534115,1.9281559912004647
14.5,-7.863379706404078,-5.497661543753047,2.0277132683083847
14.51,-7.9079218299933,-5.425513535806534,2.0482308804750824
14.52,-7.982446079730402,-5.340795701423417,1.980474021409041
14.53,-8.0302910478639,-5.294772069479442,1.9105427165629056
14.54,-8.01445600625507,-5.312544562374856,1.9270821473801147
14.55,-7.957881570309546,-5.375907490393892,1.9846302464981007
14.56,-7.889291252435074,-5.471722395042599,1.9964978505027136
14.57,-7.838143730778086,-5.563018836182322,1.94525126295112
14.58,-7.822220066779118,-5.608857108276075,1.8770734804334315
14.59,-7.835068699982504,-5.595998678319757,1.8616788809397766
14.6,-7.863158537812241,-5.541426098826744,1.9057386361791306
14.61,-7.89775341896435,-5.4730527221691245,1.959398822398339
14.62,-7.93717923174059,-5.398490811269699,2.006408089308918
14.63,-7.981229513311985,-5.326583539647018,2.024028039819986
14.64,-8.003653795091381,-5.2976884766165995,2.0114501382962815
14.65,-7.98372426524031,-5.346142216611083,1.9610274947994135
14.66,-7.920987830682638,-5.456922140986434,1.9089326653857874
14.67,-7.842427166849227,-5.576125717881662,1.889471234580407
14.68,-7.791081812637947,-5.644331609697171,1.900129795800019
14.69,-7.791185193969218,-5.636268317434273,1.9233007965580213
14.7,-7.845677281138045,-5.55334454510424,1.9419300319371853
14.71,-7.925157838538334,-5.432698448326787,1.9602791481142514
14.72,-7.985016266685557,-5.334170937809365,1.9886995049691634
14.73,-7.9980369112342995,-5.294384427005241,2.0419541394754
14.74,-7.9735350736541735,-5.308231168423396,2.101166904833893
14.75,-7.9285683437606815,-5.380289561737131,2.0869971857433067
14.76,-7.866753542868719,-5.492809966611439,2.027028289583604
14.77,-7.8107715262530055,-5.54156355884805,2.106958992255481
14.78,-7.845963833796516,-5.437067812049927,2.2441121954241616
14.79,-7.987553932233637,-5.2286224735926226,2.2387377366250063
14.8,-8.097857359641571,-5.0767094051452295,2.195349205788268
14.81,-8.11439715160273,-5.0993065111598135,2.076095808115523
14.82,-8.033885462834602,-5.262176118067347,1.9802787656497483
14.83,-7.879276480213659,-5.442733519286058,2.1061949348062243
14.84,-7.789419999733513,-5.519776504622692,2.2421536565560354
14.85,-7.8406383335475685,-5.459611103592355,2.208881561992021
14.86,-7.928858993533267,-5.370248276441229,2.1116933894198433
14.87,-7.975802909667812,-5.353990216792686,1.970647072225845
14.88,-7.963649307556708,-5.388582702764743,1.9263833166093138
14.89,-7.91287615772384,-5.411571153650167,2.0645476329686923
14.9,-7.899424890685405,-5.383528549302982,2.1874782839003317
14.91,-7.949257205556478,-5.311549597265214,2.1824223910887377
14.92,-8.017632080714433,-5.245882438013333,2.0889449594931015
14.93,-8.03703670102101,-5.228921290871719,2.0577062944538387
14.94,-7.995402826944324,-5.254428092510355,2.151529367468776
14.95,-7.947200177997937,-5.291204026946542,2.2392766572754037
14.96,-7.909556420018782,-5.364290375142632,2.1971205108067573
14.97,-7.852011829578725,-5.514554590668008,2.020714225661084
14.98,-7.771902906456901,-5.675030478613984,1.8853799751303444
14.99,-7.716766060031631,-5.727679809251123,1.9515034524075603
15.0,-7.744027437972984,-5.648236844837496,2.0714180700590656
15.01,-7.836684493214329,-5.493071361834566,2.138210606323357
15.02,-7.926115772767567,-5.368531970483247,2.1264458066846017
15.03,-7.97728781915704,-5.333363355503168,2.0208028883783595
15.04,-7.947308411360054,-5.36279316420064,2.05968085901394
15.05,-7.877374972476159,-5.412948313126184,2.193810438894156
15.06,-7.862421702536332,-5.447870359808329,2.160761894250141
15.07,-7.868761803355374,-5.480704982264903,2.052440199690772
15.08,-7.862933721945629,-5.543846421881806,1.8972193062859097
15.09,-7.8338552817101474,-5.62691185763649,1.7706852934063109
15.1,-7.770980766069001,-5.68106223698378,1.86955292096706
15.11,-7.734820922595273,-5.669031725530056,2.049094896082401
15.12,-7.778607413485335,-5.5793357018726075,2.128290702057678
15.13,-7.869343284790791,-5.464327582005903,2.0924602542109962
15.14,-7.95191392854332,-5.389086918671552,1.9718688850398285
15.15,-7.952097877347812,-5.4060486877228975,1.9255878375042716
15.16,-7.8691866687969005,-5.520932338975509,1.938541269083955
15.17,-7.763311445335448,-5.663320503746595,1.9547638469843895
15.18,-7.70291717255296,-5.735784274967442,1.9837847659944883
15.19,-7.730351463331926,-5.6949389836262965,1.9943184757694477
15.2,-7.816282566943109,-5.577114768117977,1.9913514395735734
15.21,-7.893767974919294,-5.45455056014663,2.0253685443332596
15.22,-7.936024719616616,-5.370864991850457,2.0836697387683354
15.23,-7.938508368949956,-5.337962569780794,2.1575705099428526
15.24,-7.941719335829709,-5.324547968002456,2.17912833246784
15.25,-7.9576778731845055,-5.318336116150318,2.1354534297315606
15.26,-7.9633105709621494,-5.337140256504971,2.0663181077309996
15.27,-7.932748331213148,-5.411026324968709,1.9897273249085536
15.28,-7.847096239304094,-5.539298193066964,1.975570723746649
15.29,-7.74944689986266,-5.64180846959045,2.0687235862993893
15.3,-7.707072027957075,-5.654945028279901,2.1886190909560463
15.31,-7.7502483980079395,-5.5672490341691345,2.2594975254945022
15.32,-7.879985695091697,-5.374919822812408,2.274029620503451
15.33,-8.0294981293774,-5.1453866565600395,2.2819151048960653
15.34,-8.116656198802628,-5.014551081740304,2.267598666906033
15.35,-8.09286509130046,-5.046651381280098,2.281467988455756
15.36,-7.980610242624489,-5.228373471939365,2.265160567305906
15.37,-7.822110690487516,-5.495754538947503,2.1813159126307067
15.38,-7.660446013455856,-5.73611328411589,2.1378117399390626
15.39,-7.5700213332189135,-5.811041521755683,2.256230470471046
15.4,-7.65318553667599,-5.6659595056863035,2.3418125636124665
15.41,-7.845046915441299,-5.4201618154357245,2.285766630038138
15.42,-7.971896157536897,-5.276333310872462,2.1848978950668636
15.43,-7.982273892993458,-5.345489689607572,1.965792324876272
15.44,-7.901065847845163,-5.506224994364378,1.8484880731675637
15.45,-7.7576322321869435,-5.603647270947814,2.134272226678589
15.46,-7.746948435864539,-5.60230938373466,2.1836747639016307
15.47,-7.826456920247763,-5.518654892019644,2.111185047200738
15.48,-7.892957019685627,-5.435662899838265,2.07930282248906
15.49,-7.945374245428317,-5.388857816009292,1.999844929065059
15.5,-7.948474595212286,-5.378478902517293,2.0158666672608945
15.51,-7.8902523405968426,-5.436860128311987,2.086183972373603
15.52,-7.818039901094859,-5.537151484180431,2.094253566841978
15.53,-7.767097202429733,-5.63298037547784,2.027161674020133
15.54,-7.7471768472185465,-5.672904178132375,1.992377857309651
15.55,-7.784211474577033,-5.6365522173436045,1.9505409829789009
15.56,-7.837179802541291,-5.561175735864959,1.9547033045340543
15.57,-7.904668371163857,-5.47727266587967,1.91937100751903
15.58,-7.963438873987458,-5.420061681678028,1.8371058394277846
15.59,-7.972362787031038,-5.435303834270129,1.7516176006856394
15.6,-7.906133301208302,-5.5508877324961405,1.6873868156725789
15.61,-7.771351459808542,-5.738187175960639,1.6856830065214983
15.62,-7.691039535808231,-5.818917007839049,1.7765043968395315
15.63,-7.754151866442681,-5.6941951252983705,1.9008763666018866
15.64,-7.9525731930601165,-5.405863071621211,1.9197491950665435
15.65,-8.138873695645625,-5.127135664059416,1.9048490828601778
15.66,-8.222156535129502,-5.015127795457886,1.8474675667869256
15.67,-8.196041275840496,-5.0863099791071384,1.7671071693137632
15.68,-8.114217528892555,-5.223520999111863,1.7439821593055445
15.69,-7.985762300257094,-5.398157310205504,1.803291925280587
15.7,-7.841738418062209,-5.576155249748096,1.8914444715173622
15.71,-7.778154571405639,-5.656766788769363,1.9159626020777631
15.72,-7.781040393524639,-5.663804092550163,1.8833370713968878
15.73,-7.773606471952087,-5.701323122772832,1.7987153946898302
15.74,-7.745187175065079,-5.777420470898084,1.6738157211050977
15.75,-7.770211321770011,-5.6844987791924435,1.864112861342983
15.76,-7.908803957959847,-5.404490162062791,2.097288269526416
15.77,-8.154002049042239,-5.091764026162978,1.9338876371400915
15.78,-8.261330431874937,-4.940975296480784,1.8722504276669545
15.79,-8.22870596040382,-5.02224168187107,1.7984829482952982
15.8,-8.070588139130166,-5.244171814677927,1.878379162036093
15.81,-7.861778564202169,-5.480899729251767,2.076792653532452
15.82,-7.853012951436577,-5.472941445242533,2.132443287678609
15.83,-8.01446978365131,-5.317579204555404,1.9119034731927598
15.84,-8.09336373629377,-5.256047010574713,1.7435352237513755
15.85,-8.020805032789998,-5.424490204455069,1.5518047542317879
15.86,-7.81891974674876,-5.739235766602074,1.445262814713086
15.87,-7.630377859010811,-5.900466630269263,1.7677028296962893
15.88,-7.7125750577793015,-5.747955576876017,1.909323997113712
15.89,-7.970229135569735,-5.442206841393506,1.7382301439635286
15.9,-8.149957089117564,-5.148785376265831,1.7986074904948306
15.91,-8.23754284318992,-5.050082267966536,1.6760437219868436
15.92,-8.19008114585084,-5.183724697299193,1.4902175016364112
15.93,-7.978109899372443,-5.519094907967122,1.4342211090676964
15.94,-7.651291727003278,-5.9687418397262055,1.4136386779498498
15.95,-7.524874716097966,-6.11722421693076,1.4580468564288276
15.96,-7.767919711311634,-5.820032321090485,1.3987417986080826
15.97,-8.0470564043034,-5.45856209032684,1.27251354224579
15.98,-8.202356463015645,-5.248588350961938,1.1591055197257365
15.99,-8.136102051296891,-5.400585462256691,0.8984961890277292
16.0,-8.0037586578488,-5.601802382615608,0.8538907232036549
16.01,-7.95287338668707,-5.6327701158611685,1.0925626606155954
16.02,-8.021211830501274,-5.554768674574557,0.9869334440922969
16.03,-8.126055138223258,-5.421817755099148,0.8608952203338066
16.04,-8.146480604815077,-5.407959094553572,0.7452065591367142
16.05,-8.025817170441883,-5.613287822650193,0.4916538508778828
16.06,-7.7844783040125725,-5.938721974335669,0.5436003129748421
16.07,-7.538729708061465,-6.225526323062295,0.761869604074051
16.08,-7.59398704472613,-6.151884104360543,0.7991355587607235
16.09,-7.940950909932561,-5.726132745510735,0.553268283956345
16.1,-8.246486959675984,-5.291412773648533,0.404217759006674
16.11,-8.337072483793087,-5.157103468225197,0.2527067662518193
16.12,-8.20028321713302,-5.373205295724491,0.2038142895565856
16.13,-8.006348309752301,-5.642945720367711,0.47361412166953676
16.14,-7.943104659872707,-5.7248078433096135,0.5465200362741982
16.15,-7.984645726427511,-5.685906923603778,0.29181422998464174
16.16,-7.973597063002654,-5.706253498068927,0.16945642309218645
16.17,-7.920341476512704,-5.782328030510243,0.03975809863882184
16.18,-7.849343551183931,-5.878437854228934,-0.008276153351035601
16.19,-7.8137520498750375,-5.924446655830982,0.1267301737258929
16.2,-7.826201982460451,-5.905965975956911,0.19218449960687223
16.21,-7.946023626031547,-5.744415358923534,0.16053615446841474
16.22,-8.091894124451544,-5.538776130969428,0.09069232392907078
16.23,-8.17646177848165,-5.414063792045498,-0.05637436791594189
16.24,-8.168271637744882,-5.42528869901519,-0.11481516273638274
16.25,-8.085329239117115,-5.548930284052448,-0.0666940941981769
16.26,-8.004579120024571,-5.664159483392993,-0.11578498277687453
16.27,-7.964145161506953,-5.718876282208005,-0.18466914484343339
16.28,-7.951897285387368,-5.727745280339376,-0.35394628814448603
16.29,-7.944239141524008,-5.723245885562201,-0.5499122175272091
16.3,-7.9266205700889625,-5.737848617138616,-0.6449932223663334
16.31,-7.914199119646764,-5.754688687188638,-0.6464183842584933
16.32,-7.931768348008867,-5.741548194855666,-0.5386193515955845
16.33,-7.967771552958667,-5.698271065994887,-0.46166435759596725
16.34,-8.002168083639614,-5.640493109063731,-0.561493493882884
16.35,-8.024774396504814,-5.588258317770611,-0.7363348206889198
16.36,-8.032729089307223,-5.562307864484744,-0.8404262671093216
16.37,-8.020422149298176,-5.581145811590497,-0.8327753046900365
16.38,-7.984879865059232,-5.628566697263077,-0.8545224859051561
16.39,-7.942525760660692,-5.680166046130257,-0.9061095556563336
16.4,-7.91685204589057,-5.698844342346271,-1.0064948556098547
16.41,-7.907223997491916,-5.685474997085159,-1.1489946465080099
16.42,-7.933093966245954,-5.635461069261718,-1.2153095898286463
16.43,-7.969815651049327,-5.5779647512017725,-1.2402601586549622
16.44,-7.988520374771315,-5.542868936573659,-1.276738530359857
16.45,-8.000419767428953,-5.5153102955681454,-1.3206871628585921
16.46,-7.999886278769212,-5.501738422011103,-1.379360821671749
16.47,-8.017783871874865,-5.466936147306069,-1.413273679088008
16.48,-8.015982217068283,-5.4525046280613365,-1.4776670172728283
16.49,-7.980411556983699,-5.4803734726089255,-1.5635217046618843
16.5,-7.913024566650845,-5.5390322053723375,-1.6936367321157955
16.51,-7.839941284908376,-5.609421120510098,-1.7997012157324075
16.52,-7.811887538272213,-5.633399577723899,-1.846474775516433
16.53,-7.839110327925867,-5.595814526731474,-1.8445647338940938
16.54,-7.923518712053808,-5.489936884279663,-1.8006204012954379
16.55,-8.024042392071957,-5.3430719252615475,-1.7977096840483768
16.56,-8.095044216958296,-5.222731504255444,-1.833473186146263
16.57,-8.124416188731598,-5.161142909995877,-1.8779278075937023
16.58,-8.106628112717933,-5.176033698356076,-1.9130260606388774
16.59,-8.047341874248472,-5.252783668299511,-1.9534829240403009
16.6,-7.975731126647205,-5.340450056003071,-2.0083515625356916
16.61,-7.901384793932303,-5.419128018008664,-2.0901257602188825
16.62,-7.8542689051702785,-5.455649251315791,-2.171634260046609
16.63,-7.847671364405238,-5.450637960029909,-2.207851980265832
16.64,-7.884069811055642,-5.409453359384747,-2.1787471967801535
16.65,-7.952221986994139,-5.337681956540223,-2.10648055781358
16.66,-8.029828315347189,-5.242029679423478,-2.051938180516818
16.67,-8.080037687702669,-5.1646763337381,-2.051491324313195
16.68,-8.079205745062358,-5.143596718723118,-2.106795236318094
16.69,-8.03708232129517,-5.18374794053841,-2.168478336682546
16.7,-7.978829175762137,-5.263674869320125,-2.1908459310871558
16.71,-7.91861551747922,-5.3507861818079805,-2.198343051044844
16.72,-7.870749678921952,-5.414039439588371,-2.2157208232696344
16.73,-7.856397490925957,-5.424053195329944,-2.242024566591009
16.74,-7.870989265391668,-5.3921435985059585,-2.267595403840765
16.75,-7.910819675190182,-5.3379257646837575,-2.2568304695295085
16.76,-7.97813035659222,-5.266195264748558,-2.1867878678139347
16.77,-8.047607413873196,-5.193766916048295,-2.104501250918703
16.78,-8.086389517581448,-5.146316259538817,-2.07266965589525
16.79,-8.077448565184477,-5.145214134465364,-2.1094010874623437
16.8,-8.026607374056768,-5.191581262251163,-2.1882465059464455
16.81,-7.96391271501741,-5.260765539102458,-2.2512072149323545
16.82,-7.901612890554934,-5.333026627580495,-2.300285141621024
16.83,-7.851409298661066,-5.396115650659944,-2.3252533228536953
16.84,-7.82790699069554,-5.43247491368174,-2.3199927580923916
16.85,-7.84824780218253,-5.413318603056514,-2.2954269220949906
16.86,-7.924787253810499,-5.318266824618415,-2.253230471817358
16.87,-8.014525453899692,-5.18861005385878,-2.2384707230951575
16.88,-8.064998585082776,-5.088945168561138,-2.2861819428177
16.89,-8.061738680272377,-5.062589510818592,-2.355306350243301
16.9,-8.01180879528057,-5.112440790705403,-2.4167024003482283
16.91,-7.950229329667066,-5.199566136633929,-2.434364239544717
16.92,-7.91360371307511,-5.2692965934527685,-2.403938288219808
16.93,-7.890321588894797,-5.300788310633505,-2.4112142612340706
16.94,-7.8728563726252005,-5.2977169224167815,-2.474116643288949
16.95,-7.866938439090922,-5.268864731220256,-2.55315192710013
16.96,-7.875647863131381,-5.222239830453752,-2.6213144561000377
16.97,-7.922576424233138,-5.160776189181941,-2.6008686093667834
16.98,-7.999402306379648,-5.091799472900825,-2.499651571225401
16.99,-8.061676231442569,-5.024106075021348,-2.436512739440327
17.0,-8.073297779426431,-4.987991030227542,-2.4717743866897415
17.01,-8.026036049362494,-5.007991405519269,-2.582141259913613
17.02,-7.949887457603308,-5.0776020261917525,-2.680064038914463
17.03,-7.882362835457794,-5.167739176515327,-2.7074965816779395
17.04,-7.850782060177455,-5.234254277777794,-2.6715013650166917
17.05,-7.847378090982926,-5.254346755836413,-2.642134905081113
17.06,-7.8580539297115894,-5.227744426272206,-2.6628751280601395
17.07,-7.892254803901317,-5.154522740662813,-2.703752815465416
17.08,-7.942442497564439,-5.065932062747978,-2.724353909511115
17.09,-7.978351260112986,-5.01566353129783,-2.7127526310161127
17.1,-7.987040845464363,-5.023010879343314,-2.6731896106154625
17.11,-7.975784864323597,-5.05682071632155,-2.642997659787389
17.12,-7.961585085004813,-5.071420419591894,-2.657796867980993
17.13,-7.950560004108821,-5.065111561647749,-2.702389572357464
17.14,-7.9430674361425755,-5.053476201103704,-2.7459182868847996
17.15,-7.932325559485043,-5.055461425778714,-2.773208486468752
17.16,-7.933275344692744,-5.0636114807582615,-2.755484376203663
17.17,-7.952017180921582,-5.052179491565205,-2.7223078421939713
17.18,-7.957448158319142,-5.034111454769119,-2.7397995354190448
17.19,-7.93351160429764,-5.032044503288527,-2.8117449399769168
17.2,-7.887873799149619,-5.061190054082601,-2.8868774197481795
17.21,-7.853284863865069,-5.106634932665152,-2.9013547946568305
17.22,-7.8489150778743415,-5.140732685561296,-2.8524453003389123
17.23,-7.876114986357736,-5.1425127923380405,-2.772980268783992
17.24,-7.919433074223887,-5.095544462986615,-2.7361898848221955
17.25,-7.9650039565049395,-5.002499824988911,-2.774815432991956
17.26,-7.99739103140584,-4.908094107188482,-2.849452600729636
17.27,-7.996103402318501,-4.872753601335844,-2.9134599452199543
17.28,-7.965036893538576,-4.914663382561727,-2.927968981838893
17.29,-7.924320504994638,-4.992762640153498,-2.906138696800793
17.3,-7.889507048524429,-5.05668432505159,-2.890525489890463
17.31,-7.864498457920065,-5.0757270748167915,-2.9250714771673785
17.32,-7.84777541684856,-5.055695086314841,-3.0034325064463454
17.33,-7.836399239856161,-5.033879954016277,-3.0692975308188792
17.34,-7.844920376269536,-5.015294140364398,-3.0780145513322266
17.35,-7.869109647519106,-4.993202238116101,-3.052033236316078
17.36,-7.886258866074484,-4.97494828997544,-3.0376139176844648
17.37,-7.872897265045097,-4.972002238226933,-3.07667578837895
17.38,-7.835465280473738,-4.982604065377136,-3.1539541655345684
17.39,-7.801056384188255,-5.000789164525336,-3.2101949709155804
17.4,-7.78479502432292,-5.020011451846467,-3.219740668594805
17.41,-7.785089729777986,-5.020202063092941,-3.2187432547542576
17.42,-7.790898514402052,-5.006448353645918,-3.22609268019183
17.43,-7.824058141539458,-4.963391035512539,-3.212146336997929
17.44,-7.8869709539892785,-4.886644343815855,-3.175473730175485
17.45,-7.942512472558311,-4.803248163260783,-3.164446275383238
17.46,-7.9467384670888475,-4.763622580440574,-3.213471854992767
17.47,-7.88002161015528,-4.798292093249565,-3.32354210065439
17.48,-7.777581552383664,-4.890465633292847,-3.428720625144789
17.49,-7.6928112179805055,-4.993822943222032,-3.4712162043152244
17.5,-7.685603974180958,-5.042762891018451,-3.4162184472939883
17.51,-7.758610409273223,-4.993419063225495,-3.3218770570668807
17.52,-7.847016422822885,-4.872036853344756,-3.2943154817832894
17.53,-7.8801590410828615,-4.760036012068721,-3.3779553690149506
17.54,-7.858264274522794,-4.714160781429513,-3.491682453724504
17.55,-7.81870503503986,-4.741839176169939,-3.5429155512055126
17.56,-7.794589232487408,-4.806550489526508,-3.5085745810212803
17.57,-7.776784535375436,-4.877847733186043,-3.449179109079441
17.58,-7.772084930667429,-4.909132961088013,-3.415454212121377
17.59,-7.783147357173842,-4.872428695254092,-3.4425846788586942
17.6,-7.816123696883092,-4.785287152452333,-3.489565545867926
17.61,-7.862454264254614,-4.697172514977569,-3.5052774534421114
17.62,-7.8902518462417985,-4.655339473730597,-3.4988401999326606
17.63,-7.880499491194694,-4.6714760774991975,-3.4993097833956024
17.64,-7.847402281926489,-4.727943480133233,-3.49774002876089
17.65,-7.824916865420864,-4.767461607178193,-3.494586301347714
17.66,-7.800118215259367,-4.796483926153119,-3.51026133923431
17.67,-7.7763280614613945,-4.830105350339411,-3.516942742361096
17.68,-7.772806639324964,-4.83715361699892,-3.5150819570547944
17.69,-7.820430421494709,-4.784034838595833,-3.4817459069024737
17.7,-7.888857695651463,-4.679376009160216,-3.4693963870422286
17.71,-7.903411269339528,-4.614550149182736,-3.5229506938736943
17.72,-7.84514891381886,-4.6549253105970365,-3.5990509625345988
17.73,-7.758552743637352,-4.780420334218868,-3.6219271288616093
17.74,-7.709870021627483,-4.904305377322904,-3.5598622453961313
17.75,-7.728134160043291,-4.941685388108026,-3.4676329800536476
17.76,-7.773602586487331,-4.894950792353842,-3.4321924970454987
17.77,-7.787577694229956,-4.825957835817581,-3.497474976805463
17.78,-7.753968909247112,-4.788137109226324,-3.6217585064729896
17.79,-7.731192108478712,-4.788212584576872,-3.6704062876941093
17.8,-7.75465790900996,-4.814594584585426,-3.585164924268251
17.81,-7.771364261077951,-4.858750306498112,-3.4881641630376707
17.82,-7.740339795215868,-4.9241279391082085,-3.465491503499458
17.83,-7.669858580890855,-4.998164172316354,-3.5156839187410203
17.84,-7.634595910839819,-5.017192072223522,-3.5652096680285945
17.85,-7.686275471035898,-4.9500787810147955,-3.547792695299513
17.86,-7.7501813976737015,-4.847211166832827,-3.55073825650684
17.87,-7.7691103940324675,-4.787463368666821,-3.5903956018131638
17.88,-7.738065156150458,-4.795320724936439,-3.64651324481491
17.89,-7.7558129731021435,-4.802866858816401,-3.5985672965893696
17.9,-7.793270542984556,-4.8064692319355915,-3.511713539215848
17.91,-7.81426243737818,-4.81517486338394,-3.4527409751691627
17.92,-7.7917073853878,-4.847913715736565,-3.4579167432193767
17.93,-7.731450288622112,-4.8800201932884875,-3.5466917007406833
17.94,-7.696442028937864,-4.870572932908486,-3.6348129226342314
17.95,-7.712256497668833,-4.829836257530348,-3.6556721073624963
17.96,-7.724640340378768,-4.810518632370154,-3.6550236107999488
17.97,-7.7506173303604795,-4.813941159081633,-3.5949777394559193
17.98,-7.793410760698643,-4.801039728263078,-3.5188786053819903
17.99,-7.854144054534537,-4.756046362881894,-3.4441162043064737
18.0,-7.88550664430132,-4.713495524716879,-3.4310256292462284
18.01,-7.874157988623986,-4.699069050221954,-3.4765761113859956
18.02,-7.836199890948192,-4.714913567204855,-3.5402773265596217
18.03,-7.7949690549227215,-4.755498580642818,-3.576841361551593
18.04,-7.790934711245087,-4.789420917596706,-3.540199051948806
18.05,-7.805140340365425,-4.805999363449773,-3.486023339919357
18.06,-7.802634325315041,-4.8278670231040355,-3.4613485536738904
18.07,-7.786117096953656,-4.854024516917221,-3.4619607459818367
18.08,-7.799344121756181,-4.856747175832539,-3.4282012206551498
18.09,-7.850308564283479,-4.820913092681193,-3.361773852110859
18.1,-7.874733735543904,-4.787978942762728,-3.3517394892169468
18.11,-7.853628855197845,-4.7971260892965235,-3.3879827638745788
18.12,-7.835090300917879,-4.826272336164109,-3.3895149991030395
18.13,-7.843820431146869,-4.857737428663183,-3.3237239035630486
18.14,-7.89032794139341,-4.865009024982364,-3.200709384654843
18.15,-7.904876642544464,-4.875139088726941,-3.149015383683591
18.16,-7.85457408671252,-4.928564807949886,-3.1914345954881975
18.17,-7.793653733338532,-4.976851591747825,-3.2650082337155104
18.18,-7.7721694848480265,-4.99650524092042,-3.286131193469242
18.19,-7.825184851480874,-4.9749657825119495,-3.1916270147053103
18.2,-7.884465512401145,-4.941089940257516,-3.0969617093909467
18.21,-7.911542669718075,-4.934744109833946,-3.037461547868057
18.22,-7.902921473445084,-4.935964289148059,-3.0578550724480498
18.23,-7.908337851023686,-4.932261226757906,-3.049803748956531
18.24,-7.929063944998933,-4.929984531776055,-2.999254104524307
18.25,-7.940538806473301,-4.937399366917332,-2.95639224357243
18.26,-7.915186707074786,-4.970219902901748,-2.969289071702076
18.27,-7.857075560952734,-5.015186129897212,-3.047000594682033
18.28,-7.798185489374811,-5.068247424198171,-3.109880218161049
18.29,-7.762684576428903,-5.122711498091031,-3.109446720045835
18.3,-7.774715422986341,-5.1478602438475525,-3.036876212134112
18.31,-7.841380106653724,-5.118208983257229,-2.912902466319049
18.32,-7.951236248801902,-5.003618297303654,-2.8124254651358385
18.33,-8.051565494773412,-4.847864813590643,-2.7999897164603578
18.34,-8.083830102117414,-4.759038631968118,-2.8588550735090865
18.35,-8.037191710235284,-4.793256438015782,-2.9319445177719548
18.36,-7.939590482953064,-4.94055394457153,-2.9531708184949377
18.37,-7.860560437515676,-5.102119066157457,-2.889439943428097
18.38,-7.8302041591525295,-5.1930993942863894,-2.8088840073924533
18.39,-7.847838576105999,-5.186931904066152,-2.770709713494086
18.4,-7.892299789357611,-5.108580017700686,-2.7898271288586427
18.41,-7.934016389818218,-5.016061033258601,-2.8390314626091446
18.42,-7.986261699923456,-4.941354122107968,-2.823380631899171
18.43,-8.050057225678563,-4.887709031783908,-2.734251301714826
18.44,-8.080793616924373,-4.886233201314449,-2.644875940415471
18.45,-8.050305377913002,-4.947506131741589,-2.623677783351071
18.46,-7.986374065887781,-5.029580463046284,-2.6628562387530845
18.47,-7.9432085877643415,-5.081884011618213,-2.692613331461956
18.48,-7.92802183398748,-5.1009713070210605,-2.7012728927625447
18.49,-7.931952138126642,-5.1076374332524805,-2.6769914098404635
18.5,-7.9564324347523145,-5.092737863964988,-2.632232862177749
18.51,-8.00240589514337,-5.056718793845785,-2.561151452129816
18.52,-8.067567885088069,-4.99246483166228,-2.481641133786565
18.53,-8.122835442523888,-4.931851220762911,-2.4219761961088624
18.54,-8.154623143094254,-4.899967465195005,-2.3796602155768993
18.55,-8.140246426948467,-4.91779660191856,-2.391919478842162
18.56,-8.096436791140208,-4.973108487482126,-2.4258691464265354
18.57,-8.039262183155792,-5.03880389107511,-2.4797740264192023
18.58,-7.980202377298473,-5.1083874120139345,-2.5279425803418274
18.59,-7.947391849655769,-5.150160132797935,-2.54657849374287
18.6,-7.948947673713609,-5.162607996872148,-2.5160140648399754
18.61,-8.005294827896963,-5.117088957722045,-2.4284499463037825
18.62,-8.087169146143394,-5.020647783453631,-2.3577294228351864
18.63,-8.148942172591841,-4.930933088062938,-2.3344862477272215
18.64,-8.183580559940792,-4.869185680368226,-2.3431522040112207
18.65,-8.183530289907853,-4.863345388173749,-2.3553872083016008
18.66,-8.15680930430417,-4.9001751753867016,-2.3714605932016375
18.67,-8.110508531604426,-4.971428687472087,-2.381959590422912
18.68,-8.07132179346428,-5.0379629337257965,-2.3753839902485803
18.69,-8.043239661334292,-5.079280650049461,-2.38275187970083
18.7,-8.034457879166787,-5.086037720142507,-2.3978679657241417
18.71,-8.039047342083526,-5.063403433541367,-2.430179413518208
18.72,-8.05344492060594,-5.035227404129621,-2.4410484159463075
18.73,-8.065979035350862,-5.024457084709533,-2.421759331358179
18.74,-8.063078649112471,-5.046460677444166,-2.385338153120659
18.75,-8.061059399849185,-5.069991309955339,-2.3419167075442435
18.76,-8.075393943773618,-5.067232306920783,-2.29794156422467
18.77,-8.108994678850902,-5.036325674532052,-2.247081990145808
18.78,-8.128107288934642,-5.014795652502093,-2.226199014930701
18.79,-8.109921072973183,-5.029136015371423,-2.2596361955980737
18.8,-8.073275233418286,-5.065196304950696,-2.3099686277317337
18.81,-8.058772532816514,-5.089011285447227,-2.3082449883119147
18.82,-8.07677943035753,-5.08198884584491,-2.260262299018032
18.83,-8.093917056566342,-5.068862033225193,-2.228347303999181
18.84,-8.082782029411444,-5.0803174667919375,-2.242403961544616
18.85,-8.05004428586588,-5.115899005765076,-2.279113821061032
18.86,-8.044719600358318,-5.1262616543172275,-2.2744772033036047
18.87,-8.084277089982526,-5.080915842362204,-2.235578898298628
18.88,-8.119386685256053,-5.028226157157564,-2.227656481005408
18.89,-8.117792347012863,-5.009028942309291,-2.2757304708635835
18.9,-8.07718303187691,-5.034507992605875,-2.36249442687385
18.91,-8.035412984305806,-5.086818206467105,-2.3928533899059232
18.92,-8.014134823751279,-5.13930376617187,-2.3516260000528812
18.93,-8.015425499422072,-5.1637732172117765,-2.2930890109348665
18.94,-8.040611484787735,-5.131364580441647,-2.277376534754889
18.95,-8.077369684002214,-5.050828831365674,-2.326282577992946
18.96,-8.109644928289008,-4.963976643004035,-2.4002022726837593
18.97,-8.117120941194129,-4.927212831013833,-2.4505583143215297
18.98,-8.09458237076245,-4.956105195419686,-2.466454416660476
