time,seconds_elapsed,z,y,x
1789317794806474200,0.05547412109375,-16.712921088075635,8.095911665275693,-3.8556802796348926
1789317794816428300,0.06542822265625,0.37971477189064023,-4.540751332524419,-3.868531870162487
1789317794826383000,0.075383056640625,-8.370845043221115,-3.9021640906512736,4.901542792758345
1789317794836338200,0.085338134765625,3.60110316875875,-0.5944961712121963,0.5296638527523726
1789317794846293200,0.095293212890625,0.9908031814634799,5.9276925974130625,-1.893658322621882
1789317794856248000,0.105248046875,-5.069319864320755,-2.850283047890663,-0.2521359465354122
1789317794866203400,0.115203369140625,7.381288062426448,9.56195920010507,2.4308335008524358
1789317794876158200,0.125158203125,0.4430599935978651,7.713406970405578,2.8051541586145756
1789317794886112300,0.1351123046875,-5.191417719247937,-12.595764001178742,-0.7364447548393159
1789317794896067000,0.145067138671875,3.520523903656006,0.15562135434448718,-0.7277314331602305
1789317794906022400,0.1550224609375,-1.5482126078188418,-2.1556956863760948,1.4482361299373208
1789317794915977200,0.164977294921875,-2.291225269806385,0.5941220772027969,0.609181662636064
1789317794925932300,0.174932373046875,13.000463576722144,20.975808834421635,-0.5073137815173715
1789317794935887000,0.18488720703125,9.28243323367238,-3.150392368146777,-3.3661581023305653
1789317794945842200,0.19484228515625,-1.3493652752101422,-29.255856000864505,-3.777771110524237
1789317794955797200,0.20479736328125,-6.743471220403909,-2.7433944525331255,0.5089548997879028
1789317794965751300,0.214751220703125,2.04223706497848,9.995894807004928,-2.134151086305082
1789317794975706000,0.2247060546875,8.041787860900163,3.7750527914762495,-1.4805163512952624
1789317794985661200,0.2346611328125,4.427329536005854,2.3419576781779528,3.765581198775768
1789317794995616300,0.2446162109375,-0.21637188338339328,2.511937228220701,2.8612948557704687
1789317795005571000,0.254571044921875,-16.252268739163874,-3.188915867808461,-2.3988053545594212
1789317795015526400,0.2645263671875,-5.404791589859128,-7.893287152215838,-4.0316900497525925
1789317795025481200,0.274481201171875,-7.6068907154917715,17.015941911864278,5.448696782559156
1789317795035436000,0.28443603515625,-0.6671206779181957,-7.732347817718982,0.8432639382224529
1789317795045390000,0.29439013671875,-1.780616173070669,-15.578116262912749,-2.5516747798472643
1789317795055345400,0.304345458984375,5.427227293550968,5.442191053926944,0.7928310242541133
1789317795065300200,0.31430029296875,10.21046110227108,-4.802847440728545,0.10606171607933938
1789317795075255000,0.324255126953125,13.067657875072955,7.903128747272491,0.8105193142231554
1789317795085210000,0.334210205078125,2.5167338148474694,0.8521078274786472,-1.6974704184807836
1789317795095165200,0.344165283203125,-15.360584103578327,-16.698472876006363,-0.7723992077305912
1789317795105120300,0.354120361328125,-2.164042658960819,2.502700028797984,3.252415403294563
1789317795115075000,0.364074951171875,2.5875620857864616,3.629742403265834,4.3261160636752845
1789317795125029000,0.374029052734375,-6.991063002437353,10.123833789175748,4.503993673491478
1789317795134984200,0.383984130859375,-2.5951918500125406,1.5268407339662313,-2.4264053091466424
1789317795144939300,0.393939208984375,-2.1186890210181475,4.0523780329942705,-0.12597411183863877
1789317795154894000,0.40389404296875,-1.8897499170064924,3.2660166431456803,0.4194064020162448
1789317795164849700,0.413849609375,-10.08816977059841,-2.564022804766893,-2.595375682146847
1789317795174804700,0.4238046875,-2.946481322407722,6.619062165924906,0.30015093090813605
1789317795184759600,0.433759521484375,2.2966823661684987,-4.761813419550657,0.9415288629457353
1789317795194714600,0.443714599609375,4.224441403573751,-5.608197608685493,2.392319061280042
1789317795204668700,0.453668701171875,13.126466622394323,-1.3107342235207557,3.1235897014170884
1789317795214623700,0.463623779296875,15.194327373450994,12.111451375216244,2.657520003631711
1789317795224578600,0.47357861328125,1.503075242975354,6.914345673459768,-4.162601617993414
1789317795234533600,0.48353369140625,-1.2170236741662024,-9.842538474982977,-10.511059667348862
1789317795244488700,0.49348876953125,-1.89292503991127,-9.30824513579905,-1.932329121799767
1789317795254443500,0.503443603515625,2.2788369128763675,-9.489836797702312,1.781175122127682
1789317795264398600,0.513398681640625,10.312478876721858,11.090862127298116,2.2830327571310103
1789317795274353700,0.523353759765625,-11.591509801989794,16.243059012269974,0.7252414429754018
1789317795284307700,0.5333076171875,-9.389939084145427,-6.273994929045438,-6.894364377182722
1789317795294262500,0.543262451171875,-14.139815982186793,-9.777092481604218,1.3731661297753452
1789317795304217600,0.553217529296875,0.46202188369929786,-5.061158185175061,4.004974476784468
1789317795314172700,0.563172607421875,9.196682703411579,5.828304002422094,-0.772127039725706
1789317795324127700,0.573127685546875,-0.5312561634451151,2.550820793366432,-0.9314620077658444
1789317795334082600,0.58308251953125,3.9639030462056395,-1.6359727243363855,-2.3776056224033235
1789317795344037600,0.59303759765625,5.92266161750853,-7.0259034296721214,-2.666031811389327
1789317795353992700,0.60299267578125,-4.7759980122476815,-7.90245888518691,-1.1812553914967923
1789317795363946800,0.61294677734375,-0.507464368969202,0.5701327143281698,-2.7775691093355417
1789317795373901600,0.622901611328125,4.875872929450869,8.539590667554736,-1.2476951451532543
1789317795383856600,0.632856689453125,-0.04565525123775005,-5.062570390060544,0.8099916370872408
1789317795393811700,0.642811767578125,3.730304718211293,3.904748261925578,4.170743423394859
1789317795403766500,0.6527666015625,2.3217864122867584,8.83285406743884,1.6959323952585457
1789317795413721600,0.6627216796875,-17.51298425554037,-0.5808458315223455,-5.566462161239981
1789317795423676700,0.6726767578125,-9.747093064659833,-5.679605725339055,-2.8170407035022973
1789317795433631700,0.6826318359375,0.7706646390229464,-6.057205112510919,5.735151671472192
1789317795443585500,0.69258544921875,9.331956850776075,4.787008651083707,1.4538351189881562
1789317795453540600,0.70254052734375,15.051590635120867,9.414385543137788,-0.3971440455973148
1789317795463495700,0.71249560546875,10.20100353809595,13.26585989551544,1.1630638281807302
1789317795473450800,0.72245068359375,-12.76296298059225,-1.0785767419844865,-6.281009776243567
1789317795483405600,0.732405517578125,-21.214791778063773,-8.528380122232436,-5.635671891066432
1789317795493360600,0.742360595703125,-2.1655425421297547,0.6943190659672022,7.938214673700928
1789317795503315700,0.752315673828125,-0.6822989578276872,1.6564000108152628,0.8748936597824096
1789317795513270500,0.7622705078125,-6.7279983414620155,-1.2956108886688946,-1.0026089892651886
1789317795523224600,0.772224609375,3.860233997416496,4.1195740849107505,3.917710034829378
1789317795533179600,0.7821796875,4.091706419298053,4.317535866856574,-0.08335494036115705
1789317795543134700,0.792134765625,-12.487049943959713,-4.403059018102288,-9.762753575128317
1789317795553089500,0.802089599609375,0.027210078486800193,-10.944114399760961,-3.1632059647515414
1789317795563044600,0.812044677734375,12.202222948509455,-4.297358171224594,3.4129145928084847
1789317795572999700,0.821999755859375,16.389872206258772,-2.8509049791812897,4.5725569221079345
1789317795582954800,0.831954833984375,6.5873115213990205,10.888532213270663,8.45567670507133
1789317795592909600,0.84190966796875,-9.650615973201393,-0.5121452202618122,0.3814129541106522
1789317795602863600,0.851863525390625,-6.627983139005303,-4.4552018777936695,-4.207424217799305
1789317795612818700,0.861818603515625,0.022342180189490315,-10.236150839322805,3.2462995507627723
1789317795622773800,0.871773681640625,4.026032462382316,3.008674451470375,-0.8248320633444934
1789317795632728600,0.881728515625,-9.209654413187502,10.165399140751362,-4.393820649635791
1789317795642683600,0.89168359375,2.0334932020306584,5.040304782238603,-3.003526567187905
1789317795652638700,0.901638671875,0.8669716346114873,-7.013952879637479,0.9104116209525615
1789317795662593500,0.911593505859375,0.5311754994243383,-6.876998816362023,1.957221278733015
1789317795672548600,0.921548583984375,10.37728364958763,-1.8661691349327563,1.9187630993925033
1789317795682502700,0.931502685546875,15.369584571635722,2.6928438304692506,2.744108153760433
1789317795692457700,0.941457763671875,0.8428682899683714,10.845698449194431,2.597730136318505
1789317795702412500,0.95141259765625,-8.473475981134175,-6.2176744914084665,-7.038743037500977
1789317795712367600,0.96136767578125,-5.165524568578601,-4.323537737619876,-3.792524735280871
1789317795722322700,0.97132275390625,-2.103694865503907,-5.961525893431902,3.956070745144784
1789317795732277500,0.981277587890625,3.9837919880241155,5.126497795569897,4.072932745245099
1789317795742232600,0.991232666015625,-11.666306392037868,7.943833682626486,2.87938288564682
1789317795752187600,1.001187744140625,-1.1783622273385523,1.8366174617558717,0.5872572329346091
1789317795762141700,1.0111416015625,6.25612492583394,0.12055471713840961,2.7205601049125194
1789317795772096500,1.021096435546875,6.037489189171791,-9.410422484725713,2.1380475092217326
1789317795782051600,1.031051513671875,14.71543911062479,-5.382402647918463,-1.4783010133333503
1789317795792006700,1.041006591796875,9.747208799993992,3.4236388159185647,-1.788227232596278
1789317795801961700,1.050961669921875,-13.418897078585625,-2.1809610605359078,-5.496619394207
1789317795811916500,1.06091650390625,-5.469680533877015,0.5462848057508468,-4.923542443120479
1789317795821871900,1.070871826171875,-12.02339782871008,4.962302089625597,6.191387372985482
1789317795831826700,1.08082666015625,-5.314425674757361,-2.761657838976383,3.812469791200757
1789317795841780700,1.09078076171875,-13.748378039276599,11.350393353450297,3.14710443251729
1789317795851735600,1.100735595703125,-6.9590931622028345,0.002537409523129463,2.011940126392245
1789317795861691000,1.11069091796875,2.7398908283263443,3.6456998508542773,1.4396014264523982
1789317795871645700,1.120645751953125,-3.7717812224596736,-0.0731330407500267,-0.9876990779682994
1789317795881600500,1.1306005859375,6.285601195687055,-6.435958930414914,-4.14527551240027
1789317795891555600,1.1405556640625,5.471249390628934,-7.89602505274713,-5.901504847711324
1789317795901510700,1.1505107421875,6.331995282593369,-2.387782440763712,-2.843946246084571
1789317795911464700,1.160464599609375,7.190020225161313,9.879380889689921,2.4046026426613327
1789317795921419500,1.17041943359375,-1.4809721322387457,5.768704981505871,1.7622773833036423
1789317795931374600,1.18037451171875,-6.730971804314851,6.544992136585712,-1.9666896565631031
1789317795941329700,1.19032958984375,-2.404732991042733,-9.521935232752561,-1.7856819320276378
1789317795951284700,1.20028466796875,4.236551528084278,-3.9879245577841993,4.05075656927228
1789317795961239600,1.210239501953125,11.28774429731369,12.164587922120093,4.879520346042513
1789317795971194600,1.220194580078125,-10.436839415884018,4.94256395445466,-2.7274139163300393
1789317795981149700,1.230149658203125,-4.0161037735641,-7.695308419135213,-10.593977604532242
1789317795991103700,1.240103759765625,0.23777765950560567,-12.09590893816948,-2.871653752699494
1789317796001058600,1.25005859375,7.0978200803697105,-1.3400503343760966,4.811231822714209
1789317796011013600,1.260013671875,20.917705020499227,15.188836374819278,3.6425457707375286
1789317796020968700,1.26996875,6.587198124152422,10.375140792340039,1.2534417259812354
1789317796030923500,1.279923583984375,-17.99696838020086,0.7217343116372823,-4.8893227781325574
1789317796040878600,1.289878662109375,1.8092285195708273,-6.305788828191161,-6.137807173967361
1789317796050833700,1.299833740234375,-3.4676953997880218,-7.325701784282923,3.962481488969922
1789317796060788700,1.309788818359375,-7.544643810415267,-7.68261318821311,2.14727506403327
1789317796070742500,1.319742431640625,-3.87395331068933,1.6575918509483336,-4.220262948845327
1789317796080697600,1.329697509765625,3.1054408812642094,-0.8391828794538975,0.186961737569049
1789317796090652700,1.339652587890625,8.108658918645977,1.8869383667171,5.552616006717085
1789317796100607700,1.349607666015625,11.158242303609848,13.172198445999621,0.783358408640325
1789317796110562600,1.3595625,-13.095303422367571,-4.949617380097508,-7.131274021682143
1789317796120517600,1.369517578125,-7.566271120333671,-15.98815603044033,-6.053551850700378
1789317796130472700,1.37947265625,8.223551372238994,0.06457973193824292,2.160147405087948
1789317796140427500,1.389427490234375,4.107658021667599,1.3038929793238638,5.064046307832002
1789317796150381600,1.399381591796875,-7.745485531711578,9.45921720303297,1.9262392804920672
1789317796160336600,1.409336669921875,3.0617011082589625,-3.447068206822872,-5.429695144969225
1789317796170291700,1.419291748046875,-6.156210261142253,-8.733964654141664,-0.7342316818997263
1789317796180246500,1.42924658203125,-5.7937003065526484,-0.6704582979083061,0.7573341789372265
1789317796190201900,1.439201904296875,4.4916205141305925,-0.12819441823661326,-2.205296460369229
1789317796200156700,1.44915673828125,-3.7224861534148452,7.744029487684369,0.7756560175694525
1789317796210111700,1.45911181640625,-5.540003777903318,3.468490934079885,-0.793976687157899
1789317796220065500,1.4690654296875,1.9074375493884086,-6.388826007840037,-1.2116181618608535
1789317796230020900,1.479020751953125,-0.1459954478651285,-8.20749806306064,3.0637641782686114
1789317796239975700,1.4889755859375,10.92173773277998,4.054636041054129,1.7275306257016956
1789317796249930500,1.498930419921875,11.198329983848332,11.250222668170927,-1.1567471923798323
1789317796259885600,1.508885498046875,-0.8604197287499904,-1.8533768733769653,-3.683580668698251
1789317796269840600,1.518840576171875,2.571962950116396,-1.9298545483797787,-3.295823752388358
1789317796279795700,1.528795654296875,-1.9376748667418955,0.31574235819578167,-0.7222527825534343
1789317796289749500,1.53874951171875,-4.376364487922191,-9.53725029078424,-2.4206965761110184
1789317796299704600,1.54870458984375,0.8126590296655893,7.234231707331538,0.26220680203698576
1789317796309659600,1.55865966796875,2.6312755553066727,4.06744759183228,1.691979858240485
1789317796319614700,1.56861474609375,-6.014725568699836,2.129600291132927,0.30651860277652737
1789317796329569500,1.578569580078125,-1.2957108419120311,0.548785390394926,-3.7285976220324635
1789317796339524900,1.58852490234375,5.290615760102868,-10.992378372192382,-3.747168759250641
1789317796349479700,1.598479736328125,10.787311726677418,0.2706342194467783,0.6518538429424167
1789317796359434500,1.6084345703125,10.364496648728847,1.4196581240981816,1.0248035046122967
1789317796369388500,1.618388427734375,-5.007389770108461,0.4600198962271213,-0.7748763384338467
1789317796379344000,1.62834375,-0.9950590853422879,1.6399772838026285,-5.491331224671006
1789317796389298700,1.638298583984375,-6.268318052452802,1.563936246651411,-0.952151452312246
1789317796399253500,1.64825341796875,-5.803017000952362,-2.823497916817665,2.6830449055105445
1789317796409208600,1.65820849609375,-6.185733292746543,11.725289326882361,0.8255200456086546
1789317796419163600,1.66816357421875,-18.01770838589072,-4.253991323184967,-4.357061237037182
1789317796429118700,1.67811865234375,-2.4256653044342995,1.6494295872807503,-0.017409710489679125
1789317796439072500,1.688072509765625,2.8416186799198386,-3.6709149561315773,3.3056419665694237
1789317796449027600,1.698027587890625,11.140486866688727,-3.691512923002243,2.606675951579213
1789317796458982700,1.707982666015625,20.682923620200157,9.922291810655594,0.05004683726020157
1789317796468937700,1.717937744140625,2.2691847029119727,-9.87380688894987,-2.6034391616150736
1789317796478892500,1.727892578125,-4.139264873808622,-9.664057054054737,-0.635529753998667
1789317796488847600,1.73784765625,6.407157783344387,11.144181045031546,4.015239557950198
1789317796498802700,1.747802734375,-8.391523674112557,3.313582111918926,4.3093794484078884
1789317796508757500,1.757757568359375,-13.428077579385041,4.918583943930268,0.09548512127902359
1789317796518711600,1.767711669921875,-3.9006116005122657,-4.097864357405901,-3.5375261841222643
1789317796528666600,1.77766650390625,-10.998934369707106,8.01322169162929,3.14279592166841
1789317796538621700,1.78762158203125,-8.116444165694713,3.8390006552517413,-0.06779539691596291
1789317796548576500,1.797576416015625,-12.53161155474186,1.4462690676480532,-0.33478319528494027
1789317796558531800,1.80753173828125,7.191172902327776,-5.462594959530234,2.4798364550828933
1789317796568486700,1.817486572265625,15.570309388554096,-6.541708292609453,-2.4208497208461166
1789317796578441700,1.827441650390625,19.45289082685709,-2.9205963550448417,-1.709087644907832
1789317796588396500,1.837396484375,22.35030036758184,11.361383534020185,-0.14811068645343184
1789317796598350800,1.847350830078125,16.213907736587522,7.736922870549559,-5.784444986951351
1789317796608305700,1.8573056640625,-13.06634153177738,-6.09860621343553,-8.393800971394777
1789317796618260700,1.8672607421875,-24.155180044293402,-17.265753708034755,-0.22495975205190477
1789317796628215600,1.877215576171875,-0.6100076285988092,1.6431360400944948,10.11534419324994
1789317796638170600,1.887170654296875,-9.526623098307848,-1.1587649619430302,5.873208143031597
1789317796648125700,1.897125732421875,-2.1282968073189257,3.8840702155560254,3.6784921133875845
1789317796658080500,1.90708056640625,9.682760000959037,17.708637760543823,5.912432484439015
1789317796668034600,1.91703466796875,8.847909013229607,2.1136165400594473,-0.6414627973094582
1789317796677989600,1.92698974609375,1.6085574786663055,-7.108496372684836,-8.012938783034683
1789317796687944700,1.93694482421875,-6.623963966491818,-8.208159741839767,-10.14594859035015
1789317796697899500,1.9468994140625,7.404177355104684,-4.322301473823189,-4.028189055894315
1789317796707854800,1.956854736328125,8.079583046287297,3.6225270650595425,2.4275148778237403
1789317796717809700,1.9668095703125,-1.708145980143547,1.3773071751028299,4.0899753577217455
1789317796727764500,1.976764404296875,-6.681031423103809,5.118820100548863,1.7466792705468832
1789317796737719600,1.986719482421875,-3.2293209434330463,-0.2568517778098583,-3.930001653386652
1789317796747673900,1.996673828125,-10.837190148568153,-8.420122576609254,-4.239233022253215
1789317796757628700,2.006628662109375,-6.0496039898574345,2.6817753239661455,-2.2713218610711396
1789317796767583500,2.01658349609375,-2.8293448892802,-1.7331541646718978,-2.164884078221023
1789317796777538600,2.02653857421875,4.462947377353906,-1.8869763606399297,1.0995843125693499
1789317796787493600,2.03649365234375,11.255434265339375,2.7498686169832944,3.8742026092752813
1789317796797448700,2.04644873046875,10.166236176097392,-5.268199345633387,2.092582958250493
1789317796807403500,2.056403564453125,-1.563613590568304,1.2166916657328606,-0.9087525286339223
1789317796817357600,2.066357666015625,-2.8747224926203487,-7.380352827402949,-5.255481902879477
1789317796827312600,2.076312744140625,5.3027375750511885,4.403624835291504,-0.13886222585118374
1789317796837267700,2.086267822265625,5.989108312362432,2.391083235874772,1.5903636503279208
1789317796847222500,2.096222412109375,-6.8731140838831655,4.604397583004832,1.042845430324599
1789317796857177900,2.106177734375,-13.328793029290438,0.7650865466296672,-3.1712755816996094
1789317796867132700,2.116132568359375,0.5620183814555406,-3.0215666662693024,-2.870866986235976
1789317796877087500,2.12608740234375,-0.9762228674471378,-5.396982961934804,2.5758745706021786
1789317796887042800,2.136042724609375,10.23211413115263,5.4011377435266965,2.2464789501070976
1789317796896996900,2.145996826171875,9.11303528290987,6.334387146165967,-0.6478306518409401
1789317796906951700,2.15595166015625,-11.441274816858767,-3.591429331484437,-2.3384752428896722
1789317796916906500,2.165906494140625,-1.6032260545104742,-4.621881801769137,-3.6425063155099746
1789317796926861800,2.17586181640625,-4.734622045764326,2.4973814641237255,2.3406489336669445
1789317796936816600,2.185816650390625,-0.7138742457866668,-5.891392034497857,1.3178887714505194
1789317796946771700,2.195771728515625,7.9255463307857505,5.090528072044253,1.3714244006745517
1789317796956726500,2.2057265625,1.3815110565334559,3.9576942546933886,1.423128430557251
1789317796966680800,2.215680908203125,-11.227443850129841,0.49361120018363,-5.4450084494352335
1789317796976635600,2.2256357421875,0.6063222180843353,4.870993925237656,-8.584859549823403
1789317796986590700,2.2355908203125,-10.812095454800128,-14.188165294814109,-1.462117063512653
1789317796996545500,2.245545654296875,2.3511487003713847,-9.316873263412713,-0.4665884609624743
1789317797006500600,2.25550048828125,13.318990597200393,1.2757540955543518,-1.4445472122915088
1789317797016455700,2.26545556640625,9.186320883873105,14.105602746939658,2.108351313007623
1789317797026410500,2.275410400390625,-1.5474726031064987,5.53792989423871,-3.6416622659012674
1789317797036365800,2.28536572265625,2.57227216219604,-2.234868007290363,-8.644445711258053
1789317797046319600,2.295319580078125,-0.8019698778688907,-5.6072682188808916,-4.276498046286404
1789317797056274700,2.305274658203125,7.79794520226717,-5.003033328464627,-3.7446778192177415
1789317797066229500,2.3152294921875,10.831777475869655,17.223395744776724,-2.0036662190437315
1789317797076184800,2.325184814453125,-24.749016874814032,-2.610810274904966,-1.8232628901422023
1789317797086139600,2.3351396484375,-2.0493536189854145,-1.291973408949375,-2.006109374412149
1789317797096094700,2.3450947265625,-9.758825588029623,-7.789015461358428,5.946115558332204
1789317797106049500,2.355049560546875,1.590273633956909,-5.478665219843387,3.1662568767547605
1789317797116003800,2.36500390625,14.534156660801171,18.416645744645596,-2.085210822047293
1789317797125958700,2.374958740234375,-9.77119407121539,3.700252694296837,-5.181286785855889
1789317797135913700,2.384913818359375,-3.716816291084885,-8.328131106132268,-8.730233650919795
1789317797145868500,2.39486865234375,3.7354058407425876,-6.085007311671972,-3.38663653447479
1789317797155823600,2.40482373046875,-1.796934855186939,-10.165387450313567,0.5586133222524077
1789317797165778400,2.4147783203125,1.1845616665005683,6.004547873556613,1.3121616259753703
1789317797175733200,2.424733154296875,-2.907480268362164,1.6494851168602704,-0.32963812401406467
1789317797185688600,2.4346884765625,-1.0111550646185874,-2.839084193006158,-0.0405809436481446
1789317797195642400,2.444642333984375,-7.2988582010209555,6.722732968279719,-2.528235159809887
1789317797205597400,2.454597412109375,-7.813058015725016,-3.4293758982658384,-8.595194481354952
1789317797215552300,2.46455224609375,-4.802569792830944,-4.011490142288804,-4.113110441854596
1789317797225507600,2.474507568359375,-1.1382435674399136,-2.9957413201391696,0.1606239118721336
1789317797235462400,2.48446240234375,3.4971085412770506,1.097755489706993,2.4412168015703557
1789317797245417500,2.49441748046875,8.316521916881204,4.388529557490348,3.8344007602408525
1789317797255372300,2.504372314453125,9.172963974171877,0.3515010693192482,0.9511839955195784
1789317797265326600,2.51432666015625,1.681968751835823,-1.8868834216594694,-1.0415240455277264
1789317797275281400,2.524281494140625,-1.4784943439483642,-8.68904648500681,-3.6477395399883386
1789317797285236500,2.534236572265625,4.461808144190908,5.829257357624173,-3.598032675272226
1789317797295191300,2.54419140625,1.8626146573215723,3.365058032134175,-1.7735095559358596
1789317797305146400,2.554146484375,-3.789334414806962,-2.286983394452929,0.030187121536210178
1789317797315101400,2.564101318359375,1.553275736427307,3.6181571794122456,0.45267442883513864
1789317797325056300,2.57405615234375,-0.8240952004373073,-3.8566263283133506,-1.6758692659169434
1789317797335011600,2.584011474609375,1.965057963708043,0.3469289390981197,-1.1260123738329857
1789317797344965400,2.59396533203125,5.324081976374983,1.5440543190956115,-3.125665923169255
1789317797354920400,2.60392041015625,4.334357237797975,2.3629040200948714,-3.4784701840415595
1789317797364875300,2.613875244140625,-3.927975408256054,-12.87939623388648,-2.382466798698902
1789317797374830600,2.62383056640625,-1.3776117110073565,-13.875913701343535,-0.6977889340348541
1789317797384785400,2.633785400390625,9.999500138020515,7.533619143053889,2.3339625877708197
1789317797394740200,2.643740234375,9.301582170778513,12.696612731850147,1.122900963814184
1789317797404695600,2.653695556640625,-8.17534877460599,-4.4192046817392105,-5.363848754096031
1789317797414649600,2.663649658203125,-0.590917728203535,-5.770287866783142,-6.664368457594514
1789317797424604400,2.6736044921875,5.391891776275634,-0.45731823605298993,-2.176046108226478
1789317797434559200,2.683559326171875,-0.6857610809803009,-2.917169887727499,-0.9153280345667153
1789317797444514600,2.6935146484375,-7.552887907147407,3.7306262052506205,-2.3847683536395428
1789317797454469400,2.703469482421875,3.3135254132956264,1.6142255874305962,-2.4437051112547516
1789317797464424400,2.713424560546875,-3.4509909332245585,-1.1882575984090566,1.3169075053282082
1789317797474379300,2.723379150390625,-0.6155319449782372,-0.8306956216156482,-1.0533757382977753
1789317797484333600,2.73333349609375,-0.1050134491354227,1.4655670578360556,-2.558706285919249
1789317797494288400,2.743288330078125,-10.146565845465659,11.431747110056877,-1.2101244161717593
1789317797504243500,2.753243408203125,-8.806521940830349,0.5076093303978443,-3.676099957554042
1789317797514198300,2.7631982421875,-9.90616835885048,-6.587794921001792,1.0211886751160024
1789317797524153300,2.7731533203125,1.185627249905467,0.5795850178062916,4.512699834777415
1789317797534108400,2.7831083984375,2.1305670903384684,-0.17589958774149417,2.529050275585055
1789317797544063200,2.793063232421875,-1.6242080522626638,10.847681147444247,2.1848682971075175
1789317797554017300,2.803017333984375,3.3464573765605685,-4.949745974913239,-1.2261128434203565
1789317797563972400,2.812972412109375,9.358089655420184,4.623154890444875,-0.504595791262947
1789317797573927400,2.822927490234375,9.794916307586432,-2.8204157328933475,-1.501550956017524
1789317797583882200,2.83288232421875,8.312184179937839,-7.356184016308188,-1.4541338096737861
1789317797593837600,2.842837646484375,-3.9180712693572044,7.959758981510996,0.42796266997009513
1789317797603792400,2.85279248046875,-5.727018049377203,-10.937390059942006,-5.497846305653453
1789317797613747500,2.86274755859375,2.5389608442246914,-1.206405249518156,0.592980140626058
1789317797623702300,2.872702392578125,4.126084489718079,8.546845168727636,4.728536296109855
1789317797633656600,2.882656494140625,-9.976559991937876,9.381268286433816,-1.9701221152298152
1789317797643611400,2.892611328125,-10.439956086599826,-3.9012504829376935,-7.680929180648922
1789317797653566500,2.90256640625,4.441663766306639,-10.07901381971836,-2.562400756523013
1789317797663521300,2.912521240234375,8.28090407553315,14.781134694850444,5.210405912834406
1789317797673476400,2.922476318359375,3.6283161698549984,10.13285413097739,-0.1851463587101549
1789317797683431400,2.932431396484375,-2.5838895347535606,-15.908485696876047,-5.8801224524647
1789317797693386200,2.94238623046875,0.8423696927964687,-6.842896640273929,-1.1750773604489861
1789317797703340300,2.95234033203125,6.067697864952683,-1.845111733856797,0.9543047578886151
1789317797713295400,2.96229541015625,4.624036349454522,14.042902252876758,3.035013007819652
1789317797723250400,2.97225048828125,-3.7469139077067375,-1.0066057307511567,-0.632674364567548
1789317797733205200,2.982205322265625,-0.41543315100371836,-11.43440668465495,-1.7908686870157717
1789317797743160600,2.99216064453125,-7.380338214355707,3.7087124796062705,1.0043069522894918
1789317797753115400,3.002115478515625,-10.138864185047149,-1.5857938581943511,-2.468749828401208
1789317797763070500,3.012070556640625,1.6483663419634103,-1.1252367863506079,0.3633660234296694
1789317797773024300,3.022024169921875,3.265799201002717,-8.764068115982413,2.8572967260450124
1789317797782979600,3.0319794921875,12.545287028872966,-0.01826221739947796,1.1474123047363012
1789317797792934400,3.041934326171875,11.10504964260459,8.761636504921317,0.1288174181063194
1789317797802889500,3.051889404296875,1.059026822862029,-2.8658903668671845,-3.1591102198705077
1789317797812844500,3.061844482421875,-0.37947044174075123,-1.7364637276113033,-4.282535280624032
1789317797822799400,3.07179931640625,-10.665935756283998,-1.9461101021319627,-2.3869418982863424
1789317797832754400,3.08175439453125,-7.274122403693199,-9.263210646808147,-0.6094813031697646
1789317797842708200,3.091708251953125,0.49846565447747704,6.303135683333873,4.781897591680288
1789317797852663600,3.10166357421875,-3.316467311966419,12.554103957056999,5.262054851529002
1789317797862618400,3.111618408203125,-4.023976114374399,-5.786057682844996,-1.6318699651926756
1789317797872573400,3.121573486328125,-1.1399497868359088,-2.9481764358878135,-1.8046582890458405
1789317797882528300,3.1315283203125,0.6396259372711182,-7.415766086089611,-0.8954923573054373
1789317797892483600,3.141483642578125,7.225768999412655,5.7719145912021395,-0.2369366786368191
1789317797902438400,3.1514384765625,7.381596105462313,2.973635871315002,-1.4070982099935412
1789317797912393200,3.161393310546875,3.1304899823248387,-8.382427928987145,0.25044591108923775
1789317797922347300,3.17134716796875,2.3687410556852817,2.532629887637496,2.8754522681996226
1789317797932302600,3.181302490234375,-8.779004988351463,-1.4877596004217861,0.2744767019527964
1789317797942257400,3.19125732421875,-1.9210931497752666,6.870603562366962,-0.8602871153462678
1789317797952212200,3.201212158203125,-1.3935972156465053,-4.9965387057483195,0.3238481789683923
1789317797962167600,3.21116748046875,-0.0013414777368307112,0.8197440194904804,2.5540388786301014
1789317797972122400,3.221122314453125,-3.8235622631013393,4.579792718580365,-0.5717144305616617
1789317797982077400,3.231077392578125,-0.7485165201008319,-1.947474376222491,-3.582184533277154
1789317797992031200,3.24103125,3.72505103546679,-7.06814916472733,-0.6970180227275937
1789317798001986600,3.250986572265625,10.918027187824249,0.8419172728538513,1.4011743729025126
1789317798011941400,3.26094140625,11.520154876828194,10.880447106492518,0.2815917033234611
1789317798021896400,3.270896484375,-9.86422306804657,-3.1221628834843633,-3.3995842788532373
1789317798031851300,3.280851318359375,-4.251048255470395,-9.905123233711718,-4.3636973140507935
1789317798041806300,3.290806396484375,2.7573265317738054,3.59032283154726,1.6480989231988787
1789317798051761400,3.300761474609375,-2.5388164673179388,-1.0961299343317747,1.8826102743849158
1789317798061715500,3.310715576171875,-1.0264332977712154,4.184413344568014,-0.6016679625377058
1789317798071670300,3.320670166015625,-5.855431078800558,8.788538540372253,-4.1541871331304305
1789317798081625300,3.330625244140625,-1.4023194512844084,-1.4250731348842383,-5.9459548148125405
1789317798091580400,3.340580322265625,0.8612649474024772,-4.884126378533244,-1.8261983590722084
1789317798101535200,3.35053515625,5.426740971338749,-4.415062175107002,-0.5199371893122792
1789317798111490600,3.360490478515625,11.018011995142698,-5.895601176625489,0.960229033371061
1789317798121445400,3.3704453125,8.49372265034914,7.932927673208713,1.5851771876007317
1789317798131399400,3.3803994140625,-9.550426583221554,8.104120690694451,-5.704318141791224
1789317798141354200,3.390354248046875,-8.219321187323331,-16.32087173526883,-6.7672045626908535
1789317798151309600,3.4003095703125,0.615606763780117,-0.19327742352187632,5.405229396754503
1789317798161264400,3.410264404296875,7.170788870468735,-0.041402269968390464,2.4488405744470656
1789317798171219500,3.420219482421875,-7.326167063707113,3.4755835226893423,-1.2517141715362667
1789317798181174300,3.43017431640625,-11.277899779647589,11.784501394307613,-1.2341495810121297
1789317798191129000,3.440129150390625,7.539906845021248,-0.266908476921916,-1.4432355451710521
1789317798201083400,3.45008349609375,-0.6931283948779106,-5.976012099424004,2.6943627105996013
1789317798211038500,3.46003857421875,4.666960714423656,-14.397598318845032,-2.571599377501011
1789317798220993300,3.4699931640625,12.937242858177422,11.494725836539267,-2.280434411200881
1789317798230948000,3.479947998046875,-10.603886419606209,10.883547410595416,-2.762878028421104
1789317798240903400,3.4899033203125,-6.878839475792646,-11.639792479121684,-8.609336988475919
1789317798250858200,3.499858154296875,-6.565781242114305,0.8267688035607338,1.7780825629398225
1789317798260813300,3.509813232421875,-3.0905712289124727,-12.60234922478795,3.6814158918797966
1789317798270767000,3.51976708984375,2.3590911838084456,11.977826164102554,2.7800258548378944
1789317798280722400,3.529722412109375,-1.8707137926250694,8.385922785365581,-1.309320703461021
1789317798290677200,3.53967724609375,5.238879727646708,1.0067056839942932,-0.9451423772677778
1789317798300632300,3.54963232421875,7.5970561346977945,6.347076531869173,0.5760208225186914
1789317798310587400,3.55958740234375,-9.861362417918443,-11.324048951882123,-4.144334139896929
1789317798320542200,3.569542236328125,-9.1712793820858,-7.926642309328913,-5.767960885140299
1789317798330497300,3.579497314453125,7.990771959412098,-5.180996278476715,0.4920757342446595
1789317798340451300,3.589451416015625,16.176960107940435,7.223759413155913,5.2984436772495505
1789317798350406400,3.599406494140625,10.371833567488192,11.17110529231429,4.958050861921906
1789317798360361200,3.609361328125,-15.93254227976799,-3.4581846441209314,-4.426019037929177
1789317798370316300,3.61931640625,-3.9951813970446586,-11.622647283053398,-8.498357324412465
1789317798380271400,3.629271240234375,2.05381936622262,-7.923129332771897,1.7208591851137578
1789317798390226400,3.639226318359375,18.57713675085306,6.179335116142034,4.485705737128853
1789317798400181200,3.64918115234375,15.502126079165935,14.718483300626277,1.2412839629366994
1789317798410135300,3.65913525390625,-16.294492262387276,-8.160749755889176,-5.841598952803015
1789317798420090400,3.66909033203125,1.5290589945375919,-5.38151242108047,-5.578381731614471
1789317798430045400,3.67904541015625,-4.097256454640626,6.49025809135735,4.329363375033438
1789317798440000300,3.689000244140625,-12.003164018976687,-4.62672515014708,3.8452252288550137
1789317798449955300,3.698955322265625,4.002292105832696,3.644779228878021,-3.209385824385285
1789317798459910400,3.708910400390625,-5.457448244291544,-13.12891343102455,-3.529995496356487
1789317798469865200,3.718865234375,5.361870732021331,7.027322064298391,3.177332689781487
1789317798479819300,3.7288193359375,5.129131066682935,8.657854058885574,-1.5402135718889534
1789317798489774300,3.7387744140625,-6.687320878636837,-1.7820745551854371,-8.915912289875745
1789317798499729400,3.7487294921875,-7.598976873627304,-19.050370348918438,-1.727823617298901
1789317798509684200,3.758684326171875,5.434900312396883,-4.475703398552537,3.0728742441803214
1789317798519639300,3.768639404296875,14.19126092274189,9.419859590634703,3.2205309032559395
1789317798529594400,3.778594482421875,0.8247726613074541,15.116592976385354,6.611663872367143
1789317798539549400,3.788549560546875,-9.75739350939989,0.6616302638083696,-2.4621052758201953
1789317798549503200,3.798503173828125,-14.803143113040923,-8.858658370780944,-3.658839318412542
1789317798559458300,3.808458251953125,-4.989373051902652,-6.9241451829403635,4.885037063637376
1789317798569413400,3.818413330078125,10.516665232270956,8.269370289605856,1.4991194910869001
1789317798579368400,3.828368408203125,2.195580537518859,4.809747137114405,-1.7469598410539329
1789317798589323300,3.8383232421875,-5.21739211845994,-8.784201387950777,0.8237096351858227
1789317798599278300,3.8482783203125,9.473718606594204,5.062491479605436,3.5034611251741645
1789317798609233400,3.8582333984375,6.075899291586875,4.255688190230727,1.6626850824341177
1789317798619187500,3.8681875,-2.8033734126776455,4.11310167402625,0.2629834124326706
1789317798629142300,3.878142333984375,-11.571160256922244,-3.343804816225171,-2.680700972732901
1789317798639097000,3.88809716796875,-4.383432526612282,-8.549303667795657,-3.5282360854685306
1789317798649052400,3.898052490234375,-1.1983867782354354,2.4986831943720578,3.2724677189812064
1789317798659007200,3.90800732421875,-3.1660897034943103,10.820313832569122,3.1336122059985994
1789317798668962300,3.91796240234375,-1.2036620882898568,-2.9873972701638936,-5.11789304883182
1789317798678916000,3.927916015625,2.047791776496172,-15.299004722499847,-3.2701825306534764
1789317798688871400,3.937871337890625,19.888532653152943,3.3236762204319237,2.9844407584458588
1789317798698826200,3.947826171875,26.539491594076154,20.401614277482032,5.1460184885978695
1789317798708781300,3.95778125,-5.264439116317034,-4.328446552449464,-0.6117612673331052
1789317798718736400,3.967736328125,-16.52600501627922,-19.522217461061476,-7.041281616067886
1789317798728691500,3.97769140625,-3.6062148126840587,-1.8759680598914623,0.6153029585279524
1789317798738646300,3.987646240234375,-3.948115109965205,-1.633555141800642,6.736795395901799
1789317798748600300,3.997600341796875,-9.162865189483762,15.954858156472444,3.7638819936424492
1789317798758555400,4.007555419921875,-5.006508895620703,3.685033497855067,-3.9056405345901846
1789317798768510500,4.017510498046875,-1.534556422910094,-4.83174561843276,-0.9857522547494619
1789317798778465300,4.02746533203125,0.20353286007642746,2.943585016444325,2.3667538273908195
1789317798788420000,4.037420166015625,2.063317262408137,-5.341714079177379,-3.0725036573022604
1789317798798375400,4.04737548828125,5.030028887417912,3.594718436157703,-1.7071639833688734
1789317798808330200,4.057330322265625,6.3858466997683045,-7.202962124320864,-1.5795701613739133
1789317798818284300,4.0672841796875,5.9407706901729105,-11.544072343510388,-0.28309074624218045
1789317798828239000,4.077239013671875,9.149558548665047,1.6408967367351055,2.7302199136614798
1789317798838194400,4.0871943359375,2.80398073092103,7.309284902489185,2.080444046036899
1789317798848149200,4.097149169921875,-11.123819809526204,-2.173063585284352,-3.946540992516279
1789317798858104300,4.107104248046875,-2.0547674607276916,-1.601411698564887,-4.16935986008197
1789317798868059400,4.117059326171875,-4.308450643125176,0.8875462206065654,2.6952918081432578
1789317798878014200,4.12701416015625,-0.3043085255116224,2.8700790507286786,2.1652853524982927
1789317798887968300,4.13696826171875,-12.553923924314976,2.017792359551787,-2.4991370756193994
1789317798897923300,4.14692333984375,-6.828415110456943,2.594962132909894,-3.0574244538530704
1789317798907878400,4.15687841796875,3.2093834862977264,-9.348581822362542,-0.633721389402449
1789317798917833200,4.166833251953125,12.830529034864902,8.05673350109756,3.519332063522935
1789317798927788300,4.176788330078125,19.004903898251055,7.543789239412546,2.894664625930786
1789317798937743400,4.186743408203125,6.1198091604620215,1.7031056478887796,-0.5038799346111714
1789317798947697400,4.196697509765625,-9.069961280336976,-11.748562650442123,-6.581679068470001
1789317798957652200,4.20665234375,-1.3162024257987737,-8.43413415082693,-4.71134229246378
1789317798967607300,4.216607177734375,-0.30963176636099815,4.569266648390889,2.3745913891486823
1789317798977562400,4.226562255859375,3.7800025228381156,-5.698498641857505,0.19047650422435253
1789317798987517400,4.236517333984375,0.38399347212314605,17.97395926053524,2.9423431996896863
1789317798997472300,4.24647216796875,-13.31685124708414,-1.5374591586142778,-0.25001827852800484
1789317799007427300,4.25642724609375,-4.213594430866837,-0.008470306703448295,-1.4178101581439375
1789317799017381400,4.26638134765625,-22.867260879170892,3.614819559422135,1.5072555973999202
1789317799027336400,4.27633642578125,1.0049667313724755,-10.367366651207208,-1.1368867460034786
1789317799037291300,4.286291259765625,10.16396823116541,1.120286470466852,-0.41148448644317687
1789317799047246300,4.296246337890625,12.101212889796495,10.895268243527411,1.3222555883578955
1789317799057201400,4.306201416015625,9.595257658594846,1.3791110096544026,-2.099170666077733
1789317799067156200,4.31615625,0.9305909970849752,1.66423786483407,-5.0589568757385015
1789317799077111300,4.326111328125,-10.744944411069154,-15.032536390560864,-7.310974755272269
1789317799087065300,4.3360654296875,-5.058521991452574,-13.253694825947283,-1.1204605118595063
1789317799097020400,4.3460205078125,8.45576847500801,7.839855421757697,3.0331726406499744
1789317799106975200,4.355975341796875,-0.7880512426316738,12.237409997224807,3.828909177087247
1789317799116930300,4.365930419921875,-3.5010108094125982,-2.8403812470793723,-0.26019668605728075
1789317799126885400,4.375885498046875,4.154333263602853,3.731289637595415,-1.0346364049058407
1789317799136840400,4.38584033203125,-13.272902215242386,0.5021335293352603,0.04782299633142538
1789317799146795300,4.395795166015625,1.0353291364103554,-8.949571982893348,-0.4291966687444597
1789317799156749300,4.405749267578125,16.161857231354713,7.103188913926481,0.9014001200444995
1789317799166704400,4.415704345703125,7.204902152472734,0.3647732233464718,1.8946350586995482
1789317799176659500,4.425659423828125,-9.94529157797098,-0.5981330664098262,-0.008384217588882893
1789317799186614500,4.435614501953125,2.3723282665222882,0.7834194911777973,-3.8779263059735296
1789317799196569300,4.4455693359375,-10.875027419531344,-1.3336048114985226,0.7066592729065567
1789317799206524400,4.4555244140625,-1.2145762810140848,-13.85772338013649,-1.2176282159306109
1789317799216478500,4.465478515625,11.657190188646316,12.140883221405744,-0.3907594956593588
1789317799226433500,4.47543359375,-4.707584401234985,5.539064451226592,0.6875991100624204
1789317799236388400,4.485388427734375,-0.3001438070476055,-4.464218712463975,-3.786253399926424
1789317799246343400,4.495343505859375,-0.872136470028758,-3.4636060846477745,-3.4241254303917286
1789317799256298200,4.50529833984375,-10.007704487264157,-11.52185817361474,-1.4673837518692017
1789317799266253600,4.515253662109375,4.863670450481772,0.8309358601123094,1.1677983824219553
1789317799276208400,4.52520849609375,12.3179524374485,9.417890920910239,2.159693523840606
1789317799286162400,4.535162353515625,8.803975178956986,1.0478753142505883,2.4653616472676396
1789317799296117200,4.5451171875,5.318813680583238,-5.66365003131628,0.7758660801235586
1789317799306072600,4.555072509765625,-9.774656778889893,9.866229147171973,-2.638953250327706
1789317799316027400,4.56502734375,-10.923024849981068,-6.590761954113841,-8.230415997311473
1789317799325982200,4.574982177734375,-9.375919911143184,-6.697375239661335,2.0370178690254686
1789317799335937500,4.5849375,4.835917351159453,-0.2665162627339363,2.8755902153655883
1789317799345892400,4.594892333984375,9.42806920057535,-3.8032483738690614,-0.9162374044965952
1789317799355846400,4.604846435546875,9.657820205491781,8.464997491124272,3.31417130998373
1789317799365801200,4.61480126953125,1.8639152185261247,9.593523966670036,-0.15155764856953172
1789317799375756500,4.624756591796875,-6.257955063870549,-8.603541453939675,-8.777918946680426
1789317799385711400,4.63471142578125,-9.901793797028065,-7.1815376434981815,-1.0191207097355275
1789317799395666400,4.64466650390625,7.53029788967669,-0.49275078396201133,0.7628384754419326
1789317799405621200,4.654621337890625,11.711356663119792,-4.118112195664644,-2.467307812899351
1789317799415575600,4.664575439453125,0.3808972596734762,10.253369685149192,3.950377501939237
1789317799425530400,4.6745302734375,-0.27722937992811203,3.7001334518313405,-2.546574241837859
1789317799435485400,4.6844853515625,3.4618045881837602,3.0454245117187497,-5.469023531273007
1789317799445440300,4.694440185546875,-6.883113499850034,-6.865737417635321,0.46877051770929246
1789317799455395600,4.7043955078125,1.9017104039132593,-7.532246685656904,-0.6071722225097939
1789317799465350400,4.714350341796875,6.256398482078313,2.3918296703279016,-1.102823732881993
1789317799475305200,4.72430517578125,-5.787191070789098,6.019662440580129,1.7681508053816855
1789317799485259300,4.73425927734375,1.4195797981649636,2.544106390419602,-1.1430549863096326
1789317799495214300,4.74421435546875,-10.299539900171757,0.8009656692624092,-1.80316235139966
1789317799505169400,4.75416943359375,-6.437331972333788,-1.7416718176484107,0.1686527949510142
1789317799515124200,4.764124267578125,2.9840999821841714,-0.8749830916315317,0.72306292989254
1789317799525079600,4.77407958984375,0.5893289977073669,5.877421376812458,-0.21680691379979253
1789317799535034400,4.784034423828125,4.125362605184316,-2.740499315613508,1.7096955476731062
1789317799544988400,4.793988525390625,5.854967552942037,6.064148063516616,3.9989275978356598
1789317799554943200,4.803943115234375,-6.6414575376063585,-3.84748908213377,-2.4172135563008488
1789317799564898600,4.813898681640625,-15.403393317735194,-6.694798667171597,-3.4342508108258247
1789317799574853400,4.823853271484375,2.8777964932382103,-1.0404425339013337,4.832947979959846
1789317799584808400,4.833808349609375,6.622023353818059,-7.534111895006895,2.795167894390225
1789317799594763500,4.843763427734375,15.287838016319274,8.361543546390532,5.36722729061842
1789317799604718300,4.85371826171875,8.04147572621107,11.545633016955852,5.481626407736539
1789317799614672400,4.86367236328125,-19.269003747493027,-1.7344038724720476,-6.7849266818642615
1789317799624627500,4.87362744140625,-12.068183895897864,-6.828759393849968,-6.139778766301274
1789317799634582500,4.88358251953125,-2.062689485898614,-5.426486704316735,7.312718968591094
1789317799644537300,4.893537353515625,8.006873783907293,-4.2291561571359635,-0.7214945845972747
1789317799654492400,4.903492431640625,13.725350214910506,6.6454650196820495,1.8386922222033142
1789317799664447200,4.913447265625,0.7660860790610313,16.415774709278345,6.518390545386076
1789317799674402600,4.923402587890625,2.3813059382259842,-6.625350452414154,-6.851429490819573
1789317799684356400,4.9333564453125,-3.4119624066501855,-5.223870959085226,-5.859097784614563
1789317799694311400,4.9433115234375,-3.6503438772678374,-6.885818667155504,1.311279874704778
1789317799704266200,4.953266357421875,5.436744478958845,-0.3905746040791273,-0.5797036026846617
1789317799714221600,4.9632216796875,-3.7913194511443375,5.094885098209977,2.0970807080611586
1789317799724176400,4.97317626953125,-3.6440099980711933,-3.7690532588005063,3.065900313514471
1789317799734131500,4.98313134765625,-0.8474515261054039,7.929814509624243,2.7058970810487866
1789317799744085200,4.993085205078125,-12.198586053311825,-4.0099131022304295,1.0933736944261938
1789317799754040600,5.00304052734375,2.7548142566919327,-2.3906956978619096,0.29221264872215685
1789317799763995400,5.012995361328125,5.5074751347422595,5.372492079278826,-1.5144228586807846
1789317799773950500,5.022950439453125,0.02924479918479919,-6.0313902877748005,-1.7952257131814955
1789317799783905500,5.032905517578125,4.8314556955754755,-0.017614567145705223,0.39013811235800383
1789317799793860400,5.0428603515625,4.98881658706367,-4.473596781662106,-2.476720076628029
1789317799803815400,5.0528154296875,3.122752666071057,-7.086232518428564,-2.577510355110466
1789317799813769200,5.062769287109375,9.029009676745533,9.179002085292339,0.6727228818394243
1789317799823724500,5.072724609375,6.545048250687122,-2.402963058760762,1.4059171835154294
1789317799833679400,5.082679443359375,-0.6765057613790035,-3.979415088114142,1.8273653570249675
1789317799843634400,5.092634521484375,-12.117360891520976,-4.252706544071436,-1.3320999598935246
1789317799853589200,5.10258935546875,1.1015279939830303,-3.0797037979394197,-3.492023785358667
1789317799863544600,5.112544677734375,-5.459948828935623,16.281286743855475,0.8174556893575936
1789317799873498400,5.122498291015625,-0.8222206387370824,2.198386827111244,-2.303302222699672
1789317799883453400,5.132453369140625,0.9789560918033122,-5.158015215861797,-2.1957567708685994
1789317799893408300,5.142408203125,-2.2181115182787177,-2.0231705454587936,-0.5215788921047002
1789317799903363600,5.152363525390625,-10.285261199450492,-1.46238842779994,-2.4000481942273675
1789317799913318400,5.162318359375,1.56138305503726,5.346929767999053,-1.715672868517041
1789317799923273200,5.172273193359375,-4.416622848552465,-2.587009712600708,0.6395654392555356
1789317799933227300,5.182227294921875,1.319021574872732,-2.379678629285097,-0.6750190299525857
1789317799943182600,5.1921826171875,8.41889917229414,-1.658314904525876,-0.7478464388195425
1789317799953137400,5.202137451171875,5.816382093960047,6.418665265786648,3.2762963373586533
1789317799963092200,5.21209228515625,-9.569448094555735,-2.138124958372116,-1.234931232909113
1789317799973047600,5.222047607421875,2.97390124425292,-5.070085587996244,-4.5680955587849015
1789317799983002400,5.23200244140625,6.295210151031613,0.400142642891407,-0.009254095758590847
1789317799992957400,5.24195751953125,11.299267561846971,3.7117560850858684,1.3304795190848409
1789317800002911200,5.2519111328125,10.91617776056528,3.355173766979575,-0.44427897746618833
1789317800012866600,5.261866455078125,-18.566009792160987,-0.7041817038118838,-1.817648703522235
1789317800022821400,5.2718212890625,-11.253114882481098,-9.347906115058064,-6.7014791678488255
1789317800032776400,5.2817763671875,-11.930655247604847,9.877083718663453,3.149264240899682
1789317800042731300,5.291731201171875,-3.910570684468746,5.170010774081945,4.109733366636932
1789317800052686300,5.301686279296875,3.002135989612341,-0.4721200838655233,-0.9599536504957824
1789317800062640400,5.311640380859375,0.025349545311927794,6.116552204492688,1.5281899566181003
1789317800072595500,5.321595458984375,0.9591291093051433,-1.8744290137559174,-0.3638398514864966
1789317800082550300,5.33155029296875,0.030033319213986394,3.0639941876322028,-2.489191435666382
1789317800092505300,5.34150537109375,2.6045266645908356,-9.897978038132191,-2.9566414818942546
1789317800102460400,5.35146044921875,6.033650049400329,-6.244501123535633,0.795263146771863
1789317800112415200,5.361415283203125,11.001666425019502,-2.111880510047078,0.9612416444797068
1789317800122369300,5.371369384765625,9.423188442796468,-1.6302660371273756,2.7408213871747256
1789317800132324400,5.381324462890625,0.09818857155144214,-1.1772305929601192,3.186431649777293
1789317800142279400,5.391279541015625,-11.59077213536501,-0.0531605123013258,-3.9538381637871263
1789317800152234200,5.401234130859375,-7.998122322174906,4.245830813083052,-4.514683994331955
1789317800162189600,5.411189453125,-5.186771354746818,-6.444534451058507,2.5573364588707683
1789317800172144400,5.421144287109375,2.426665421387553,5.138406844550371,2.6569518483549355
1789317800182099500,5.431099365234375,-1.53661569352746,4.26666843392849,-1.2697124773025512
1789317800192053200,5.44105322265625,-1.5035960519790648,1.6517822878867388,-0.5218165367854759
1789317800202008600,5.451008544921875,7.579642643082141,0.5622989519625902,0.9180904850173741
1789317800211963400,5.46096337890625,5.973051496052742,7.303570616495609,2.3664218189574777
1789317800221918500,5.47091845703125,-3.0399159774303435,-5.578639505767822,-0.28193819693988187
1789317800231873500,5.48087353515625,0.41956279815435404,-11.058052913630007,-1.8757463799647986
1789317800241828400,5.490828369140625,8.444775956350565,-9.71817267512381,1.042765716151893
1789317800251782400,5.500782470703125,5.585485426139831,7.722188242754339,5.405597645545005
1789317800261737500,5.510737548828125,-15.186956552422046,3.7902380856484172,-4.498222981135547
1789317800271692500,5.520692626953125,-10.63506598624587,-5.672246594747901,-8.717064957267045
1789317800281647400,5.5306474609375,-3.4275556971013543,-9.570680266699194,4.493763663639128
1789317800291602400,5.5406025390625,14.366657237136364,0.17429273706674575,2.6645348508298397
1789317800301557200,5.55055712890625,22.761039223289487,17.70004528876543,-0.11240575134381652
1789317800311512600,5.5605126953125,-2.624680394825339,5.523950468724966,-0.3774056912306696
1789317800321466400,5.57046630859375,-1.3208131344646215,-12.012326984119415,-7.319248662620782
1789317800331421400,5.58042138671875,3.482982400768995,3.917435894063115,-2.7625574181646106
1789317800341376300,5.590376220703125,-5.914782846957444,-12.668491383737324,3.331753143903613
1789317800351331600,5.60033154296875,3.823096399155259,2.8858400989621877,-0.05583090055435896
1789317800361286400,5.610286376953125,-3.195452576100826,2.053375129586458,-1.3552297833293676
1789317800371241200,5.6202412109375,-1.3199983109503983,-1.7006097394198179,0.7773361526761203
1789317800381195300,5.6301953125,0.49136722064912314,7.968119398099184,-0.42321211444213985
1789317800391150600,5.640150634765625,-14.334880289125442,10.307103613424301,-6.275394274449348
1789317800401105400,5.65010546875,-3.187600693556666,-11.674260565912723,-4.113688534003496
1789317800411060200,5.660060302734375,5.118780937582254,1.968472740587592,2.418366964119673
1789317800421015600,5.670015625,1.240016427218914,-1.3906804514169693,0.4333222242418676
1789317800430970400,5.679970458984375,-9.351902491217851,6.752762780362367,1.321390349830687
1789317800440924400,5.68992431640625,5.199150359326601,-3.8079835856974125,-1.9389103998862205
1789317800450879200,5.699879150390625,5.59518498237729,-5.253202267509699,-0.2413456541854888
1789317800460834600,5.70983447265625,5.761594857239722,6.714384826651215,1.6793762511245904
1789317800470789400,5.719789306640625,-11.997067455667256,2.4972324110418556,-2.1826314779661593
1789317800480744400,5.729744384765625,-2.8837159464150663,-14.392731589591502,-5.788151440253854
1789317800490699300,5.73969921875,1.6165595833361148,-4.719564761886001,3.439688617965579
1789317800500654300,5.749654296875,5.17266859511435,4.1507793705135585,7.7370958890289065
1789317800510608400,5.7596083984375,10.019434672546387,11.101499256646633,3.479707324621081
1789317800520563500,5.7695634765625,-2.5567303096711633,10.220496174073219,-0.6439505224719643
1789317800530518300,5.779518310546875,-11.297227580451965,-9.73691712308228,-3.5130127973735332
1789317800540473300,5.789473388671875,-1.0034148257553577,-6.5458309254974125,3.4466517349764705
1789317800550428400,5.799428466796875,4.43226114718914,4.826445173937082,5.212168830853701
1789317800560383200,5.80938330078125,-0.4213438363522291,2.795138668295741,2.5697765459880233
1789317800570337300,5.819337158203125,-9.806437234032154,3.655851827034354,-0.7500039091143756
1789317800580292400,5.829292236328125,0.6552583906888961,-2.6976316492676733,-1.954082688446343
1789317800590247400,5.839247314453125,-0.006406944432854652,-0.9517600418418646,1.3990093038231133
1789317800600202200,5.8492021484375,3.5846693358302115,-3.7441356751650567,-0.25964601163826884
1789317800610157600,5.859157470703125,6.43262949373126,-2.119286986911297,-1.3025054704882204
1789317800620112400,5.8691123046875,-2.886742016237974,1.5046902769565582,0.6637675680980086
1789317800630066400,5.87906640625,1.1674836904495953,-1.5186416454195975,-0.9553824701227247
1789317800640021200,5.889021240234375,4.653118651553988,6.176741592517494,1.016581546646729
1789317800649976600,5.8989765625,0.47191374763846394,-8.328076745596528,-1.32969319101274
1789317800659931400,5.908931396484375,3.5573043590426443,-8.85730344904065,-2.8357705384135246
1789317800669886500,5.918886474609375,-0.8643775264650583,7.296002811589837,0.9083593645978718
1789317800679841500,5.928841552734375,-1.244900692129135,3.2226398582339284,-0.6399962318882346
1789317800689795600,5.938795654296875,-1.9755062924861906,-0.19236907650530338,-1.2299167657479644
1789317800699750400,5.94875048828125,-7.660314262643456,-8.466134970721601,-1.664875578215718
1789317800709705500,5.95870556640625,0.2453320204079151,-4.035031761395931,0.6058666563365608
1789317800719660500,5.96866064453125,2.956189061951637,1.4240613274931906,2.335278346544504
1789317800729615400,5.978615478515625,9.445818792277574,13.812502428662777,3.4066847585082054
1789317800739570400,5.9885703125,5.247253588238358,-3.223562233775854,1.4140937679693102
1789317800749525200,5.998525146484375,-0.021527941197156904,-3.7879590348005294,-1.6744506312906742
1789317800759479300,6.008479248046875,-3.818492120230198,-4.252304393011332,-4.920238725399971
1789317800769434400,6.018434326171875,-1.737907496678829,0.27622634036540983,-2.9092496161222456
1789317800779389400,6.028389404296875,-4.63409246404469,-1.8328683383554218,1.5147420076325535
1789317800789344300,6.03834423828125,-4.361283238646388,-2.0713924323141573,2.5015835919886826
1789317800799299600,6.048299560546875,-1.1522644940078257,1.4610165549248455,3.217640734772384
1789317800809254400,6.05825439453125,5.559291246697306,2.662665549826622,4.35166639225632
1789317800819208400,6.06820849609375,4.653271211767197,9.855934547650813,3.441944580198824
1789317800829163300,6.078163330078125,-12.183601250147818,-7.136736963263154,-4.060743710279464
1789317800839118600,6.08811865234375,-4.934361943298578,-14.460419224417208,-4.7215246637821195
1789317800849073400,6.098073486328125,3.998379316303134,2.861502945563197,3.125727590228617
1789317800859028200,6.1080283203125,5.463994304934143,4.411237648382783,4.301099988101423
1789317800868983600,6.117983642578125,0.9129583097606897,3.325570071354508,2.6390309917390344
1789317800878937600,6.1279375,-8.731557008478045,4.912149526968598,1.186390050971508
1789317800888892400,6.137892333984375,-7.803485885259509,-6.447126221117377,-2.1273148105442523
1789317800898847200,6.14784716796875,-5.277251836138963,-2.528421914553642,1.591234003421664
1789317800908802600,6.157802490234375,8.090816387963294,1.988912886548042,2.1741405668661
1789317800918757400,6.16775732421875,13.738115003937482,0.5769207670331001,-0.8734310398839413
1789317800928712400,6.17771240234375,8.558122349545359,9.148131730732322,1.2959826445907354
1789317800938666200,6.187666259765625,1.8156687817513941,-1.9251041389822958,-3.6940427337408064
1789317800948621600,6.19762158203125,-3.822588449633121,-1.59029058509171,-4.993638308131694
1789317800958576400,6.207576416015625,-7.979563167655468,-7.506535905817151,1.9198069093570111
1789317800968531500,6.217531494140625,6.9531602650225155,-2.7028964379280804,2.1034037736028433
1789317800978486300,6.227486328125,12.508625815951824,8.929040651518106,3.7519162460386752
1789317800988441300,6.23744140625,-3.911542159849405,8.11706726602912,3.449290851308405
1789317800998396400,6.247396484375,-13.379743464326857,-1.8344214130163192,-7.4710150951027865
1789317801008350500,6.2573505859375,-6.3206409448862075,0.04637772029340267,-4.334814626176655
1789317801018305300,6.26730517578125,-1.5833949803590774,-14.284480473709106,4.223494478112459
1789317801028260400,6.27726025390625,13.65553492040634,4.965823834010958,0.7684520775400102
1789317801038215400,6.28721533203125,13.411861773121355,-0.6677730043470859,-1.266514265783131
1789317801048170200,6.297170166015625,-5.347323735752702,16.32610788235664,3.810283679333329
1789317801058125600,6.30712548828125,-11.008536895310877,-3.226743201899528,-6.743386464729904
1789317801068079400,6.317079345703125,-22.93715099247694,-16.827080551218984,0.07889861853942275
1789317801078034400,6.327034423828125,6.262869723919033,-3.348782020115852,5.77295854729712
1789317801087989200,6.3369892578125,13.561436248517035,10.384784234476088,-1.2101040309708564
1789317801097944600,6.346944580078125,-11.824911730629205,-1.4404589200645683,-2.6590093654066322
1789317801107899400,6.3568994140625,-0.03613514322042465,3.8422973587095735,-2.0114785002298654
1789317801117854500,6.3668544921875,3.368547627815604,3.9737919875353573,-0.7468041632249951
1789317801127808300,6.376808349609375,-10.446617298054694,-21.613592358696458,2.043977186644077
1789317801137763600,6.386763671875,10.197706834638119,-1.7609540257453917,-0.5223826097030192
1789317801147718400,6.396718505859375,19.295375037068126,21.08068141378164,-0.14548932497389613
1789317801157673500,6.406673583984375,-3.3328801021069285,-5.311239445936679,-1.2435852256163955
1789317801167628000,6.4166279296875,-0.9109171593219041,5.063231484317779,-4.888184714013338
1789317801177583000,6.4265830078125,7.790348171266913,-0.6608271307319402,-5.1863592668145895
1789317801187537200,6.436537109375,-9.062674630460142,-2.3028175079226494,0.17744075276888907
1789317801197492200,6.4464921875,-6.879800429779291,-2.3428882370263335,2.5537670759513973
1789317801207447000,6.456447021484375,2.220388815560937,-1.0631038630425929,0.47909123805239795
1789317801217402000,6.466402099609375,-1.4728572148442267,11.633769565570354,4.718909512847662
1789317801227357200,6.476357177734375,-0.45622868725061416,-8.338429212784767,0.8374104629538953
1789317801237312000,6.48631201171875,-0.3666308339118957,10.477814400351047,-0.7542386971399188
1789317801247266000,6.49626611328125,-4.4925382134974,-0.6528799711197615,-3.312387056915462
1789317801257221000,6.50622119140625,0.5937602581530809,-11.220164214515686,-3.6080478733301162
1789317801267176200,6.51617626953125,10.057967524558306,5.773731869757175,-0.1613125517234206
1789317801277131000,6.526131103515625,6.773595140510797,-0.9702613286942243,1.4891547080419956
1789317801287086300,6.53608642578125,-8.092871566927432,-11.882983980369568,-2.04318442883119
1789317801297041200,6.546041259765625,1.848618280673027,-3.730565414974093,-5.059468332391977
1789317801306995200,6.5559951171875,2.183745138296485,10.264361034762858,-1.1951740997992455
1789317801316950000,6.565949951171875,-0.38003625892996784,-2.537077514696121,1.932013772240281
1789317801326905300,6.5759052734375,2.5815292353630066,-6.166658005398512,-1.853049248857796
1789317801336860200,6.585860107421875,-9.08763488419354,1.7594219938725233,-0.2146093306902796
1789317801346815200,6.595815185546875,-5.9744707152009005,7.432711375671625,-0.9407722724247723
1789317801356770000,6.60577001953125,-1.2273323022127152,-2.888519547304511,-1.1448740184303372
1789317801366724400,6.615724365234375,-0.6214625040709972,-0.7621540003091096,3.7682796440795063
1789317801376679200,6.62567919921875,10.999013864684104,6.699220575267076,3.705746323277056
1789317801386634000,6.635634033203125,2.755466583120823,-7.019422250959277,1.3232389003068208
1789317801396589000,6.645589111328125,-7.3883952640831465,2.1213643777072426,2.3399597823590037
1789317801406544100,6.655544189453125,4.8164229616165155,-2.524838795369863,-0.4831253889393061
1789317801416499200,6.665499267578125,2.3967437458544967,4.494613850727677,1.8858032252073287
1789317801426454000,6.6754541015625,-7.395418294587731,-8.694272110700608,-1.735130433180928
1789317801436408000,6.685407958984375,-3.916788828331232,8.07209941253364,-2.3727061599239705
1789317801446363100,6.695363037109375,1.1668518222868443,-6.16129034088552,-1.169765371645987
1789317801456318200,6.705318115234375,-6.263391117444634,2.328763265562057,3.9156981104850765
1789317801466273000,6.71527294921875,-9.774895263820886,6.249210031878948,-1.4397960722416638
1789317801476228400,6.725228271484375,-6.742314451584219,-8.19908737758994,-2.987092149737477
1789317801486183200,6.73518310546875,1.6160767682552337,1.138769052618742,4.179846475043893
1789317801496137200,6.74513720703125,16.728385199189184,-1.4963701923787593,1.9943353499881922
1789317801506092000,6.755092041015625,24.46464463739395,6.081070556744932,2.801557303166389
1789317801516047400,6.76504736328125,12.721622085422277,6.607555268004536,3.8089173594161867
1789317801526002200,6.775002197265625,-9.188520439743995,-5.702860928720235,-6.940306628668308
1789317801535957000,6.78495703125,-8.602886789423227,-6.584288958707451,-8.5880902023077
1789317801545912300,6.794912353515625,-6.672479283335805,-11.32403375431299,9.76509400077462
1789317801555866400,6.804866455078125,1.6428513779342173,0.8911679182350635,4.735985150811076
1789317801565821200,6.8148212890625,-9.991204603362084,1.1636766993820666,-1.0427572405844927
1789317801575776000,6.82477587890625,-17.01211446253061,19.386109200960398,1.4723891589410603
1789317801585731300,6.8347314453125,-11.784831064653396,7.421042565187811,-1.4674626623243092
1789317801595686100,6.84468603515625,-6.339170288789272,-1.2056149759232997,2.6682892349272964
1789317801605641200,6.85464111328125,10.955927587151526,-17.06148318133354,-2.771355641648173
1789317801615595000,6.864594970703125,23.273328235936162,2.7456834402531385,-1.9970085147202015
1789317801625550300,6.87455029296875,11.23293017258644,16.602783135533333,1.8418883878961205
1789317801635505200,6.884505126953125,0.5362865588277578,-17.929279576331375,-9.455289215934275
1789317801645460200,6.894460205078125,3.661945467734337,-5.578894357311725,-3.8083728772759433
1789317801655415000,6.9044150390625,4.872900635641813,-14.384300445854663,5.170983418506384
1789317801665370000,6.9143701171875,14.790204136490821,7.631372830319404,4.698971178929508
1789317801675324200,6.92432421875,-5.170162749773263,6.495505344361066,3.7629473431408402
1789317801685279200,6.934279296875,-20.27117704875469,4.031032462626696,-0.11578545690998435
1789317801695234000,6.944234130859375,-4.654504552954435,3.6271091321527957,-3.5767332821339366
1789317801705189000,6.954189208984375,-27.205336845231056,-2.6615233940541745,-0.20747326826527712
1789317801715144200,6.964144287109375,8.4803154717654,7.379730311590433,-0.8519177847992628
1789317801725099000,6.97409912109375,8.221868533718585,3.043729398238659,-4.456495424735546
1789317801735053000,6.984052978515625,-4.134397560033202,1.3678034336984157,-0.727820353552699
1789317801745008000,6.994008056640625,6.6358163168489925,-0.16640110703408717,-1.245192076291144
1789317801754963200,7.003963134765625,8.875791876411437,-1.5641472590535879,-2.0352612346164882
1789317801764918000,7.01391796875,1.4100333866626023,-1.1341495761245488,-2.0090946738332507
1789317801774873300,7.023873291015625,-2.471373747164011,-6.3642456933349365,-4.068325835971534
1789317801784828200,7.033828125,4.400357357928157,4.674994383275509,-0.7152877658464014
1789317801794782200,7.0437822265625,6.659473086768388,-8.280556285008787,0.029300986351445315
1789317801804737000,7.053737060546875,11.071719035410881,-3.3528304187238214,1.0320125592082738
1789317801814692400,7.0636923828125,9.003325200390815,12.056827804625033,-0.3007777575695887
1789317801824647200,7.073647216796875,-10.550910031700134,13.519208049118518,-7.985792417433857
1789317801834602200,7.083602294921875,-14.602429986560344,-9.35466494166851,-6.757796682876348
1789317801844557000,7.09355712890625,-4.040477751842141,0.07735095070600509,5.811660326135158
1789317801854511400,7.103511474609375,1.1689748057901859,-8.312098255220056,-5.889252099859714
1789317801864466200,7.113466064453125,-20.34020674583912,-0.043756139618158336,-4.921448101189732
1789317801874421000,7.1234208984375,-2.137798795157671,22.03788043180704,-0.698238723628968
1789317801884376000,7.1333759765625,-15.291492447173594,4.231040071186423,0.22977000187784433
1789317801894331100,7.1433310546875,-7.014355615219474,-6.1725289432585235,4.532361397580802
1789317801904286200,7.1532861328125,13.856200116091966,-5.276145336201787,-0.38365412063356485
1789317801914240000,7.163239990234375,9.020096302449703,7.638167312765121,0.05477985713146627
1789317801924195000,7.173195068359375,-7.041772614455223,-7.90809075359404,-2.268017120437324
1789317801934150100,7.183150146484375,14.321929622137546,-10.241854603922366,-4.690040268976986
1789317801944105200,7.193105224609375,30.873803239166733,11.044809985697269,0.05580141873154789
1789317801954060000,7.20306005859375,24.286056833481787,-3.6099610134750604,-0.3598653583649546
1789317801964015400,7.213015380859375,-5.3838025778442615,7.988269036680459,-1.9113783959686754
1789317801973969200,7.22296923828125,-15.263154825961589,-21.660543494963644,-12.134280462139845
1789317801983924200,7.23292431640625,0.4490197787851095,-1.1363730973929167,-1.611788423411548
1789317801993879000,7.242879150390625,-2.9591385594069957,8.581812437212466,7.637094130575656
1789317802003834400,7.25283447265625,-3.578172375026345,13.279390408217907,2.4820465323477983
1789317802013789200,7.2627890625,-19.43569769999385,17.691104441940784,-3.2057652958005667
1789317802023744000,7.272743896484375,-18.14908318772912,5.711690716385841,-2.6210546055436135
1789317802033698000,7.282697998046875,-18.359347401887177,0.14193243620991705,2.80065158649832
1789317802043653400,7.2926533203125,-5.520313573527336,-11.476851157152652,1.1109634193915874
1789317802053608200,7.302608154296875,7.0030147215157745,-9.432589892870187,1.60307495560199
1789317802063563000,7.31256298828125,19.209264441323278,4.683119822064042,2.442722822219133
1789317802073518000,7.32251806640625,21.430608950173852,1.7885580719858407,0.3352591787662357
1789317802083473200,7.33247314453125,12.772394825804232,-4.010665381902456,-0.31491905911415813
1789317802093427200,7.34242724609375,13.479223244732617,-10.71869470204711,-3.074901950615644
1789317802103382000,7.352382080078125,18.13307780934572,-8.814002651974558,-3.7751816785529253
1789317802113337000,7.362337158203125,11.77786823990345,9.410696040970086,1.2294282515786588
1789317802123292200,7.372292236328125,-14.112859001678228,6.298145619961619,0.9347353303480893
1789317802133247200,7.382247314453125,-10.413943693464994,-0.910210472357273,-4.48509608079791
1789317802143202000,7.3922021484375,-34.497899745500085,10.257108287155628,0.47730092056952417
1789317802153156000,7.402156005859375,-18.802830004811288,-1.7631518280506133,4.593044706602394
1789317802163111200,7.412111083984375,-8.3855533675313,9.22982392551303,0.4372227388117462
1789317802173066000,7.42206591796875,-12.355448347628116,12.058469142091274,-5.952219135904312
1789317802183020800,7.432020751953125,3.402169911432266,-7.176516015943885,-1.4637890883781015
1789317802192976000,7.441975830078125,9.189671947866678,5.63483427119851,4.362558957670629
1789317802202931000,7.451930908203125,6.630035395359992,-8.462606796595454,-1.1827495755773036
1789317802212885000,7.461885009765625,5.013579272398353,-2.027929138162732,-2.905741900262236
1789317802222839800,7.47183984375,12.386236284601688,-2.1063257985293866,-4.72437713060379
1789317802232795000,7.481794921875,12.569481558930873,-18.401984766608475,-1.8603747694402932
1789317802242750000,7.49175,13.723483251994848,-16.870643798613546,1.7064382994428275
1789317802252704800,7.501704833984375,1.0145581510603427,16.84872890392542,-0.3643286213841289
1789317802262659800,7.511659912109375,-39.83743940324783,7.705397266951203,-17.717825275605914
1789317802272614000,7.52161376953125,-32.56350404655933,-12.52767421529293,-5.4053959854930635
1789317802282569000,7.53156884765625,-19.349748432290554,6.220243465113639,3.818713654026389
1789317802292523800,7.541523681640625,-22.49053885935545,-14.217543364989757,-5.095660174235701
1789317802302478800,7.551478759765625,-4.348240801721811,21.277073754453657,4.341612908014655
1789317802312434000,7.561433837890625,13.129976091820001,23.677200128483772,-0.7190048136081546
1789317802322389000,7.571388916015625,11.793520567065476,5.642963217118382,-4.000080567263066
1789317802332342800,7.5813427734375,10.447162072455882,-9.337751216268538,-3.8013393253773446
1789317802342297900,7.5912978515625,12.426043394333123,-3.4284669667273757,-1.6302461633831262
1789317802352253000,7.6012529296875,16.32117568665147,0.49741936029493805,-2.9940052901268004
1789317802362208000,7.6112080078125,11.765600294482708,-11.211093603831529,-1.296880762474239
1789317802372162800,7.621162841796875,0.29575346313416956,-14.18995393179655,4.7608562649562955
1789317802382118000,7.631117919921875,-20.07843212467432,-13.532382003468275,2.054391028630733
1789317802392072000,7.641072021484375,-4.619205276036262,-1.4471820908397435,-2.1832067936360833
1789317802402027000,7.651027099609375,8.285489065235852,7.194985154092311,0.9463082061767577
1789317802411981800,7.66098193359375,14.606382523578404,18.300323550510406,3.5028622824981808
1789317802421937000,7.67093701171875,15.291866541182994,9.057145053383708,-0.5661440100181847
1789317802431892000,7.68089208984375,7.768833089551329,0.4432295049458742,-3.78279127677381
1789317802441846800,7.6908466796875,4.735169158253074,0.2306090830504894,-3.5716976260542865
1789317802451800800,7.70080078125,14.16416248793602,7.532115752753615,-0.5230762910556048
1789317802461756000,7.710755859375,-1.0841904902130364,2.909718402677774,0.8549614633440971
1789317802471711000,7.7207109375,-26.614712547016143,-33.52227659751177,1.012843748357892
1789317802481665800,7.730665771484375,-4.324078420367837,-18.3574021130383,2.3272924623571334
1789317802491621000,7.74062109375,-1.075849362847209,11.187084951734542,4.211087124221026
1789317802501576000,7.750575927734375,-5.653800252953172,5.395266221144795,0.5193838297458365
1789317802511530000,7.760530029296875,1.822905162745714,13.929612558305262,0.24307708108797668
1789317802521484800,7.77048486328125,-4.2963446102678775,1.094898346710205,-0.46923214387167245
1789317802531440000,7.780440185546875,0.41708910151720047,-3.6209044322937727,-2.859434907117486
1789317802541395000,7.79039501953125,7.669923217988014,8.067313931822776,-0.6029647243499755
1789317802551349800,7.800349853515625,0.14991875878870486,-0.9669383217513561,0.6576790419645607
1789317802561304800,7.810304931640625,-7.936337189391255,3.5885470540463924,-0.3097962362077087
1789317802571259000,7.8202587890625,0.09228490046560764,-11.598896989631653,-4.210574498523772
1789317802581214000,7.8302138671875,-0.6672106942892074,0.8454612290710211,0.8457521017763763
1789317802591168800,7.840168701171875,5.719132849085331,2.375108837151527,1.4734464129090308
1789317802601123800,7.850123779296875,7.635899952355027,-1.3231494684576988,0.19520484792049972
1789317802611079000,7.860078857421875,-1.6738281154781578,0.5443646513432264,1.3072303070530296
1789317802621034000,7.870033935546875,-1.615490492799878,-7.32473556959927,-2.0395950260370967
1789317802630987800,7.87998779296875,8.024977011352776,12.746557789236306,0.8482210491731762
1789317802640942800,7.88994287109375,2.229163073647022,9.375000458210707,2.6789158428817985
1789317802650898000,7.89989794921875,1.3630319815129042,11.601832458561658,2.3769090184412893
1789317802660853000,7.90985302734375,2.959113424965739,5.427623014870286,2.6865029370099305
1789317802670807800,7.919807861328125,-2.646101368516683,-3.9331741459429264,2.8870810389339923
1789317802680761900,7.929761962890625,-7.117619005817175,14.086823227667807,2.662978853559494
1789317802690717000,7.939717041015625,-6.398280064883828,9.05561068342328,-2.667105578100681
1789317802700672000,7.949672119140625,-4.259991440382599,-7.652475239580869,-1.1486981067631392
1789317802710626800,7.959626708984375,7.4622005050063125,-16.713801378041506,1.3827593030288814
1789317802720582000,7.969581787109375,30.274544383597373,0.1914437783539295,1.483619724138081
1789317802730537000,7.979536865234375,34.431149683785435,15.276070421636105,6.248804958209395
1789317802740491000,7.989490966796875,11.697254488009214,-1.3794377573907375,1.0231373249657452
1789317802750445800,7.99944580078125,2.2595681487828494,-11.281251428163051,-11.062311740118265
1789317802760401000,8.00940087890625,2.5350474701732395,6.248598621982335,-7.122263032230735
1789317802770356000,8.01935595703125,-6.688263712444901,-9.683322311016918,-1.221372297829762
1789317802780310800,8.029310791015625,-9.990867918753624,1.695594541606307,-1.2104093705929815
1789317802790265900,8.039265869140625,-11.97469897199273,21.06626710398197,0.8863185785077512
1789317802800220000,8.049219970703126,-13.804653468728064,13.993097480744122,3.895220262862742
1789317802810175000,8.059175048828125,-4.4653766503274435,-0.0511865818798542,4.258685910741985
1789317802820129800,8.0691298828125,0.6307102248877287,-8.222675758448243,0.7299880529806018
1789317802830084900,8.0790849609375,7.455071091517806,-1.8492530714452267,-1.6099471794590352
1789317802840040000,8.0890400390625,13.30430039306879,5.204231608113647,-2.505715869487822
1789317802849995000,8.0989951171875,5.473768679973483,-8.456914137911797,-4.790278466534614
1789317802859948800,8.10894873046875,-19.011801256549358,-11.041915433299542,-4.6322360225230454
1789317802869904000,8.11890380859375,-19.398923089826106,-10.471756415486334,2.849564962749183
1789317802879859000,8.12885888671875,-10.602627359455823,12.586060937809943,8.08888512763977
1789317802889814000,8.13881396484375,-3.6430040358990428,5.615115425249934,-0.3883632847052067
1789317802899768800,8.148768798828126,0.4564829542726278,8.336453528797627,3.859719033631682
1789317802909724000,8.158723876953125,8.198900330585241,8.623463128983975,1.3912659962199627
1789317802919678000,8.168677978515625,-5.223537197086214,8.991452976289391,-9.967956998765468
1789317802929633000,8.178633056640624,-15.096687667953967,-8.581568107062578,-21.127803230440616
1789317802939587800,8.188587890625,1.1307464896827935,-17.88154518073201,-4.585252445290982
1789317802949543000,8.19854296875,12.935579308879374,1.224533026883006,8.048166163760424
1789317802959498000,8.208498046875,25.27387544617653,5.148284095442294,4.2751033770576115
1789317802969452800,8.218452880859376,22.276718414020536,10.383070416295528,7.388222830125689
1789317802979406800,8.22840673828125,8.755060049140452,10.55651325853467,7.68481332860589
1789317802989362000,8.23836181640625,-22.39958023905754,2.492645667773485,-6.3893830572009085
1789317802999317000,8.24831689453125,-27.489463583457468,-6.583091273355484,-12.554087590444087
1789317803009271800,8.258271728515625,-20.14370451505184,1.4135136299937963,0.9403132035456597
1789317803019227000,8.268226806640625,-5.521167560008168,1.3509943377166986,-2.5064716562911866
1789317803029182000,8.278181884765624,-5.556881262946129,-5.45680176308155,-1.1325614301502704
1789317803039136000,8.288135986328125,3.3835470440268516,6.543902003261446,7.084232284522056
1789317803049090800,8.2980908203125,14.482476742446421,1.416020644378662,5.051543969133496
1789317803059046000,8.3080458984375,18.5639347394526,1.5060159726023674,-0.008748392992466688
1789317803069001000,8.3180009765625,19.247445411157607,1.579344828185439,-2.472595690174401
1789317803078955800,8.327955810546875,14.003307909113168,-13.8804554364264,-2.604046772119403
1789317803088910800,8.337910888671875,4.06778369191885,-23.4274222345829,-1.816196897278726
1789317803098865000,8.347864990234376,-6.301285087031125,-20.757831269407273,-1.3914239632606507
1789317803108820000,8.357820068359375,-5.762389807009697,-4.311119570073485,-1.2044202131807804
1789317803118774800,8.36777490234375,-1.1737106021404267,12.381073787271976,3.880514861162007
1789317803128729900,8.377729736328124,0.17055588862597942,21.025023239445684,7.597718982520699
1789317803138685000,8.387684814453126,1.80195005300045,11.219102722764015,-0.6107125254651531
1789317803148639000,8.397638916015625,-19.91091984152794,-7.115552136415243,-9.925994172304868
1789317803158593800,8.40759375,-20.440510702109336,3.8061826737552877,-10.283152244472504
1789317803168549600,8.417549560546876,-14.777502475827932,1.1499848586380481,-5.122119142094254
1789317803178504400,8.42750439453125,-9.69562649679482,-8.60914760338366,3.2551413211271165
1789317803188459500,8.43745947265625,7.786160071927308,-5.454260846427083,7.401589676699042
1789317803198414600,8.44741455078125,19.98328131338358,-11.362414630633593,5.477275226789713
1789317803208368600,8.45736865234375,27.266828548026083,3.944157312250137,6.247038533058762
1789317803218323500,8.467323486328125,16.975179693365096,-6.15160948934853,0.8952758650105446
1789317803228278500,8.477278564453124,14.765630836248397,-9.300275179833173,-7.161755084663629
1789317803238233600,8.487233642578126,17.989610418653488,6.718526748761534,-9.007479397460818
1789317803248188400,8.4971884765625,8.238423947200179,5.610754891952872,-8.313159162449836
1789317803258143700,8.507143798828125,-22.747728490817547,2.3616227481126786,-6.332564606913924
1789317803268097500,8.51709765625,-23.220646447062492,2.1221225025981663,-2.453331602256
1789317803278052600,8.527052490234375,-14.236386012625694,7.292552378875016,9.94978772034645
1789317803288007400,8.53700732421875,-4.333837013316154,3.297772548368573,7.427212193733453
1789317803297962800,8.546962646484374,-0.3094640085786581,16.198132659828662,3.32331030972898
1789317803307917600,8.55691748046875,-3.6123072843402624,7.239648471683263,0.017701733972504734
1789317803317872600,8.56687255859375,3.8645413392215966,-8.48376415091455,-6.3672127264469855
1789317803327826400,8.576826416015624,1.3910241502881049,1.4207605323821306,-4.785787000334262
1789317803337781800,8.58678173828125,6.2319023387253285,-8.286046114596724,-4.943091193199157
1789317803347736600,8.596736572265625,9.542852933096885,-8.631289292564988,-0.48453525573723016
1789317803357691600,8.606691650390625,13.069759815788268,2.243822298118472,4.78993301409781
1789317803367646500,8.616646484375,9.726619600951672,-5.5734600573033095,6.5105825019836425
1789317803377600800,8.626600830078125,6.298900822243094,-2.3792039975106714,5.495599988031387
1789317803387555600,8.6365556640625,4.522281025332212,7.900871908256411,2.920838054846227
1789317803397510700,8.6465107421875,-11.24024137238264,7.894528676709532,0.8820608479980379
1789317803407465500,8.656465576171875,-21.270702465856075,-0.36896482981741424,-0.5994817045398056
1789317803417420500,8.666420654296875,-6.268997851410508,-6.840763719898462,1.2804266174100338
1789317803427375600,8.676375732421874,-16.376624602150915,4.281988752657175,3.8298581483751533
1789317803437329400,8.686329345703125,-17.358883242630956,1.8102689685344695,3.660074120904505
1789317803447284500,8.696284423828125,-0.3246785288453102,9.343798095217346,7.2302511132627725
1789317803457239600,8.706239501953124,4.53619732248187,4.5165644012510775,5.416216654714941
1789317803467194600,8.716194580078126,8.052845261487365,-4.039570573869347,-2.6311849544137713
1789317803477149400,8.7261494140625,14.219638291442394,-2.908714778593182,-5.73073502407372
1789317803487104800,8.736104736328125,15.618424892425535,-1.2404133175820111,-3.179314511248469
1789317803497058600,8.74605859375,3.2499913910180327,0.5640291367560625,-4.396208421555161
1789317803507013600,8.756013671875,-11.7245446459949,-6.616068244805931,-10.860580376505851
1789317803516968400,8.765968505859375,-10.431571704614162,-5.24260547017157,1.5836382875956594
1789317803526923800,8.775923828125,1.5468085862398147,-6.483300527304411,7.033672310107946
1789317803536878600,8.785878662109376,4.432048965743184,7.359204825434088,5.333044450509548
1789317803546833400,8.79583349609375,-7.139360882025957,2.5791344491809607,6.70995531977117
1789317803556787500,8.805787353515624,3.0076380941599608,13.121775249707698,1.3435263399235904
1789317803566742800,8.81574267578125,-8.71246944617033,3.8684628965795036,-6.493266041001677
1789317803576697600,8.825697509765625,-7.3552937894701955,-9.061570468610524,-3.576638005065918
1789317803586652400,8.83565234375,10.562195980346202,-2.448092824819684,0.3866755508139729
1789317803596607700,8.845607666015624,15.728551154530047,-4.794344985321164,-1.4152759634912013
1789317803606562600,8.8555625,13.88118141261339,5.2224990862101315,4.081303683227301
1789317803616516600,8.8655166015625,0.7112731233775615,10.377837776339053,4.261880322869122
1789317803626471400,8.875471435546874,-2.2700918808847663,-5.392983663165569,-4.068967933267355
1789317803636426800,8.8854267578125,-9.932021762031317,-4.072698351967334,0.6977350118905306
1789317803646381600,8.895381591796875,-10.000000488758086,-14.067841463822125,-0.9455278694540261
1789317803656336600,8.905336669921875,-16.19442679104805,-0.7453221079736948,-5.774084920978546
1789317803666290400,8.91529052734375,-17.12723020348549,0.16073299826979637,-5.480940179038048
1789317803676245500,8.92524560546875,-0.6922247240364551,6.282286956572532,1.4970419541604816
1789317803686200600,8.93520068359375,6.3316194350183,0.5426648616880179,4.82969336207807
1789317803696155600,8.94515576171875,21.747503985536095,1.0825228492617607,3.163014533832669
1789317803706110500,8.9551103515625,27.24206820077896,5.59921467628479,2.9233579287126656
1789317803716065500,8.9650654296875,5.4514685853600495,-3.169168964809179,-0.12377265627160668
1789317803726019600,8.97501953125,-14.352348141276835,-11.051026960515975,-12.953139515489339
1789317803735974700,8.984974609375,1.5853998904407023,-6.661068831527233,-14.802177482879161
1789317803745929500,8.994929443359375,-3.2003286577045915,-9.884202026236057,1.1083468802176415
1789317803755884500,9.004884521484374,7.960552177715301,6.205674257013201,0.33620928256530314
1789317803765839600,9.014839599609376,5.907713639223576,9.519781854110956,-0.7730918661698698
1789317803775794400,9.02479443359375,-21.103741971373555,11.841783370453118,2.8246239982381462
1789317803785748500,9.03474853515625,-0.7982131556838751,11.50408520103693,-2.8467037280991674
1789317803795703600,9.04470361328125,-19.377047942626476,-10.972376033127308,-0.6369304876420646
1789317803805658600,9.05465869140625,1.7353379384517669,-2.0090596025198697,1.94447884766832
1789317803815613400,9.064613525390625,15.159614956510065,3.110693394964933,-4.122658606922626
1789317803825568800,9.07456884765625,8.591956230086089,8.460424776381254,-1.8779585030563175
1789317803835522600,9.0845224609375,3.2991496819406745,1.2331038713514804,0.8043958629067987
1789317803845477600,9.0944775390625,3.497936224272847,-6.169017135745286,-0.3810344031218439
1789317803855432400,9.104432373046874,-1.785377688384056,5.005969381916523,3.5889734627649186
1789317803865387800,9.1143876953125,0.7009837845534086,-8.597082487058639,0.5102279884636401
1789317803875342600,9.124342529296875,5.179427421724796,-2.4332196653366087,0.9400114441201091
1789317803885297700,9.134297607421875,-12.910084802138805,-6.237147838163375,0.5438927595151588
1789317803895251500,9.14425146484375,-2.0815601905852557,2.8703946925491093,-4.5663636204257605
1789317803905206800,9.154206787109375,0.8399941958367824,18.17717180261612,-2.999485182842612
1789317803915161600,9.16416162109375,-4.969978615602851,-10.084780712682008,-1.2400522291846572
1789317803925116400,9.174116455078124,7.3887594212204215,7.337767485129833,1.5221147283576428
1789317803935071500,9.184071533203126,6.396096875625848,2.5400492239832877,-0.2959270661354065
1789317803945026600,9.194026611328125,-14.699872123658656,-5.663708483505249,-0.3322093262089416
1789317803954980600,9.203980712890624,-5.472684391868114,12.972376130878924,-1.7595362679019568
1789317803964935400,9.213935302734376,-17.003583950072525,-1.100737720388174,-2.905625288145244
1789317803974890500,9.223890380859375,-6.144563077968359,-14.43721487444043,3.1786905341312286
1789317803984845600,9.233845458984375,13.769121552097797,-2.5616712732046842,0.7143416441027075
1789317803994800600,9.243800537109376,16.053175907361506,7.140266890954971,-0.8767408950842916
1789317804004754400,9.25375439453125,8.362327974766492,1.2659002255380154,1.976715229884535
1789317804014709500,9.26370947265625,7.755166383248567,4.484413359230756,-2.4221438523098824
1789317804024664600,9.27366455078125,-3.137490216475725,-8.749724533331394,-7.162638881760835
1789317804034619600,9.28361962890625,-13.264753980100155,-8.894255753862858,-2.407528759241104
1789317804044574500,9.293574462890625,5.6496694367587565,-0.4913584528207779,-1.1914097788296638
1789317804054529800,9.30352978515625,0.5861556283682584,8.300440550652146,-0.020907544276490806
1789317804064483600,9.313483642578126,-4.307672059968113,-3.7557331739783284,0.9182450910571962
1789317804074438700,9.323438720703125,10.867771164792776,10.392242733788489,1.9005958668000995
1789317804084393500,9.3333935546875,-2.8015461972504854,12.355724241960049,-0.8824823613457381
1789317804094348500,9.3433486328125,-15.459104099041223,-13.717089751565455,-6.461329518514871
1789317804104303600,9.3533037109375,5.562477475517988,-5.525613433501124,0.5863261260969564
1789317804114258400,9.363258544921875,13.221073828327656,-0.8793816188514232,0.681328140034154
1789317804124212500,9.37321240234375,9.731139124202727,0.8024386644244194,0.32634693698156625
1789317804134167600,9.38316748046875,-7.029764781275391,5.58276389222145,-1.4353715337976813
1789317804144122600,9.39312255859375,1.165018761640787,-4.488170665937662,-7.727585133361816
1789317804154077400,9.403077392578124,-2.3687989233523608,-3.1564450923144816,-1.6408225024551153
1789317804164032500,9.413032470703126,6.0211097167789935,-2.80787890740335,1.2222887550875543
1789317804173987000,9.422987060546875,9.362287107110022,1.84443485750854,-0.8663593479320406
1789317804183941000,9.432941162109374,-25.431362009871005,8.095828663167357,-3.3591625443547963
1789317804193896000,9.44289599609375,-7.814350393623113,-4.0271898157238954,-9.68010744062364
1789317804203851300,9.452851318359375,-4.9009682077407835,-7.200622867718338,3.239534002150595
1789317804213806000,9.46280615234375,9.224595377209782,-2.096739055016637,4.307085199990868
1789317804223761200,9.47276123046875,20.072266587781904,9.110429484325646,-4.08033571497798
1789317804233715000,9.48271484375,-6.170936705631017,7.128152674791217,-4.525932533577084
1789317804243670300,9.492670166015625,-1.5928537135779857,-14.91167246134281,-8.542389942884444
1789317804253625000,9.502625,10.901531980097293,7.160266891932487,-1.9066877539344131
1789317804263580200,9.512580078125,-8.485601303213834,-4.623513786885142,4.59201857842505
1789317804273535200,9.52253515625,-6.6615165752947325,-7.115174535274505,1.4904858105152845
1789317804283490300,9.532490234375,6.816240104016662,5.144425666448473,0.5313232373319566
1789317804293444000,9.542444091796876,2.580375389152765,2.724092370691895,5.312540007141232
1789317804303399200,9.552399169921875,-5.868867483478784,11.284192742311953,1.2222737767141312
1789317804313354200,9.562354248046875,-12.178071673071384,3.8272728080570695,-9.0310858984977
1789317804323309000,9.57230908203125,-10.708836155855655,-8.420044250676035,-2.389816430809349
1789317804333264100,9.58226416015625,2.181266180962324,-9.800393862214683,3.187364546713233
1789317804343218200,9.59221826171875,7.985184514668584,3.4012148026645184,0.7108988832376897
1789317804353173200,9.60217333984375,5.563694450092315,-1.6310872903823852,1.7894411384306848
1789317804363128000,9.612128173828125,0.6581570347398519,9.691953361240028,0.7813884237416088
1789317804373083100,9.622083251953125,-7.033325104105472,-1.5796072785139084,-7.450268075150251
1789317804383038000,9.632037841796874,-13.949771549236774,-3.726981711268425,-0.30183247252060097
1789317804392993300,9.6419931640625,6.0747413537234065,-5.837866196015477,2.3107808880172667
1789317804402947000,9.651947021484375,7.992154938203096,-8.56488819041848,-0.32621523689329623
1789317804412902100,9.661902099609375,-1.3904635937958956,11.472390086090565,6.755588943699002
1789317804422857000,9.67185693359375,0.1498433554649353,9.691286421763897,1.2402087349206208
1789317804432812300,9.681812255859375,4.615750751668214,-0.8387380582958459,-2.6438009826198217
1789317804442767000,9.69176708984375,-3.876842017868161,-13.97268013113737,4.064942623274028
1789317804452722200,9.70172216796875,8.765762644940613,-13.86797823216915,3.159706432197988
1789317804462676000,9.711676025390625,18.876945042335986,12.525218054312466,4.099477637821436
1789317804472631300,9.72163134765625,-4.7959717097401615,4.916507137656212,5.261252887496352
1789317804482586000,9.731586181640624,-7.9570000381916755,-0.8779600616157054,-1.320673287602514
1789317804492541200,9.741541259765626,-8.947637799960374,4.532196854668856,3.046470221379399
1789317804502496300,9.751496337890625,-7.3654761607885355,-18.998737192314863,6.3070332752943035
1789317804512450300,9.7614501953125,8.952544276702403,6.425127155277132,2.474640640005469
1789317804522405000,9.771405029296876,5.48315493247807,12.697405343532562,0.5770344565406441
1789317804532360200,9.781360107421875,-8.28370510442853,2.16187700535953,0.8231628880232572
1789317804542315300,9.791315185546875,4.056138846832513,-6.268824832931161,-1.2452318237796425
1789317804552270000,9.80127001953125,-7.385583129271865,-14.220367774760723,1.845355333354324
1789317804562225200,9.81122509765625,-2.7559669338583945,-6.2984185916841025,4.067714133813977
1789317804572179200,9.82117919921875,10.125513705086707,0.6916267581433058,2.734467634233832
1789317804582134300,9.83113427734375,11.173797600138187,-1.715158489254117,5.375158668139576
1789317804592089000,9.841089111328126,4.686542197728157,-2.767713485753536,8.467670509725808
1789317804602044200,9.851044189453125,-8.671769771513341,7.284558457511663,0.9434776589259505
1789317804611999000,9.8609990234375,-10.293519324707985,-11.727000806975363,-5.4310962439388035
1789317804621953300,9.870953369140626,2.1439865438818932,3.8216432777374982,7.694042344722151
1789317804631908000,9.880908203125,5.613524356666207,-0.8957768733352423,5.080723301866651
1789317804641863200,9.89086328125,-1.346670629298687,-2.5338462776899338,2.0861276446312664
1789317804651818000,9.90081787109375,-9.242705034396051,8.74960003016889,3.5906297055393455
1789317804661773300,9.910773193359375,3.0975352227061985,-3.258980753159523,0.012155278826504945
1789317804671728000,9.92072802734375,-0.1362754333615303,2.0896271771848203,5.547197488799691
1789317804681682200,9.93068212890625,2.7781851954072714,-10.76785650010109,5.390047025191784
1789317804691637000,9.940636962890625,8.111219709044695,8.334037699827551,2.9893057341337204
1789317804701592300,9.95059228515625,-14.058662132066488,-2.9546231278091666,-0.2504528705529869
1789317804711547100,9.960547119140625,-3.3880525387525555,-0.7257739424169063,1.7686977717399597
1789317804721502000,9.970501953125,0.9111842858254909,-0.24193419466316698,4.965422851994633
1789317804731457300,9.980457275390625,-2.784237919574976,-2.6611148132532834,5.353101734632253
1789317804741411300,9.990411376953125,4.389481159126758,6.892596782988309,3.287404883611202
1789317804751366100,10.0003662109375,-2.067009102663398,4.183409720483422,1.727381426489353
1789317804761321000,10.010321044921875,-7.617348396620154,-1.1886767006039618,0.11043474353179335
1789317804771276300,10.0202763671875,0.34567221703529355,-4.146767796784639,-2.2172310821823773
1789317804781231000,10.030231201171874,-2.6309429623514413,-7.099087908348441,-2.47377174821645
1789317804791185200,10.04018505859375,9.283225260832905,3.141481331938505,0.5397746932044625
1789317804801140000,10.050139892578125,12.60904433851242,4.453472277522087,3.7353903509125113
1789317804811095300,10.06009521484375,-6.941199778115749,7.313724930763244,2.9455525171250105
1789317804821050000,10.070050048828126,-16.717515430128575,-4.300467243155837,-5.47026797837615
1789317804831005200,10.080005126953125,-13.216318158233165,-3.090345018941164,0.06279547886997461
1789317804840960300,10.089960205078125,-4.440829069048166,2.8041970040202138,5.7551575176686045
1789317804850914300,10.099914306640626,5.6287686875492335,2.882083376777172,-1.6820789342120288
1789317804860869000,10.109869140625,1.1315151359677313,5.016576700648665,-2.338258823660016
1789317804870824200,10.11982421875,0.05842471643984318,6.820871855470537,-1.730495320726186
1789317804880779300,10.129779296875,-5.2474289448052645,-2.5200065529078244,-9.241357126918434
1789317804890734000,10.139734130859376,-3.6927830890685316,-9.76369699345827,-8.052852275750041
1789317804900689200,10.149689208984375,5.12197768779695,-11.205443615245818,2.2442216726996005
1789317804910643200,10.159643310546874,26.326227613580226,7.147275308412313,5.380877045786381
1789317804920598300,10.169598388671876,26.821715129029748,13.13216103464365,7.588725528725981
1789317804930553000,10.179552978515625,-18.287030353695155,6.08739859072268,0.8228640512071549
1789317804940508200,10.189508056640625,-18.144687583118674,-13.109357666683197,-18.828270735538005
1789317804950463000,10.199462890625,-0.3911152868270874,-10.255170012569426,-0.8749230320073663
1789317804960417300,10.209417236328125,7.444364988586306,10.246159023118018,7.392206931325793
1789317804970372000,10.2193720703125,1.4394874446839094,11.4647141446352,-3.5752106026113033
1789317804980327200,10.2293271484375,-21.73464918013811,4.0913206348508595,-9.183779967218637
1789317804990282000,10.239281982421875,-4.806407763558626,4.2499779958903785,-4.3495840330243105
1789317805000237300,10.2492373046875,-10.13537342032194,-12.50700785936117,4.963256029349565
1789317805010192100,10.259192138671875,10.489850875103473,-0.7466127323061227,3.453876133272052
1789317805020146200,10.269146240234376,25.715399900770187,9.731689743822812,-1.553257031726837
1789317805030101000,10.27910107421875,23.51778230446577,7.494087343132495,-2.9206507155805825
1789317805040056300,10.289056396484375,18.86130440561175,0.37935412188470363,-7.073418045040965
1789317805050011100,10.29901123046875,16.189182460653782,0.4863298110038042,-8.73318724002838
1789317805059966200,10.30896630859375,-10.301192928075789,-4.880881697523594,-7.006359940290451
1789317805069921300,10.31892138671875,-41.49649957318306,-25.82138073363304,-3.690961134338379
1789317805079875300,10.328875244140624,-13.49654262832403,11.51583175293207,7.447482828345894
1789317805089830100,10.338830078125,-27.11134338728189,-0.06907938144505024,2.4082047588065265
1789317805099785200,10.34878515625,-11.51191779435873,12.609745764780044,5.845569609999656
1789317805109740300,10.358740234375,8.722509194147586,17.92565437157154,-0.39004177584405986
1789317805119695000,10.368695068359376,1.8980781848907469,-0.5086041866540909,-9.012205256938934
1789317805129649200,10.378649169921875,8.596511409172415,3.062049483305216,-15.628400342994928
1789317805139604000,10.38860400390625,12.254521291023492,3.4570267062574622,-9.686815998351573
1789317805149559300,10.398559326171876,15.642633451008797,-10.880608434534071,-3.897790990133583
1789317805159514000,10.40851416015625,9.922283627349138,-6.245710499325394,-0.5768288144333288
1789317805169470000,10.418469970703125,5.759986837521195,-8.84255245463252,3.9892651587381955
1789317805179424800,10.4284248046875,11.164320162218809,-3.187155872398615,8.947468873134255
1789317805189378800,10.43837890625,21.62854910480976,10.055209750282764,9.236714854070543
1789317805199333600,10.448333740234375,18.178004161787033,9.557628477424382,4.643818616028129
1789317805209289000,10.4582890625,-20.271560495114326,10.937282507914304,-5.301352258172631
1789317805219243800,10.468243896484376,-23.79085456471443,-4.41868445725739,-21.74741981438398
1789317805229198600,10.478198486328125,-26.43505857517719,4.798385200622677,-5.308253708124161
1789317805239154000,10.48815380859375,-9.090110918918251,-1.0937193660587072,5.925922080609202
1789317805249107700,10.498107666015626,-4.362630561602115,5.151260480904579,1.2307961789309978
1789317805259062800,10.508062744140625,-7.494330504238605,21.999790647387503,3.9877155912086364
1789317805269017600,10.518017578125,6.6325932631492615,0.1689355939477682,1.8993734853982924
1789317805278973000,10.527972900390624,4.539861105686426,-15.931913334214686,1.5857254691332578
1789317805288927700,10.537927734375,8.563841311714052,-7.830252311632036,-0.7771466945186257
1789317805298882800,10.5478828125,6.470838520616293,-0.9228244547367095,-5.100148717826604
1789317805308836600,10.557836669921874,6.540324144774675,-21.23852336678505,-7.819614597761631
1789317805318792000,10.5677919921875,13.789362376093864,-9.611852819564938,2.5255150871962306
1789317805328746800,10.577746826171875,10.969119077157973,6.031185705113411,9.912387671756743
1789317805338701800,10.587701904296875,0.10208031829297542,5.07479274277389,5.283526094102859
1789317805348657000,10.597656982421874,-9.684691845804453,3.0937948671340942,3.3807881007075307
1789317805358611700,10.60761181640625,-1.3533400240600109,4.731710542231798,5.062863235527277
1789317805368565800,10.617565673828125,-3.835212953406572,6.100737380245327,3.926002062356472
1789317805378520800,10.627520751953124,-26.283181083536146,14.601534499025345,-5.437851563417912
1789317805388476000,10.637475830078126,-18.77134064157009,0.7585907548695803,-11.924015078938007
1789317805398430700,10.6474306640625,-1.3252724519610404,-2.627957224538922,-1.3091209431052206
1789317805408385800,10.6573857421875,0.047155134406685825,-7.145477319079637,-1.305640115252137
1789317805418339800,10.66733984375,9.460611872261762,9.127535517427324,-2.839338752289116
1789317805428294700,10.677294677734375,20.724144103860855,7.571137849587202,-3.3307191246807575
1789317805438249700,10.687249755859375,21.433402964806554,-4.102970156112313,0.10241112114991992
1789317805448204800,10.697204833984374,16.192315497982502,-6.967629519879818,0.7596131567198783
1789317805458159600,10.70715966796875,10.45309847676754,-1.395442551252246,-1.7041912511683999
1789317805468115000,10.717114990234375,1.8557991320878267,17.93736702119708,-1.3274892512276768
1789317805478068700,10.72706884765625,-9.442682832339406,-10.038305377233028,-5.953931200519204
1789317805488023800,10.73702392578125,-16.659287697565553,-24.30799744713306,-0.17472689070031047
1789317805497978600,10.746978515625,-4.692797166469693,4.121428188344836,0.35827151330225165
1789317805507934000,10.756933837890625,-11.19244034128785,6.363305782136321,-4.211639205145835
1789317805517888800,10.766888671875,-8.805805316993593,11.485137339460849,-1.4098833106674253
1789317805527843800,10.77684375,-2.840834836065769,5.413786212697625,0.13767317133024334
1789317805537797600,10.786797607421875,-0.7204682372242212,-2.4574451750546693,-1.0731572742190212
1789317805547753000,10.7967529296875,10.407290665316582,-0.535185904109478,-2.39354392689988
1789317805557707800,10.806707763671875,21.06033303775787,1.9913170250803232,-1.262358461277932
1789317805567662600,10.81666259765625,-12.021791562557219,19.185175125205514,-2.511298345795274
1789317805577618000,10.826617919921874,-38.08333597404957,-26.75897254939079,-19.529666608023643
1789317805587572700,10.83657275390625,-5.940823881664872,-11.117073257875441,5.150930226036906
1789317805597526800,10.84652685546875,15.209825386834144,1.4777017322659491,9.081140261477232
1789317805607481600,10.856481689453124,28.322608351790905,2.573900055658817,-0.5735348509218543
1789317805617437000,10.86643701171875,18.672543582731485,20.22531779937744,4.83615729739517
1789317805627391700,10.876391845703125,-7.859425214624404,-9.00497822829485,-2.2349730751000343
1789317805637346800,10.886346923828125,3.9266684173107147,-15.372757356452942,-14.124468775451183
1789317805647301600,10.896301513671874,-13.6717238386631,-0.5421399610310793,-6.220207809278369
1789317805657256000,10.906255859375,-9.360365783658622,-15.869598624598979,-1.5054209293186664
1789317805667210800,10.916210693359375,6.2777393762707705,15.048663349497318,-4.493884951931238
1789317805677165800,10.926165771484374,3.2049539794176813,4.392966078633069,1.2599727351851762
1789317805687120600,10.93612060546875,11.648183875370025,4.781961889088153,7.324020699328184
1789317805697076000,10.946075927734375,17.26430526279211,21.06611512829065,4.2483086013734335
1789317805707030800,10.95603076171875,-36.24402328186035,-2.569621355426311,-12.303695948559046
1789317805716984800,10.96598486328125,-38.03101892683506,-9.090615361309052,-17.151930929499862
1789317805726939600,10.975939697265625,8.243691073948144,-6.864156870445608,4.616276821368932
1789317805736894700,10.985894775390625,-1.3015946392536162,-18.075867144870756,-0.0963372445963323
1789317805746849800,10.995849853515624,3.8250253213912244,-6.3262096849292515,0.8228264956757426
1789317805756804600,11.0058046875,9.145611856865882,22.918154031062127,8.046089942008257
1789317805766758700,11.015758544921875,15.43935661152005,1.7653244959145784,0.11687822058275342
1789317805776713700,11.025713623046874,11.736844155597685,5.124322205096483,-1.3718570930033922
1789317805786668800,11.035668701171875,-4.329510966810584,-12.201665314626693,-2.8619480589821933
1789317805796623600,11.04562353515625,-15.785314075237512,-13.01667938298583,-7.494263868743181
1789317805806579000,11.055578857421875,-7.022253090471029,8.586287536799906,-10.567579426950216
1789317805816533800,11.06553369140625,-23.638249927842615,5.274457821506261,-7.712821279472112
1789317805826488800,11.07548876953125,-9.50854851243496,1.8001959028095005,0.9638716276571154
1789317805836442600,11.085442626953125,1.139956801098585,-10.286182405948638,6.430470269870757
1789317805846398000,11.09539794921875,13.525566478234529,3.2546769184857607,3.5409736942276355
1789317805856352800,11.105352783203125,22.358310655558107,8.173767058372498,0.8990211159534752
1789317805866307800,11.115307861328125,5.661981221321225,5.72122309936285,2.241521035438776
1789317805876262700,11.1252626953125,-7.953390615522861,-10.486224501299857,-12.414555201113224
1789317805886217700,11.1352177734375,-6.4633396892935036,-8.78552299194336,-11.994500235527752
1789317805896171800,11.145171875,-1.8788842395991086,-14.711165086567402,4.413489226701856
1789317805906126800,11.155126953125,12.972385483229159,6.814500566872954,0.18855010273903608
1789317805916081700,11.16508154296875,13.239272332841157,4.951490188232064,0.8586283152885734
1789317805926036700,11.17503662109375,-2.877780711147189,10.16342579485178,6.415289067351818
1789317805935991800,11.18499169921875,-13.117222993230818,4.590163890469074,-4.462243028476834
1789317805945945900,11.19494580078125,-24.32346155824661,-18.40764410754442,-7.243211717122793
1789317805955900700,11.204900634765625,-8.20220287926197,-17.054356690454483,3.4417020036146044
1789317805965855700,11.214855712890625,15.773901869863272,4.34018725912571,-6.450621662017703
1789317805975810800,11.224810791015624,15.311596493047475,5.409919600397348,-6.883288271895051
1789317805985765600,11.234765625,4.617514838731289,10.559897640275954,3.255919904284179
1789317805995721000,11.244720947265625,6.770851394760609,2.595990891435742,-4.845913259994983
1789317806005674800,11.2546748046875,-0.27621464992761613,-13.088922781419754,-6.881242445281147
1789317806015629800,11.2646298828125,-3.4986890884667634,0.40935470787286754,-0.4288037969693541
1789317806025584600,11.274584716796875,-0.511565374547243,-0.07583820805549621,1.1606095668964087
1789317806035540000,11.2845400390625,-5.756009166061878,-1.9194079731673002,1.5110544051609933
1789317806045494800,11.294494873046874,-8.858355003920197,6.725085084363818,-0.08169555578157306
1789317806055449600,11.30444970703125,-1.8072703712403773,-4.664833639267087,-0.9767620888903736
1789317806065403600,11.314403564453125,-0.8270365145862102,-2.001752494376898,1.781965395722538
1789317806075359000,11.32435888671875,10.704877773618698,4.151187366792559,-1.3963900612354279
1789317806085313800,11.334313720703125,11.262719746172428,1.3380267195940017,-2.9068977922990915
1789317806095268600,11.3442685546875,-9.039177435016631,4.236830345025658,-2.5607845534980296
1789317806105224000,11.354223876953125,-0.001757072800397873,-17.70869621273279,-7.2306854130268094
1789317806115178800,11.3641787109375,6.771199769806861,5.9895402740389105,0.5023126852944493
1789317806125133800,11.3741337890625,-0.4587848014742136,2.828962027442455,1.4161683822862803
1789317806135087600,11.384087646484375,-7.57285634394288,3.57521586330831,-1.7908578733608125
1789317806145042700,11.394042724609376,0.9322118762850761,-3.2800498446732758,-1.9641300352081654
1789317806154997800,11.403997802734375,8.102374723809957,-7.581818233555555,1.601001364198327
1789317806164952800,11.413952880859375,14.499386960715055,12.186328629285097,3.890471314769983
1789317806174907400,11.423907470703124,-17.7270361715436,6.125424662256241,-5.0244344284117215
1789317806184862700,11.43386279296875,-22.525808910179137,-15.507601880228519,-14.705315191495417
1789317806194816500,11.44381640625,-5.199873997426033,-1.3720499852269887,5.810740288680791
1789317806204771600,11.453771484375,5.1661067523807285,0.18333295261263846,4.594845034022629
1789317806214726400,11.463726318359376,11.979757424426078,-5.983708499145507,-0.9063825115669518
1789317806224681700,11.473681640625,16.486194399416444,19.644485411858557,6.3961500671178095
1789317806234636500,11.483636474609375,-9.021049657651782,8.003097187978028,0.798822081362456
1789317806244591400,11.49359130859375,-22.96162375495434,-8.716493879380822,-12.564879033571481
1789317806254545400,11.50354541015625,-2.33989256234169,-16.247680242329835,3.2360864920452235
1789317806264500700,11.513500732421875,10.071105238550901,-3.022040128999948,7.004444462057948
1789317806274455600,11.52345556640625,19.78189715577364,9.250271085736156,0.0631351134873461
1789317806284410400,11.533410400390625,12.89304715809822,4.377955556505918,4.447867881643772
1789317806294365700,11.54336572265625,9.394642731791734,5.9956222243010995,6.896424232321977
1789317806304320500,11.553320556640625,8.949670182570815,-0.9282733677923679,-4.3303570622459056
1789317806314274600,11.563274658203126,-18.007876727706194,-0.973031377929449,-4.999065593877434
1789317806324229400,11.5732294921875,-17.700744376945494,0.6068804364889859,-0.008885746503388508
1789317806334184400,11.583184326171875,-0.9521838202118873,-2.9251731614410876,-3.4608512329816814
1789317806344139500,11.593139404296876,-18.53159314329624,-5.517431296089291,1.8837560834191738
1789317806354094600,11.603094482421875,-2.611538004657626,6.204891582202911,2.0611561388514934
1789317806364049400,11.61304931640625,-8.461842241963744,15.247391439640522,-1.7977477790050207
1789317806374003500,11.62300341796875,-2.225994965004921,3.3755706583201883,-5.785085038420558
1789317806383958500,11.63295849609375,8.38627992824018,-4.3022342528283595,-2.659548879110813
1789317806393913600,11.64291357421875,16.66457411353588,-7.054020101609826,-2.689834711781144
1789317806403868400,11.652868408203124,19.57036336007118,-1.2711685213297605,-1.6710907994687556
1789317806413823500,11.662823486328126,-1.166425121307373,-4.98902116972506,0.2676618891051039
1789317806423778600,11.672778564453125,2.7510043430149556,-12.887310660272837,-6.126821669572592
1789317806433732600,11.682732666015625,10.8564969065845,8.796884343913197,2.1897291811421513
1789317806443687400,11.6926875,5.013589209270477,-1.5105208828061818,7.0675365857869386
1789317806453642500,11.702642578125,0.4707920501321554,-2.7369495141774416,1.8454498797699808
1789317806463597600,11.71259765625,-25.75785957083702,-1.1949281622141599,-1.078280973908305
1789317806473552400,11.722552490234374,-8.169203695979714,4.940320559442043,-1.8981756539158523
1789317806483507700,11.7325078125,-6.87758158468604,4.59623181220591,3.1283304662033915
1789317806493461500,11.74246142578125,-1.7919541441649198,7.967626061624288,4.777528582815826
1789317806503416600,11.75241650390625,8.45401724742651,6.409518667256831,2.3239567420631646
1789317806513371400,11.762371337890626,4.398157217535377,-7.672848750045895,1.0001024863369763
1789317806523326700,11.77232666015625,1.6099708525955676,1.562052332600951,2.3794407288759944
1789317806533281500,11.782281494140625,-1.5370587611198425,-4.877378657838702,-1.4182162547267974
1789317806543236600,11.792236572265624,-0.7749813331782818,-10.048733247745037,-2.2458083573691545
1789317806553190400,11.8021904296875,-3.589301671805978,-9.907227512514591,2.0557849672071633
1789317806563145700,11.812145751953125,4.719676405566931,-2.715788652727008,2.3754693410269914
1789317806573100500,11.8221005859375,11.039949101662636,4.870791680663824,4.214658845227956
1789317806583055600,11.8320556640625,-4.4588183147251605,-4.094105881655216,7.59407916471362
1789317806593010400,11.842010498046875,-15.033653996413944,3.694503921511769,0.49454015159681436
1789317806602965500,11.851965576171875,-4.134672869843245,1.7172352955281733,-0.5548389913454651
1789317806612919600,11.86191943359375,0.04449380624294281,-1.3837024290978908,9.008214725998043
1789317806622874600,11.87187451171875,12.896530908560752,4.647089308261871,5.404457827860116
1789317806632829400,11.881829345703125,11.220609620195626,-0.35987200730144975,-1.4787262530080973
1789317806642784500,11.891784423828126,-3.147054163634777,-2.6291350361466406,-0.9466232634752988
1789317806652739600,11.901739501953125,14.993759208399057,5.131942616972327,-2.8188191113516687
1789317806662694400,11.9116943359375,10.499999344152211,19.31329297107458,-1.5107149440735577
1789317806672648400,11.9216484375,-33.290270507144925,-16.650079139715434,-5.190997448009252
1789317806682603500,11.931603515625,-2.80276784799993,-26.20775437889099,-3.847641642346978
1789317806692558600,11.94155859375,10.845939272212982,8.744386679434776,3.8029450070083137
1789317806702513400,11.951513427734374,-10.37090534672737,13.836577716255187,5.424651890105009
1789317806712468700,11.96146875,-0.6121785428971052,14.723837521135806,-2.4247424905009565
1789317806722423600,11.971423583984375,-2.388503740775585,3.4622897413522002,0.9998748150609433
1789317806732378400,11.98137841796875,-10.775913549828529,-16.80495055247545,2.9063632470309733
1789317806742332400,11.99133251953125,2.624135620424151,2.2129642185181377,-2.9636969533637165
1789317806752287700,12.001287841796875,-5.454971040523052,-2.756235229405761,-7.262554715496301
1789317806762242600,12.01124267578125,3.0217542977958916,-0.23217677075862883,-2.51057821482718
1789317806772197400,12.021197265625,6.8838131725519895,-2.4279256505817175,-0.6178250243514776
1789317806782152400,12.03115234375,7.980922181048989,-0.00997018987238407,0.29255072157010437
1789317806792107500,12.041107421875,10.484793591713904,3.598322598129511,3.2221582121968266
1789317806802061600,12.0510615234375,8.583239255145191,0.7939642660677433,0.5623014361806213
1789317806812016400,12.061016357421876,-23.81976267929077,3.699731885293126,-2.010144475147128
1789317806821971500,12.070971435546875,-17.243531354832648,-7.151342996242642,-6.791864956694841
1789317806831926500,12.080926513671875,4.042092785823345,-6.904766528731584,0.9364667572505772
1789317806841881600,12.090881591796874,-0.6609019495338201,15.152829826414584,5.506405459684133
1789317806851836400,12.10083642578125,1.07183778911829,2.4608307258397337,-3.3532635494440792
1789317806861790500,12.11079052734375,5.5383782225281,2.5204133801430464,-2.1358947151020167
1789317806871745500,12.12074560546875,5.883784482103586,5.874570079034567,1.598545203217864
1789317806881700600,12.13070068359375,-2.1662918991923332,2.0609441035360097,-1.4317833000473676
1789317806891655400,12.140655517578125,-7.797128040665387,-5.749892729008198,-4.557805927699804
1789317806901610500,12.150610595703125,-2.91927533557415,-8.89835325230956,-0.3835396639410406
1789317806911565600,12.160565673828126,4.807016835367679,-4.306337596493959,0.870256647631526
1789317806921519600,12.17051953125,10.984712952131032,2.0960995880693196,2.1319269805148244
1789317806931474400,12.180474365234375,2.2812036420077084,9.206159556809068,1.107630987033248
1789317806941429500,12.190429443359376,-3.4583033020645377,-2.9256735121786592,-9.801325590106844
1789317806951384600,12.200384521484375,-4.713252509999275,3.2452900814592835,-8.628333365368842
1789317806961339400,12.21033935546875,0.6006991175055504,-3.958846347337961,2.0205808212265373
1789317806971294700,12.220294677734374,14.665359613204002,-10.723365031945704,-0.6017881548512727
1789317806981248500,12.23024853515625,21.656199328279495,2.260637239319086,-0.058256081874668596
1789317806991203600,12.24020361328125,0.07856383362710476,17.440908030366895,1.9891981332302093
1789317807001158400,12.250158447265624,-1.8761971924722194,-0.8238947094291448,-10.813871232300997
1789317807011113700,12.26011376953125,-9.147382373669743,3.3261142612338066,-4.2601334792017935
1789317807021068500,12.270068603515625,-9.519934414324164,-17.86942336578369,3.585938332852721
1789317807031023600,12.280023681640625,6.9101745252549645,-2.8927403798699376,-4.817663609327376
1789317807040977400,12.289977294921876,-18.479604597383737,10.989971311050653,-2.4028826870009303
1789317807050932500,12.299932373046875,-4.477623552960157,8.710595468991995,-0.7185984978295862
1789317807060887600,12.309887451171875,-4.27862190657258,4.863381696668267,0.6042158203896135
1789317807070842600,12.319842529296874,-17.367857991725206,-13.090919508194922,3.072275986026227
1789317807080797400,12.32979736328125,13.123496082150936,-1.4138409622520207,0.9391292544580996
1789317807090752500,12.33975244140625,20.0792153840065,2.3617659559756516,-0.052419448143057525
1789317807100706600,12.34970654296875,14.247821598875522,-0.06538754118978977,5.001062905174494
1789317807110661600,12.35966162109375,6.969260920473933,-5.1551615799963475,0.802706083188951
1789317807120616400,12.369616455078125,8.60808435806632,-2.859457118949294,-6.156137195906043
1789317807130571500,12.379571533203125,2.0438509299159047,1.9393734873533248,-1.7447833737976848
1789317807140526600,12.389526611328124,-2.3368553866028785,-7.879648502963781,1.8692182933703063
1789317807150481400,12.3994814453125,-8.509487205713986,10.759355213737487,-0.31622349277622996
1789317807160435500,12.409435546875,-14.34720902482271,2.5872470284879205,-3.215799490819871
1789317807170390800,12.419390869140624,-8.887320401641725,9.061854546248913,0.02700639087455347
1789317807180346000,12.42934619140625,-12.393899366575479,11.508463269990681,-0.20621840936597435
1789317807190301000,12.439301025390625,-3.4982471899181604,3.3474773672580715,-2.3900614916115996
1789317807200255700,12.449255859375,1.7283792053550482,0.8166735260039567,-2.9822447097063063
1789317807210211000,12.459211181640624,3.426017820009589,-0.5822638816267252,-5.435169192466139
1789317807220165000,12.4691650390625,2.2694325401932,-5.382933978316188,-1.7208545089386402
1789317807230120000,12.479119873046875,4.9944846958279605,3.1277310390055177,1.353627024307847
1789317807240074800,12.48907470703125,1.1332102494478224,-5.615525759616494,-1.1108685807149856
1789317807250030000,12.499030029296875,-3.848818284910917,-10.998932031619548,0.43883079506289213
1789317807259985000,12.50898486328125,7.110286178711056,-0.17664485315084458,4.142116756108403
1789317807269940000,12.51893994140625,15.668934597957133,3.3238176747292276,5.457285162684321
1789317807279893800,12.528893798828125,5.937642329019308,10.736226851606368,3.6843998761266468
1789317807289849000,12.53884912109375,-7.092452415856719,-10.040766214388608,-4.406556212568283
1789317807299804000,12.548803955078125,9.118364953500032,0.3195452576100826,-1.5761783269785343
1789317807309759000,12.558759033203126,9.364559728217124,2.649887901318073,3.6666599290356037
1789317807319713800,12.5687138671875,-9.325251215657591,0.40459436160326,2.5478581441685555
1789317807329669000,12.578669189453125,-37.93909935255051,10.776127484840154,-1.7052449980050324
1789317807339623000,12.588622802734376,-13.729160128587484,-3.7681536796122788,-0.46182504595294593
1789317807349578000,12.598577880859375,-14.540886845839022,-10.429137755465506,5.383164279940724
1789317807359532800,12.60853271484375,6.796360514548421,0.31749533934295177,2.6526100197583435
1789317807369488100,12.618488037109374,14.834900187307595,17.098157253736257,4.135739914552867
1789317807379443000,12.62844287109375,13.738085777842997,8.697171339273453,3.842146844322979
1789317807389397800,12.638397705078125,4.761419451797008,-15.038200407671928,-3.349591875194013
1789317807399351800,12.648351806640624,4.413869165930151,-9.779927997291088,-5.2614978021681305
1789317807409307000,12.658306884765626,10.6862595823884,-11.891398757493496,-3.0749796920269725
1789317807419262000,12.668261962890625,11.771188323748111,-5.887784365394711,4.061962730680406
1789317807429216800,12.678216796875,9.24156930836439,4.145203616207838,7.199992168599366
1789317807439172000,12.688172119140624,-5.622654588583112,3.960103069400787,6.582603782099485
1789317807449127000,12.698126953125,-8.186572179409861,0.41876317220926285,1.8583588995732365
1789317807459081000,12.7080810546875,2.5832746177256105,-1.7427800711512564,-1.9103285946547983
