time,seconds_elapsed,z,y,x
1789317794806474200,0.05547412109375,1.7415283918380737,2.1868956089019775,0.07385459542274475
1789317794816428300,0.06542822265625,-0.29997509717941284,-2.294072389602661,-0.49816790223121643
1789317794826383000,0.075383056640625,-1.8762644529342651,-2.7738094329833984,0.060190193355083466
1789317794836338200,0.085338134765625,-1.2290191650390625,-3.3673791885375977,0.37718963623046875
1789317794846293200,0.095293212890625,-0.21291032433509827,1.900208830833435,0.9792624711990356
1789317794856248000,0.105248046875,0.6346385478973389,2.8344955444335938,0.8720946907997131
1789317794866203400,0.115203369140625,0.6700852513313293,1.8665131330490112,-0.9571203589439392
1789317794876158200,0.125158203125,-0.4229978322982788,-1.1671509742736816,-1.1357496976852417
1789317794886112300,0.1351123046875,-1.2156461477279663,-3.2281112670898438,-0.13436706364154816
1789317794896067000,0.145067138671875,-1.0370442867279053,-2.7630138397216797,0.8553603291511536
1789317794906022400,0.1550224609375,-0.12980391085147858,0.9781302213668823,1.9600566625595093
1789317794915977200,0.164977294921875,1.1993803977966309,1.8198127746582031,0.6156007051467896
1789317794925932300,0.174932373046875,1.14275062084198,0.5107580423355103,-0.2832758128643036
1789317794935887000,0.18488720703125,-0.32176709175109863,-1.295315146446228,1.7932088375091553
1789317794945842200,0.19484228515625,-1.2102018594741821,-0.22542476654052734,1.8458666801452637
1789317794955797200,0.20479736328125,-0.2274858057498932,2.685288429260254,-1.6876280307769775
1789317794965751300,0.214751220703125,0.466957688331604,-1.5011042356491089,-3.3734068870544434
1789317794975706000,0.2247060546875,0.05417997017502785,-2.3017845153808594,-3.0675861835479736
1789317794985661200,0.2346611328125,-0.29563048481941223,-1.8074358701705933,-0.9137096405029297
1789317794995616300,0.2446162109375,-0.07820530235767365,3.0342512130737305,0.8217045068740845
1789317795005571000,0.254571044921875,0.35098838806152344,1.3962500095367432,2.81020450592041
1789317795015526400,0.2645263671875,0.41860002279281616,0.07278958708047867,0.9321286678314209
1789317795025481200,0.274481201171875,0.10780059546232224,-1.7787907123565674,-0.3362792730331421
1789317795035436000,0.28443603515625,-0.03887833282351494,-3.442781925201416,0.9013990759849548
1789317795045390000,0.29439013671875,0.20670506358146667,-1.5242098569869995,0.9122892618179321
1789317795055345400,0.304345458984375,0.375655859708786,0.8968485593795776,1.4029667377471924
1789317795065300200,0.31430029296875,0.5543066263198853,2.0909745693206787,1.0699914693832397
1789317795075255000,0.324255126953125,0.7351441979408264,2.0912883281707764,-1.3543915748596191
1789317795085210000,0.334210205078125,0.20985431969165802,1.0116947889328003,-2.3080461025238037
1789317795095165200,0.344165283203125,-0.27913740277290344,-0.891921877861023,-3.104126453399658
1789317795105120300,0.354120361328125,-0.1957402527332306,-2.2617874145507812,-2.091417074203491
1789317795115075000,0.364074951171875,0.4760422706604004,-0.23718318343162537,-0.7049676179885864
1789317795125029000,0.374029052734375,1.333452820777893,0.5455174446105957,1.0335218906402588
1789317795134984200,0.383984130859375,1.195307970046997,0.5253333449363708,2.2993361949920654
1789317795144939300,0.393939208984375,0.36299240589141846,1.3942914009094238,1.7659116983413696
1789317795154894000,0.40389404296875,-0.0367165170609951,-0.5059425830841064,0.7553016543388367
1789317795164849700,0.413849609375,0.026247534900903702,-0.540351152420044,-1.373998761177063
1789317795174804700,0.4238046875,-0.01824256218969822,-1.7651665210723877,-1.3023260831832886
1789317795184759600,0.433759521484375,0.013690604828298092,-2.163351535797119,0.44132086634635925
1789317795194714600,0.443714599609375,0.17101290822029114,-1.5208179950714111,2.775242567062378
1789317795204668700,0.453668701171875,0.6166622638702393,0.5377358794212341,3.2519545555114746
1789317795214623700,0.463623779296875,1.4389477968215942,4.45710563659668,0.2848968505859375
1789317795224578600,0.47357861328125,1.3903306722640991,1.0409538745880127,-2.3063149452209473
1789317795234533600,0.48353369140625,-0.043757181614637375,-1.839407205581665,-3.1834471225738525
1789317795244488700,0.49348876953125,-1.3928680419921875,-1.8218008279800415,-1.6658560037612915
1789317795254443500,0.503443603515625,-0.721045196056366,-2.422971487045288,0.28097766637802124
1789317795264398600,0.513398681640625,0.9965812563896179,3.6790900230407715,-0.25002816319465637
1789317795274353700,0.523353759765625,2.096876621246338,4.780420303344727,-0.05821111798286438
1789317795284307700,0.5333076171875,1.2055444717407227,-1.6388887166976929,0.1213567778468132
1789317795294262500,0.543262451171875,-1.0849605798721313,-1.3440994024276733,1.2349164485931396
1789317795304217600,0.553217529296875,-1.3094189167022705,-2.9475064277648926,1.5875325202941895
1789317795314172700,0.563172607421875,0.00017193224630318582,-1.998647689819336,1.3048285245895386
1789317795324127700,0.573127685546875,1.278006672859192,2.153658390045166,0.6479145884513855
1789317795334082600,0.58308251953125,1.4750382900238037,1.7776838541030884,0.5733159780502319
1789317795344037600,0.59303759765625,0.3927006423473358,1.9714006185531616,-0.3265373706817627
1789317795353992700,0.60299267578125,-0.5494807362556458,0.5930259227752686,-1.7019429206848145
1789317795363946800,0.61294677734375,-0.5083362460136414,-2.352376699447632,-2.876967668533325
1789317795373901600,0.622901611328125,-0.18816889822483063,-3.0699546337127686,-1.505737543106079
1789317795383856600,0.632856689453125,0.28162282705307007,-0.6179164052009583,1.0049021244049072
1789317795393811700,0.642811767578125,0.8316490650177002,2.083583116531372,2.0863771438598633
1789317795403766500,0.6527666015625,0.8860816955566406,7.02034330368042,1.3784680366516113
1789317795413721600,0.6627216796875,0.2800641655921936,-3.3692898750305176,-1.1884175539016724
1789317795423676700,0.6726767578125,-1.1241182088851929,-2.7250142097473145,-0.8770710825920105
1789317795433631700,0.6826318359375,-0.8674531579017639,-1.9172987937927246,0.02545880526304245
1789317795443585500,0.69258544921875,0.6507460474967957,-1.8184012174606323,1.0316144227981567
1789317795453540600,0.70254052734375,1.2579997777938843,1.9669169187545776,1.0732992887496948
1789317795463495700,0.71249560546875,0.9931632280349731,7.379176139831543,-0.47339245676994324
1789317795473450800,0.72245068359375,-0.11248902976512909,-1.9735437631607056,-2.891354560852051
1789317795483405600,0.732405517578125,-1.9123680591583252,-1.6424236297607422,-2.4256865978240967
1789317795493360600,0.742360595703125,-1.7013370990753174,-1.379377007484436,-0.5153263807296753
1789317795503315700,0.752315673828125,0.47138500213623047,-1.8590970039367676,1.9925007820129395
1789317795513270500,0.7622705078125,1.6229952573776245,0.49289610981941223,3.7291455268859863
1789317795523224600,0.772224609375,1.1846929788589478,3.4074552059173584,3.4156179428100586
1789317795533179600,0.7821796875,0.4792548418045044,2.002497434616089,0.24321570992469788
1789317795543134700,0.792134765625,-0.821403980255127,-2.7160472869873047,-1.7391494512557983
1789317795553089500,0.802089599609375,-1.8979874849319458,-2.051673412322998,-1.043697714805603
1789317795563044600,0.812044677734375,-1.2910230159759521,-2.000572681427002,1.2009215354919434
1789317795572999700,0.821999755859375,0.4868251383304596,0.7726503610610962,1.7091846466064453
1789317795582954800,0.831954833984375,1.9119503498077393,8.295394897460938,-0.5120924115180969
1789317795592909600,0.84190966796875,1.6309688091278076,-2.4711289405822754,-3.3659257888793945
1789317795602863600,0.851863525390625,-0.42475906014442444,-3.5458316802978516,-2.2883737087249756
1789317795612818700,0.861818603515625,-1.3711555004119873,-2.794471263885498,-0.08363698422908783
1789317795622773800,0.871773681640625,-0.3209845721721649,1.0448740720748901,1.1575247049331665
1789317795632728600,0.881728515625,0.8334523439407349,3.6271345615386963,1.5342634916305542
1789317795642683600,0.89168359375,0.5695821046829224,2.513050079345703,1.9305905103683472
1789317795652638700,0.901638671875,-0.24086304008960724,-0.21048890054225922,1.602025032043457
1789317795662593500,0.911593505859375,-0.6307676434516907,-2.9235029220581055,0.88181471824646
1789317795672548600,0.921548583984375,-0.4167671203613281,-3.1652073860168457,0.6132627725601196
1789317795682502700,0.931502685546875,0.7994239926338196,1.4302842617034912,-1.2460010051727295
1789317795692457700,0.941457763671875,1.8657946586608887,5.458587169647217,-3.1013288497924805
1789317795702412500,0.95141259765625,1.214522123336792,0.08484180271625519,-3.3746962547302246
1789317795712367600,0.96136767578125,-1.0639728307724,-1.2575864791870117,-1.598729133605957
1789317795722322700,0.97132275390625,-2.0106828212738037,-2.350071907043457,0.9368526935577393
1789317795732277500,0.981277587890625,-0.6994310021400452,-0.28506842255592346,2.0853662490844727
1789317795742232600,0.991232666015625,1.1241445541381836,2.197498321533203,2.529320240020752
1789317795752187600,1.001187744140625,1.7785615921020508,1.2030415534973145,2.0418436527252197
1789317795762141700,1.0111416015625,0.9355618953704834,-0.08347831666469574,1.4949772357940674
1789317795772096500,1.021096435546875,-0.04747568070888519,-2.243856430053711,1.1293467283248901
1789317795782051600,1.031051513671875,-0.3312608003616333,-2.34348201751709,-0.12813322246074677
1789317795792006700,1.041006591796875,0.6251853704452515,4.993797302246094,-3.4013993740081787
1789317795801961700,1.050961669921875,1.0146713256835938,2.2164552211761475,-4.746931552886963
1789317795811916500,1.06091650390625,-0.27468639612197876,0.2214302271604538,-5.198637008666992
1789317795821871900,1.070871826171875,-1.4901701211929321,-0.5578064322471619,-1.8426939249038696
1789317795831826700,1.08082666015625,-0.8183555603027344,-1.0451860427856445,1.088693618774414
1789317795841780700,1.09078076171875,0.5403926968574524,0.9670343399047852,3.702087163925171
1789317795851735600,1.100735595703125,1.2863723039627075,0.10437600314617157,4.65766716003418
1789317795861691000,1.11069091796875,0.9369894862174988,0.014816446229815483,2.6028707027435303
1789317795871645700,1.120645751953125,0.2957260310649872,-1.2810238599777222,0.5020923018455505
1789317795881600500,1.1306005859375,-0.14642317593097687,-0.7450634837150574,-1.3117784261703491
1789317795891555600,1.1405556640625,-0.39018070697784424,-1.6524577140808105,-1.3377479314804077
1789317795901510700,1.1505107421875,-0.28567880392074585,-0.4821099638938904,-1.5381966829299927
1789317795911464700,1.160464599609375,0.08553875237703323,1.5105587244033813,-0.9507067203521729
1789317795921419500,1.17041943359375,0.6356032490730286,4.1804022789001465,-0.9259140491485596
1789317795931374600,1.18037451171875,0.5182037353515625,0.045763276517391205,0.20729660987854004
1789317795941329700,1.19032958984375,-0.5129640102386475,-2.289267063140869,2.189548969268799
1789317795951284700,1.20028466796875,-0.7632350921630859,-2.4577884674072266,2.683515787124634
1789317795961239600,1.210239501953125,0.3451370894908905,2.257514476776123,0.8247499465942383
1789317795971194600,1.220194580078125,1.4582223892211914,2.9880428314208984,-0.8579611778259277
1789317795981149700,1.230149658203125,0.7618678212165833,-0.6307460069656372,-1.193912386894226
1789317795991103700,1.240103759765625,-1.24668288230896,-1.058854579925537,-0.1747983694076538
1789317796001058600,1.25005859375,-1.6116925477981567,-2.2543630599975586,0.2577487826347351
1789317796011013600,1.260013671875,-0.48180222511291504,-2.437163829803467,0.606894314289093
1789317796020968700,1.26996875,0.8810973167419434,7.045158386230469,-0.7201399207115173
1789317796030923500,1.279923583984375,1.4743781089782715,1.863726258277893,-0.7389375567436218
1789317796040878600,1.289878662109375,-0.28539136052131653,-1.9343763589859009,-0.39112550020217896
1789317796050833700,1.299833740234375,-2.239328145980835,-1.289612889289856,0.6672841906547546
1789317796060788700,1.309788818359375,-1.3520212173461914,-1.6603385210037231,0.7535561919212341
1789317796070742500,1.319742431640625,0.24444252252578735,-2.1361618041992188,0.9353482127189636
1789317796080697600,1.329697509765625,0.40886953473091125,1.3442224264144897,1.4234236478805542
1789317796090652700,1.339652587890625,0.57264643907547,2.3728187084198,0.3729323744773865
1789317796100607700,1.349607666015625,0.42259249091148376,2.5458617210388184,-1.8551808595657349
1789317796110562600,1.3595625,-0.693000078201294,-0.5567218661308289,-2.011505365371704
1789317796120517600,1.369517578125,-1.6231423616409302,-2.8355023860931396,-0.728350818157196
1789317796130472700,1.37947265625,-1.4772815704345703,-2.721463918685913,0.9307655096054077
1789317796140427500,1.389427490234375,0.07263421267271042,3.0942556858062744,0.8781803250312805
1789317796150381600,1.399381591796875,1.6284089088439941,2.46836256980896,0.4855579137802124
1789317796160336600,1.409336669921875,1.093747615814209,0.6560410261154175,0.3731605112552643
1789317796170291700,1.419291748046875,-0.5206120610237122,0.5108705163002014,-1.0576574802398682
1789317796180246500,1.42924658203125,-1.0943381786346436,-2.755678176879883,-1.384183406829834
1789317796190201900,1.439201904296875,-0.7684504389762878,-2.5595860481262207,-1.2293596267700195
1789317796200156700,1.44915673828125,0.006379490252584219,2.4222090244293213,-0.666686475276947
1789317796210111700,1.45911181640625,0.7441208362579346,0.4620155394077301,0.891108512878418
1789317796220065500,1.4690654296875,0.09081520885229111,0.20564179122447968,2.5283451080322266
1789317796230020900,1.479020751953125,-0.6286934614181519,0.1661844253540039,2.774627923965454
1789317796239975700,1.4889755859375,-0.09317998588085175,-1.503884196281433,0.8697344660758972
1789317796249930500,1.498930419921875,0.6008451581001282,0.3583741784095764,-1.8138755559921265
1789317796259885600,1.508885498046875,0.5099759697914124,0.2781243622303009,-2.567779779434204
1789317796269840600,1.518840576171875,-0.16623622179031372,0.7813044190406799,-2.754913806915283
1789317796279795700,1.528795654296875,-0.9579530358314514,0.4840173125267029,-0.7944971323013306
1789317796289749500,1.53874951171875,-0.8372634053230286,-0.5399041771888733,0.6560267210006714
1789317796299704600,1.54870458984375,-0.3065475821495056,-1.045095682144165,1.4260467290878296
1789317796309659600,1.55865966796875,0.1601807028055191,0.5466973781585693,1.806416630744934
1789317796319614700,1.56861474609375,0.5847229361534119,2.0621752738952637,0.712414562702179
1789317796329569500,1.578569580078125,0.15173742175102234,-0.8774017691612244,0.7749621868133545
1789317796339524900,1.58852490234375,-0.8166459798812866,-2.005915880203247,0.8604182600975037
1789317796349479700,1.598479736328125,-0.9666138887405396,-1.5584657192230225,0.4069024920463562
1789317796359434500,1.6084345703125,-0.10008276998996735,2.3242876529693604,-0.9673115015029907
1789317796369388500,1.618388427734375,0.8955859541893005,2.8228538036346436,-2.508436441421509
1789317796379344000,1.62834375,0.509633481502533,0.33600080013275146,-3.4529058933258057
1789317796389298700,1.638298583984375,-1.0751463174819946,-0.15919078886508942,-1.9059252738952637
1789317796399253500,1.64825341796875,-1.3094631433486938,-1.2483640909194946,-0.4836922883987427
1789317796409208600,1.65820849609375,-0.4724741280078888,0.07214774936437607,1.507987141609192
1789317796419163600,1.66816357421875,0.3515009880065918,-0.09376958757638931,3.0946552753448486
1789317796429118700,1.67811865234375,0.3934621214866638,-0.9027338624000549,3.477652072906494
1789317796439072500,1.688072509765625,-0.10713175684213638,-0.8150013089179993,3.593376398086548
1789317796449027600,1.698027587890625,0.028776012361049652,-1.0317398309707642,1.8155211210250854
1789317796458982700,1.707982666015625,0.3947851359844208,0.9911852478981018,-0.8688480854034424
1789317796468937700,1.717937744140625,0.538487434387207,3.333390235900879,-2.900981903076172
1789317796478892500,1.727892578125,0.2373766303062439,1.675888180732727,-5.170101642608643
1789317796488847600,1.73784765625,-0.5008825063705444,-1.171942949295044,-5.2974677085876465
1789317796498802700,1.747802734375,-0.7012345194816589,-1.1941806077957153,-3.238152265548706
1789317796508757500,1.757757568359375,-0.04982245713472366,-2.901601791381836,1.155842900276184
1789317796518711600,1.767711669921875,0.27513113617897034,0.8254359364509583,4.581736087799072
1789317796528666600,1.77766650390625,0.4921087920665741,4.077348709106445,5.268465518951416
1789317796538621700,1.78762158203125,0.39336729049682617,-1.224226713180542,1.8729397058486938
1789317796548576500,1.797576416015625,-0.34154659509658813,-2.450780153274536,0.10365838557481766
1789317796558531800,1.80753173828125,-0.1538858711719513,-3.555227279663086,0.25911110639572144
1789317796568486700,1.817486572265625,0.6460523009300232,-3.5843636989593506,1.4898467063903809
1789317796578441700,1.827441650390625,1.1503257751464844,0.9395619034767151,1.3101162910461426
1789317796588396500,1.837396484375,1.3309279680252075,5.021568298339844,-0.5030199885368347
1789317796598350800,1.847350830078125,0.7806462049484253,6.573720455169678,-3.1144859790802
1789317796608305700,1.8573056640625,-0.9891857504844666,-1.0241739749908447,-5.270338535308838
1789317796618260700,1.8672607421875,-2.3856003284454346,-1.4234107732772827,-3.580167531967163
1789317796628215600,1.877215576171875,-1.31234610080719,-0.6098460555076599,-0.698336660861969
1789317796638170600,1.887170654296875,1.3711897134780884,-1.535423755645752,2.887195110321045
1789317796648125700,1.897125732421875,2.7117066383361816,-0.061191949993371964,4.011816024780273
1789317796658080500,1.90708056640625,1.993506669998169,2.090585231781006,4.081249237060547
1789317796668034600,1.91703466796875,0.6178422570228577,0.8998745083808899,2.8699309825897217
1789317796677989600,1.92698974609375,-0.8645259737968445,0.8771896958351135,-0.7249332070350647
1789317796687944700,1.93694482421875,-1.8011773824691772,-1.3113057613372803,-2.5821616649627686
1789317796697899500,1.9468994140625,-1.5555297136306763,-1.9410860538482666,-3.2194747924804688
1789317796707854800,1.956854736328125,-0.2472204715013504,-0.9137009978294373,-2.2479658126831055
1789317796717809700,1.9668095703125,1.1243140697479248,3.345172643661499,-0.8618385791778564
1789317796727764500,1.976764404296875,1.5602251291275024,2.638749837875366,0.39374807476997375
1789317796737719600,1.986719482421875,0.3800518810749054,0.2635573744773865,1.6171544790267944
1789317796747673900,1.996673828125,-0.9783101677894592,-1.4078744649887085,1.6482404470443726
1789317796757628700,2.006628662109375,-1.1930298805236816,-1.1041877269744873,0.7734554409980774
1789317796767583500,2.01658349609375,-0.73611980676651,-1.4702597856521606,0.8314974904060364
1789317796777538600,2.02653857421875,-0.09085078537464142,-0.023111384361982346,0.617161750793457
1789317796787493600,2.03649365234375,0.248090922832489,0.7631248831748962,1.4639949798583984
1789317796797448700,2.04644873046875,0.585818350315094,2.676504135131836,-0.15349343419075012
1789317796807403500,2.056403564453125,0.3807905316352844,1.8928827047348022,-1.82125723361969
1789317796817357600,2.066357666015625,-0.49552103877067566,-0.7854501008987427,-2.9894745349884033
1789317796827312600,2.076312744140625,-1.2601238489151,-2.392800807952881,-2.2816720008850098
1789317796837267700,2.086267822265625,-0.9097983241081238,-1.8347190618515015,-0.6563106179237366
1789317796847222500,2.096222412109375,0.07419589161872864,3.549285888671875,0.9129875302314758
1789317796857177900,2.106177734375,0.7766333818435669,1.4438649415969849,1.959110140800476
1789317796867132700,2.116132568359375,-0.024965712800621986,-0.07978743314743042,2.365812301635742
1789317796877087500,2.12608740234375,-0.8877931237220764,-1.3639380931854248,1.747829794883728
1789317796887042800,2.136042724609375,-0.6851857304573059,-2.65667724609375,0.29360419511795044
1789317796896996900,2.145996826171875,-0.0457647331058979,2.853534698486328,-1.7860499620437622
1789317796906951700,2.15595166015625,0.2965959310531616,1.9882965087890625,-2.2430381774902344
1789317796916906500,2.165906494140625,-0.23007984459400177,0.11442482471466064,-2.4624898433685303
1789317796926861800,2.17586181640625,-1.1903841495513916,-1.3853753805160522,-0.6820339560508728
1789317796936816600,2.185816650390625,-1.2128205299377441,-3.3793861865997314,1.6841117143630981
1789317796946771700,2.195771728515625,-0.5205897092819214,-2.253903388977051,3.017749786376953
1789317796956726500,2.2057265625,0.5415838956832886,4.682181358337402,2.713130474090576
1789317796966680800,2.215680908203125,1.2111347913742065,2.8475160598754883,0.15720458328723907
1789317796976635600,2.2256357421875,-0.4540937840938568,-1.594406247138977,-2.1137492656707764
1789317796986590700,2.2355908203125,-2.2923648357391357,-1.560370922088623,-1.37260103225708
1789317796996545500,2.245545654296875,-1.9389756917953491,-3.9038214683532715,0.480068176984787
1789317797006500600,2.25550048828125,-0.42800551652908325,-2.517055034637451,1.391831398010254
1789317797016455700,2.26545556640625,1.0322248935699463,4.937887191772461,0.4532674252986908
1789317797026410500,2.275410400390625,1.4271953105926514,3.4248549938201904,-0.060002878308296204
1789317797036365800,2.28536572265625,-0.21424615383148193,0.8038173913955688,-1.0493804216384888
1789317797046319600,2.295319580078125,-2.37058687210083,-2.0293874740600586,-0.07360029965639114
1789317797056274700,2.305274658203125,-2.412935972213745,-4.691653251647949,-0.4230669438838959
1789317797066229500,2.3152294921875,-1.1934258937835693,3.936638116836548,-1.1678650379180908
1789317797076184800,2.325184814453125,0.3896944522857666,3.5974645614624023,-0.7834856510162354
1789317797086139600,2.3351396484375,0.34253254532814026,-1.1019073724746704,-0.6203608512878418
1789317797096094700,2.3450947265625,-1.0051497220993042,-1.8060569763183594,1.049232840538025
1789317797106049500,2.355049560546875,-0.7538171410560608,-4.0863213539123535,1.2369720935821533
1789317797116003800,2.36500390625,-0.04844614118337631,-0.5676403045654297,0.393168181180954
1789317797125958700,2.374958740234375,0.037739347666502,3.7499704360961914,0.5763640999794006
1789317797135913700,2.384913818359375,-0.3829104006290436,1.1098026037216187,0.40629279613494873
1789317797145868500,2.39486865234375,-1.5958592891693115,-0.7483142018318176,0.55076003074646
1789317797155823600,2.40482373046875,-1.7803806066513062,-1.7400805950164795,-0.6159383058547974
1789317797165778400,2.4147783203125,-0.5583644509315491,-1.1054989099502563,-1.9335622787475586
1789317797175733200,2.424733154296875,0.3273558020591736,-0.9189133644104004,-1.1948320865631104
1789317797185688600,2.4346884765625,0.6351675987243652,1.5916556119918823,-0.5571391582489014
1789317797195642400,2.444642333984375,0.4158765375614166,1.7212783098220825,0.09312619268894196
1789317797205597400,2.454597412109375,-0.6545087695121765,-0.5102399587631226,0.963699221611023
1789317797215552300,2.46455224609375,-1.749477505683899,-1.515352487564087,1.4245216846466064
1789317797225507600,2.474507568359375,-1.5841500759124756,-2.239591121673584,1.638761043548584
1789317797235462400,2.48446240234375,-0.5238474011421204,-1.2247015237808228,1.274909257888794
1789317797245417500,2.49441748046875,0.5004012584686279,0.27148211002349854,1.015669584274292
1789317797255372300,2.504372314453125,0.9756959080696106,1.8143984079360962,-0.1476312130689621
1789317797265326600,2.51432666015625,0.4125739336013794,1.6033247709274292,-1.2355809211730957
1789317797275281400,2.524281494140625,-0.4709976613521576,-0.8191482424736023,-2.1627016067504883
1789317797285236500,2.534236572265625,-1.0446354150772095,-2.418041229248047,-2.430161714553833
1789317797295191300,2.54419140625,-1.0615708827972412,-1.6363863945007324,-0.5176625847816467
1789317797305146400,2.554146484375,-0.22268997132778168,-0.29998594522476196,1.3806134462356567
1789317797315101400,2.564101318359375,0.40620458126068115,0.8360588550567627,2.983907461166382
1789317797325056300,2.57405615234375,0.32612159848213196,1.7056021690368652,2.8149969577789307
1789317797335011600,2.584011474609375,-0.08705265074968338,0.6398276686668396,1.1490286588668823
1789317797344965400,2.59396533203125,-0.44203850626945496,-1.3721097707748413,-1.2963155508041382
1789317797354920400,2.60392041015625,-0.8342166543006897,-1.7791640758514404,-2.151158571243286
1789317797364875300,2.613875244140625,-0.9597060084342957,-1.3640151023864746,-0.6922644972801208
1789317797374830600,2.62383056640625,-0.3754449486732483,-0.604540228843689,0.4755382239818573
1789317797384785400,2.633785400390625,0.4935528635978699,0.6127147078514099,0.2967054843902588
1789317797394740200,2.643740234375,0.8606534004211426,2.242534637451172,-0.2285630851984024
1789317797404695600,2.653695556640625,0.43165868520736694,0.8233907222747803,-0.2500230073928833
1789317797414649600,2.663649658203125,-0.5460212826728821,-1.7494052648544312,-0.2401767373085022
1789317797424604400,2.6736044921875,-1.2067519426345825,-2.2278196811676025,0.10898350924253464
1789317797434559200,2.683559326171875,-0.40447115898132324,1.2482950687408447,-0.43645477294921875
1789317797444514600,2.6935146484375,0.7367894649505615,0.4960916340351105,-0.8326488733291626
1789317797454469400,2.703469482421875,0.562282919883728,0.774645209312439,-0.8046736717224121
1789317797464424400,2.713424560546875,0.03127972036600113,0.0733371376991272,-0.6472460031509399
1789317797474379300,2.723379150390625,-0.1266566514968872,-2.0848851203918457,-0.1512915939092636
1789317797484333600,2.73333349609375,-0.0730946958065033,1.2125015258789062,-0.5126087069511414
1789317797494288400,2.743288330078125,0.3647926449775696,2.009495258331299,-0.9423584938049316
1789317797504243500,2.753243408203125,0.08865959197282791,-0.6349228024482727,-0.0983746349811554
1789317797514198300,2.7631982421875,-0.6383453011512756,-1.073722004890442,0.6935173869132996
1789317797524153300,2.7731533203125,-0.5442814826965332,-1.9848796129226685,1.7682888507843018
1789317797534108400,2.7831083984375,0.5825855731964111,0.1655382513999939,0.7280580401420593
1789317797544063200,2.793063232421875,1.161132574081421,0.6596564650535583,0.39103931188583374
1789317797554017300,2.803017333984375,0.7590798735618591,0.13594718277454376,0.2120082825422287
1789317797563972400,2.812972412109375,-0.0308541152626276,-0.889809787273407,0.0674910694360733
1789317797573927400,2.822927490234375,-0.6603873372077942,-1.7694172859191895,1.1651637554168701
1789317797583882200,2.83288232421875,-0.24428676068782806,1.6206196546554565,-0.2928096652030945
1789317797593837600,2.842837646484375,0.7496113777160645,2.9483561515808105,-1.7181243896484375
1789317797603792400,2.85279248046875,0.800227165222168,-0.62153559923172,-2.018721342086792
1789317797613747500,2.86274755859375,-0.17606207728385925,-1.2995527982711792,-1.8652056455612183
1789317797623702300,2.872702392578125,-0.21803031861782074,-0.9387087225914001,-1.5071386098861694
1789317797633656600,2.882656494140625,0.36916929483413696,0.9343499541282654,-0.18767571449279785
1789317797643611400,2.892611328125,0.3387589752674103,-1.8924074172973633,2.7577097415924072
1789317797653566500,2.90256640625,-0.3592590093612671,-0.8063428997993469,3.6373603343963623
1789317797663521300,2.912521240234375,-0.018916409462690353,1.4153491258621216,1.2262145280838013
1789317797673476400,2.922476318359375,0.30450454354286194,0.5175898671150208,0.07047374546527863
1789317797683431400,2.932431396484375,-0.04599597677588463,-0.09365608543157578,-0.7755261063575745
1789317797693386200,2.94238623046875,-0.3382909595966339,-0.9136428833007812,-1.0982626676559448
1789317797703340300,2.95234033203125,-0.00235355063341558,-1.022505521774292,-1.8693116903305054
1789317797713295400,2.96229541015625,0.2870505750179291,1.2688390016555786,-2.171429395675659
1789317797723250400,2.97225048828125,0.13759289681911469,0.013343429192900658,0.35925906896591187
1789317797733205200,2.982205322265625,-0.035039324313402176,0.1919858753681183,1.4551160335540771
1789317797743160600,2.99216064453125,0.0869600921869278,1.8054336309432983,1.3975528478622437
1789317797753115400,3.002115478515625,0.20304913818836212,-1.2121872901916504,0.5774109959602356
1789317797763070500,3.012070556640625,-0.3768704831600189,-1.6921120882034302,0.753497838973999
1789317797773024300,3.022024169921875,-0.31601113080978394,-2.275716543197632,1.364090085029602
1789317797782979600,3.0319794921875,0.521917998790741,-1.3163695335388184,0.5526381134986877
1789317797792934400,3.041934326171875,1.0327754020690918,2.2783443927764893,-0.861330509185791
1789317797802889500,3.051889404296875,0.767868161201477,2.7742204666137695,-2.052180290222168
1789317797812844500,3.061844482421875,-0.16300462186336517,1.2865489721298218,-3.1391687393188477
1789317797822799400,3.07179931640625,-0.9901580810546875,-1.893190860748291,-2.1868913173675537
1789317797832754400,3.08175439453125,-1.0317656993865967,-2.557391881942749,0.03999657928943634
1789317797842708200,3.091708251953125,-0.03480516001582146,0.544666588306427,1.0161327123641968
1789317797852663600,3.10166357421875,1.081258773803711,1.3427469730377197,2.40956974029541
1789317797862618400,3.111618408203125,1.276761770248413,0.43908271193504333,2.642929792404175
1789317797872573400,3.121573486328125,0.4198164641857147,-0.18826164305210114,1.8849295377731323
1789317797882528300,3.1315283203125,-0.36062681674957275,-0.9621389508247375,0.23733103275299072
1789317797892483600,3.141483642578125,-0.38334277272224426,-1.2729612588882446,-1.938702940940857
1789317797902438400,3.1514384765625,-0.3053997755050659,-1.0930737257003784,-1.4073535203933716
1789317797912393200,3.161393310546875,0.11615812033414841,0.30658459663391113,-0.8938217163085938
1789317797922347300,3.17134716796875,0.5494149327278137,2.6494479179382324,-0.3034009635448456
1789317797932302600,3.181302490234375,0.8128846287727356,1.9651780128479004,-0.800295889377594
1789317797942257400,3.19125732421875,0.1886976808309555,-1.6468108892440796,-0.4520677626132965
1789317797952212200,3.201212158203125,-0.6740498542785645,-2.486018657684326,0.7038618326187134
1789317797962167600,3.21116748046875,-0.3895705044269562,-1.0608752965927124,1.0881028175354004
1789317797972122400,3.221122314453125,0.4743645191192627,0.3009413480758667,1.3747081756591797
1789317797982077400,3.231077392578125,0.6375802159309387,0.6296930909156799,1.6533654928207397
1789317797992031200,3.24103125,0.15936490893363953,0.4716091752052307,1.6991606950759888
1789317798001986600,3.250986572265625,0.0014667506329715252,-0.3515840172767639,-0.17291662096977234
1789317798011941400,3.26094140625,0.12294311821460724,1.3864121437072754,-2.5882139205932617
1789317798021896400,3.270896484375,0.07432051748037338,0.2267259806394577,-2.761955976486206
1789317798031851300,3.280851318359375,-0.27901890873908997,-1.7906227111816406,-1.8395475149154663
1789317798041806300,3.290806396484375,-0.5909675359725952,-1.515481948852539,-0.00029937317594885826
1789317798051761400,3.300761474609375,-0.12909258902072906,-0.7684786319732666,1.9350570440292358
1789317798061715500,3.310715576171875,0.6696126461029053,2.050034523010254,1.8387863636016846
1789317798071670300,3.320670166015625,0.8488225936889648,1.608952283859253,1.013566017150879
1789317798081625300,3.330625244140625,-0.028201207518577576,-0.779231071472168,0.17558376491069794
1789317798091580400,3.340580322265625,-1.1442610025405884,-2.242828369140625,0.0836530402302742
1789317798101535200,3.35053515625,-1.3490265607833862,-2.5390355587005615,0.8317812085151672
1789317798111490600,3.360490478515625,-0.2807671129703522,-1.195235013961792,1.2330676317214966
1789317798121445400,3.3704453125,1.8342599868774414,6.404484272003174,-2.2648329734802246
1789317798131399400,3.3803994140625,1.7577673196792603,1.0324708223342896,-3.052037239074707
1789317798141354200,3.390354248046875,-0.8040664792060852,-1.3482410907745361,-2.438255548477173
1789317798151309600,3.4003095703125,-2.394472122192383,-2.261347532272339,-0.4555768668651581
1789317798161264400,3.410264404296875,-1.2503063678741455,-4.07697057723999,1.7714992761611938
1789317798171219500,3.420219482421875,0.979313313961029,4.551785945892334,1.3243985176086426
1789317798181174300,3.43017431640625,2.0623276233673096,1.9185689687728882,1.1106806993484497
1789317798191129000,3.440129150390625,0.7773078083992004,0.06132228672504425,0.5654453635215759
1789317798201083400,3.45008349609375,-0.9629010558128357,-2.2602245807647705,1.0286082029342651
1789317798211038500,3.46003857421875,-1.0825837850570679,-4.511782169342041,0.8938772082328796
1789317798220993300,3.4699931640625,0.3412891626358032,3.5174829959869385,-2.5320749282836914
1789317798230948000,3.479947998046875,1.2449239492416382,3.0099246501922607,-2.636212110519409
1789317798240903400,3.4899033203125,0.5124870538711548,0.22005024552345276,-2.518911123275757
1789317798250858200,3.499858154296875,-1.3640644550323486,-0.8542468547821045,0.10712264478206635
1789317798260813300,3.509813232421875,-1.5639065504074097,-2.5599260330200195,1.747131586074829
1789317798270767000,3.51976708984375,-0.07621419429779053,-1.7951200008392334,1.7017076015472412
1789317798280722400,3.529722412109375,1.0922520160675049,-0.7540813088417053,2.2987313270568848
1789317798290677200,3.53967724609375,1.2165062427520752,1.4377726316452026,1.5674573183059692
1789317798300632300,3.54963232421875,0.38075608015060425,3.1732630729675293,0.5497310161590576
1789317798310587400,3.55958740234375,-0.74371737241745,-0.13024424016475677,-1.7265334129333496
1789317798320542200,3.569542236328125,-1.560631513595581,-3.065742254257202,-1.556694746017456
1789317798330497300,3.579497314453125,-1.340957760810852,-3.6753265857696533,-0.15479154884815216
1789317798340451300,3.589451416015625,-0.0036719581112265587,-1.9331823587417603,0.9295515418052673
1789317798350406400,3.599406494140625,1.240028738975525,6.662280082702637,0.6756166219711304
1789317798360361200,3.609361328125,1.5374634265899658,3.5469141006469727,0.47955968976020813
1789317798370316300,3.61931640625,-0.2312956005334854,-2.5111870765686035,0.09991887956857681
1789317798380271400,3.629271240234375,-1.939502239227295,-3.58897066116333,0.5832048058509827
1789317798390226400,3.639226318359375,-1.2243915796279907,-4.166116714477539,0.2280331552028656
1789317798400181200,3.64918115234375,0.6433634161949158,3.6499428749084473,-1.0131947994232178
1789317798410135300,3.65913525390625,1.6534135341644287,3.565023422241211,-0.5092770457267761
1789317798420090400,3.66909033203125,0.8538258671760559,1.6863179206848145,-1.9011828899383545
1789317798430045400,3.67904541015625,-1.0316129922866821,-1.4454255104064941,-1.9516547918319702
1789317798440000300,3.689000244140625,-1.2329460382461548,-4.254879951477051,-1.125484824180603
1789317798449955300,3.698955322265625,-0.5533390045166016,-4.179121971130371,2.146055221557617
1789317798459910400,3.708910400390625,0.34815213084220886,0.3398703336715698,4.179354667663574
1789317798469865200,3.718865234375,1.4996589422225952,5.036284923553467,2.955911159515381
1789317798479819300,3.7288193359375,1.471491813659668,4.235880374908447,-0.7483123540878296
1789317798489774300,3.7387744140625,-0.4720146656036377,-2.465651750564575,-3.313213586807251
1789317798499729400,3.7487294921875,-1.898414969444275,-2.2756259441375732,-2.225475788116455
1789317798509684200,3.758684326171875,-0.7897781133651733,-3.2819454669952393,-0.7626503109931946
1789317798519639300,3.768639404296875,1.062287449836731,-0.29350072145462036,0.33433443307876587
1789317798529594400,3.778594482421875,2.1697146892547607,7.527098178863525,0.22498957812786102
1789317798539549400,3.788549560546875,2.1607885360717773,-0.3238157629966736,0.006106886081397533
1789317798549503200,3.798503173828125,-0.1272202581167221,-2.3489491939544678,0.22114382684230804
1789317798559458300,3.808458251953125,-1.4310858249664307,-1.8145045042037964,0.7938454151153564
1789317798569413400,3.818413330078125,-0.2759248614311218,-2.5255062580108643,0.38615694642066956
1789317798579368400,3.828368408203125,0.7984046339988708,2.185518741607666,0.8470990061759949
1789317798589323300,3.8383232421875,1.2943960428237915,3.2736549377441406,0.6714637875556946
1789317798599278300,3.8482783203125,1.2436517477035522,1.1930599212646484,-0.5309103727340698
1789317798609233400,3.8582333984375,0.5559418797492981,-0.8128830194473267,-2.0396671295166016
1789317798619187500,3.8681875,-0.06546734273433685,0.20733888447284698,-2.468437671661377
1789317798629142300,3.878142333984375,0.1641533225774765,-1.782041311264038,-0.6550983786582947
1789317798639097000,3.88809716796875,0.5040850043296814,-1.9205642938613892,1.6138767004013062
1789317798649052400,3.898052490234375,0.7284232974052429,2.253016233444214,2.226815938949585
1789317798659007200,3.90800732421875,1.195984959602356,2.2698071002960205,1.6788185834884644
1789317798668962300,3.91796240234375,0.7698675394058228,-0.6519470810890198,1.8093920946121216
1789317798678916000,3.927916015625,-0.3816028833389282,-1.7920238971710205,2.216367244720459
1789317798688871400,3.937871337890625,-0.42783427238464355,-1.7850030660629272,0.5736071467399597
1789317798698826200,3.947826171875,0.4309023916721344,1.713247299194336,-1.8206771612167358
1789317798708781300,3.95778125,0.9043546319007874,5.639031887054443,-2.6574177742004395
1789317798718736400,3.967736328125,0.6016957759857178,-1.1462281942367554,-3.5030431747436523
1789317798728691500,3.97769140625,-0.5569273233413696,-1.8086905479431152,-2.045698404312134
1789317798738646300,3.987646240234375,-0.3782111704349518,0.6771385669708252,-0.8573561310768127
1789317798748600300,3.997600341796875,0.9153758883476257,0.2593325078487396,0.3958854079246521
1789317798758555400,4.007555419921875,0.9474001526832581,-1.1496100425720215,2.8306727409362793
1789317798768510500,4.017510498046875,0.03851493075489998,0.3691198229789734,3.5948965549468994
1789317798778465300,4.02746533203125,-0.1862770915031433,-0.39828598499298096,3.1827340126037598
1789317798788420000,4.037420166015625,0.03913206234574318,0.12524569034576416,1.2340242862701416
1789317798798375400,4.04737548828125,-0.10232017934322357,1.1168360710144043,-0.6358204483985901
1789317798808330200,4.057330322265625,-0.2501642107963562,-0.27849334478378296,-0.9170478582382202
1789317798818284300,4.0672841796875,-0.1531960815191269,-0.9742466807365417,-1.1543779373168945
1789317798828239000,4.077239013671875,0.06879010796546936,0.3199118971824646,-1.8429166078567505
1789317798838194400,4.0871943359375,0.42947182059288025,3.308053970336914,-2.2769339084625244
1789317798848149200,4.097149169921875,0.6085808873176575,0.4810265898704529,-1.6469941139221191
1789317798858104300,4.107104248046875,-0.21282552182674408,-0.6133103370666504,-0.21760788559913635
1789317798868059400,4.117059326171875,-0.8361607193946838,-0.8308951258659363,1.0845465660095215
1789317798878014200,4.12701416015625,-0.4008030295372009,-0.31195560097694397,2.0009593963623047
1789317798887968300,4.13696826171875,0.40955638885498047,2.5410783290863037,1.1242895126342773
1789317798897923300,4.14692333984375,0.2716170847415924,-0.39041879773139954,1.1761051416397095
1789317798907878400,4.15687841796875,-0.44372743368148804,-2.020606279373169,0.8397042155265808
1789317798917833200,4.166833251953125,-0.8034390807151794,-2.2786917686462402,0.46856722235679626
1789317798927788300,4.176788330078125,-0.5231587290763855,-0.9277496933937073,0.35431575775146484
1789317798937743400,4.186743408203125,0.2741479277610779,3.7723944187164307,-0.690011203289032
1789317798947697400,4.196697509765625,0.46468299627304077,1.6648634672164917,-0.627016007900238
1789317798957652200,4.20665234375,-0.4193843901157379,1.0113582611083984,-2.111945152282715
1789317798967607300,4.216607177734375,-1.4010279178619385,-1.457126259803772,-1.2095396518707275
1789317798977562400,4.226562255859375,-1.1277778148651123,-2.7348146438598633,-1.129937767982483
1789317798987517400,4.236517333984375,-0.4337451756000519,2.5712788105010986,-0.6548705697059631
1789317798997472300,4.24647216796875,0.5649362206459045,0.2321215718984604,0.9363355040550232
1789317799007427300,4.25642724609375,0.405762255191803,2.3448705673217773,0.6073147058486938
1789317799017381400,4.26638134765625,-0.5163996815681458,-1.7806832790374756,1.20651376247406
1789317799027336400,4.27633642578125,-1.2190874814987183,-4.198531627655029,2.4296348094940186
1789317799037291300,4.286291259765625,-0.9701700806617737,-2.770256757736206,1.8186442852020264
1789317799047246300,4.296246337890625,-0.05893012136220932,0.41378507018089294,1.1543797254562378
1789317799057201400,4.306201416015625,0.7565112709999084,4.337833404541016,-0.7435528039932251
1789317799067156200,4.31615625,0.2598833739757538,3.855595827102661,-2.4148342609405518
1789317799077111300,4.326111328125,-1.2280324697494507,-2.0926880836486816,-2.4679300785064697
1789317799087065300,4.3360654296875,-1.9724637269973755,-3.3260385990142822,-1.3155639171600342
1789317799097020400,4.3460205078125,-1.0003126859664917,-1.9145207405090332,-0.5128327012062073
1789317799106975200,4.355975341796875,0.41159680485725403,2.0672433376312256,1.148681879043579
1789317799116930300,4.365930419921875,1.1514911651611328,1.5204603672027588,2.4580490589141846
1789317799126885400,4.375885498046875,0.5692522525787354,3.9447250366210938,0.9518903493881226
1789317799136840400,4.38584033203125,-0.6366790533065796,-1.235136866569519,0.05944695323705673
1789317799146795300,4.395795166015625,-1.3926713466644287,-4.127284526824951,-0.18330390751361847
1789317799156749300,4.405749267578125,-1.219528079032898,-3.639347553253174,0.19493676722049713
1789317799166704400,4.415704345703125,0.16433407366275787,3.6967320442199707,-0.2803458571434021
1789317799176659500,4.425659423828125,1.4380290508270264,3.0567588806152344,-0.6024396419525146
1789317799186614500,4.435614501953125,0.7756761908531189,1.6868195533752441,-2.0021274089813232
1789317799196569300,4.4455693359375,-0.88926762342453,-1.7426186800003052,-0.7912675738334656
1789317799206524400,4.4555244140625,-1.220808744430542,-4.87359619140625,0.5724695324897766
1789317799216478500,4.465478515625,-0.637380063533783,-1.785125970840454,0.9143069386482239
1789317799226433500,4.47543359375,0.23123840987682343,2.7088944911956787,1.9926778078079224
1789317799236388400,4.485388427734375,0.9985718131065369,2.3401410579681396,1.6726129055023193
1789317799246343400,4.495343505859375,0.22590462863445282,2.502652406692505,0.2778569459915161
1789317799256298200,4.50529833984375,-0.9391807317733765,-1.5377954244613647,-1.3480255603790283
1789317799266253600,4.515253662109375,-1.0982263088226318,-3.5629923343658447,-2.096630811691284
1789317799276208400,4.52520849609375,-0.4769218862056732,-3.215341329574585,-1.097779631614685
1789317799286162400,4.535162353515625,0.26604706048965454,-0.8848112225532532,1.4224321842193604
1789317799296117200,4.5451171875,1.1645660400390625,5.702894687652588,1.5534085035324097
1789317799306072600,4.555072509765625,1.3152401447296143,4.388480186462402,-0.3187108039855957
1789317799316027400,4.56502734375,-0.6088799834251404,-3.9483485221862793,-1.7561886310577393
1789317799325982200,4.574982177734375,-2.1520304679870605,-2.2862136363983154,-1.2681851387023926
1789317799335937500,4.5849375,-1.249151587486267,-3.533273458480835,1.0628172159194946
1789317799345892400,4.594892333984375,0.3989610970020294,-1.5416419506072998,2.6373801231384277
1789317799355846400,4.604846435546875,1.56108558177948,6.135470867156982,1.4092901945114136
1789317799365801200,4.61480126953125,1.6514338254928589,4.43643045425415,-0.5935676693916321
1789317799375756500,4.624756591796875,-0.22241871058940887,-2.979443073272705,-2.8778436183929443
1789317799385711400,4.63471142578125,-1.9983452558517456,-2.0941145420074463,-2.43446946144104
1789317799395666400,4.64466650390625,-1.4798319339752197,-4.094353199005127,0.5429038405418396
1789317799405621200,4.654621337890625,0.18686449527740479,-1.3911218643188477,2.1409943103790283
1789317799415575600,4.664575439453125,1.612526535987854,6.44455099105835,1.7102794647216797
1789317799425530400,4.6745302734375,1.8707869052886963,3.6458466053009033,0.03360738232731819
1789317799435485400,4.6844853515625,-0.0544523186981678,-2.1569018363952637,-2.355311870574951
1789317799445440300,4.694440185546875,-1.782989263534546,-2.7541112899780273,-1.9321513175964355
1789317799455395600,4.7043955078125,-1.3425493240356445,-3.8003437519073486,-0.30761855840682983
1789317799465350400,4.714350341796875,0.210863396525383,1.540492057800293,0.4274197518825531
1789317799475305200,4.72430517578125,1.5202219486236572,3.9813601970672607,0.9357951879501343
1789317799485259300,4.73425927734375,1.5179420709609985,3.683910846710205,-0.14990825951099396
1789317799495214300,4.74421435546875,-0.009908083826303482,-2.1843020915985107,-1.8210809230804443
1789317799505169400,4.75416943359375,-1.253296971321106,-2.9313318729400635,-1.0591521263122559
1789317799515124200,4.764124267578125,-0.7560529708862305,-2.1333372592926025,-0.08638136833906174
1789317799525079600,4.77407958984375,0.31500646471977234,-0.48493632674217224,1.6912299394607544
1789317799535034400,4.784034423828125,0.8353638052940369,2.6903107166290283,2.5244534015655518
1789317799544988400,4.793988525390625,1.102218747138977,4.2642436027526855,1.1112587451934814
1789317799554943200,4.803943115234375,0.3923361897468567,-1.4316226243972778,-1.838440179824829
1789317799564898600,4.813898681640625,-0.7447057366371155,-1.9908769130706787,-2.8079416751861572
1789317799574853400,4.823853271484375,-0.8240709900856018,-2.2415361404418945,-0.7883985638618469
1789317799584808400,4.833808349609375,0.31942513585090637,-2.399162530899048,1.4966639280319214
1789317799594763500,4.843763427734375,1.2335041761398315,1.2269076108932495,2.190105676651001
1789317799604718300,4.85371826171875,1.8065415620803833,8.794211387634277,0.5201506614685059
1789317799614672400,4.86367236328125,1.2606396675109863,-3.6100616455078125,-2.678581714630127
1789317799624627500,4.87362744140625,-0.8742954134941101,-1.6637024879455566,-2.142995834350586
1789317799634582500,4.88358251953125,-1.2987968921661377,-1.6316707134246826,0.186073437333107
1789317799644537300,4.893537353515625,0.26693034172058105,-3.429908037185669,2.7316412925720215
1789317799654492400,4.903492431640625,1.5479729175567627,4.196009159088135,2.022834300994873
1789317799664447200,4.913447265625,2.2323076725006104,5.804049015045166,0.9246575832366943
1789317799674402600,4.923402587890625,1.5086380243301392,-1.646081566810608,-1.2070454359054565
1789317799684356400,4.9333564453125,-0.7427991032600403,-1.6489380598068237,-1.9523097276687622
1789317799694311400,4.9433115234375,-1.4755895137786865,-1.6123560667037964,-1.1491791009902954
1789317799704266200,4.953266357421875,-0.2306053787469864,-0.6091413497924805,-0.24996188282966614
1789317799714221600,4.9632216796875,1.013633370399475,3.198051691055298,1.0226731300354004
1789317799724176400,4.97317626953125,1.7279109954833984,2.739814519882202,1.152544617652893
1789317799734131500,4.98313134765625,1.3044991493225098,0.31978216767311096,-0.44056758284568787
1789317799744085200,4.993085205078125,0.03368177264928818,-2.1300179958343506,-0.19060620665550232
1789317799754040600,5.00304052734375,-0.5264350771903992,-2.7304909229278564,-0.07327000796794891
1789317799763995400,5.012995361328125,-0.2390831857919693,-1.647766351699829,1.1740853786468506
1789317799773950500,5.022950439453125,0.2793296277523041,1.2616945505142212,2.194200277328491
1789317799783905500,5.032905517578125,0.6938719153404236,3.009089708328247,1.9468034505844116
1789317799793860400,5.0428603515625,0.4709901511669159,2.32354998588562,1.1371737718582153
1789317799803815400,5.0528154296875,-0.06151344254612923,0.6276339888572693,-1.489497423171997
1789317799813769200,5.062769287109375,-0.6938925385475159,-1.2270708084106445,-2.8223094940185547
1789317799823724500,5.072724609375,-0.7878017425537109,-2.010676145553589,-2.1526196002960205
1789317799833679400,5.082679443359375,-0.07581967860460281,1.2875233888626099,-0.9981919527053833
1789317799843634400,5.092634521484375,0.7652962803840637,0.3857063353061676,0.867404043674469
1789317799853589200,5.10258935546875,0.7395907640457153,2.379188299179077,0.5311501026153564
1789317799863544600,5.112544677734375,0.028342455625534058,1.8869889974594116,-0.5633337497711182
1789317799873498400,5.122498291015625,-0.963244616985321,-2.2106661796569824,-0.030848700553178787
1789317799883453400,5.132453369140625,-1.5721135139465332,-2.936707019805908,0.6364742517471313
1789317799893408300,5.142408203125,-0.8854164481163025,0.45856237411499023,1.3816592693328857
1789317799903363600,5.152363525390625,0.5633255839347839,1.7258392572402954,0.6486063599586487
1789317799913318400,5.162318359375,0.33748412132263184,2.694568634033203,-0.29357925057411194
1789317799923273200,5.172273193359375,-0.6718419194221497,0.6932228803634644,-0.9651293754577637
1789317799933227300,5.182227294921875,-1.1477608680725098,-3.5326380729675293,-0.3632057011127472
1789317799943182600,5.1921826171875,-1.222028136253357,-3.667707681655884,0.525274395942688
1789317799953137400,5.202137451171875,-0.5697470307350159,2.503737211227417,0.6430423855781555
1789317799963092200,5.21209228515625,0.521804928779602,2.081021785736084,1.1342614889144897
1789317799973047600,5.222047607421875,0.367648720741272,0.5927980542182922,0.6554344892501831
1789317799983002400,5.23200244140625,-0.7477307915687561,-0.18395787477493286,-0.02191203460097313
1789317799992957400,5.24195751953125,-1.0118763446807861,-2.350590705871582,-0.6627398133277893
1789317800002911200,5.2519111328125,-0.5886361002922058,1.9204519987106323,-1.8595492839813232
1789317800012866600,5.261866455078125,-0.0033209016546607018,2.7949905395507812,-2.005110502243042
1789317800022821400,5.2718212890625,-0.12930811941623688,-1.5323208570480347,-2.146804094314575
1789317800032776400,5.2817763671875,-0.8104120492935181,0.1379905790090561,-1.50239896774292
1789317800042731300,5.291731201171875,-0.8962484002113342,-2.8155617713928223,1.1523371934890747
1789317800052686300,5.301686279296875,-0.7335168719291687,-2.210644245147705,2.7865326404571533
1789317800062640400,5.311640380859375,-0.5902246832847595,0.07571873068809509,4.147304058074951
1789317800072595500,5.321595458984375,0.17943279445171356,2.984731435775757,2.6494300365448
1789317800082550300,5.33155029296875,0.1866409033536911,1.2591952085494995,0.8433905243873596
1789317800092505300,5.34150537109375,-0.8691843152046204,-0.4690839350223541,-0.8458097577095032
1789317800102460400,5.35146044921875,-1.260071873664856,-2.7265634536743164,-1.6450711488723755
1789317800112415200,5.361415283203125,-0.655463695526123,-3.4175682067871094,-1.3345717191696167
1789317800122369300,5.371369384765625,0.11728125065565109,-0.41247454285621643,-0.4699212908744812
1789317800132324400,5.381324462890625,0.9784802198410034,5.288474082946777,-0.5542168617248535
1789317800142279400,5.391279541015625,1.200326919555664,1.4182997941970825,-1.978825330734253
1789317800152234200,5.401234130859375,-0.45703408122062683,-2.320664882659912,-1.5805331468582153
1789317800162189600,5.411189453125,-1.635888934135437,-2.085740804672241,-0.05350591987371445
1789317800172144400,5.421144287109375,-0.7719383239746094,-2.6195218563079834,1.307320237159729
1789317800182099500,5.431099365234375,0.38002607226371765,0.6734120845794678,2.416259288787842
1789317800192053200,5.44105322265625,0.8320022225379944,1.961228609085083,2.807267189025879
1789317800202008600,5.451008544921875,0.6387331485748291,2.0084147453308105,1.1638484001159668
1789317800211963400,5.46096337890625,-0.0704600065946579,0.09236633032560349,-1.5196912288665771
1789317800221918500,5.47091845703125,-0.6994249224662781,-2.1672513484954834,-2.103559732437134
1789317800231873500,5.48087353515625,-0.6412838101387024,-3.7842938899993896,-0.3361668288707733
1789317800241828400,5.490828369140625,0.03955437242984772,-2.0960872173309326,1.2539888620376587
1789317800251782400,5.500782470703125,1.3854038715362549,7.229665279388428,-0.2995724081993103
1789317800261737500,5.510737548828125,1.7199413776397705,-0.24732525646686554,-1.8929107189178467
1789317800271692500,5.520692626953125,-0.3263101279735565,-2.495082378387451,-1.5518410205841064
1789317800281647400,5.5306474609375,-1.7273054122924805,-2.371337652206421,0.9328608512878418
1789317800291602400,5.5406025390625,-0.5105161666870117,-4.482244491577148,2.3246216773986816
1789317800301557200,5.55055712890625,0.8794829249382019,1.4320213794708252,1.5824905633926392
1789317800311512600,5.5605126953125,1.3475232124328613,6.434299945831299,1.1972901821136475
1789317800321466400,5.57046630859375,0.9447129368782043,1.2452418804168701,-1.3895480632781982
1789317800331421400,5.58042138671875,-1.0050179958343506,-1.901792287826538,-2.9345552921295166
1789317800341376300,5.590376220703125,-1.6110363006591797,-2.9400110244750977,-2.4854631423950195
1789317800351331600,5.60033154296875,-0.22217974066734314,-3.1941652297973633,-1.33689284324646
1789317800361286400,5.610286376953125,0.9886855483055115,0.7612744569778442,1.04490065574646
1789317800371241200,5.6202412109375,1.5043948888778687,2.4837684631347656,2.2709882259368896
1789317800381195300,5.6301953125,1.3213675022125244,5.40343713760376,-0.18436777591705322
1789317800391150600,5.640150634765625,-0.14150936901569366,-3.1071889400482178,-1.350276231765747
1789317800401105400,5.65010546875,-1.8358702659606934,-2.833411931991577,-0.5864549875259399
1789317800411060200,5.660060302734375,-1.3277366161346436,-2.8594486713409424,0.8034457564353943
1789317800421015600,5.670015625,0.7204238176345825,3.732323408126831,0.8842937350273132
1789317800430970400,5.679970458984375,1.9826241731643677,3.3237485885620117,0.8324835300445557
1789317800440924400,5.68992431640625,1.3562310934066772,0.5277534127235413,0.9621618986129761
1789317800450879200,5.699879150390625,0.10957769304513931,-1.9780551195144653,-0.10882362723350525
1789317800460834600,5.70983447265625,-0.38740411400794983,0.6809884309768677,-2.293769121170044
1789317800470789400,5.719789306640625,-0.09438225626945496,-0.8138530850410461,-1.6488527059555054
1789317800480744400,5.729744384765625,0.2118208259344101,-1.9139724969863892,0.3153934180736542
1789317800490699300,5.73969921875,0.4059077799320221,0.11125552654266357,1.646777868270874
1789317800500654300,5.749654296875,1.067410945892334,1.1030672788619995,1.6864306926727295
1789317800510608400,5.7596083984375,1.491498589515686,2.8969712257385254,-0.45384931564331055
1789317800520563500,5.7695634765625,0.991443932056427,1.3351119756698608,-2.124481678009033
1789317800530518300,5.779518310546875,-0.16612055897712708,-2.027013063430786,-1.4943886995315552
1789317800540473300,5.789473388671875,-0.7512617707252502,-2.1488497257232666,-0.29812735319137573
1789317800550428400,5.799428466796875,0.09810248017311096,-1.6619926691055298,1.2851049900054932
1789317800560383200,5.80938330078125,1.4520000219345093,3.3906304836273193,1.7806627750396729
1789317800570337300,5.819337158203125,2.0896377563476562,2.810497999191284,1.4554035663604736
1789317800580292400,5.829292236328125,1.1698694229125977,0.4789254069328308,0.39611557126045227
1789317800590247400,5.839247314453125,-0.23842890560626984,-1.6904650926589966,-0.29624491930007935
1789317800600202200,5.8492021484375,-0.5911587476730347,-3.521857261657715,0.10780135542154312
1789317800610157600,5.859157470703125,0.06679508835077286,-0.6101413369178772,0.1649656742811203
1789317800620112400,5.8691123046875,1.1097526550292969,2.741900682449341,0.4570164382457733
1789317800630066400,5.87906640625,1.4759215116500854,2.627480983734131,-0.19985303282737732
1789317800640021200,5.889021240234375,0.5917778015136719,1.2373589277267456,-0.38282763957977295
1789317800649976600,5.8989765625,-0.293139785528183,-2.0672032833099365,0.711413562297821
1789317800659931400,5.908931396484375,-0.45432573556900024,-2.287142753601074,0.44621938467025757
1789317800669886500,5.918886474609375,0.11811106652021408,1.938113808631897,-0.5713123083114624
1789317800679841500,5.928841552734375,0.6070746183395386,1.5029352903366089,-0.9074788689613342
1789317800689795600,5.938795654296875,0.23414501547813416,1.7232658863067627,-0.6155319213867188
1789317800699750400,5.94875048828125,-0.2899235486984253,-0.9430699348449707,-0.0043023731559515
1789317800709705500,5.95870556640625,-0.7089832425117493,-2.094393014907837,0.8742062449455261
1789317800719660500,5.96866064453125,-0.33171823620796204,-1.302284598350525,0.5298795104026794
1789317800729615400,5.978615478515625,0.17235331237316132,0.27411356568336487,0.8387838006019592
1789317800739570400,5.9885703125,0.4718033969402313,1.6379023790359497,0.9732366800308228
1789317800749525200,5.998525146484375,0.4667619466781616,2.495450496673584,-0.050924718379974365
1789317800759479300,6.008479248046875,-0.0007394698332063854,0.7371958494186401,-1.6544864177703857
1789317800769434400,6.018434326171875,-0.9014613628387451,-0.5529618263244629,-2.3418915271759033
1789317800779389400,6.028389404296875,-1.1575267314910889,-1.0072579383850098,-1.554194450378418
1789317800789344300,6.03834423828125,-0.45418059825897217,-1.2354010343551636,0.14364461600780487
1789317800799299600,6.048299560546875,0.20390991866588593,-0.8310638666152954,1.9306198358535767
1789317800809254400,6.05825439453125,0.6414036154747009,0.5799344182014465,2.425194025039673
1789317800819208400,6.06820849609375,0.7585001587867737,4.435780048370361,0.9575241804122925
1789317800829163300,6.078163330078125,0.1705975979566574,-0.7383535504341125,-0.0072558666579425335
1789317800839118600,6.08811865234375,-0.9037652611732483,-2.3182692527770996,-1.0448247194290161
1789317800849073400,6.098073486328125,-1.0413520336151123,-1.6811738014221191,-1.5823111534118652
1789317800859028200,6.1080283203125,-0.017931515350937843,-1.0113123655319214,-1.0349804162979126
1789317800868983600,6.117983642578125,0.8631876707077026,3.662337303161621,-0.5627425312995911
1789317800878937600,6.1279375,1.0570788383483887,2.9149210453033447,0.22124126553535461
1789317800888892400,6.137892333984375,0.3788514733314514,-2.0590615272521973,0.8011965751647949
1789317800898847200,6.14784716796875,-0.5226503610610962,-2.838684558868408,1.390792727470398
1789317800908802600,6.157802490234375,-0.5268780589103699,-3.120051145553589,2.6009068489074707
1789317800918757400,6.16775732421875,0.25413888692855835,0.03867705166339874,2.171312093734741
1789317800928712400,6.17771240234375,1.0573179721832275,5.470552921295166,0.052726805210113525
1789317800938666200,6.187666259765625,0.8316989541053772,2.884850263595581,-2.395479917526245
1789317800948621600,6.19762158203125,-0.7278722524642944,-1.4019078016281128,-4.113203048706055
1789317800958576400,6.207576416015625,-1.6228426694869995,-2.693211793899536,-2.1968181133270264
1789317800968531500,6.217531494140625,-0.7665834426879883,-3.8634486198425293,0.7363792061805725
1789317800978486300,6.227486328125,0.5719154477119446,0.13280710577964783,2.621419906616211
1789317800988441300,6.23744140625,1.6509062051773071,7.960480213165283,2.9429779052734375
1789317800998396400,6.247396484375,1.5188502073287964,-0.6005968451499939,-0.09975957870483398
1789317801008350500,6.2573505859375,-0.9533845782279968,-2.1976966857910156,-0.5386354327201843
1789317801018305300,6.26730517578125,-2.01957631111145,-2.1109001636505127,-0.2922126352787018
1789317801028260400,6.27726025390625,-0.7353807091712952,-3.9532084465026855,0.7283364534378052
1789317801038215400,6.28721533203125,0.8828297257423401,3.737687587738037,-0.21365106105804443
1789317801048170200,6.297170166015625,1.7775561809539795,7.754984378814697,-2.0612542629241943
1789317801058125600,6.30712548828125,0.4109628200531006,-3.3229565620422363,-2.785996913909912
1789317801068079400,6.317079345703125,-2.178861618041992,-2.086987018585205,-0.2555493414402008
1789317801078034400,6.327034423828125,-2.0745558738708496,-3.09775972366333,1.6106679439544678
1789317801087989200,6.3369892578125,-0.16823898255825043,-1.3264977931976318,2.8899028301239014
1789317801097944600,6.346944580078125,1.3674073219299316,5.675990581512451,2.200117588043213
1789317801107899400,6.3568994140625,1.1830641031265259,3.0251805782318115,-0.30837294459342957
1789317801117854500,6.3668544921875,-0.8814095854759216,-2.4159834384918213,-2.14335298538208
1789317801127808300,6.376808349609375,-2.0706186294555664,-3.5782766342163086,-0.9288941621780396
1789317801137763600,6.386763671875,-0.8459312915802002,-4.223344326019287,-0.946792721748352
1789317801147718400,6.396718505859375,0.5521956086158752,-0.5528718829154968,0.3520641028881073
1789317801157673500,6.406673583984375,1.4353333711624146,6.413707733154297,1.0446317195892334
1789317801167628000,6.4166279296875,1.1566624641418457,3.8014986515045166,0.34522098302841187
1789317801177583000,6.4265830078125,-1.0428571701049805,-1.2959903478622437,-0.7084656357765198
1789317801187537200,6.436537109375,-2.557835340499878,-2.568632125854492,-2.2733402252197266
1789317801197492200,6.4464921875,-1.667795181274414,-3.8865630626678467,-0.7594743967056274
1789317801207447000,6.456447021484375,0.38160452246665955,0.16150060296058655,-0.1983267068862915
1789317801217402000,6.466402099609375,1.2594090700149536,2.919712543487549,1.9222502708435059
1789317801227357200,6.476357177734375,1.2228413820266724,3.213496685028076,1.6638177633285522
1789317801237312000,6.48631201171875,0.14487019181251526,-0.5926994681358337,-0.6984055638313293
1789317801247266000,6.49626611328125,-1.3807100057601929,-3.023695707321167,-0.33999449014663696
1789317801257221000,6.50622119140625,-1.684727430343628,-3.6041178703308105,0.23158350586891174
1789317801267176200,6.51617626953125,-0.7395665645599365,-2.068323850631714,1.0678668022155762
1789317801277131000,6.526131103515625,0.33081939816474915,4.157690525054932,1.7395628690719604
1789317801287086300,6.53608642578125,1.0425364971160889,4.53269100189209,1.2137815952301025
1789317801297041200,6.546041259765625,0.5258777141571045,-0.8525469899177551,-2.5261802673339844
1789317801306995200,6.5559951171875,-0.9285021424293518,-2.0883657932281494,-3.8256607055664062
1789317801316950000,6.565949951171875,-1.286014437675476,-3.198394775390625,-2.0144479274749756
1789317801326905300,6.5759052734375,-0.33383074402809143,-1.3656153678894043,0.7125706076622009
1789317801336860200,6.585860107421875,0.9379277229309082,4.577149391174316,1.959547519683838
1789317801346815200,6.595815185546875,1.3437803983688354,3.0575060844421387,2.0057249069213867
1789317801356770000,6.60577001953125,0.12495432794094086,-0.16835995018482208,1.0583745241165161
1789317801366724400,6.615724365234375,-0.9261779189109802,-2.1802310943603516,-0.2692798376083374
1789317801376679200,6.62567919921875,-0.7714905738830566,-3.824101448059082,-0.011301273480057716
1789317801386634000,6.635634033203125,0.49770379066467285,1.7392990589141846,-0.7045130133628845
1789317801396589000,6.645589111328125,1.5880440473556519,1.5969165563583374,-0.2636362612247467
1789317801406544100,6.655544189453125,1.370368242263794,1.0899938344955444,-0.6433289647102356
1789317801416499200,6.665499267578125,0.2338881492614746,0.36591657996177673,-0.32646554708480835
1789317801426454000,6.6754541015625,-0.11361362040042877,-0.10898575931787491,-0.7181491851806641
1789317801436408000,6.685407958984375,-0.03615105152130127,-2.362074613571167,-0.1573561578989029
1789317801446363100,6.695363037109375,-0.09557578712701797,-0.9724166989326477,1.3979041576385498
1789317801456318200,6.705318115234375,0.9397285580635071,4.63087272644043,0.4252643585205078
1789317801466273000,6.71527294921875,1.4923524856567383,-0.42990678548812866,0.257758766412735
1789317801476228400,6.725228271484375,0.4932134747505188,-1.122289776802063,-0.07360240072011948
1789317801486183200,6.73518310546875,-0.22926943004131317,-2.2825582027435303,1.3462907075881958
1789317801496137200,6.74513720703125,0.2384847104549408,-3.8004441261291504,2.8631813526153564
1789317801506092000,6.755092041015625,0.6887786984443665,0.2417249083518982,2.7915406227111816
1789317801516047400,6.76504736328125,1.560020923614502,8.951131820678711,-0.19890819489955902
1789317801526002200,6.775002197265625,1.2292026281356812,-1.0782297849655151,-4.712733268737793
1789317801535957000,6.78495703125,-0.940642774105072,-1.5295034646987915,-4.914452075958252
1789317801545912300,6.794912353515625,-1.6341023445129395,-0.28837504982948303,-2.667387008666992
1789317801555866400,6.804866455078125,0.30520349740982056,-2.0067503452301025,0.46608516573905945
1789317801565821200,6.8148212890625,2.257159471511841,5.113139629364014,1.7714858055114746
1789317801575776000,6.82477587890625,2.751009225845337,1.9067543745040894,1.2899287939071655
1789317801585731300,6.8347314453125,0.8026486039161682,-2.3008029460906982,1.0047202110290527
1789317801595686100,6.84468603515625,-1.1593035459518433,-3.329975128173828,3.3543713092803955
1789317801605641200,6.85464111328125,-1.23274827003479,-4.843843460083008,5.964169502258301
1789317801615595000,6.864594970703125,0.4765057861804962,3.044680595397949,2.959529399871826
1789317801625550300,6.87455029296875,1.8805694580078125,7.946229457855225,-0.011162003502249718
1789317801635505200,6.884505126953125,0.9953300356864929,2.092266082763672,-4.474965572357178
1789317801645460200,6.894460205078125,-1.4800198078155518,-0.5515433549880981,-4.76597261428833
1789317801655415000,6.9044150390625,-2.1116347312927246,-3.113719940185547,-3.313307046890259
1789317801665370000,6.9143701171875,-0.3798404932022095,-4.132629871368408,-1.3224833011627197
1789317801675324200,6.92432421875,1.67445969581604,6.198625564575195,0.3297133147716522
1789317801685279200,6.934279296875,2.9029674530029297,3.708566188812256,1.213133692741394
1789317801695234000,6.944234130859375,1.1850343942642212,-0.36384153366088867,0.5819884538650513
1789317801705189000,6.954189208984375,-1.1943193674087524,-1.651940941810608,0.4778074026107788
1789317801715144200,6.964144287109375,-1.7136043310165405,-3.910590887069702,0.8932226896286011
1789317801725099000,6.97409912109375,-1.0021966695785522,-1.0260956287384033,1.614250659942627
1789317801735053000,6.984052978515625,0.2766248285770416,3.1710045337677,1.7797520160675049
1789317801745008000,6.994008056640625,0.7573614716529846,2.71488356590271,1.7989139556884766
1789317801754963200,7.003963134765625,0.04356664419174194,2.162973642349243,-0.10717166215181351
1789317801764918000,7.01391796875,-1.0287061929702759,-0.156873419880867,-1.6624794006347656
1789317801774873300,7.023873291015625,-1.4868375062942505,-1.9763274192810059,-2.775899648666382
1789317801784828200,7.033828125,-1.4577817916870117,-2.6256778240203857,-1.0636920928955078
1789317801794782200,7.0437822265625,-0.9457456469535828,-1.7851852178573608,2.0257861614227295
1789317801804737000,7.053737060546875,-0.08918668329715729,0.9302448034286499,3.2738051414489746
1789317801814692400,7.0636923828125,0.9835021495819092,9.740649223327637,-0.5697128176689148
1789317801824647200,7.073647216796875,-0.24871332943439484,-2.9103024005889893,-4.3735809326171875
1789317801834602200,7.083602294921875,-2.8262202739715576,-1.2436527013778687,-4.043036937713623
1789317801844557000,7.09355712890625,-3.1690306663513184,-2.917766809463501,-1.0185530185699463
1789317801854511400,7.103511474609375,-1.486655354499817,-1.2991036176681519,2.7893450260162354
1789317801864466200,7.113466064453125,0.3977702856063843,5.437913417816162,2.7089202404022217
1789317801874421000,7.1234208984375,0.2096365988254547,3.1979920864105225,0.8373013138771057
1789317801884376000,7.1333759765625,-1.8330087661743164,-2.654648780822754,-0.894828200340271
1789317801894331100,7.1433310546875,-2.986330509185791,-4.11355447769165,0.886201798915863
1789317801904286200,7.1532861328125,-2.0876636505126953,-4.421286582946777,2.306673765182495
1789317801914240000,7.163239990234375,-0.38019269704818726,3.5937373638153076,1.987104058265686
1789317801924195000,7.173195068359375,0.5494813323020935,3.1728761196136475,3.046905040740967
1789317801934150100,7.183150146484375,0.13417762517929077,0.7158270478248596,1.6298785209655762
1789317801944105200,7.193105224609375,-1.3015879392623901,-1.602722406387329,0.7181242108345032
1789317801954060000,7.20306005859375,-1.3471500873565674,0.5469856262207031,-3.1638760566711426
1789317801964015400,7.213015380859375,-0.5205608010292053,1.9885066747665405,-5.75129508972168
1789317801973969200,7.22296923828125,-0.4176677465438843,-2.2491989135742188,-5.095145225524902
1789317801983924200,7.23292431640625,-1.2724478244781494,-0.08129186183214188,-3.335520029067993
1789317801993879000,7.242879150390625,-1.0601694583892822,0.5712313055992126,-0.5593712329864502
1789317802003834400,7.25283447265625,0.11331497877836227,1.8407269716262817,0.6233872175216675
1789317802013789200,7.2627890625,0.2816352844238281,-0.30244383215904236,1.7531633377075195
1789317802023744000,7.272743896484375,-0.6556754112243652,0.1309942603111267,2.5138447284698486
1789317802033698000,7.282697998046875,-1.1520164012908936,-1.5726879835128784,3.3719561100006104
1789317802043653400,7.2926533203125,-1.203128695487976,-3.018887996673584,4.345933437347412
1789317802053608200,7.302608154296875,-0.6515383124351501,-1.9193220138549805,3.9107635021209717
1789317802063563000,7.31256298828125,0.5731312036514282,-0.7530524730682373,2.2292778491973877
1789317802073518000,7.32251806640625,1.198028802871704,2.424886465072632,-0.5799586772918701
1789317802083473200,7.33247314453125,0.26666179299354553,2.948695659637451,-2.6634223461151123
1789317802093427200,7.34242724609375,-1.1066877841949463,-0.4666554629802704,-2.673781633377075
1789317802103382000,7.352382080078125,-1.570758581161499,-3.0467004776000977,-3.246701955795288
1789317802113337000,7.362337158203125,-0.8617724180221558,1.0045744180679321,-4.498085021972656
1789317802123292200,7.372292236328125,0.2871857285499573,2.0714633464813232,-3.5068459510803223
1789317802133247200,7.382247314453125,0.599068284034729,1.3289884328842163,-2.5225749015808105
1789317802143202000,7.3922021484375,-0.5244728326797485,-0.4979785978794098,-0.5731874704360962
1789317802153156000,7.402156005859375,-1.2069664001464844,-2.0808770656585693,2.15554141998291
1789317802163111200,7.412111083984375,-0.41111472249031067,-1.2578340768814087,2.3841190338134766
1789317802173066000,7.42206591796875,-0.15988491475582123,-2.0178487300872803,3.974774122238159
1789317802183020800,7.432020751953125,-0.5932784080505371,-0.36588242650032043,3.980990171432495
1789317802192976000,7.441975830078125,-0.6731545925140381,0.11456675827503204,3.0399222373962402
1789317802202931000,7.451930908203125,-0.2738385498523712,0.7030620574951172,0.7936111092567444
1789317802212885000,7.461885009765625,0.09678985923528671,-0.6487654447555542,-1.634799838066101
1789317802222839800,7.47183984375,-0.2379409372806549,-2.604274034500122,-1.2503224611282349
1789317802232795000,7.481794921875,-0.9309402108192444,-2.424471616744995,1.27461838722229
1789317802242750000,7.49175,-0.2367246299982071,1.002414345741272,0.651829183101654
1789317802252704800,7.501704833984375,1.63323175907135,5.893141746520996,-5.689026832580566
1789317802262659800,7.511659912109375,0.6668922305107117,-2.625166177749634,-6.568666458129883
1789317802272614000,7.52161376953125,-1.5469975471496582,3.796461343765259,-3.678187847137451
1789317802282569000,7.53156884765625,-1.6516114473342896,-5.238245010375977,2.0539867877960205
1789317802292523800,7.541523681640625,-1.4523104429244995,-1.6351394653320312,5.798125743865967
1789317802302478800,7.551478759765625,-0.2284690886735916,-0.55708247423172,6.433813095092773
1789317802312434000,7.561433837890625,0.7980175614356995,-0.6785609722137451,5.911980628967285
1789317802322389000,7.571388916015625,0.6779465675354004,-0.27980828285217285,4.982641696929932
1789317802332342800,7.5813427734375,-0.17986147105693817,1.22774338722229,3.0680809020996094
1789317802342297900,7.5912978515625,-0.6881412863731384,1.7014198303222656,-0.6165885925292969
1789317802352253000,7.6012529296875,-0.8610134720802307,-1.2140222787857056,-2.586693048477173
1789317802362208000,7.6112080078125,-0.9087606072425842,-1.6928335428237915,-2.794675588607788
1789317802372162800,7.621162841796875,-0.22843585908412933,1.6258177757263184,-2.1810786724090576
1789317802382118000,7.631117919921875,1.2113821506500244,1.7679868936538696,-1.821602702140808
1789317802392072000,7.641072021484375,1.431887149810791,-1.9033452272415161,-0.6535589098930359
1789317802402027000,7.651027099609375,0.46627506613731384,-2.6600770950317383,0.37438642978668213
1789317802411981800,7.66098193359375,-0.21685372292995453,-2.84391713142395,1.792517066001892
1789317802421937000,7.67093701171875,-0.29711025953292847,-1.7138391733169556,3.2750442028045654
1789317802431892000,7.68089208984375,0.06637313216924667,1.9649227857589722,3.1694605350494385
1789317802441846800,7.6908466796875,0.5765239596366882,3.595249891281128,1.4754317998886108
1789317802451800800,7.70080078125,0.667395293712616,3.374812602996826,-2.4481701850891113
1789317802461756000,7.710755859375,-0.20921654999256134,-1.7208195924758911,-4.670268535614014
1789317802471711000,7.7207109375,-0.7802640795707703,-2.7342777252197266,-2.4111456871032715
1789317802481665800,7.730665771484375,0.03817155957221985,-1.7152478694915771,-0.8649276494979858
1789317802491621000,7.74062109375,1.4366347789764404,1.7296974658966064,0.1726076751947403
1789317802501576000,7.750575927734375,2.0876576900482178,1.8691117763519287,0.3547247052192688
1789317802511530000,7.760530029296875,1.1446598768234253,2.003021001815796,-0.49499067664146423
1789317802521484800,7.77048486328125,-0.27894604206085205,-1.3296104669570923,0.05903267487883568
1789317802531440000,7.780440185546875,-0.8073899149894714,-3.4454238414764404,-0.11360248923301697
1789317802541395000,7.79039501953125,-0.4607910215854645,-2.706266403198242,0.583538830280304
1789317802551349800,7.800349853515625,0.9304075837135315,4.502196788787842,-0.3670400083065033
1789317802561304800,7.810304931640625,1.6767239570617676,2.4199626445770264,-0.4053473174571991
1789317802571259000,7.8202587890625,0.781348705291748,0.348159521818161,-1.0175713300704956
1789317802581214000,7.8302138671875,-0.3769332468509674,-1.2496747970581055,-1.7686042785644531
1789317802591168800,7.840168701171875,-0.4851659834384918,-3.617110013961792,-0.7915686964988708
1789317802601123800,7.850123779296875,0.1169004738330841,-1.7037523984909058,-0.10571078211069107
1789317802611079000,7.860078857421875,0.8033571243286133,2.6555464267730713,0.9327409267425537
1789317802621034000,7.870033935546875,1.528515338897705,2.864252805709839,-0.022423088550567627
1789317802630987800,7.87998779296875,0.9098024964332581,2.515190362930298,-2.3663995265960693
1789317802640942800,7.88994287109375,-0.32818329334259033,-0.9675540328025818,-4.18721342086792
1789317802650898000,7.89989794921875,-0.8945444226264954,-2.8004701137542725,-3.5819039344787598
1789317802660853000,7.90985302734375,-0.6306213736534119,-2.7435731887817383,-0.02564147114753723
1789317802670807800,7.919807861328125,0.6237549185752869,1.0947405099868774,2.524327516555786
1789317802680761900,7.929761962890625,1.797370433807373,4.6897711753845215,2.6261727809906006
1789317802690717000,7.939717041015625,1.338152527809143,0.7007603049278259,1.7483851909637451
1789317802700672000,7.949672119140625,-0.5905590653419495,-1.9058291912078857,2.334791660308838
1789317802710626800,7.959626708984375,-1.474370002746582,-4.933389186859131,3.4444684982299805
1789317802720582000,7.969581787109375,-0.6784067153930664,-4.500879764556885,2.280491352081299
1789317802730537000,7.979536865234375,0.9520835876464844,3.224576234817505,-0.7275453209877014
1789317802740491000,7.989490966796875,2.182795524597168,5.95929479598999,-3.3015799522399902
1789317802750445800,7.99944580078125,1.3986892700195312,1.2873576879501343,-7.508062362670898
1789317802760401000,8.00940087890625,-1.1480103731155396,-0.6684494018554688,-7.557163715362549
1789317802770356000,8.01935595703125,-2.3286304473876953,-0.9650373458862305,-4.37181282043457
1789317802780310800,8.029310791015625,-0.9549317359924316,-0.2918137013912201,-1.4855749607086182
1789317802790265900,8.039265869140625,0.7836272120475769,2.1736907958984375,1.0541136264801025
1789317802800220000,8.049219970703126,1.1847271919250488,0.20976515114307404,3.6502609252929688
1789317802810175000,8.059175048828125,0.37079939246177673,-2.1493980884552,5.48360013961792
1789317802820129800,8.0691298828125,-0.4569578170776367,-3.1898465156555176,5.401543140411377
1789317802830084900,8.0790849609375,-0.5204960703849792,-0.7902370095252991,2.5966055393218994
1789317802840040000,8.0890400390625,-0.11061027646064758,2.018965482711792,-0.790996253490448
1789317802849995000,8.0989951171875,-0.09246056526899338,4.9834465980529785,-5.081888675689697
1789317802859948800,8.10894873046875,-1.1132044792175293,-2.306114673614502,-7.5763773918151855
1789317802869904000,8.11890380859375,-1.54524827003479,0.7503501176834106,-6.4172468185424805
1789317802879859000,8.12885888671875,-0.3469768166542053,-2.598252534866333,-2.6601576805114746
1789317802889814000,8.13881396484375,0.6879987120628357,-3.3296282291412354,2.4935059547424316
1789317802899768800,8.148768798828126,0.7403900027275085,-1.3782583475112915,6.66658878326416
1789317802909724000,8.158723876953125,0.6106602549552917,1.1440510749816895,7.748697757720947
1789317802919678000,8.168677978515625,0.7195582389831543,5.143003940582275,4.53334379196167
1789317802929633000,8.178633056640624,-0.7289981842041016,-2.74845027923584,0.8248958587646484
1789317802939587800,8.188587890625,-2.6085643768310547,0.30433374643325806,-1.832369089126587
1789317802949543000,8.19854296875,-2.1678669452667236,-1.4705713987350464,-2.8554446697235107
1789317802959498000,8.208498046875,-0.1248510405421257,-3.720673084259033,-2.5126051902770996
1789317802969452800,8.218452880859376,1.2209500074386597,-0.32740673422813416,-1.8413902521133423
1789317802979406800,8.22840673828125,1.9660462141036987,6.445708274841309,-1.703980565071106
1789317802989362000,8.23836181640625,1.618722915649414,-0.1480097770690918,-1.6516484022140503
1789317802999317000,8.24831689453125,-1.053731918334961,-0.7386859059333801,-0.32993173599243164
1789317803009271800,8.258271728515625,-2.378844976425171,-0.24074988067150116,1.2220966815948486
1789317803019227000,8.268226806640625,-1.2953094244003296,-4.299027919769287,3.403352975845337
1789317803029182000,8.278181884765624,-0.07797236740589142,-1.8537919521331787,4.547293186187744
1789317803039136000,8.288135986328125,0.7945350408554077,1.2052299976348877,4.8441667556762695
1789317803049090800,8.2980908203125,1.3463687896728516,1.5546694993972778,4.041891574859619
1789317803059046000,8.3080458984375,0.948202908039093,0.8139560222625732,1.2762155532836914
1789317803069001000,8.3180009765625,-0.29036861658096313,-0.6529301404953003,-0.6350963711738586
1789317803078955800,8.327955810546875,-1.3211168050765991,-1.663766860961914,-1.2740018367767334
1789317803088910800,8.337910888671875,-1.4105346202850342,-0.5403150320053101,-1.2930275201797485
1789317803098865000,8.347864990234376,0.005249659530818462,2.3469014167785645,-2.60707950592041
1789317803108820000,8.357820068359375,1.0005903244018555,1.7015777826309204,-4.273813724517822
1789317803118774800,8.36777490234375,0.5513139963150024,0.44834235310554504,-5.765713691711426
1789317803128729900,8.377729736328124,-0.049217160791158676,-2.4382383823394775,-4.157788276672363
1789317803138685000,8.387684814453126,-0.28555580973625183,-3.1670076847076416,0.49481678009033203
1789317803148639000,8.397638916015625,-0.14214164018630981,0.8736353516578674,5.010193824768066
1789317803158593800,8.40759375,0.1560685634613037,3.120313882827759,6.394569396972656
1789317803168549600,8.417549560546876,-0.4803129732608795,-0.4491662085056305,5.413478851318359
1789317803178504400,8.42750439453125,-1.3788230419158936,-1.7068582773208618,3.009979724884033
1789317803188459500,8.43745947265625,-1.1563369035720825,-3.113365650177002,2.2275028228759766
1789317803198414600,8.44741455078125,0.34092557430267334,-3.694396495819092,1.0744284391403198
1789317803208368600,8.45736865234375,1.677803635597229,-0.46313270926475525,-0.5901917815208435
1789317803218323500,8.467323486328125,2.1563620567321777,1.1508008241653442,-1.3647748231887817
1789317803228278500,8.477278564453124,1.6509718894958496,0.9495002031326294,-3.033173084259033
1789317803238233600,8.487233642578126,0.20022040605545044,0.6592881083488464,-4.563920021057129
1789317803248188400,8.4971884765625,-1.1176923513412476,4.341057300567627,-5.362588882446289
1789317803258143700,8.507143798828125,-1.1321803331375122,0.3161061406135559,-4.647423267364502
1789317803268097500,8.51709765625,-0.8842237591743469,-1.4630672931671143,-2.1023168563842773
1789317803278052600,8.527052490234375,-0.1153271421790123,0.2936622202396393,1.7180464267730713
1789317803288007400,8.53700732421875,1.5890549421310425,-2.143892288208008,3.94425368309021
1789317803297962800,8.546962646484374,2.091017007827759,0.12472136318683624,4.07078218460083
1789317803307917600,8.55691748046875,1.4996803998947144,-0.38472485542297363,4.166070938110352
1789317803317872600,8.56687255859375,0.6226471066474915,0.29957807064056396,2.289461612701416
1789317803327826400,8.576826416015624,-0.0822005420923233,0.5419989824295044,-0.3375348150730133
1789317803337781800,8.58678173828125,-0.6486341953277588,-0.7069330215454102,-1.1425257921218872
1789317803347736600,8.596736572265625,-0.3743818700313568,-0.5796619057655334,-1.8623521327972412
1789317803357691600,8.606691650390625,0.470565527677536,-0.17376092076301575,-1.1998918056488037
1789317803367646500,8.616646484375,1.3377286195755005,0.7675586342811584,-0.21124087274074554
1789317803377600800,8.626600830078125,1.9157686233520508,1.8152003288269043,-0.6935399174690247
1789317803387555600,8.6365556640625,1.7389768362045288,3.5335309505462646,-2.4668610095977783
1789317803397510700,8.6465107421875,0.6761295199394226,-0.4325387179851532,-4.065781116485596
1789317803407465500,8.656465576171875,-0.5705827474594116,-2.0501585006713867,-1.9697489738464355
1789317803417420500,8.666420654296875,-0.5963611602783203,0.6100038290023804,0.7759324312210083
1789317803427375600,8.676375732421874,0.8032122254371643,2.4151175022125244,2.4361140727996826
1789317803437329400,8.686329345703125,1.7804304361343384,-0.8831157684326172,2.493927240371704
1789317803447284500,8.696284423828125,1.4263818264007568,-0.6003746390342712,1.7914860248565674
1789317803457239600,8.706239501953124,1.1839804649353027,-2.219508171081543,1.8455418348312378
1789317803467194600,8.716194580078126,1.113481044769287,-3.4081077575683594,2.137657880783081
1789317803477149400,8.7261494140625,0.5165722370147705,-0.6995457410812378,2.4196040630340576
1789317803487104800,8.736104736328125,0.50742107629776,5.356133460998535,0.38587161898612976
1789317803497058600,8.74605859375,0.9026498198509216,5.852497577667236,-2.6926517486572266
1789317803507013600,8.756013671875,-0.2180972844362259,-1.102906584739685,-5.795076370239258
1789317803516968400,8.765968505859375,-1.5946027040481567,-0.7658778429031372,-3.6623191833496094
1789317803526923800,8.775923828125,-0.5700077414512634,-2.8754444122314453,-0.41164863109588623
1789317803536878600,8.785878662109376,1.0446977615356445,0.09527184069156647,2.8880422115325928
1789317803546833400,8.79583349609375,2.1251988410949707,3.4111077785491943,4.348565578460693
1789317803556787500,8.805787353515624,2.1700541973114014,4.313272476196289,2.6927201747894287
1789317803566742800,8.81574267578125,0.4934196174144745,-1.8238441944122314,0.04354995861649513
1789317803576697600,8.825697509765625,-1.4220119714736938,-2.300323009490967,-0.428428590297699
1789317803586652400,8.83565234375,-1.8159284591674805,-2.888091564178467,0.775428056716919
1789317803596607700,8.845607666015624,-0.7505166530609131,-1.3422203063964844,2.047391891479492
1789317803606562600,8.8555625,1.1848706007003784,7.008352279663086,-0.23468126356601715
1789317803616516600,8.8655166015625,1.8085013628005981,5.430694580078125,-1.8266690969467163
1789317803626471400,8.875471435546874,0.17977096140384674,-2.6780622005462646,-3.93005633354187
1789317803636426800,8.8854267578125,-1.682730793952942,-1.7378047704696655,-1.716780424118042
1789317803646381600,8.895381591796875,-1.1485317945480347,-0.7773357033729553,0.9395251870155334
1789317803656336600,8.905336669921875,0.34858834743499756,3.2197413444519043,2.6428749561309814
1789317803666290400,8.91529052734375,0.7796382904052734,2.933627128601074,2.4203641414642334
1789317803676245500,8.92524560546875,-0.38554418087005615,0.21626676619052887,1.5476815700531006
1789317803686200600,8.93520068359375,-1.4858163595199585,-3.3972349166870117,1.9367374181747437
1789317803696155600,8.94515576171875,-1.4907821416854858,-5.258706092834473,2.501384973526001
1789317803706110500,8.9551103515625,-0.5521044135093689,-1.6078580617904663,2.2860119342803955
1789317803716065500,8.9650654296875,1.4258286952972412,8.876121520996094,-0.6478337645530701
1789317803726019600,8.97501953125,1.4265154600143433,1.0126633644104004,-4.10260009765625
1789317803735974700,8.984974609375,-1.6841685771942139,-0.9822112321853638,-4.687676906585693
1789317803745929500,8.994929443359375,-3.730468273162842,-1.2690080404281616,-3.1369686126708984
1789317803755884500,9.004884521484374,-2.489553928375244,-4.385768413543701,-0.92873215675354
1789317803765839600,9.014839599609376,-0.48539477586746216,3.500347137451172,1.2962573766708374
1789317803775794400,9.02479443359375,1.409637689590454,5.888797760009766,1.682642936706543
1789317803785748500,9.03474853515625,1.032935619354248,-1.6684452295303345,1.5717828273773193
1789317803795703600,9.04470361328125,-1.442846655845642,-2.018643617630005,1.7247984409332275
1789317803805658600,9.05465869140625,-2.5404348373413086,-3.038036584854126,1.8229687213897705
1789317803815613400,9.064613525390625,-1.7346800565719604,-2.877075433731079,1.2447694540023804
1789317803825568800,9.07456884765625,-0.4043636620044708,3.547147512435913,-0.7744393944740295
1789317803835522600,9.0845224609375,-0.14415980875492096,3.5139834880828857,-1.0253866910934448
1789317803845477600,9.0944775390625,-0.7242292761802673,1.6600191593170166,-2.7542035579681396
1789317803855432400,9.104432373046874,-1.4286086559295654,-1.9730958938598633,-2.3471837043762207
1789317803865387800,9.1143876953125,-1.3863136768341064,-4.5424346923828125,-0.05411113426089287
1789317803875342600,9.124342529296875,-0.8327938318252563,-0.8115399479866028,1.8871747255325317
1789317803885297700,9.134297607421875,0.2825310528278351,2.9040281772613525,2.6421422958374023
1789317803895251500,9.14425146484375,1.1060075759887695,4.05403470993042,-0.7309834361076355
1789317803905206800,9.154206787109375,-0.3432100713253021,-0.9584994316101074,-2.7933669090270996
1789317803915161600,9.16416162109375,-2.0639305114746094,-2.492290496826172,-2.3283848762512207
1789317803925116400,9.174116455078124,-2.0540807247161865,-3.9174933433532715,-1.1188551187515259
1789317803935071500,9.184071533203126,-1.1470483541488647,-0.7589762210845947,1.9379194974899292
1789317803945026600,9.194026611328125,0.6243899464607239,5.60463285446167,2.0127639770507812
1789317803954980600,9.203980712890624,1.1642122268676758,0.8202436566352844,-0.0055146473459899426
1789317803964935400,9.213935302734376,-0.7880123853683472,-1.9919761419296265,-0.6348150968551636
1789317803974890500,9.223890380859375,-2.15301513671875,-2.7563276290893555,1.1024588346481323
1789317803984845600,9.233845458984375,-1.2264280319213867,-4.3073506355285645,1.739078164100647
1789317803994800600,9.243800537109376,0.006726011633872986,-0.9038246273994446,2.0453593730926514
1789317804004754400,9.25375439453125,1.0710010528564453,5.079227447509766,0.4148177206516266
1789317804014709500,9.26370947265625,1.0788779258728027,3.372131586074829,-1.4557507038116455
1789317804024664600,9.27366455078125,-0.758215606212616,-1.181167721748352,-4.062558650970459
1789317804034619600,9.28361962890625,-2.1285603046417236,-2.802079439163208,-3.2374556064605713
1789317804044574500,9.293574462890625,-1.5391870737075806,-3.6462414264678955,-1.5502711534500122
1789317804054529800,9.30352978515625,-0.2740557789802551,0.003675292246043682,1.2977116107940674
1789317804064483600,9.313483642578126,0.5916462540626526,1.4039523601531982,3.7045884132385254
1789317804074438700,9.323438720703125,0.8590215444564819,3.832448959350586,2.1661312580108643
1789317804084393500,9.3333935546875,0.12739263474941254,-0.5491514205932617,-0.47130510210990906
1789317804094348500,9.3433486328125,-1.1424076557159424,-3.4347481727600098,-1.1049435138702393
1789317804104303600,9.3533037109375,-1.647393822669983,-3.393627405166626,-0.1712450236082077
1789317804114258400,9.363258544921875,-0.687628984451294,-2.612046957015991,1.0883573293685913
1789317804124212500,9.37321240234375,0.7835038304328918,5.121982097625732,0.23554694652557373
1789317804134167600,9.38316748046875,1.3306057453155518,4.592929840087891,-0.9113168716430664
1789317804144122600,9.39312255859375,-0.10535819828510284,-1.8069722652435303,-2.1674447059631348
1789317804154077400,9.403077392578124,-2.026127815246582,-3.401033401489258,-1.465847373008728
1789317804164032500,9.413032470703126,-2.1041529178619385,-4.7715654373168945,0.5696767568588257
1789317804173987000,9.422987060546875,-0.438797265291214,4.215011119842529,0.48220694065093994
1789317804183941000,9.432941162109374,1.4519418478012085,4.589567184448242,-0.0203107800334692
1789317804193896000,9.44289599609375,0.766931414604187,-2.7530343532562256,-0.41975027322769165
1789317804203851300,9.452851318359375,-1.406261682510376,-2.1166205406188965,0.6557103395462036
1789317804213806000,9.46280615234375,-1.3615496158599854,-4.8818206787109375,1.7372167110443115
1789317804223761200,9.47276123046875,-0.016442036256194115,-1.071925401687622,0.6155951023101807
1789317804233715000,9.48271484375,0.63799649477005,4.652299404144287,0.46724259853363037
1789317804243670300,9.492670166015625,0.5724191069602966,1.6386035680770874,-0.326195627450943
1789317804253625000,9.502625,-0.8321527242660522,-0.08194474875926971,-2.4343607425689697
1789317804263580200,9.512580078125,-1.7855963706970215,-2.050154209136963,-2.528238296508789
1789317804273535200,9.52253515625,-0.9420353174209595,-4.2483744621276855,-1.706396222114563
1789317804283490300,9.532490234375,0.05163639038801193,-2.9038171768188477,0.7356821298599243
1789317804293444000,9.542444091796876,1.011008858680725,3.2167482376098633,1.7397208213806152
1789317804303399200,9.552399169921875,1.5632597208023071,5.038246154785156,1.0942870378494263
1789317804313354200,9.562354248046875,0.3758629262447357,-2.6664645671844482,-0.7482122182846069
1789317804323309000,9.57230908203125,-1.582473635673523,-2.4570770263671875,0.5572099685668945
1789317804333264100,9.58226416015625,-1.1741784811019897,-3.34661602973938,1.156741738319397
1789317804343218200,9.59221826171875,0.34297025203704834,-2.48813796043396,1.9736762046813965
1789317804353173200,9.60217333984375,1.7664382457733154,4.688878536224365,0.538945198059082
1789317804363128000,9.612128173828125,2.33795166015625,3.917445182800293,-1.4874188899993896
1789317804373083100,9.622083251953125,0.8171606659889221,-1.9945820569992065,-3.6053354740142822
1789317804383038000,9.632037841796874,-1.2316014766693115,-1.978843092918396,-1.8591413497924805
1789317804392993300,9.6419931640625,-1.3562860488891602,-4.054224967956543,2.0965301990509033
1789317804402947000,9.651947021484375,0.09133452922105789,-1.876138687133789,4.208170413970947
1789317804412902100,9.661902099609375,2.3458900451660156,6.430883884429932,2.418278455734253
1789317804422857000,9.67185693359375,2.9739041328430176,2.678959369659424,0.3906678855419159
1789317804432812300,9.681812255859375,0.9704150557518005,-2.0010716915130615,-1.8000534772872925
1789317804442767000,9.69176708984375,-0.9827867150306702,-2.7772700786590576,-0.23307986557483673
1789317804452722200,9.70172216796875,-0.43729934096336365,-3.9217007160186768,0.5161987543106079
1789317804462676000,9.711676025390625,1.3001326322555542,1.1349067687988281,-0.17408780753612518
1789317804472631300,9.72163134765625,2.819732666015625,6.546307563781738,-0.9442709684371948
1789317804482586000,9.731586181640624,2.8381266593933105,-0.7480653524398804,-3.3674063682556152
1789317804492541200,9.741541259765626,0.5572237968444824,-1.4889191389083862,-1.3630998134613037
1789317804502496300,9.751496337890625,-0.3764953911304474,-2.611745834350586,1.2322638034820557
1789317804512450300,9.7614501953125,0.8176282048225403,-3.837252140045166,2.321995735168457
1789317804522405000,9.771405029296876,1.9817427396774292,3.7630598545074463,2.355750799179077
1789317804532360200,9.781360107421875,2.4468517303466797,4.084867000579834,2.082118034362793
1789317804542315300,9.791315185546875,1.5197659730911255,1.0540026426315308,1.0452535152435303
1789317804552270000,9.80127001953125,-0.044502366334199905,-1.702232003211975,-1.0016508102416992
1789317804562225200,9.81122509765625,-0.07998046278953552,-2.5254430770874023,-1.5373972654342651
1789317804572179200,9.82117919921875,1.1048380136489868,-2.7565674781799316,-0.6525904536247253
1789317804582134300,9.83113427734375,1.7505383491516113,0.7896462678909302,1.2696243524551392
1789317804592089000,9.841089111328126,2.534738302230835,7.970156192779541,-0.09148707985877991
1789317804602044200,9.851044189453125,2.4328129291534424,-0.7161731719970703,-1.9267568588256836
1789317804611999000,9.8609990234375,0.46481969952583313,-2.428978681564331,-1.950003743171692
1789317804621953300,9.870953369140626,-0.6539886593818665,-1.4138048887252808,-0.9189198613166809
1789317804631908000,9.880908203125,0.3825022578239441,-2.5796451568603516,1.7028311491012573
1789317804641863200,9.89086328125,1.9772510528564453,5.224852085113525,1.5563517808914185
1789317804651818000,9.90081787109375,2.737428903579712,3.659524917602539,1.3981006145477295
1789317804661773300,9.910773193359375,1.8629904985427856,-0.6157746911048889,-0.5516824126243591
1789317804671728000,9.92072802734375,0.11107626557350159,-1.6159602403640747,-0.3439728319644928
1789317804681682200,9.93068212890625,-0.07940100133419037,-2.2791216373443604,-0.12428946048021317
1789317804691637000,9.940636962890625,1.2029863595962524,0.9957686066627502,-0.45154836773872375
1789317804701592300,9.95059228515625,2.2353620529174805,3.8735594749450684,-0.1442003846168518
1789317804711547100,9.960547119140625,2.157498598098755,1.7491827011108398,-0.5023881793022156
1789317804721502000,9.970501953125,0.8355847001075745,-0.07003621011972427,-0.09045471251010895
1789317804731457300,9.980457275390625,0.2625052034854889,-1.994779348373413,0.010791448876261711
1789317804741411300,9.990411376953125,0.8543251156806946,-2.6854467391967773,0.4705318808555603
1789317804751366100,10.0003662109375,1.4951211214065552,2.444836378097534,1.122238278388977
1789317804761321000,10.010321044921875,1.9134116172790527,2.116178035736084,1.5290642976760864
1789317804771276300,10.0202763671875,1.304409146308899,1.4532402753829956,1.3628143072128296
1789317804781231000,10.030231201171874,0.3353394567966461,-0.18502239882946014,0.48696112632751465
1789317804791185200,10.04018505859375,-0.2588484287261963,-1.3193738460540771,0.03819988667964935
1789317804801140000,10.050139892578125,0.17987193167209625,0.8990876078605652,-1.2441623210906982
1789317804811095300,10.06009521484375,1.263053059577942,5.251528739929199,-2.403779983520508
1789317804821050000,10.070050048828126,1.4224814176559448,-1.3441396951675415,-2.0704689025878906
1789317804831005200,10.080005126953125,0.23227380216121674,0.4292025864124298,-0.4192731976509094
1789317804840960300,10.089960205078125,0.12656573951244354,-2.3254449367523193,1.6710646152496338
1789317804850914300,10.099914306640626,0.5100014805793762,-2.7368695735931396,3.4518086910247803
1789317804860869000,10.109869140625,0.5145149827003479,2.0252275466918945,3.6102731227874756
1789317804870824200,10.11982421875,0.655427098274231,6.38533353805542,1.984034538269043
1789317804880779300,10.129779296875,0.09085441380739212,-0.1571740061044693,-0.7367634177207947
1789317804890734000,10.139734130859376,-1.6474872827529907,-1.5537965297698975,-0.9668245315551758
1789317804900689200,10.149689208984375,-2.0925981998443604,-2.3413376808166504,0.28401514887809753
1789317804910643200,10.159643310546874,-0.6467532515525818,-2.7509450912475586,1.3521277904510498
1789317804920598300,10.169598388671876,1.0652060508728027,7.284480571746826,-0.29103928804397583
1789317804930553000,10.179552978515625,1.8007838726043701,4.905686378479004,-2.672015428543091
1789317804940508200,10.189508056640625,-0.1283433735370636,-4.686997890472412,-2.7371127605438232
1789317804950463000,10.199462890625,-2.8865163326263428,-0.9981797933578491,-1.1582279205322266
1789317804960417300,10.209417236328125,-2.3989412784576416,-0.6783909201622009,0.03847391530871391
1789317804970372000,10.2193720703125,-0.47935453057289124,4.838644981384277,1.2331165075302124
1789317804980327200,10.2293271484375,0.4616345465183258,4.193655967712402,1.0871047973632812
1789317804990282000,10.239281982421875,-0.7949090003967285,-1.4270633459091187,1.1800947189331055
1789317805000237300,10.2492373046875,-2.40156888961792,-3.001948595046997,2.0321760177612305
1789317805010192100,10.259192138671875,-2.3311281204223633,-4.49603796005249,2.527374029159546
1789317805020146200,10.269146240234376,-1.208384394645691,-3.195862054824829,2.6073315143585205
1789317805030101000,10.27910107421875,0.0826326459646225,1.8573133945465088,1.5454262495040894
1789317805040056300,10.289056396484375,0.28035691380500793,4.161291122436523,-0.10724122822284698
1789317805050011100,10.29901123046875,-1.6200218200683594,9.209799766540527,-4.245853424072266
1789317805059966200,10.30896630859375,-4.015317440032959,-3.5559353828430176,-7.177952289581299
1789317805069921300,10.31892138671875,-4.317780494689941,0.447103351354599,-6.3267927169799805
1789317805079875300,10.328875244140624,-2.041245937347412,-1.0931297540664673,-2.886286735534668
1789317805089830100,10.338830078125,0.5211954712867737,-0.21962109208106995,1.5400609970092773
1789317805099785200,10.34878515625,1.2154417037963867,-0.72474205493927,4.137418270111084
1789317805109740300,10.358740234375,-0.06429888308048248,-1.2026084661483765,6.115612030029297
1789317805119695000,10.368695068359376,-1.2583096027374268,-3.245640277862549,6.160634517669678
1789317805129649200,10.378649169921875,-2.1685941219329834,-1.0666581392288208,3.7836196422576904
1789317805139604000,10.38860400390625,-3.213498115539551,2.506408452987671,1.953640103340149
1789317805149559300,10.398559326171876,-2.9378955364227295,3.628645896911621,-0.5314789414405823
1789317805159514000,10.40851416015625,-1.8401405811309814,2.1391496658325195,-3.500100612640381
1789317805169470000,10.418469970703125,-1.1674898862838745,-0.8057456016540527,-4.456510066986084
1789317805179424800,10.4284248046875,-0.42932790517807007,-3.10479736328125,-3.9215216636657715
1789317805189378800,10.43837890625,0.30619028210639954,-4.267321586608887,-1.5802812576293945
1789317805199333600,10.448333740234375,0.6437427401542664,1.7521657943725586,-0.7284497618675232
1789317805209289000,10.4582890625,0.5578731894493103,6.889991760253906,-0.22285860776901245
1789317805219243800,10.468243896484376,-0.7546263337135315,-2.7163875102996826,-1.1574722528457642
1789317805229198600,10.478198486328125,-3.0139970779418945,2.033026933670044,-0.26219648122787476
1789317805239154000,10.48815380859375,-2.3425748348236084,-3.07963490486145,1.1404638290405273
1789317805249107700,10.498107666015626,-0.09380201995372772,-0.5609229803085327,0.5414786338806152
1789317805259062800,10.508062744140625,1.137080430984497,-0.20028173923492432,1.4034994840621948
1789317805269017600,10.518017578125,0.8411418199539185,-0.3976597189903259,4.098403453826904
1789317805278973000,10.527972900390624,0.03199814632534981,-0.656329870223999,5.891151428222656
1789317805288927700,10.537927734375,-0.16532915830612183,0.7150349617004395,3.6379001140594482
1789317805298882800,10.5478828125,-0.3549044132232666,0.973814845085144,1.2169499397277832
1789317805308836600,10.557836669921874,-0.865234911441803,0.1581954061985016,-0.986225962638855
1789317805318792000,10.5677919921875,-1.1181451082229614,1.5827080011367798,-4.173269271850586
1789317805328746800,10.577746826171875,-0.5769650936126709,1.3086766004562378,-6.650881767272949
1789317805338701800,10.587701904296875,0.2869616448879242,-1.0850389003753662,-6.742323875427246
1789317805348657000,10.597656982421874,0.7320883274078369,-1.3455233573913574,-3.916537046432495
1789317805358611700,10.60761181640625,0.6517612338066101,-1.2419615983963013,0.6531926393508911
1789317805368565800,10.617565673828125,0.6734551191329956,3.6787545680999756,3.309964418411255
1789317805378520800,10.627520751953124,0.954440176486969,-1.4354356527328491,3.9129867553710938
1789317805388476000,10.637475830078126,-0.3268742263317108,-1.783671259880066,3.8795292377471924
1789317805398430700,10.6474306640625,-1.1428824663162231,-0.8151997327804565,3.2142271995544434
1789317805408385800,10.6573857421875,-0.21751973032951355,-0.009531804360449314,0.8670927286148071
1789317805418339800,10.66733984375,0.5884369611740112,-0.47293755412101746,-1.1739046573638916
1789317805428294700,10.677294677734375,0.18638023734092712,-0.5081220865249634,-0.7179126143455505
1789317805438249700,10.687249755859375,-0.5264925956726074,0.07150798290967941,0.6774692535400391
1789317805448204800,10.697204833984374,-0.5328366756439209,0.24297156929969788,1.0923349857330322
1789317805458159600,10.70715966796875,0.1526317149400711,4.006784439086914,-1.9238768815994263
1789317805468115000,10.717114990234375,0.5282183289527893,1.968195915222168,-4.734200477600098
1789317805478068700,10.72706884765625,-0.6942295432090759,-1.4796323776245117,-2.9743752479553223
1789317805488023800,10.73702392578125,-1.4862946271896362,-1.0694983005523682,-0.8479641079902649
1789317805497978600,10.746978515625,-0.7063096761703491,-0.49792614579200745,0.6075607538223267
1789317805507934000,10.756933837890625,0.215409517288208,2.109436273574829,1.0877578258514404
1789317805517888800,10.766888671875,0.2593628466129303,1.2768678665161133,0.4889686405658722
1789317805527843800,10.77684375,-0.4441223740577698,-2.1753294467926025,0.5904964804649353
1789317805537797600,10.786797607421875,-1.027847409248352,-3.4651193618774414,1.2693977355957031
1789317805547753000,10.7967529296875,-1.1592353582382202,-3.4683353900909424,3.330017328262329
1789317805557707800,10.806707763671875,-0.014535265974700451,5.120732307434082,0.8966752886772156
1789317805567662600,10.81666259765625,0.8189693093299866,4.42525577545166,-2.9273147583007812
1789317805577618000,10.826617919921874,-1.0036273002624512,-4.259512424468994,-3.2011451721191406
1789317805587572700,10.83657275390625,-3.3610148429870605,0.1906231939792633,-1.1445448398590088
1789317805597526800,10.84652685546875,-2.560920476913452,-3.19179630279541,3.0408077239990234
1789317805607481600,10.856481689453124,-0.2655508816242218,-3.9028947353363037,3.958536148071289
1789317805617437000,10.86643701171875,1.1924564838409424,6.455044269561768,2.2655513286590576
1789317805627391700,10.876391845703125,1.3763104677200317,4.669032573699951,1.5116974115371704
1789317805637346800,10.886346923828125,-0.22803185880184174,-3.010373592376709,-3.9944663047790527
1789317805647301600,10.896301513671874,-2.7802093029022217,0.7672507166862488,-4.766214370727539
1789317805657256000,10.906255859375,-2.7015297412872314,-1.898923397064209,-4.4126057624816895
1789317805667210800,10.916210693359375,-1.0149017572402954,-3.7292168140411377,-2.4658451080322266
1789317805677165800,10.926165771484374,-0.2769942581653595,-1.7894412279129028,2.175328493118286
1789317805687120600,10.93612060546875,0.3720136880874634,1.7535659074783325,4.28693962097168
1789317805697076000,10.946075927734375,0.9453773498535156,6.776338577270508,3.919447660446167
1789317805707030800,10.95603076171875,0.06366898119449615,-3.706516981124878,-1.5227630138397217
1789317805716984800,10.96598486328125,-2.4283339977264404,-3.0633490085601807,-1.4966754913330078
1789317805726939600,10.975939697265625,-3.516939401626587,-0.7432546615600586,0.664555549621582
1789317805736894700,10.985894775390625,-1.921486496925354,-2.0074901580810547,3.3349125385284424
1789317805746849800,10.995849853515624,0.4620530307292938,3.6704368591308594,1.1645877361297607
1789317805756804600,11.0058046875,1.274327039718628,3.5049519538879395,0.007377934642136097
1789317805766758700,11.015758544921875,0.6458444595336914,-0.7339676022529602,-1.186100959777832
1789317805776713700,11.025713623046874,-0.7782204747200012,-3.7625508308410645,-1.9148377180099487
1789317805786668800,11.035668701171875,-1.7393827438354492,-1.8485301733016968,-0.6595991849899292
1789317805796623600,11.04562353515625,-0.9081819653511047,-0.07823379337787628,-0.5388285517692566
1789317805806579000,11.055578857421875,0.002963405568152666,4.3649001121521,-0.917051374912262
1789317805816533800,11.06553369140625,-0.29217955470085144,-0.4604547321796417,-1.4314675331115723
1789317805826488800,11.07548876953125,-2.2311582565307617,-1.7094221115112305,0.8771359324455261
1789317805836442600,11.085442626953125,-2.706282138824463,-2.937934160232544,3.4361371994018555
1789317805846398000,11.09539794921875,-0.9186986684799194,-5.434587001800537,4.838095664978027
1789317805856352800,11.105352783203125,0.7961834669113159,-0.6306461691856384,4.065912246704102
1789317805866307800,11.115307861328125,1.910825490951538,7.921321392059326,0.6128273010253906
1789317805876262700,11.1252626953125,0.4484800398349762,-2.044402837753296,-4.913955211639404
1789317805886217700,11.1352177734375,-2.654737949371338,-2.0017824172973633,-4.866323471069336
1789317805896171800,11.145171875,-3.4170491695404053,-2.3936469554901123,-2.798051595687866
1789317805906126800,11.155126953125,-1.560266375541687,-4.679590702056885,0.4558210074901581
1789317805916081700,11.16508154296875,0.3181822896003723,-0.7340500354766846,3.2511544227600098
1789317805926036700,11.17503662109375,1.7370136976242065,9.019149780273438,2.9119961261749268
1789317805935991800,11.18499169921875,1.6685925722122192,-3.811624765396118,0.4715348780155182
1789317805945945900,11.19494580078125,-1.1800822019577026,-1.9967052936553955,0.5320791602134705
1789317805955900700,11.204900634765625,-2.0694963932037354,-2.223987102508545,0.6299474239349365
1789317805965855700,11.214855712890625,-0.3418756425380707,-5.634524345397949,0.33861181139945984
1789317805975810800,11.224810791015624,0.6256265640258789,0.9724336266517639,-0.39354151487350464
1789317805985765600,11.234765625,0.8652223944664001,5.750926971435547,-1.362040400505066
1789317805995721000,11.244720947265625,0.3509089946746826,1.9353598356246948,-0.9049698114395142
1789317806005674800,11.2546748046875,-1.0341081619262695,-2.034980535507202,-0.9902594089508057
1789317806015629800,11.2646298828125,-1.7900701761245728,-3.145979166030884,-0.8677406311035156
1789317806025584600,11.274584716796875,-1.1007747650146484,-2.5930657386779785,0.3184133768081665
1789317806035540000,11.2845400390625,0.5555841326713562,2.055225372314453,0.5000188946723938
1789317806045494800,11.294494873046874,1.3898972272872925,1.672614336013794,0.5494238138198853
1789317806055449600,11.30444970703125,0.5154289603233337,0.15684212744235992,0.5985857844352722
1789317806065403600,11.314403564453125,-0.44737178087234497,-2.5606253147125244,0.05337705463171005
1789317806075359000,11.32435888671875,-0.7108913064002991,-5.196042537689209,0.8621833324432373
1789317806085313800,11.334313720703125,-0.10237520933151245,0.8162805438041687,-0.39915338158607483
1789317806095268600,11.3442685546875,0.5764530897140503,1.823670744895935,0.5328187942504883
1789317806105224000,11.354223876953125,0.6032455563545227,0.6707538962364197,0.30643710494041443
1789317806115178800,11.3641787109375,-0.0033594381529837847,0.5134029388427734,-1.1870867013931274
1789317806125133800,11.3741337890625,-0.06186924874782562,-0.8753003478050232,-2.6301136016845703
1789317806135087600,11.384087646484375,0.14246204495429993,-2.7638025283813477,-2.1988260746002197
1789317806145042700,11.394042724609376,-0.10542856156826019,-3.1205637454986572,0.9928886294364929
1789317806154997800,11.403997802734375,0.06374555081129074,-1.4714969396591187,3.3061232566833496
1789317806164952800,11.413952880859375,1.2385599613189697,5.782693386077881,1.5955621004104614
1789317806174907400,11.423907470703124,1.714223861694336,-0.21429236233234406,-1.2586067914962769
1789317806184862700,11.43386279296875,0.1502184271812439,-2.310823440551758,-2.451660394668579
1789317806194816500,11.44381640625,-0.9915117621421814,0.09923838824033737,-1.9838271141052246
1789317806204771600,11.453771484375,-0.09392186254262924,-3.617305278778076,1.041037917137146
1789317806214726400,11.463726318359376,0.9795403480529785,-2.7025411128997803,2.4027020931243896
1789317806224681700,11.473681640625,1.656315565109253,4.78627347946167,1.4532533884048462
1789317806234636500,11.483636474609375,2.2482032775878906,3.5638482570648193,-1.2387065887451172
1789317806244591400,11.49359130859375,0.846037745475769,-4.10672664642334,-1.4858828783035278
1789317806254545400,11.50354541015625,-1.573523759841919,-0.703486979007721,0.7548643350601196
1789317806264500700,11.513500732421875,-0.7679761648178101,-2.2001593112945557,1.9719222784042358
1789317806274455600,11.52345556640625,1.2725436687469482,-2.636876344680786,2.3553247451782227
1789317806284410400,11.533410400390625,1.9312286376953125,4.0799031257629395,1.1830172538757324
1789317806294365700,11.54336572265625,2.055551052093506,4.361008644104004,-0.8139175176620483
1789317806304320500,11.553320556640625,1.1504942178726196,-1.916965365409851,-3.9878971576690674
1789317806314274600,11.563274658203126,-0.5200356245040894,0.6583338379859924,-5.816049098968506
1789317806324229400,11.5732294921875,-0.8058410882949829,-2.5686440467834473,-3.3425307273864746
1789317806334184400,11.583184326171875,-0.4525371491909027,-0.5020900368690491,0.9466003775596619
1789317806344139500,11.593139404296876,0.6658942699432373,0.3277292549610138,4.355042457580566
1789317806354094600,11.603094482421875,1.6943886280059814,1.398688793182373,4.274933815002441
1789317806364049400,11.61304931640625,1.6004143953323364,0.06428679823875427,1.9109982252120972
1789317806374003500,11.62300341796875,0.21637627482414246,-2.362919807434082,0.7857635617256165
1789317806383958500,11.63295849609375,-1.1365163326263428,-3.469076156616211,1.2832701206207275
1789317806393913600,11.64291357421875,-1.0963362455368042,-3.736614227294922,2.1742897033691406
1789317806403868400,11.652868408203124,-0.04170027747750282,3.1180686950683594,0.924870491027832
1789317806413823500,11.662823486328126,1.072483777999878,5.391396522521973,-0.48840785026550293
1789317806423778600,11.672778564453125,0.841354250907898,1.6960686445236206,-3.2687928676605225
1789317806433732600,11.682732666015625,-0.7924695014953613,-0.48648911714553833,-4.601113796234131
1789317806443687400,11.6926875,-1.2598395347595215,-3.7327158451080322,-3.257977247238159
1789317806453642500,11.702642578125,-0.18221352994441986,-0.9304413199424744,-1.391446590423584
1789317806463597600,11.71259765625,1.356469750404358,2.1441798210144043,0.6005131602287292
1789317806473552400,11.722552490234374,1.676924228668213,0.9682089686393738,1.5181427001953125
1789317806483507700,11.7325078125,0.4455307424068451,-0.2826610505580902,1.4891029596328735
1789317806493461500,11.74246142578125,-0.3635522425174713,-2.2339112758636475,0.987010657787323
1789317806503416600,11.75241650390625,-0.44716253876686096,-3.499927043914795,1.80609130859375
1789317806513371400,11.762371337890626,0.2828407883644104,-1.319245457649231,2.0381929874420166
1789317806523326700,11.77232666015625,1.6051709651947021,3.448422908782959,0.6451703310012817
1789317806533281500,11.782281494140625,1.851579189300537,2.209200859069824,-0.30003589391708374
1789317806543236600,11.792236572265624,0.6455804705619812,0.8061124682426453,-1.559166669845581
1789317806553190400,11.8021904296875,-0.3513520658016205,-1.5396502017974854,-1.474528193473816
1789317806563145700,11.812145751953125,0.08204448968172073,-3.833033800125122,-0.9167791604995728
1789317806573100500,11.8221005859375,0.7026419639587402,-1.5725464820861816,0.866737425327301
1789317806583055600,11.8320556640625,1.9554141759872437,7.262722969055176,0.6623220443725586
1789317806593010400,11.842010498046875,2.720731019973755,-0.6058984398841858,-0.9118490219116211
1789317806602965500,11.851965576171875,0.8539533019065857,-1.703131914138794,-0.9394421577453613
1789317806612919600,11.86191943359375,-0.48894190788269043,-1.3352566957473755,0.19166067242622375
1789317806622874600,11.87187451171875,0.4319605827331543,-4.369184494018555,1.9964619874954224
1789317806632829400,11.881829345703125,1.500823974609375,-0.28514933586120605,2.630589246749878
1789317806642784500,11.891784423828126,1.984521746635437,3.69533634185791,2.4273324012756348
1789317806652739600,11.901739501953125,2.0234897136688232,3.3591506481170654,-0.4819795787334442
1789317806662694400,11.9116943359375,0.5769274234771729,2.233734130859375,-5.399402618408203
1789317806672648400,11.9216484375,-0.9226618409156799,-3.662414789199829,-3.2826695442199707
1789317806682603500,11.931603515625,-1.1494868993759155,-4.478883266448975,-0.04517461359500885
1789317806692558600,11.94155859375,0.23816975951194763,1.4314607381820679,1.599443793296814
1789317806702513400,11.951513427734374,2.4873812198638916,6.198240756988525,1.7584328651428223
1789317806712468700,11.96146875,2.8335483074188232,2.7797274589538574,0.40642935037612915
1789317806722423600,11.971423583984375,0.5613449215888977,-1.6453267335891724,0.6338327527046204
1789317806732378400,11.98137841796875,-0.9307059645652771,-3.4315712451934814,0.7544819116592407
1789317806742332400,11.99133251953125,-0.4387850761413574,-2.7646753787994385,0.7934980392456055
1789317806752287700,12.001287841796875,0.3404017984867096,1.070322871208191,1.1142628192901611
1789317806762242600,12.01124267578125,0.6876288652420044,3.192915678024292,1.1606577634811401
1789317806772197400,12.021197265625,0.5809905529022217,2.364473342895508,0.7235190868377686
1789317806782152400,12.03115234375,-0.1737826019525528,1.1720387935638428,-0.4969445765018463
1789317806792107500,12.041107421875,-0.568329393863678,-0.9544340372085571,-1.2305378913879395
1789317806802061600,12.0510615234375,0.2017827033996582,0.9042395949363708,-2.3969085216522217
1789317806812016400,12.061016357421876,1.102071762084961,2.3215713500976562,-3.2374699115753174
1789317806821971500,12.070971435546875,0.4160776436328888,-2.677464008331299,-0.5554918050765991
1789317806831926500,12.080926513671875,-0.9758778214454651,-0.7289984822273254,0.8442893028259277
1789317806841881600,12.090881591796874,-0.8231517672538757,-0.3918224573135376,1.9707139730453491
1789317806851836400,12.10083642578125,-0.05238340422511101,-1.5067908763885498,2.8866629600524902
1789317806861790500,12.11079052734375,-0.12169945985078812,1.3586466312408447,2.476396322250366
1789317806871745500,12.12074560546875,-0.08900569379329681,4.501627445220947,0.40368717908859253
1789317806881700600,12.13070068359375,-0.34013113379478455,-0.12845037877559662,-2.331192970275879
1789317806891655400,12.140655517578125,-1.2131377458572388,-2.2856757640838623,-2.583087921142578
1789317806901610500,12.150610595703125,-1.499611496925354,-2.3736512660980225,-0.7350188493728638
1789317806911565600,12.160565673828126,-0.678762674331665,-2.5018255710601807,1.974170446395874
1789317806921519600,12.17051953125,0.29708170890808105,1.2766717672348022,2.7123825550079346
1789317806931474400,12.180474365234375,0.6845929026603699,6.142477512359619,1.7026081085205078
1789317806941429500,12.190429443359376,0.09137773513793945,0.13546201586723328,-1.4950010776519775
1789317806951384600,12.200384521484375,-1.8714399337768555,-2.008295774459839,-3.0155012607574463
1789317806961339400,12.21033935546875,-2.8345415592193604,-3.0655064582824707,-0.5360555648803711
1789317806971294700,12.220294677734374,-1.7591146230697632,-5.022770881652832,3.0182313919067383
1789317806981248500,12.23024853515625,0.14596037566661835,2.6347360610961914,2.3697738647460938
1789317806991203600,12.24020361328125,1.6037241220474243,9.523835182189941,-0.2521835267543793
1789317807001158400,12.250158447265624,0.3389194905757904,-2.1864445209503174,-5.057285785675049
1789317807011113700,12.26011376953125,-2.7200169563293457,-1.1521202325820923,-4.460368633270264
1789317807021068500,12.270068603515625,-3.1594436168670654,-3.7547736167907715,-0.9514016509056091
1789317807031023600,12.280023681640625,-1.0953449010849,-1.4603734016418457,1.280237078666687
1789317807040977400,12.289977294921876,0.8381116986274719,5.588425159454346,2.3399550914764404
1789317807050932500,12.299932373046875,1.134670615196228,3.1022841930389404,1.6077591180801392
1789317807060887600,12.309887451171875,-0.7792059183120728,-1.9917185306549072,0.25146257877349854
1789317807070842600,12.319842529296874,-2.421278715133667,-2.8718111515045166,0.8379750847816467
1789317807080797400,12.32979736328125,-2.0347628593444824,-4.684652805328369,1.880383014678955
1789317807090752500,12.33975244140625,-0.9212470054626465,-1.9944205284118652,2.642580032348633
1789317807100706600,12.34970654296875,0.32213738560676575,4.910606861114502,1.7295284271240234
1789317807110661600,12.35966162109375,1.0807017087936401,4.4932074546813965,-0.413113534450531
1789317807120616400,12.369616455078125,-0.09412208199501038,-0.09371096640825272,-4.944161891937256
1789317807130571500,12.379571533203125,-2.0213239192962646,-1.6337618827819824,-5.584155559539795
1789317807140526600,12.389526611328124,-2.0097477436065674,-1.7559521198272705,-4.915708065032959
1789317807150481400,12.3994814453125,-0.4658159911632538,0.035221658647060394,-2.3378424644470215
1789317807160435500,12.409435546875,0.6820244789123535,0.8699290156364441,1.0415955781936646
1789317807170390800,12.419390869140624,0.6824412941932678,2.3443424701690674,2.6753227710723877
1789317807180346000,12.42934619140625,-0.06896068900823593,-2.389892101287842,2.9829044342041016
1789317807190301000,12.439301025390625,-1.2136993408203125,-2.933237075805664,2.8103740215301514
1789317807200255700,12.449255859375,-1.2009412050247192,-2.0984737873077393,1.941693902015686
1789317807210211000,12.459211181640624,-0.5055373311042786,0.35259556770324707,1.147592306137085
1789317807220165000,12.4691650390625,0.07320177555084229,3.5288944244384766,-0.6300041675567627
1789317807230120000,12.479119873046875,0.017001088708639145,2.0132150650024414,-2.1207470893859863
1789317807240074800,12.48907470703125,-0.5646194815635681,-1.3456939458847046,-2.1367557048797607
1789317807250030000,12.499030029296875,-0.9239289164543152,-3.109837293624878,-0.9813592433929443
1789317807259985000,12.50898486328125,-0.7234179377555847,-3.390559673309326,1.4271386861801147
1789317807269940000,12.51893994140625,0.14644533395767212,-0.6763314008712769,2.1653690338134766
1789317807279893800,12.528893798828125,1.0175272226333618,5.013664722442627,1.6125237941741943
1789317807289849000,12.53884912109375,1.0925498008728027,2.471961736679077,0.5399913191795349
1789317807299804000,12.548803955078125,-0.1403442919254303,-0.4084101915359497,-1.4869606494903564
1789317807309759000,12.558759033203126,-1.0574501752853394,-2.7301158905029297,-2.4873645305633545
