time,seconds_elapsed,z,y,x
1789222836182933500,0.04993359375,0.3939800560474396,-0.0055381618440151215,0.2966286242008209
1789222836192927500,0.059927490234375,0.16489894688129425,0.016948238015174866,-0.2020491063594818
1789222836202920700,0.069920654296875,0.05943210422992706,-0.23888733983039856,-0.17603403329849243
1789222836212914700,0.079914794921875,0.05653831362724304,-0.030435331165790558,0.19288595020771027
1789222836222907600,0.08990771484375,0.14644552767276764,0.934252142906189,-0.16350378096103668
1789222836232901600,0.099901611328125,0.3652351200580597,0.6588631868362427,-0.3956747055053711
1789222836242895600,0.1098955078125,0.572388231754303,-0.607612133026123,0.027010023593902588
1789222836252888600,0.119888671875,0.5999554395675659,-0.7659813165664673,0.018328916281461716
1789222836262882800,0.1298828125,0.5363355278968811,-0.11086123436689377,-0.15870803594589233
1789222836272875500,0.13987548828125,0.42824873328208923,0.35765060782432556,-0.049624696373939514
1789222836282869500,0.149869384765625,0.182352676987648,0.9728186726570129,0.07601818442344666
1789222836292863500,0.159863525390625,-0.06283658742904663,1.0665537118911743,0.29940468072891235
1789222836302856700,0.169856689453125,-0.16565577685832977,0.47411665320396423,0.24827447533607483
1789222836312850700,0.1798505859375,-0.05194758623838425,-0.42832422256469727,0.1889467090368271
1789222836322843600,0.18984375,0.21429768204689026,-1.0454975366592407,0.1911381483078003
1789222836332837600,0.199837646484375,0.3712526857852936,-0.43736863136291504,-0.23014916479587555
1789222836342831600,0.20983154296875,0.3095943331718445,0.5625995993614197,-0.1701560765504837
1789222836352824600,0.219824462890625,0.10833233594894409,1.0280331373214722,-0.03285599872469902
1789222836362818600,0.229818603515625,-0.03352317214012146,0.37876391410827637,-0.2836059629917145
1789222836372811500,0.2398115234375,-0.1484130173921585,-0.7185493111610413,0.03758325055241585
1789222836382805500,0.249805419921875,-0.27413687109947205,-0.6884801387786865,0.18651218712329865
1789222836392799500,0.259799560546875,-0.29304584860801697,0.03912343457341194,0.02853028103709221
1789222836402792700,0.269792724609375,-0.12622573971748352,0.050590403378009796,0.20068225264549255
1789222836412786400,0.279786376953125,0.04468315467238426,-0.13461248576641083,0.18139377236366272
1789222836422780400,0.289780517578125,0.040526218712329865,0.15459653735160828,-0.05921860411763191
1789222836432773600,0.299773681640625,-0.005302521400153637,0.07083132117986679,-0.06160746142268181
1789222836442767600,0.309767578125,0.02254565618932247,-0.5640249848365784,-0.07140848785638809
1789222836452760600,0.319760498046875,-0.012264788150787354,-0.40371257066726685,-0.2664267122745514
1789222836462754600,0.329754638671875,-0.09602619707584381,0.5311747193336487,-0.41052594780921936
1789222836472748500,0.33974853515625,-0.14338332414627075,0.7904036045074463,0.02893129736185074
1789222836482741500,0.349741455078125,-0.1126290038228035,0.12061239033937454,0.42968761920928955
1789222836492735700,0.35973583984375,-0.016284096986055374,-0.3488160967826843,0.18543313443660736
1789222836502728700,0.369728759765625,0.11918721348047256,-0.5197617411613464,0.20234033465385437
1789222836512722400,0.379722412109375,0.1644255369901657,-0.3312576413154602,0.11454178392887115
1789222836522716400,0.38971630859375,0.2328501045703888,-0.21881256997585297,-0.4037545621395111
1789222836532709600,0.399709716796875,0.30073434114456177,0.023654919117689133,-0.42653363943099976
1789222836542703600,0.40970361328125,0.3539678752422333,0.30705371499061584,0.05475543811917305
1789222836552696800,0.41969677734375,0.18708114326000214,1.257702350616455,-0.014565312303602695
1789222836562690600,0.429690673828125,0.007227487862110138,1.2154831886291504,-0.09790327399969101
1789222836572684500,0.4396845703125,0.02998020499944687,-0.6429138779640198,0.6047755479812622
1789222836582677500,0.449677490234375,0.12285808473825455,-1.5540821552276611,0.6182811856269836
1789222836592671700,0.459671630859375,0.1685459464788437,-0.32184121012687683,-0.1973409503698349
1789222836602664700,0.469664794921875,0.299995481967926,0.7683585286140442,-0.5843278765678406
1789222836612658400,0.479658447265625,0.46367815136909485,0.4026825428009033,-0.3199329376220703
1789222836622652400,0.48965234375,0.5196928977966309,0.14868488907814026,-0.47558078169822693
1789222836632645600,0.499645751953125,0.5413864850997925,0.17311885952949524,-0.4440889060497284
1789222836642639600,0.5096396484375,0.5160728693008423,-0.18464140594005585,0.4806216061115265
1789222836652633600,0.519633544921875,0.3030999004840851,0.12815724313259125,0.6544767618179321
1789222836662626600,0.52962646484375,0.11129523068666458,0.6857632398605347,0.18567363917827606
1789222836672620500,0.53962060546875,-0.021889984607696533,0.7343219518661499,0.5287822484970093
1789222836682613500,0.549613525390625,-0.027162276208400726,0.4318176507949829,0.45478057861328125
1789222836692607700,0.559607666015625,0.0907829999923706,0.5198790431022644,-0.8073444366455078
1789222836702601700,0.569601806640625,0.3005642294883728,-0.22745177149772644,-0.5421885251998901
1789222836712594400,0.579594482421875,0.48313429951667786,-0.9083821177482605,0.07290607690811157
1789222836722588400,0.58958837890625,0.5506740808486938,-0.096625417470932,-0.46145960688591003
1789222836732581600,0.59958154296875,0.4713206887245178,0.5942640900611877,-0.11163157224655151
1789222836742575600,0.60957568359375,0.3002064824104309,0.4197181165218353,0.49981024861335754
1789222836752569600,0.619569580078125,0.04846131056547165,0.5832148790359497,-0.02621760591864586
1789222836762562600,0.6295625,-0.2074872851371765,0.4871810972690582,0.17864760756492615
1789222836772556500,0.639556640625,-0.23546138405799866,0.051236022263765335,0.3420136272907257
1789222836782550500,0.649550537109375,-0.0770384892821312,0.10603980720043182,-0.1326562911272049
1789222836792543700,0.659543701171875,0.18265274167060852,0.12037533521652222,-0.021697551012039185
1789222836802537700,0.669537841796875,0.42771294713020325,0.007020469289273024,0.048912014812231064
1789222836812530400,0.679530517578125,0.4454679787158966,0.2632541060447693,-0.053798917680978775
1789222836822524700,0.689524658203125,0.23989935219287872,0.5273765325546265,-0.0604100339114666
1789222836832518700,0.6995185546875,0.031058520078659058,0.04470199719071388,0.0315726213157177
1789222836842511600,0.70951171875,-0.10656236857175827,-0.4862862825393677,0.11840097606182098
1789222836852505600,0.719505615234375,-0.19081705808639526,0.003500445745885372,-0.2078213393688202
1789222836862498600,0.72949853515625,-0.16311393678188324,0.22252118587493896,0.03186208754777908
1789222836872492500,0.739492431640625,-0.08593234419822693,0.19060054421424866,0.19447390735149384
1789222836882486500,0.749486572265625,-0.06930404156446457,0.7433700561523438,-0.15637677907943726
1789222836892479700,0.759479736328125,-0.10109392553567886,0.5939955115318298,0.12867067754268646
1789222836902473700,0.7694736328125,-0.10144253075122833,-0.6277551651000977,0.3999831974506378
1789222836912466400,0.779466552734375,-0.18740777671337128,-0.8899567127227783,0.10697557032108307
1789222836922460700,0.789460693359375,-0.31846606731414795,-0.044340915977954865,-0.10677370429039001
1789222836932454700,0.79945458984375,-0.32685768604278564,0.27864620089530945,-0.3717568814754486
1789222836942447600,0.809447509765625,-0.27352175116539,-0.032424863427877426,-0.45610272884368896
1789222836952441600,0.819441650390625,-0.27038881182670593,0.06101001426577568,-0.14658987522125244
1789222836962435600,0.829435546875,-0.3069668114185333,0.49835026264190674,0.13781538605690002
1789222836972428500,0.839428466796875,-0.29669100046157837,0.2138117402791977,0.31078317761421204
1789222836982422500,0.849422607421875,-0.264898419380188,-0.49703308939933777,0.4006088674068451
1789222836992415700,0.859415771484375,-0.25434377789497375,-0.46734070777893066,0.11100795120000839
1789222837002409700,0.86940966796875,-0.19290512800216675,0.0011754492297768593,-0.2111937701702118
1789222837012403500,0.879403564453125,-0.051677703857421875,0.23868706822395325,-0.41930675506591797
1789222837022396700,0.889396728515625,0.1716649979352951,0.026922080665826797,-0.509162425994873
1789222837032390700,0.899390625,0.332031786441803,-0.29474756121635437,0.0012473086826503277
1789222837042383600,0.909383544921875,0.3300613760948181,-0.12358300387859344,0.3904727101325989
1789222837052377600,0.919377685546875,0.2228480875492096,0.296912282705307,0.42613136768341064
1789222837062371600,0.92937158203125,-0.01017560251057148,0.7429906725883484,0.4900132119655609
1789222837072364500,0.939364501953125,-0.21734929084777832,0.731221079826355,0.3095025420188904
1789222837082358500,0.949358642578125,-0.27195021510124207,0.3320435881614685,-0.11062697321176529
1789222837092352500,0.9593525390625,-0.21481476724147797,0.03348058462142944,-0.2809630334377289
1789222837102345700,0.969345703125,-0.0038499264046549797,-0.24389973282814026,-0.1280357539653778
1789222837112339500,0.97933935546875,0.24967047572135925,-0.22276541590690613,0.004075676202774048
1789222837122332700,0.989332763671875,0.3574799597263336,0.372962087392807,-0.23153333365917206
1789222837132326700,0.99932666015625,0.2734106183052063,0.5867843627929688,-0.3859338164329529
1789222837142320600,1.009320556640625,0.014065355062484741,0.15959176421165466,-0.09117195755243301
1789222837152313600,1.019313720703125,-0.2612279951572418,-0.10036871582269669,-0.1166544109582901
1789222837162307600,1.0293076171875,-0.4016672968864441,-0.1303863525390625,-0.010493778623640537
1789222837172300500,1.039300537109375,-0.4063033163547516,0.08421063423156738,0.3720157742500305
1789222837182294500,1.04929443359375,-0.2768406271934509,0.3170475363731384,0.34874120354652405
1789222837192288500,1.05928857421875,-0.10920824110507965,0.12101971358060837,0.32618555426597595
1789222837202281700,1.06928173828125,-0.10093999654054642,0.20214731991291046,0.20824040472507477
1789222837212275500,1.079275390625,-0.2228347361087799,0.34337368607521057,-0.15434657037258148
1789222837222269400,1.08926953125,-0.35019439458847046,-0.03685083985328674,-0.37265220284461975
1789222837232262700,1.0992626953125,-0.3950585424900055,-0.5303460359573364,-0.3032352924346924
1789222837242256600,1.109256591796875,-0.3210429251194,-0.48695990443229675,-0.2935464084148407
1789222837252249600,1.11924951171875,-0.2207714468240738,-0.08476613461971283,-0.14161863923072815
1789222837262243600,1.12924365234375,-0.12776681780815125,-0.007221954874694347,0.08565042912960052
1789222837272237600,1.139237548828125,-0.10843972116708755,-0.0794287770986557,0.2799605131149292
1789222837282230500,1.14923046875,-0.22250880300998688,0.10462651401758194,0.48362281918525696
1789222837292224800,1.159224853515625,-0.25238466262817383,-0.15008486807346344,0.2836812138557434
1789222837302217500,1.169217529296875,-0.1423078328371048,-0.6114452481269836,-0.05421312525868416
1789222837312211500,1.17921142578125,-0.10479747503995895,-0.39886215329170227,-0.04886949062347412
1789222837322205400,1.189205322265625,-0.11976704001426697,0.2552790641784668,-0.021510405465960503
1789222837332198700,1.19919873046875,-0.07212681323289871,0.5153087973594666,-0.1396722048521042
1789222837342192600,1.209192626953125,0.01772160828113556,0.03289429843425751,-0.06755124032497406
1789222837352186600,1.2191865234375,0.022676683962345123,-0.11707894504070282,-0.1663752943277359
1789222837362179600,1.2291796875,-0.07886718213558197,0.12022517621517181,-0.0653761699795723
1789222837372173600,1.239173583984375,-0.16969214379787445,0.11332440376281738,0.13247299194335938
1789222837382166500,1.24916650390625,-0.1232985258102417,-0.24321746826171875,0.045713528990745544
1789222837392160800,1.259160888671875,-0.05209118872880936,-0.17068015038967133,-0.03703354671597481
1789222837402154800,1.26915478515625,-0.11027637124061584,0.5920520424842834,-0.2196555733680725
1789222837412147500,1.2791474609375,-0.1902814507484436,0.5530188679695129,0.007651080843061209
1789222837422141400,1.289141357421875,-0.2186736762523651,0.05701090767979622,0.1844615936279297
1789222837432135700,1.2991357421875,-0.1967494785785675,-0.07157237082719803,0.13901874423027039
1789222837442128600,1.309128662109375,-0.1140250638127327,-0.11969086527824402,0.1339426189661026
1789222837452122600,1.31912255859375,-0.019419200718402863,-0.2946892976760864,0.05775091424584389
1789222837462115600,1.329115478515625,0.05975561961531639,-0.36500847339630127,-0.13989098370075226
1789222837472109600,1.339109619140625,0.09005626291036606,-0.08418452739715576,-0.19924752414226532
1789222837482103600,1.349103515625,0.050563082098960876,0.3490670323371887,-0.049368612468242645
1789222837492096800,1.3590966796875,0.068990558385849,0.18363545835018158,0.028246287256479263
1789222837502090800,1.3690908203125,0.1136048287153244,-0.26743704080581665,0.07665679603815079
1789222837512083500,1.37908349609375,0.03652229905128479,0.015913691371679306,0.1576203554868698
1789222837522077400,1.389077392578125,-0.022507231682538986,0.30321627855300903,0.18937987089157104
1789222837532071700,1.39907177734375,0.046576496213674545,-0.20249271392822266,0.016630470752716064
1789222837542064600,1.409064697265625,0.05982599034905434,-0.43863117694854736,-0.12189776450395584
1789222837552058600,1.41905859375,-0.03192443773150444,-0.002636559307575226,-0.12476039677858353
1789222837562052600,1.429052490234375,-0.08127257972955704,0.017602860927581787,-0.12950411438941956
1789222837572045600,1.439045654296875,-0.03680950403213501,-0.3441987633705139,-0.06003262475132942
1789222837582039600,1.44903955078125,0.06072307378053665,0.07685868442058563,-0.12797532975673676
1789222837592032800,1.45903271484375,0.17417825758457184,0.5501015782356262,0.039226967841386795
1789222837602026800,1.46902685546875,0.21703022718429565,0.6621671915054321,0.11651737987995148
1789222837612020500,1.4790205078125,0.12584279477596283,0.6573079824447632,0.2574867606163025
1789222837622013700,1.489013671875,-0.03112083114683628,0.33482664823532104,0.38426199555397034
1789222837632007700,1.499007568359375,-0.190964013338089,-0.3336406350135803,-0.057892508804798126
1789222837642001700,1.509001708984375,-0.3456832468509674,-1.1876254081726074,-0.2556633949279785
1789222837651994600,1.51899462890625,-0.5812755227088928,-0.8151876330375671,-0.1321433186531067
1789222837661988600,1.528988525390625,-0.6696770787239075,0.006413776893168688,-0.4526384472846985
1789222837671981600,1.538981689453125,-0.4354217052459717,-0.41749992966651917,-0.4900910258293152
1789222837681975600,1.5489755859375,-0.2082851529121399,-0.3114403188228607,0.09573272615671158
1789222837691969500,1.558969482421875,-0.1874467134475708,0.7378361225128174,0.5409621000289917
1789222837701962800,1.568962646484375,-0.18288278579711914,0.5340555906295776,0.4946553111076355
1789222837711956500,1.57895654296875,-0.24963465332984924,-0.257668673992157,0.4697054624557495
1789222837721950500,1.588950439453125,-0.45041176676750183,-0.30554646253585815,0.29234594106674194
1789222837731943700,1.598943603515625,-0.5022765398025513,-0.6381190419197083,-0.10815222561359406
1789222837741937700,1.608937744140625,-0.32182997465133667,-0.953384280204773,-0.2632875442504883
1789222837751930600,1.6189306640625,-0.028146939352154732,-0.27131807804107666,-0.29554080963134766
1789222837761924600,1.628924560546875,0.2697702944278717,0.47393491864204407,-0.49575477838516235
1789222837771918600,1.638918701171875,0.3706319332122803,0.5239914059638977,-0.4101961851119995
1789222837781911600,1.64891162109375,0.18012259900569916,0.141874298453331,0.13478374481201172
1789222837791905500,1.658905517578125,-0.1240125223994255,-0.24227017164230347,0.41669851541519165
1789222837801899800,1.668899658203125,-0.23873506486415863,-0.6055343747138977,0.2730492353439331
1789222837811892500,1.678892578125,-0.19908033311367035,-0.4540681540966034,0.2309875339269638
1789222837821886500,1.688886474609375,-0.09432420134544373,0.003702987916767597,0.24960638582706451
1789222837831879700,1.698879638671875,0.062130656093358994,0.4913967549800873,0.07710331678390503
1789222837841873700,1.708873779296875,0.17868183553218842,0.7402287721633911,-0.10930846631526947
1789222837851867600,1.71886767578125,0.2619096040725708,0.23622159659862518,-0.3776373863220215
1789222837861860600,1.728860595703125,0.23610495030879974,-0.7523176670074463,-0.42294180393218994
1789222837871854600,1.7388544921875,0.09744400531053543,-1.2031946182250977,-0.06060011684894562
1789222837881848600,1.7488486328125,-0.028891660273075104,-0.6389598250389099,0.09327676892280579
1789222837891841500,1.758841552734375,0.0014950078912079334,0.1964825987815857,-0.005495880264788866
1789222837901835800,1.768835693359375,0.1295824646949768,0.5794787406921387,0.09703317284584045
1789222837911828500,1.778828369140625,0.18809105455875397,0.7941732406616211,-0.06504254788160324
1789222837921822500,1.788822509765625,0.17018522322177887,0.415806382894516,-0.10155084729194641
1789222837931816700,1.798816650390625,0.130891352891922,-0.17516955733299255,0.11155876517295837
1789222837941809700,1.8088095703125,0.1513807475566864,-0.4329998791217804,0.07117495685815811
1789222837951803600,1.8188037109375,0.20162101089954376,-0.2467687726020813,-0.06579408049583435
1789222837961797600,1.828797607421875,0.25339534878730774,0.00957765057682991,-0.01551091019064188
1789222837971790600,1.83879052734375,0.26730024814605713,0.18909680843353271,-0.09218784421682358
1789222837981784600,1.84878466796875,0.23904667794704437,0.04701059311628342,-0.10723487287759781
1789222837991777500,1.858777587890625,0.17469139397144318,0.019005857408046722,-0.08338280767202377
1789222838001771800,1.868771728515625,0.19673031568527222,0.04889211058616638,-0.16660860180854797
1789222838011765500,1.878765625,0.39864903688430786,-0.20405332744121552,-0.0967075377702713
1789222838021758500,1.888758544921875,0.517412543296814,0.143297478556633,-0.006492278538644314
1789222838031752700,1.898752685546875,0.4794744849205017,0.63837730884552,0.1535639613866806
1789222838041746700,1.90874658203125,0.3623703122138977,0.5370110273361206,0.44146066904067993
1789222838051739600,1.91873974609375,0.21718542277812958,0.23025479912757874,0.38525518774986267
1789222838061733400,1.9287333984375,0.11329714208841324,-0.13887310028076172,0.07743114978075027
1789222838071726600,1.9387265625,0.04224533215165138,-0.3976982831954956,-0.15142308175563812
1789222838081720600,1.948720458984375,0.04934694990515709,-0.4439011216163635,-0.48938319087028503
1789222838091714600,1.958714599609375,0.08116187155246735,-0.2995032072067261,-0.3574485778808594
1789222838101707800,1.968707763671875,0.13912345468997955,0.2951401472091675,-0.39387407898902893
1789222838111701500,1.978701416015625,0.18910805881023407,0.5421949625015259,-0.026853173971176147
1789222838121695500,1.988695556640625,0.11322130262851715,0.3943501114845276,0.3755701780319214
1789222838131688700,1.998688720703125,0.007939359173178673,-0.05825195834040642,0.24345368146896362
1789222838141682700,2.0086826171875,-0.09944924712181091,-0.31351643800735474,0.37902939319610596
1789222838151675600,2.018675537109375,-0.21416915953159332,0.22585837543010712,0.2319139689207077
1789222838161669400,2.02866943359375,-0.16018080711364746,0.3026607930660248,-0.04617629945278168
1789222838171663600,2.03866357421875,0.04014749825000763,0.07755525410175323,-0.1842590719461441
1789222838181656600,2.048656494140625,0.19754843413829803,0.11742669343948364,-0.19423463940620422
1789222838191650600,2.058650634765625,0.20667321979999542,0.21637457609176636,-0.3410826623439789
1789222838201644500,2.06864453125,0.1569650024175644,-0.3590851426124573,-0.12331108003854752
1789222838211637500,2.078637451171875,0.02677822858095169,-0.458188533782959,0.23945006728172302
1789222838221631500,2.088631591796875,-0.12167202681303024,0.22496072947978973,0.2833191156387329
1789222838231625500,2.09862548828125,-0.20090506970882416,0.6153204441070557,0.12022074311971664
1789222838241618700,2.10861865234375,-0.25292131304740906,0.3470797836780548,0.13485829532146454
1789222838251612700,2.11861279296875,-0.3156108260154724,0.08163799345493317,0.11179158836603165
1789222838261605400,2.12860546875,-0.2945046126842499,-0.14673714339733124,-0.15569283068180084
1789222838271599600,2.138599609375,-0.08494047820568085,-0.7711097002029419,-0.17261002957820892
1789222838281593600,2.148593505859375,-0.009973062202334404,-0.37072253227233887,-0.11884007602930069
1789222838291586600,2.158586669921875,-0.15408283472061157,0.5299625992774963,0.05922073498368263
1789222838301580500,2.16858056640625,-0.3437940776348114,0.49042317271232605,0.25587669014930725
1789222838311574800,2.17857470703125,-0.4634307324886322,-0.3000999689102173,0.2647460699081421
1789222838321567500,2.1885673828125,-0.571950376033783,-0.4572278559207916,0.2596973776817322
1789222838331561500,2.1985615234375,-0.5231034755706787,-0.37406665086746216,0.02845909260213375
1789222838341555700,2.2085556640625,-0.2827531695365906,-0.5302978157997131,-0.302996426820755
1789222838351548700,2.218548583984375,-0.09038427472114563,-0.16373899579048157,-0.28290098905563354
1789222838361542700,2.228542724609375,-0.04843493178486824,0.4244028627872467,-0.3066744804382324
1789222838371535600,2.23853564453125,-0.15440130233764648,0.20250587165355682,-0.2506200075149536
1789222838381529600,2.248529541015625,-0.36760708689689636,-0.4233279824256897,0.07740785926580429
1789222838391523600,2.258523681640625,-0.5771219730377197,-0.48660707473754883,0.32575640082359314
1789222838401516800,2.268516845703125,-0.5873371958732605,-0.29525408148765564,0.33630409836769104
1789222838411510800,2.2785107421875,-0.40442195534706116,-0.20917831361293793,0.3399654030799866
1789222838421504500,2.28850439453125,-0.15710385143756866,0.318945974111557,0.056460313498973846
1789222838431497500,2.29849755859375,0.024321863427758217,0.6740127205848694,-0.1807897835969925
1789222838441491700,2.30849169921875,0.05042809993028641,0.2398676574230194,-0.3273524343967438
1789222838451484700,2.318484619140625,-0.07265228778123856,-0.5512019395828247,-0.228438138961792
1789222838461478700,2.328478759765625,-0.2975926697254181,-0.6010333299636841,0.049006685614585876
1789222838471472400,2.338472412109375,-0.3746650815010071,-0.33132272958755493,0.06453637778759003
1789222838481465600,2.348465576171875,-0.19489258527755737,-0.45793384313583374,0.057186879217624664
1789222838491459600,2.35845947265625,-0.001452811062335968,0.02929200977087021,-0.02041630446910858
1789222838501453600,2.36845361328125,0.07571767270565033,0.7759579420089722,0.03108351118862629
1789222838511446800,2.37844677734375,0.06580565124750137,0.6631648540496826,0.12543371319770813
1789222838521440500,2.3884404296875,0.04964686185121536,-0.22311794757843018,-0.012516181915998459
1789222838531434500,2.3984345703125,-0.10075942426919937,-0.5991978049278259,0.08604368567466736
1789222838541427700,2.408427734375,-0.28374385833740234,-0.4615493416786194,0.12213997542858124
1789222838551421700,2.418421630859375,-0.2887769639492035,-0.4464537501335144,0.014352532103657722
1789222838561415700,2.428415771484375,-0.16039597988128662,-0.1652262955904007,-0.02795829065144062
1789222838571408400,2.438408447265625,-0.017399948090314865,0.3441812992095947,-0.17557331919670105
1789222838581402600,2.448402587890625,0.04404756426811218,0.27970871329307556,-0.292520672082901
1789222838591395600,2.4583955078125,0.08703258633613586,-0.5523959398269653,-0.09578390419483185
1789222838601389600,2.4683896484375,0.04612712934613228,-0.701670229434967,0.1858735829591751
1789222838611383600,2.478383544921875,-0.12062536925077438,0.16821588575839996,0.15766111016273499
1789222838621376500,2.48837646484375,-0.31338465213775635,0.5797263383865356,0.08721420168876648
1789222838631370800,2.498370849609375,-0.4235660135746002,0.04416489228606224,0.3134680986404419
1789222838641364700,2.50836474609375,-0.4241357445716858,-0.40056344866752625,0.3450632393360138
1789222838651357700,2.518357666015625,-0.3905540704727173,-0.19443930685520172,-0.031249957159161568
1789222838661351700,2.5283515625,-0.18741485476493835,-0.5764439105987549,-0.17281021177768707
1789222838671345700,2.538345703125,0.06111560016870499,-0.9446402788162231,-0.23932959139347076
1789222838681339000,2.5483388671875,0.1326075941324234,-0.5076289176940918,-0.2916439473628998
1789222838691332900,2.558332763671875,-0.02440999075770378,0.3661632537841797,-0.09514845907688141
1789222838701325600,2.56832568359375,-0.21697869896888733,0.5893800258636475,0.1329844892024994
1789222838711319800,2.57831982421875,-0.3338054418563843,-0.02543632499873638,0.11358841508626938
1789222838721313800,2.588313720703125,-0.4387446641921997,-0.5130442976951599,0.07666642963886261
1789222838731306800,2.598306640625,-0.4049113392829895,-0.696248471736908,0.29492393136024475
1789222838741300700,2.60830078125,-0.14118432998657227,-0.3725713789463043,0.16746896505355835
1789222838751294700,2.618294677734375,0.17775477468967438,0.10241378098726273,-0.19803550839424133
1789222838761287700,2.62828759765625,0.3052074611186981,0.06773170083761215,0.047831371426582336
1789222838771281700,2.63828173828125,0.1896611601114273,0.04580136388540268,0.10263709723949432
1789222838781275600,2.648275634765625,0.017323708161711693,-0.026513881981372833,-0.2378818839788437
1789222838791268900,2.658268798828125,-0.11041188985109329,-0.5968340635299683,-0.09944038093090057
1789222838801262600,2.6682626953125,-0.233427032828331,-0.6240332126617432,-0.1888190656900406
1789222838811256600,2.678256591796875,-0.29131853580474854,-0.36472445726394653,-0.015100539661943913
1789222838821249800,2.688249755859375,-0.27153900265693665,0.12615281343460083,0.34652265906333923
1789222838831243800,2.698243896484375,-0.03861815482378006,0.35720306634902954,0.08636801689863205
1789222838841236700,2.70823681640625,0.3012571632862091,-0.33526432514190674,-0.00627322681248188
1789222838851230700,2.718230712890625,0.34639668464660645,-0.23249158263206482,-0.15589946508407593
1789222838861224700,2.728224609375,0.18315382301807404,0.032190486788749695,-0.07603457570075989
1789222838871217700,2.7382177734375,0.05178701505064964,-0.3556499183177948,0.4001769721508026
1789222838881211600,2.748211669921875,0.04567985609173775,-0.33485278487205505,0.09830600023269653
1789222838891206000,2.758205810546875,0.03745441511273384,0.34453582763671875,0.005085507407784462
1789222838901198600,2.768198486328125,0.018047058954834938,0.8424111008644104,0.10284094512462616
1789222838911192600,2.778192626953125,0.09859516471624374,0.397430956363678,-0.10227465629577637
1789222838921186600,2.7881865234375,0.29349562525749207,-0.3247530460357666,-0.39618390798568726
1789222838931179800,2.7981796875,0.5435134768486023,-0.5136086940765381,-0.37628185749053955
1789222838941173800,2.808173828125,0.6556651592254639,0.06842302531003952,-0.25287672877311707
1789222838951167700,2.818167724609375,0.5844873785972595,0.3591536581516266,0.07889188081026077
1789222838961160700,2.82816064453125,0.3789631724357605,0.2714424431324005,0.612409234046936
1789222838971154700,2.83815478515625,0.09361212700605392,0.7780275940895081,0.5957058668136597
1789222838981147600,2.848147705078125,-0.010394502431154251,0.7138339281082153,0.15386556088924408
1789222838991142000,2.858141845703125,0.11463451385498047,-0.06992774456739426,-0.2909422516822815
1789222839001135900,2.868135986328125,0.17332060635089874,-0.17915214598178864,-0.3879091143608093
1789222839011128600,2.878128662109375,0.34138283133506775,-0.2869638204574585,-0.38048288226127625
1789222839021122800,2.888122802734375,0.6110244989395142,-0.46088606119155884,-0.3092651665210724
1789222839031116800,2.89811669921875,0.7201664447784424,-0.03295575827360153,-0.0853620320558548
1789222839041109800,2.90810986328125,0.5853517055511475,0.5419495105743408,-0.11225172877311707
1789222839051103700,2.918103759765625,0.37025806307792664,0.08069688081741333,0.2866426408290863
1789222839061097700,2.92809765625,0.07350945472717285,0.05900490656495094,0.46248164772987366
1789222839071090700,2.938090576171875,-0.11894042044878006,0.43756020069122314,0.08431278169155121
1789222839081084700,2.948084716796875,-0.12336945533752441,0.38873592019081116,-0.07280665636062622
1789222839091078700,2.95807861328125,0.06746415048837662,0.11576087027788162,-0.04916603863239288
1789222839101072000,2.96807177734375,0.2832244634628296,0.0583338662981987,-0.010943269357085228
1789222839111065600,2.978065673828125,0.40628141164779663,-0.05784013867378235,-0.013281524181365967
1789222839121059600,2.9880595703125,0.44639095664024353,-0.20307038724422455,-0.1126352921128273
1789222839131052800,2.998052734375,0.3778102993965149,-0.20444191992282867,-0.0014991851057857275
1789222839141046800,3.008046875,0.12033750861883163,0.3305928409099579,-0.12479040771722794
1789222839151039700,3.018039794921875,-0.15032219886779785,0.38104161620140076,-0.10576718300580978
1789222839161033700,3.02803369140625,-0.3078193962574005,-0.08041305840015411,0.2174162119626999
1789222839171027700,3.03802783203125,-0.37947946786880493,0.15539094805717468,0.17596197128295898
1789222839181020700,3.048020751953125,-0.38253217935562134,0.8021623492240906,-0.0723242461681366
1789222839191014700,3.0580146484375,-0.22338220477104187,0.15786004066467285,0.2696019411087036
1789222839201009000,3.0680087890625,-0.019822292029857635,-0.752321183681488,0.07639921456575394
1789222839211001600,3.078001708984375,0.145285964012146,-1.0732635259628296,-0.4218640923500061
1789222839220995600,3.08799560546875,0.06062315031886101,-0.46138566732406616,-0.20974397659301758
1789222839230989600,3.097989501953125,-0.19347117841243744,0.25871604681015015,0.5329576134681702
1789222839240982800,3.107982666015625,-0.3283478915691376,0.9278095364570618,0.1164202019572258
1789222839250976800,3.117976806640625,-0.29768505692481995,0.5989797711372375,0.12480729073286057
1789222839260970800,3.127970703125,-0.2467479109764099,-0.005819400772452354,0.15629848837852478
1789222839270963700,3.137963623046875,-0.3274936079978943,-0.12660706043243408,-0.5985755920410156
1789222839280957700,3.147957763671875,-0.34056803584098816,-1.1566716432571411,-0.16677361726760864
1789222839290951700,3.15795166015625,-0.22670646011829376,-0.9537538886070251,0.1092425137758255
1789222839300945000,3.16794482421875,0.06623779237270355,0.31502845883369446,-0.195868119597435
1789222839310939000,3.17793896484375,0.2294512242078781,1.1099815368652344,-0.07533931732177734
1789222839320932600,3.1879326171875,0.1835765391588211,0.5921012759208679,0.15379606187343597
1789222839330925800,3.19792578125,-0.06169820576906204,-0.31436920166015625,0.23163333535194397
1789222839340919800,3.207919921875,-0.3364019989967346,-0.6887280344963074,0.28411394357681274
1789222839350912800,3.217912841796875,-0.3962456285953522,-0.5628412365913391,-0.12746694684028625
1789222839360906800,3.22790673828125,-0.24062861502170563,-0.5427519083023071,-0.1870165467262268
1789222839370900700,3.237900634765625,-0.08421848714351654,-0.1461491882801056,-0.0735645592212677
1789222839380893700,3.247893798828125,-0.017618589103221893,0.7222113013267517,-0.13832096755504608
1789222839390887700,3.2578876953125,-0.03932681307196617,0.7178937792778015,0.266885906457901
1789222839400881700,3.267881591796875,-0.11433814465999603,0.002072686329483986,0.2899252772331238
1789222839410874600,3.27787451171875,-0.2165215015411377,-0.4600427746772766,-0.2363787293434143
1789222839420868600,3.28786865234375,-0.23252137005329132,-0.872246503829956,-0.09060359746217728
1789222839430862600,3.297862548828125,-0.13385631144046783,-0.7731891870498657,0.07108010351657867
1789222839440855800,3.307855712890625,0.05655217543244362,0.04615413025021553,-0.03141212835907936
1789222839450849800,3.317849853515625,0.2378452718257904,0.6691268682479858,0.23616470396518707
1789222839460843800,3.32784375,0.2715279757976532,0.6335157155990601,0.14647260308265686
1789222839470836700,3.337836669921875,0.16095352172851562,0.06868322193622589,-0.31794673204421997
1789222839480830700,3.347830810546875,0.017047276720404625,-0.5127843618392944,-0.15881745517253876
1789222839490824700,3.35782470703125,-0.08157970011234283,-0.4862035810947418,0.22327612340450287
1789222839500817700,3.367817626953125,0.020685259252786636,-0.4186365008354187,0.007327470928430557
1789222839510812000,3.37781201171875,0.23602792620658875,-0.31265413761138916,0.037694431841373444
1789222839520806000,3.387805908203125,0.3430853486061096,0.45695173740386963,-0.09694640338420868
1789222839530798600,3.397798583984375,0.27377498149871826,0.8494348526000977,-0.17049439251422882
1789222839540792600,3.40779248046875,0.2558305859565735,0.10751035809516907,-0.21237234771251678
1789222839550786800,3.417786865234375,0.2834278643131256,-0.5035860538482666,-0.05343302711844444
1789222839560779800,3.42777978515625,0.2960714101791382,-0.18289116024971008,0.026964662596583366
1789222839570773800,3.437773681640625,0.40889009833335876,-0.017716575413942337,-0.11867456138134003
1789222839580767700,3.447767822265625,0.4297263026237488,-0.001277831383049488,0.2391417920589447
1789222839590760700,3.4577607421875,0.37913742661476135,0.5586877465248108,0.144246444106102
1789222839600754700,3.467754638671875,0.2935481071472168,0.8894249796867371,0.25014960765838623
1789222839610748700,3.477748779296875,0.3077582120895386,0.2655254304409027,0.11758197098970413
1789222839620741600,3.48774169921875,0.3986418843269348,-0.5505694150924683,-0.41762179136276245
1789222839630735600,3.497735595703125,0.5292755365371704,-0.8024716973304749,-0.24090589582920074
1789222839640729000,3.50772900390625,0.5054939985275269,0.23479826748371124,-0.07065282762050629
1789222839650722300,3.517722412109375,0.5068064332008362,0.6625022292137146,-0.020334793254733086
1789222839660716300,3.52771630859375,0.5446518063545227,0.4830675721168518,0.12815123796463013
1789222839670710300,3.537710205078125,0.5583258271217346,0.30907902121543884,0.3452545404434204
1789222839680703200,3.547703125,0.4484919309616089,0.425631582736969,-0.07346592843532562
1789222839690697200,3.557697265625,0.2307678610086441,0.08690651506185532,-0.18291492760181427
1789222839700690200,3.567690185546875,-0.006487870588898659,-0.088660329580307,0.12480659782886505
1789222839710684400,3.577684326171875,-0.018489139154553413,0.16575410962104797,-0.005000932142138481
1789222839720678400,3.587678466796875,0.22034670412540436,0.2445172220468521,-0.22841694951057434
1789222839730671000,3.597671142578125,0.4745664596557617,-0.053761355578899384,0.1940924972295761
1789222839740665000,3.6076650390625,0.539124608039856,0.05701374635100365,0.235115185379982
1789222839750659300,3.617659423828125,0.4660240113735199,0.21954993903636932,-0.10260292142629623
1789222839760652300,3.62765234375,0.2625204026699066,0.010721687227487564,-0.006879392545670271
1789222839770646300,3.637646240234375,0.04895617812871933,-0.15706118941307068,-0.10539344698190689
1789222839780640300,3.64764013671875,-0.04674507677555084,0.05696839466691017,-0.3640582263469696
1789222839790633200,3.65763330078125,-0.051510270684957504,0.2912046015262604,-0.1401902735233307
1789222839800627200,3.667627197265625,-0.08569373935461044,0.6271734237670898,0.033847007900476456
1789222839810621200,3.67762109375,-0.06797946244478226,0.3635692596435547,0.0726974681019783
1789222839820614400,3.687614501953125,0.03757116198539734,-0.4185008406639099,0.3277142345905304
1789222839830608400,3.6976083984375,0.07435633987188339,-0.47264397144317627,0.19262617826461792
1789222839840602000,3.70760205078125,-0.04620438814163208,-0.11282485723495483,0.12461470812559128
1789222839850595300,3.71759521484375,-0.21344079077243805,0.19274969398975372,0.050392940640449524
1789222839860589300,3.72758935546875,-0.3857864737510681,0.4601961076259613,-0.019535604864358902
1789222839870583300,3.737583251953125,-0.5321072340011597,0.47089242935180664,-0.04715711250901222
1789222839880576300,3.747576171875,-0.6041010022163391,0.061621807515621185,-0.2500303387641907
1789222839890570200,3.7575703125,-0.46251487731933594,-1.0027035474777222,-0.17957428097724915
1789222839900564200,3.767564208984375,-0.318173885345459,-1.2259529829025269,0.2130938321352005
1789222839910557200,3.77755712890625,-0.22256587445735931,-0.42972421646118164,-0.022665156051516533
1789222839920551400,3.787551513671875,-0.16089557111263275,0.007711939048022032,-0.2111469805240631
1789222839930545400,3.79754541015625,-0.29484617710113525,0.28956305980682373,0.16707248985767365
1789222839940538000,3.8075380859375,-0.6712682843208313,1.1064502000808716,0.10621447116136551
1789222839950532000,3.817531982421875,-0.8587777018547058,0.2574070394039154,0.2935737073421478
1789222839960526300,3.8275263671875,-0.7294912338256836,-1.5103577375411987,0.680370032787323
1789222839970519300,3.837519287109375,-0.4243800640106201,-1.5805308818817139,0.2633717358112335
1789222839980513300,3.84751318359375,-0.02180830016732216,-0.2803609073162079,-0.30036795139312744
1789222839990507300,3.85750732421875,0.3896298408508301,0.5854106545448303,-0.8198114037513733
1789222840000500200,3.867500244140625,0.5542288422584534,0.5066589713096619,-0.9099155068397522
1789222840010494200,3.877494140625,0.3475131690502167,0.2894156277179718,-0.3013075292110443
1789222840020488200,3.88748828125,0.06277266144752502,0.10934668779373169,0.012149478308856487
1789222840030481400,3.8974814453125,-0.06352561712265015,-0.5997492074966431,0.7390782237052917
1789222840040475400,3.907475341796875,-0.07544593513011932,-0.33338630199432373,0.8717501759529114
1789222840050469000,3.91746923828125,0.0022222334519028664,0.837908923625946,0.580014705657959
1789222840060462300,3.92746240234375,0.1846260279417038,1.5454477071762085,0.13183990120887756
1789222840070456300,3.937456298828125,0.4437590539455414,0.8705326318740845,-0.2953801453113556
1789222840080450300,3.9474501953125,0.6232758164405823,-0.28581804037094116,-0.45429861545562744
1789222840090443300,3.957443359375,0.7306525707244873,-0.9303823709487915,-0.693949818611145
1789222840100437200,3.967437255859375,0.7701953053474426,-0.823837161064148,-0.5448519587516785
1789222840110431200,3.97743115234375,0.5884913206100464,0.1302354633808136,-0.046446990221738815
1789222840120425200,3.98742529296875,0.38203033804893494,0.9466218948364258,0.20641875267028809
1789222840130418200,3.997418212890625,0.19959606230258942,1.2820137739181519,0.35444045066833496
1789222840140412400,4.007412353515625,0.19989193975925446,0.6444250345230103,0.4535353481769562
1789222840150406400,4.017406494140625,0.21078293025493622,0.006278626620769501,0.2308306246995926
1789222840160399000,4.027399169921875,0.19871169328689575,-0.5278863906860352,0.15699510276317596
1789222840170393300,4.037393310546875,0.1738593429327011,-0.5017717480659485,0.3318779766559601
1789222840180387300,4.04738720703125,0.15458343923091888,0.38811826705932617,0.09519720077514648
1789222840190380300,4.05738037109375,0.1305297613143921,0.9204179048538208,-0.3197997212409973
1789222840200374300,4.067374267578125,0.12007220089435577,0.3622492551803589,-0.5235297083854675
1789222840210368300,4.0773681640625,0.10521522909402847,-0.32255810499191284,-0.5121065974235535
1789222840220361200,4.087361328125,0.12320435047149658,-0.5704507231712341,-0.2372787892818451
1789222840230355200,4.097355224609375,0.17221103608608246,-0.24150002002716064,-0.08573080599308014
1789222840240349200,4.10734912109375,0.13654351234436035,0.46691223978996277,0.0789431482553482
1789222840250342400,4.11734228515625,-0.060826804488897324,1.028074860572815,0.3832239508628845
1789222840260336000,4.127336181640625,-0.20323657989501953,0.5455150008201599,0.5036330819129944
1789222840270330000,4.137330078125,-0.18751487135887146,-0.23045669496059418,0.1834486573934555
1789222840280323300,4.1473232421875,-0.011158052831888199,-0.37297847867012024,-0.12089653313159943
1789222840290317300,4.1573173828125,0.13852357864379883,0.07532232999801636,-0.11761339008808136
1789222840300311300,4.167311279296875,0.2593459188938141,0.0164390429854393,-0.09683866798877716
1789222840310304300,4.17730419921875,0.2667106091976166,0.042388349771499634,-0.20572920143604279
1789222840320298200,4.18729833984375,0.0665867030620575,0.497782438993454,-0.016733339056372643
1789222840330292200,4.197292236328125,-0.21412378549575806,0.6285796165466309,-0.11101003736257553
1789222840340285200,4.20728515625,-0.4639442563056946,0.006477183662354946,-0.06948548555374146
1789222840350279400,4.217279541015625,-0.6374435424804688,-0.32955116033554077,0.25623267889022827
1789222840360273400,4.2272734375,-0.642776370048523,0.055909525603055954,0.33555150032043457
1789222840370266000,4.23726611328125,-0.43663835525512695,0.1375788152217865,0.18994557857513428
1789222840380260400,4.24726025390625,-0.23775075376033783,-0.18373753130435944,0.08492632210254669
1789222840390254300,4.25725439453125,-0.19890961050987244,-0.41180291771888733,-0.017844267189502716
1789222840400247300,4.267247314453125,-0.30729275941848755,-0.42957115173339844,-0.17746739089488983
1789222840410241300,4.2772412109375,-0.4532108008861542,-0.41188883781433105,-0.30826351046562195
1789222840420235300,4.2872353515625,-0.5993795990943909,-0.2520274519920349,-0.3881370723247528
1789222840430228200,4.297228271484375,-0.6774387359619141,-0.43965649604797363,-0.04826124757528305
1789222840440222200,4.30722216796875,-0.6705477237701416,-0.4636211097240448,0.22509780526161194
1789222840450216200,4.31721630859375,-0.6102404594421387,0.15565544366836548,0.2008739560842514
1789222840460209400,4.32720947265625,-0.40948235988616943,0.3568127155303955,0.17699816823005676
1789222840470203100,4.337203125,-0.24757495522499084,0.05584941431879997,0.1441265046596527
1789222840480197000,4.347197021484375,-0.3358871340751648,0.05174506455659866,0.1491958647966385
1789222840490191000,4.357191162109375,-0.4136333167552948,-0.41098716855049133,0.20798009634017944
1789222840500184300,4.367184326171875,-0.3650079667568207,-1.0263086557388306,-0.06632077693939209
1789222840510178300,4.37717822265625,-0.2935585379600525,-0.6824138760566711,-0.5202485918998718
1789222840520172300,4.38717236328125,-0.3037896752357483,0.42370712757110596,-0.4865238666534424
1789222840530165200,4.397165283203125,-0.2751505672931671,0.7444726228713989,-0.15452274680137634
1789222840540159200,4.4071591796875,-0.14438889920711517,-0.08845164626836777,0.08314450085163116
1789222840550153200,4.4171533203125,-0.05441054701805115,-0.5928279757499695,0.35080257058143616
1789222840560146400,4.427146484375,-0.11036226153373718,-0.02641703560948372,0.5656771659851074
1789222840570140400,4.437140380859375,-0.09538890421390533,0.14090244472026825,0.5662310719490051
1789222840580134100,4.447134033203125,-0.0046503860503435135,0.007712891325354576,0.11996187269687653
1789222840590127000,4.457127197265625,0.06566771864891052,0.261554479598999,-0.4324456453323364
1789222840600121300,4.467121337890625,0.12311460822820663,0.22963547706604004,-0.6296179890632629
1789222840610115300,4.477115234375,0.2568042278289795,-0.4084443151950836,-0.7100721001625061
1789222840620108300,4.4871083984375,0.3807232975959778,-0.7700054049491882,-0.461292564868927
1789222840630102300,4.497102294921875,0.4161478579044342,-0.37227216362953186,0.22236430644989014
1789222840640097000,4.507096923828125,0.35953330993652344,0.5826246738433838,0.5504406094551086
1789222840650090000,4.517090087890625,0.23746757209300995,1.1232844591140747,0.6904991865158081
1789222840660084000,4.527083984375,0.12995792925357819,0.8781024217605591,0.44467586278915405
1789222840670078000,4.537077880859375,0.14154374599456787,-0.14654584228992462,0.10778679698705673
1789222840680072200,4.547072265625,0.3729484975337982,-0.8669679164886475,-0.5442274808883667
1789222840690065000,4.55706494140625,0.6620623469352722,-0.6147133111953735,-0.8999019861221313
1789222840700059000,4.567058837890625,0.792524516582489,0.0009829713962972164,-0.369057834148407
1789222840710052900,4.577052978515625,0.6960126757621765,0.75897616147995,0.36520472168922424
1789222840720046000,4.587046142578125,0.5218156576156616,1.2836816310882568,0.4098917841911316
1789222840730040000,4.5970400390625,0.3254709541797638,0.5071059465408325,0.6187139749526978
1789222840740033800,4.60703369140625,0.06185607612133026,-0.20828087627887726,0.13734495639801025
1789222840750027000,4.617027099609375,-0.17291462421417236,-0.1843065768480301,-0.4253873825073242
1789222840760021000,4.62702099609375,-0.22571805119514465,0.09958997368812561,-0.23933951556682587
1789222840770015000,4.637014892578125,-0.04699091613292694,0.39804884791374207,-0.24240055680274963
1789222840780008200,4.64700830078125,0.36567386984825134,0.1958739310503006,-0.36157187819480896
1789222840790002000,4.657001953125,0.7412243485450745,-0.31605833768844604,0.14883491396903992
1789222840799996000,4.666995849609375,0.6540405750274658,0.38065803050994873,0.25126057863235474
1789222840809988900,4.67698876953125,0.2744695544242859,0.6364127993583679,0.2525242567062378
1789222840819983000,4.686983154296875,-0.15641793608665466,0.05649241805076599,0.28233349323272705
1789222840829977000,4.69697705078125,-0.41025233268737793,-0.25615230202674866,-0.17391154170036316
1789222840839971000,4.70697119140625,-0.3813181221485138,-0.1959960162639618,-0.23471423983573914
1789222840849963800,4.7169638671875,-0.1594424545764923,-0.042711395770311356,-0.09288386255502701
1789222840859958000,4.7269580078125,0.1085517406463623,-0.15652333199977875,0.08773773163557053
1789222840869952000,4.736951904296875,0.22742699086666107,0.18191783130168915,0.21253585815429688
1789222840879945000,4.746945068359375,0.11866376549005508,0.7771632075309753,0.2579517960548401
1789222840889939000,4.75693896484375,0.01430140994489193,0.37938788533210754,-0.22086140513420105
1789222840899933000,4.766932861328125,-0.07674291729927063,-0.6663073897361755,-0.5843062400817871
1789222840909926000,4.77692578125,-0.2575569152832031,-0.9481313228607178,-0.13160692155361176
1789222840919919900,4.786919921875,-0.347387433052063,-0.2801322937011719,0.45696812868118286
1789222840929914000,4.7969140625,-0.22379064559936523,0.7670626044273376,0.6053328514099121
1789222840939907000,4.806906982421875,0.04310864955186844,1.4130661487579346,0.27256086468696594
1789222840949900800,4.81690087890625,0.2870677709579468,0.44589924812316895,0.005163251888006926
1789222840959894800,4.826894775390625,0.23675498366355896,-0.7625011801719666,-0.351974219083786
1789222840969889000,4.836888916015625,-0.05707104504108429,-0.8795673251152039,-0.37052711844444275
1789222840979882000,4.846882080078125,-0.2740270793437958,-0.2259606122970581,-0.4038735032081604
1789222840989876000,4.8568759765625,-0.32776379585266113,0.29524558782577515,-0.00444142147898674
1789222840999870000,4.866869873046875,-0.28597190976142883,0.7555601596832275,0.4113043248653412
1789222841009863000,4.87686279296875,-0.04751964658498764,0.44854986667633057,0.19001133739948273
1789222841019857000,4.88685693359375,0.08900310844182968,-0.30460235476493835,0.25358909368515015
1789222841029851000,4.896850830078125,-0.04766072705388069,-0.4021635353565216,0.2440488338470459
1789222841039844000,4.906843994140625,-0.1946870982646942,-0.35935845971107483,-0.23444855213165283
1789222841049838000,4.916838134765625,-0.3010587990283966,-0.3831905722618103,-0.04288817197084427
1789222841059831800,4.926831787109375,-0.348681777715683,0.06192347779870033,-0.16359882056713104
1789222841069825000,4.936824951171875,-0.3308945298194885,0.41430121660232544,-0.5394574403762817
1789222841079819000,4.946819091796875,-0.2018032968044281,-0.3021754324436188,-0.020731782540678978
1789222841089813000,4.95681298828125,-0.18641901016235352,-0.16627168655395508,0.3038090169429779
1789222841099807000,4.966806884765625,-0.17909236252307892,0.5159978866577148,-0.033742520958185196
1789222841109800000,4.976800048828125,-0.0032853761222213507,-0.2226782739162445,-0.09101060777902603
1789222841119794000,4.9867939453125,0.08538703620433807,-0.9072978496551514,0.05642034113407135
1789222841129788000,4.996787841796875,-0.10959150642156601,-0.02703576348721981,0.05769146978855133
1789222841139781000,5.006781005859375,-0.2622036635875702,0.3691171705722809,0.1670650988817215
1789222841149775000,5.016775146484375,-0.27354103326797485,0.10724161565303802,0.20563539862632751
1789222841159769000,5.02676904296875,-0.2077823132276535,0.24117670953273773,0.003501980332657695
1789222841169761800,5.03676171875,-0.017173493281006813,0.18287639319896698,-0.34354597330093384
1789222841179756000,5.046756103515625,0.11768805235624313,-0.3262093663215637,-0.4120680093765259
1789222841189750000,5.05675,0.12682881951332092,-0.7120185494422913,-0.18980672955513
1789222841199744000,5.066743896484375,0.07913999259471893,-0.3968639671802521,0.08876707404851913
1789222841209737000,5.076737060546875,0.14798830449581146,-0.057413987815380096,0.06471420079469681
1789222841219731000,5.08673095703125,0.19375209510326385,0.168674498796463,0.12463971972465515
1789222841229725000,5.096724853515625,0.015129621140658855,0.6436498165130615,0.3065951466560364
1789222841239718000,5.1067177734375,-0.23088191449642181,0.5887162089347839,0.35563749074935913
1789222841249711900,5.1167119140625,-0.3802855312824249,0.05535057187080383,0.2725721597671509
1789222841259706000,5.1267060546875,-0.37095749378204346,-0.11436229944229126,-0.05645398423075676
1789222841269698800,5.13669873046875,-0.08825495839118958,-0.48319756984710693,-0.41202887892723083
1789222841279692800,5.14669287109375,0.3774709403514862,-0.9604248404502869,-0.7034414410591125
1789222841289687000,5.15668701171875,0.6091043949127197,-0.5643307566642761,-0.2798731327056885
1789222841299681000,5.166680908203125,0.5522422790527344,0.11145945638418198,0.3976016342639923
1789222841309674000,5.176674072265625,0.3475283086299896,0.6337026953697205,0.4603922963142395
1789222841319668000,5.18666796875,0.06389956176280975,0.8160461187362671,0.46702396869659424
1789222841329662200,5.196662109375,-0.18305377662181854,0.5724510550498962,0.1312747299671173
1789222841339655000,5.206655029296875,-0.28196680545806885,-0.16192440688610077,-0.3459521532058716
1789222841349649000,5.21664892578125,-0.16053864359855652,-0.893406867980957,-0.1143660694360733
1789222841359643000,5.226642822265625,0.11898528784513474,-0.3825651705265045,-0.045300696045160294
1789222841369636000,5.236635986328125,0.5574489235877991,0.2458430975675583,-0.4968162477016449
1789222841379630000,5.246630126953125,0.8695719838142395,0.013188734650611877,-0.2198208123445511
1789222841389623800,5.256623779296875,0.6017373204231262,0.6323829889297485,0.027505096048116684
1789222841399617800,5.26661767578125,0.0719013512134552,0.7694925665855408,0.23468968272209167
1789222841409611000,5.276611083984375,-0.3731216490268707,-0.03855149820446968,0.5620893836021423
1789222841419605000,5.28660498046875,-0.48822271823883057,-0.48427054286003113,0.15345698595046997
1789222841429599000,5.296598876953125,-0.35754621028900146,-0.08719854801893234,-0.16933995485305786
1789222841439592000,5.306592041015625,-0.14250688254833221,0.21774621307849884,0.020369581878185272
1789222841449586000,5.3165859375,0.05437768995761871,0.22275029122829437,0.19603833556175232
1789222841459580000,5.326579833984375,0.15192489326000214,0.11200179159641266,0.19738906621932983
1789222841469574000,5.336573974609375,0.10387454181909561,-0.0457841120660305,-0.018923532217741013
1789222841479567000,5.346567138671875,-0.036354608833789825,-0.2958071529865265,-0.3306654989719391
1789222841489561000,5.35656103515625,-0.308900386095047,-0.13374900817871094,-0.3294638693332672
1789222841499554800,5.366554931640625,-0.4565901756286621,-0.11023375391960144,-0.18999089300632477
1789222841509548000,5.376548095703125,-0.3639236092567444,-0.380035400390625,0.19665855169296265
1789222841519542000,5.3865419921875,-0.15713955461978912,-0.16962361335754395,0.3618711233139038
1789222841529536000,5.396535888671875,0.09361038357019424,0.14962148666381836,-0.05203523486852646
1789222841539530000,5.406530029296875,0.1466073840856552,0.08711907267570496,0.008039847016334534
1789222841549523000,5.41652294921875,-0.010643219575285912,-0.02361968532204628,0.08455698937177658
1789222841559517000,5.426516845703125,-0.18970081210136414,-0.09259921312332153,-0.11606737226247787
1789222841569511000,5.436510986328125,-0.22778481245040894,-0.3480845093727112,0.06263606250286102
1789222841579504000,5.446504150390625,-0.19175244867801666,0.168772891163826,-0.21918533742427826
1789222841589498000,5.456498046875,-0.1850266456604004,0.6619812846183777,-0.2904195785522461
1789222841599492000,5.4664921875,-0.1572568267583847,0.07014952600002289,0.24696409702301025
1789222841609484800,5.47648486328125,0.005016765091568232,-0.5666983127593994,0.01647842675447464
1789222841619479000,5.48647900390625,0.16615861654281616,-0.5787186026573181,-0.08106248080730438
1789222841629473000,5.49647314453125,0.03828400745987892,0.38784879446029663,-0.1405407339334488
1789222841639467000,5.506467041015625,-0.17906881868839264,0.316513329744339,0.017077062278985977
1789222841649459700,5.516459716796875,-0.3967686593532562,-0.20481033623218536,0.3783947825431824
1789222841659454000,5.526453857421875,-0.5350978970527649,0.26106685400009155,0.41368502378463745
1789222841669448000,5.536447998046875,-0.44313469529151917,0.5838508009910583,0.10051404684782028
1789222841679441000,5.54644091796875,-0.23446489870548248,0.2311118096113205,-0.4163571298122406
1789222841689435000,5.556434814453125,-0.0029064996633678675,-0.5360729694366455,-0.4114784896373749
1789222841699428900,5.566428955078125,0.14656880497932434,-0.8562164902687073,-0.09728676080703735
1789222841709422800,5.5764228515625,0.1329193115234375,-0.5611957311630249,0.0013878829777240753
1789222841719415800,5.586415771484375,-0.04970789700746536,-0.1530238687992096,0.11730479449033737
1789222841729410000,5.59641015625,-0.3135131597518921,0.28395453095436096,0.16603851318359375
1789222841739404000,5.606404052734375,-0.39908432960510254,0.2291695475578308,0.13240143656730652
1789222841749396700,5.616396728515625,-0.2710360586643219,-0.23331448435783386,0.1366441249847412
1789222841759390700,5.626390625,-0.25209879875183105,0.07091846317052841,-0.013577786274254322
1789222841769385000,5.636385009765625,-0.2474164515733719,-0.025304477661848068,0.1665581613779068
1789222841779379000,5.64637890625,-0.17863158881664276,-0.43919262290000916,0.22854973375797272
1789222841789372000,5.656371826171875,-0.0344587005674839,-0.5921656489372253,0.014988716691732407
1789222841799366000,5.666365966796875,0.047412626445293427,-0.01156675349920988,-0.38060590624809265
1789222841809360000,5.67635986328125,-0.07808457314968109,0.719252347946167,-0.3770362138748169
1789222841819352800,5.686352783203125,-0.18862073123455048,0.286192923784256,-0.01982542872428894
1789222841829346800,5.696346923828125,-0.1251070201396942,-0.5813339352607727,-0.13912172615528107
1789222841839340800,5.7063408203125,0.039567094296216965,-1.1160414218902588,0.10045188665390015
1789222841849334000,5.716333984375,-0.04132988676428795,-0.05508649721741676,0.1713915765285492
1789222841859327700,5.72632763671875,-0.13961441814899445,0.5277047157287598,0.014668533578515053
1789222841869321700,5.73632177734375,-0.20594602823257446,0.2104061245918274,-0.031428657472133636
1789222841879316000,5.74631591796875,-0.19760644435882568,-0.19627168774604797,0.07114490121603012
1789222841889309000,5.756308837890625,-0.21313586831092834,0.07215789705514908,-0.04744672775268555
1789222841899303000,5.766302978515625,-0.1227646917104721,-0.1596081405878067,0.10452190786600113
1789222841909297000,5.776296875,0.04424133151769638,-0.41616004705429077,0.2095700353384018
1789222841919289900,5.786289794921875,0.22061637043952942,-0.09764715284109116,-0.01287923101335764
1789222841929283800,5.796283935546875,0.2741512358188629,0.38975101709365845,-0.3075052797794342
1789222841939277800,5.80627783203125,0.15922464430332184,0.258064329624176,-0.10051161050796509
1789222841949271800,5.816271728515625,0.0020680539309978485,-0.11880623549222946,0.02024995908141136
1789222841959265000,5.82626513671875,-0.04795330390334129,-0.24493750929832458,-0.03873579204082489
1789222841969258800,5.8362587890625,0.06926120817661285,-0.18831948935985565,0.06585240364074707
1789222841979252700,5.846252685546875,0.07975715398788452,0.6139456033706665,0.12673482298851013
1789222841989246700,5.856246826171875,-0.01984267123043537,0.8274054527282715,0.4982953369617462
1789222841999240000,5.866239990234375,0.006973131559789181,0.30486491322517395,0.06793247163295746
1789222842009234000,5.87623388671875,0.18826435506343842,-0.5681922435760498,-0.34656432271003723
1789222842019228000,5.886227783203125,0.24501216411590576,-0.4127335548400879,-0.4950554072856903
1789222842029220900,5.896220947265625,0.19326721131801605,0.09146969020366669,-0.3622816503047943
1789222842039214800,5.90621484375,0.2191377878189087,0.06225230544805527,-0.15530307590961456
1789222842049208800,5.916208740234375,0.21684613823890686,-0.03390086069703102,0.26822182536125183
1789222842059202800,5.926202880859375,0.02964412048459053,0.5067938566207886,0.4720153212547302
1789222842069196000,5.936196044921875,-0.13966262340545654,0.5196316242218018,0.38931724429130554
1789222842079189800,5.946189697265625,-0.17771275341510773,-0.09890564531087875,0.3266258239746094
1789222842089183700,5.956183837890625,-0.10945700854063034,-0.26174303889274597,-0.12368912994861603
1789222842099177000,5.966177001953125,0.12218577414751053,-0.3478461503982544,-0.5802977681159973
1789222842109171000,5.9761708984375,0.32947129011154175,-0.34962356090545654,-0.4334281384944916
1789222842119165000,5.9861650390625,0.37211862206459045,0.19636613130569458,-0.251204252243042
1789222842129159000,5.996158935546875,0.23469418287277222,0.6095715761184692,0.002589685143902898
1789222842139152000,6.00615185546875,-0.03707868605852127,0.5224160552024841,0.209867462515831
1789222842149145900,6.016145751953125,-0.2829611599445343,-0.004352668300271034,0.36955487728118896
1789222842159139800,6.026139892578125,-0.4228934645652771,-0.3127129077911377,0.5705286860466003
1789222842169133000,6.036133056640625,-0.3790977895259857,0.023670710623264313,0.11008195579051971
1789222842179127000,6.046126953125,-0.11094741523265839,0.1384812593460083,-0.3578107953071594
1789222842189120800,6.056120849609375,0.11289713531732559,-0.09371895343065262,-0.21748721599578857
1789222842199114800,6.06611474609375,0.09498634189367294,0.039011962711811066,-0.1735631823539734
1789222842209108000,6.07610791015625,-0.07826054096221924,-0.03305530548095703,0.0015849464107304811
1789222842219102000,6.08610205078125,-0.28914594650268555,-0.33941394090652466,0.2748168110847473
1789222842229096000,6.096095947265625,-0.41963765025138855,-0.38296273350715637,-0.035394325852394104
1789222842239089000,6.1060888671875,-0.49851754307746887,-0.09760690480470657,-0.09846170991659164
1789222842249083000,6.116082763671875,-0.5782123804092407,0.4297426640987396,0.09765321016311646
1789222842259076900,6.126076904296875,-0.5663385987281799,0.41039448976516724,0.18940770626068115
1789222842269070800,6.13607080078125,-0.4685196280479431,-0.11047028005123138,0.19298352301120758
1789222842279064000,6.14606396484375,-0.33680346608161926,-0.48534536361694336,0.14371243119239807
1789222842289058000,6.15605810546875,-0.17087656259536743,-0.5071617364883423,-0.209527388215065
1789222842299052000,6.166052001953125,-0.02349652722477913,-0.5070369243621826,-0.3489041328430176
1789222842309045800,6.176045654296875,-0.07477995753288269,0.0014380337670445442,-0.1541580855846405
1789222842319039000,6.1860390625,-0.22226078808307648,0.41893911361694336,-0.024175066500902176
1789222842329033000,6.196032958984375,-0.3282114565372467,0.14113730192184448,0.16450883448123932
1789222842339027000,6.20602685546875,-0.2768336236476898,-0.3483230173587799,-0.001140478765591979
1789222842349020000,6.21602001953125,-0.3037762939929962,-0.24492818117141724,0.13401147723197937
1789222842359014000,6.226013916015625,-0.3532724678516388,-0.061800550669431686,0.14825280010700226
1789222842369007900,6.2360078125,-0.29504165053367615,-0.2802242338657379,0.21544913947582245
1789222842379001900,6.246001953125,-0.12167972326278687,-0.37565162777900696,0.16018381714820862
1789222842388994800,6.255994873046875,0.01934771053493023,-0.08631251752376556,-0.2926257252693176
1789222842398989000,6.265989013671875,-0.03939566761255264,-0.07352785766124725,-0.17687426507472992
1789222842408983000,6.275983154296875,-0.21487587690353394,-0.46029844880104065,0.3252232074737549
1789222842418976800,6.285976806640625,-0.354036808013916,-0.3904387950897217,-0.05130598321557045
1789222842428970000,6.295969970703125,-0.39216047525405884,-0.27506932616233826,-0.11556299775838852
1789222842438964000,6.3059638671875,-0.43233591318130493,0.07933260500431061,-0.12799763679504395
1789222842448958000,6.3159580078125,-0.4490632116794586,0.03102952055633068,-0.16596153378486633
1789222842458951000,6.325950927734375,-0.39832866191864014,-0.5610669851303101,0.3009306788444519
1789222842468945000,6.33594482421875,-0.34731075167655945,-0.6771222352981567,0.6983150839805603
1789222842478939000,6.34593896484375,-0.32925063371658325,-0.243937149643898,0.3705824315547943
1789222842488932900,6.355932861328125,-0.21067340672016144,-0.5150117874145508,-0.23267468810081482
1789222842498925800,6.36592578125,-0.1394381821155548,-0.5043607950210571,-0.6201577186584473
1789222842508920000,6.375920166015625,-0.19735102355480194,0.16262467205524445,-0.3265868127346039
1789222842518914000,6.3859140625,-0.11684155464172363,0.02300313115119934,-0.3072229027748108
1789222842528906800,6.39590673828125,0.17656609416007996,-1.3467870950698853,-0.12427359819412231
1789222842538900700,6.405900634765625,0.16722074151039124,-0.8448013663291931,0.34957608580589294
1789222842548895000,6.41589501953125,-0.0619187168776989,0.5541214346885681,0.6182714700698853
1789222842558889000,6.425888916015625,-0.130478635430336,0.4447818398475647,0.4808250963687897
1789222842568882000,6.4358818359375,-0.10696771740913391,0.013310597278177738,0.2315058410167694
1789222842578876000,6.4458759765625,-0.043095290660858154,0.24533185362815857,-0.2621307075023651
1789222842588870000,6.455869873046875,0.18313199281692505,-0.365583211183548,-0.7567026019096375
1789222842598864000,6.46586376953125,0.5179560780525208,-1.433975100517273,-0.6351891756057739
1789222842608856800,6.47585693359375,0.6521679759025574,-0.8963153958320618,-0.2789601981639862
1789222842618851000,6.48585107421875,0.620801568031311,0.2198295295238495,0.004956143442541361
1789222842628845000,6.495844970703125,0.5369762182235718,0.6776567697525024,0.06591936200857162
1789222842638837800,6.505837646484375,0.2933613061904907,0.5946089029312134,0.5493296980857849
1789222842648831700,6.515831787109375,0.04794064164161682,0.28036683797836304,0.4299878478050232
1789222842658826000,6.525825927734375,0.07377263158559799,-0.4867684841156006,0.016322143375873566
1789222842668819700,6.53581982421875,0.32970908284187317,-0.5372636318206787,-0.07495610415935516
1789222842678812700,6.545812744140625,0.6175606846809387,0.26892992854118347,-0.07684087008237839
1789222842688806700,6.555806640625,0.9226252436637878,0.21165865659713745,-0.021953916177153587
1789222842698801000,6.56580078125,1.0660020112991333,-0.18251436948776245,-0.09206079691648483
1789222842708795000,6.575794921875,0.91172194480896,0.05877653881907463,-0.10350652784109116
1789222842718787600,6.58578759765625,0.54008549451828,0.5021724104881287,-0.08373961597681046
1789222842728781800,6.59578173828125,0.33407697081565857,-0.06337650120258331,-0.2477240115404129
1789222842738775800,6.60577587890625,0.322063684463501,-0.6592797636985779,-0.14732784032821655
1789222842748769800,6.615769775390625,0.3278414309024811,0.06635703891515732,0.12655271589756012
1789222842758762800,6.6257626953125,0.44216224551200867,0.6901140213012695,0.26498377323150635
1789222842768757000,6.635757080078125,0.6426889300346375,0.29912814497947693,0.16115909814834595
1789222842778750700,6.645750732421875,0.735660195350647,-0.4387769401073456,0.17091913521289825
1789222842788743700,6.65574365234375,0.6517773270606995,-0.6611794233322144,0.24304525554180145
1789222842798737700,6.665737548828125,0.5101510286331177,-0.08292128145694733,-0.1213499903678894
1789222842808732000,6.67573193359375,0.4234622120857239,0.27309274673461914,-0.45710083842277527
1789222842818726000,6.685725830078125,0.18480275571346283,0.5781475305557251,-0.35952386260032654
1789222842828718600,6.695718505859375,-0.022477731108665466,0.5607424378395081,-0.4934379756450653
1789222842838712600,6.705712646484375,-0.000050386879593133926,-0.27137261629104614,0.010319641791284084
1789222842848706800,6.715706787109375,0.18442918360233307,-0.6962440013885498,0.4801694452762604
1789222842858700800,6.72570068359375,0.31739628314971924,-0.15557779371738434,0.3348724842071533
1789222842868693800,6.73569384765625,0.26967698335647583,0.404015451669693,0.49641451239585876
1789222842878687700,6.745687744140625,0.04542774707078934,0.8952439427375793,0.4098375141620636
1789222842888681700,6.755681640625,-0.1826821118593216,0.6449121236801147,0.007308707572519779
1789222842898674700,6.7656748046875,-0.19488446414470673,-0.5707778930664062,-0.2928495705127716
1789222842908668700,6.775668701171875,-0.06874622404575348,-1.124401330947876,-0.47879093885421753
1789222842918663000,6.785662841796875,0.1007670983672142,-0.47352662682533264,-0.32191407680511475
1789222842928657000,6.795656982421875,0.34450146555900574,0.26203685998916626,-0.31742584705352783
1789222842938649600,6.805649658203125,0.41639581322669983,0.35865652561187744,0.09334809333086014
1789222842948643600,6.8156435546875,0.11969305574893951,0.576336145401001,0.6005817651748657
1789222842958637800,6.825637939453125,-0.21208983659744263,0.2969319820404053,0.6995010375976562
1789222842968631800,6.8356318359375,-0.31309714913368225,-0.3326329290866852,0.24394041299819946
1789222842978624800,6.845624755859375,-0.05898953974246979,-0.9344735741615295,-0.23113183677196503
1789222842988618800,6.85561865234375,0.13146455585956573,-0.40152573585510254,-0.26759132742881775
1789222842998613000,6.865613037109375,0.2542567551136017,0.3537914752960205,-0.13475464284420013
1789222843008606700,6.875606689453125,0.38025596737861633,0.6248136758804321,-0.19196361303329468
1789222843018599700,6.885599609375,0.47522515058517456,0.13854680955410004,-0.15647950768470764
1789222843028593700,6.89559375,0.34677720069885254,-0.1980101764202118,0.15409035980701447
1789222843038588000,6.905587890625,0.07141657173633575,0.03138425201177597,0.2954655587673187
1789222843048582000,6.915581787109375,-0.017566561698913574,0.08092224597930908,0.09153531491756439
1789222843058574600,6.92557470703125,0.13829970359802246,-0.057884331792593,-0.04386631026864052
1789222843068568800,6.93556884765625,0.23180648684501648,0.4427092671394348,-0.08169464766979218
1789222843078562800,6.945562744140625,0.4226655960083008,0.2446727603673935,-0.39248961210250854
1789222843088555800,6.9555556640625,0.7190737724304199,-0.7889789342880249,-0.16174617409706116
1789222843098549800,6.9655498046875,0.6553282141685486,-0.10770652443170547,0.1268070787191391
1789222843108544000,6.9755439453125,0.34983086585998535,0.902137815952301,0.3761407434940338
1789222843118537700,6.985537841796875,0.11286744475364685,0.524276614189148,0.5705586075782776
1789222843128530700,6.99553076171875,0.030466312542557716,0.18490788340568542,0.13971193134784698
1789222843138524700,7.005524658203125,0.008229384198784828,0.47675108909606934,-0.024108517915010452
1789222843148519000,7.015518798828125,0.021564897149801254,1.085229516029358,-0.493923157453537
1789222843158513000,7.025512939453125,0.36370614171028137,-0.15558330714702606,-0.6171070337295532
1789222843168505600,7.035505615234375,0.6949628591537476,-1.3405832052230835,0.12669974565505981
1789222843178499600,7.04549951171875,0.6362427473068237,0.01271267980337143,0.1145765408873558
1789222843188493800,7.055493896484375,0.43439459800720215,0.7942348718643188,0.26760417222976685
1789222843198487800,7.06548779296875,0.2208148092031479,0.4555821120738983,0.5238548517227173
1789222843208480800,7.075480712890625,0.023669524118304253,0.37042009830474854,0.31307947635650635
1789222843218474800,7.085474853515625,-0.20652422308921814,1.075241208076477,-0.4683926999568939
1789222843228468700,7.09546875,-0.19623297452926636,0.3016902804374695,-0.5184281468391418
1789222843238462700,7.105462646484375,0.024722173810005188,-1.0976063013076782,0.020224619656801224
1789222843248455700,7.11545556640625,0.2652279734611511,-0.7767153382301331,0.2168751060962677
1789222843258450000,7.125449951171875,0.5188365578651428,0.34609702229499817,0.10865168273448944
1789222843268444000,7.13544384765625,0.5146293044090271,0.896733820438385,0.42726588249206543
1789222843278436600,7.1454365234375,0.22272363305091858,0.768959641456604,0.5140661597251892
1789222843288430600,7.1554306640625,-0.14180879294872284,0.41644155979156494,0.06653499603271484
1789222843298424800,7.1654248046875,-0.2710701525211334,-0.35212796926498413,-0.22201041877269745
1789222843308418800,7.175418701171875,-0.12673242390155792,-0.7724586725234985,-0.5949075818061829
1789222843318411800,7.185411865234375,-0.07428663223981857,-0.08842018246650696,-0.47974109649658203
1789222843328405800,7.19540576171875,-0.07808057218790054,0.43963751196861267,0.2776978611946106
1789222843338399700,7.205399658203125,0.01941452920436859,0.9197565913200378,0.2530250549316406
1789222843348393700,7.215393798828125,0.2617233097553253,0.38504737615585327,0.23005767166614532
1789222843358386700,7.22538671875,0.22387129068374634,0.31036970019340515,-0.07704818993806839
1789222843368380700,7.235380615234375,0.03143899887800217,-0.0560772642493248,-0.13970917463302612
1789222843378375000,7.245375,-0.10454186797142029,-0.5144528746604919,0.12336650490760803
1789222843388369000,7.255368896484375,-0.11356492340564728,-0.03934869542717934,0.09687471389770508
1789222843398361600,7.265361572265625,-0.014350795187056065,0.8174356818199158,-0.17591123282909393
1789222843408355800,7.27535595703125,0.09222784638404846,0.8738710284233093,-0.17093484103679657
1789222843418349800,7.285349853515625,0.09629260003566742,0.19965147972106934,0.372579425573349
1789222843428343800,7.29534375,-0.05479758232831955,0.077008917927742,0.7454835176467896
1789222843438336800,7.305336669921875,-0.10448440909385681,0.28954383730888367,0.019163046032190323
1789222843448330800,7.315330810546875,0.1289171576499939,-0.32252591848373413,-0.5805667042732239
1789222843458324700,7.32532470703125,0.3025776445865631,-0.6307002305984497,-0.4130252003669739
1789222843468318700,7.335318603515625,0.4056507647037506,-0.11135882139205933,-0.24465081095695496
1789222843478311700,7.345311767578125,0.47602927684783936,0.4510105550289154,-0.11306915432214737
1789222843488306000,7.355305908203125,0.40406134724617004,0.6354355216026306,0.26034116744995117
1789222843498300000,7.3652998046875,0.07886943221092224,1.0259766578674316,0.2904721200466156
1789222843508294000,7.3752939453125,-0.1843843013048172,0.6306862831115723,0.24659547209739685
1789222843518286600,7.38528662109375,-0.12298772484064102,-0.32251012325286865,0.052967365831136703
1789222843528280800,7.39528076171875,0.19190950691699982,-0.5794471502304077,-0.25560006499290466
1789222843538274800,7.40527490234375,0.43674013018608093,0.17758522927761078,-0.1864117830991745
1789222843548268800,7.415268798828125,0.5291595458984375,0.6915616989135742,0.1696731001138687
1789222843558261800,7.42526171875,0.49818968772888184,0.7623637914657593,0.12303509563207626
1789222843568255700,7.435255859375,0.1990618258714676,0.8716316819190979,0.0742875337600708
1789222843578249700,7.445249755859375,-0.13520930707454681,0.4625800848007202,0.015759259462356567
1789222843588243700,7.45524365234375,-0.2950056493282318,-0.3217056691646576,0.08779697120189667
1789222843598236700,7.465236572265625,-0.29305747151374817,-0.15912337601184845,0.1258048117160797
1789222843608231000,7.47523095703125,-0.10796992480754852,0.515565037727356,-0.1567632257938385
1789222843618225000,7.485224853515625,0.18677160143852234,0.3702349066734314,-0.46624574065208435
1789222843628218600,7.495218505859375,0.3566972613334656,-0.20154151320457458,-0.34084922075271606
1789222843638212400,7.50521240234375,0.16093726456165314,0.18890076875686646,0.12032964080572128
1789222843648206600,7.51520654296875,-0.1677761673927307,0.7221340537071228,0.23709382116794586
1789222843658200600,7.52520068359375,-0.39735734462738037,0.2669290006160736,0.4450547993183136
1789222843668193300,7.535193359375,-0.4834999442100525,-0.04571281000971794,0.28445687890052795
1789222843678187300,7.545187255859375,-0.5488389134407043,0.24749907851219177,0.32029640674591064
1789222843688181500,7.555181396484375,-0.435334175825119,0.4658367335796356,-0.23087406158447266
1789222843698175500,7.565175537109375,-0.09731654822826385,-0.16540265083312988,-0.5969603061676025
1789222843708168400,7.57516845703125,0.1012418195605278,-0.27887940406799316,-0.2576824128627777
1789222843718162200,7.585162109375,0.07427501678466797,0.33876076340675354,-0.1529407948255539
1789222843728156400,7.595156494140625,-0.06980466097593307,0.2841355800628662,0.25930508971214294
1789222843738150400,7.605150390625,-0.26982396841049194,0.20307113230228424,0.3424912691116333
1789222843748143400,7.615143310546875,-0.47599363327026367,0.3917081654071808,0.22315023839473724
1789222843758137300,7.625137451171875,-0.6045534610748291,0.4631999135017395,-0.10039693862199783
1789222843768131600,7.635131591796875,-0.4997493028640747,-0.20395761728286743,-0.23877398669719696
1789222843778125300,7.645125244140625,-0.3276040554046631,-0.41883358359336853,-0.05813421308994293
1789222843788118300,7.6551181640625,-0.1537339836359024,0.13452014327049255,-0.24557627737522125
1789222843798112500,7.665112548828125,0.020472373813390732,0.08021339029073715,-0.17927192151546478
1789222843808106500,7.6751064453125,-0.019106727093458176,0.05584786459803581,-0.1358962059020996
1789222843818100500,7.6851005859375,-0.2633551359176636,0.17835333943367004,0.06799082458019257
1789222843828093200,7.69509326171875,-0.44717130064964294,-0.1956109255552292,0.3117523491382599
1789222843838087400,7.70508740234375,-0.5546655654907227,-0.287021666765213,0.5662228465080261
1789222843848081400,7.715081298828125,-0.6198067665100098,0.4952129125595093,0.34921249747276306
1789222843858075400,7.725075439453125,-0.533902645111084,0.6271478533744812,-0.1309693455696106
1789222843868068400,7.735068359375,-0.4177566170692444,0.0416809506714344,-0.12062855809926987
1789222843878062600,7.7450625,-0.3175472319126129,-0.23209203779697418,-0.050698958337306976
1789222843888056300,7.755056396484375,-0.1886846125125885,-0.35032761096954346,-0.1668548583984375
1789222843898050300,7.76505029296875,-0.15801148116588593,-0.5152802467346191,-0.08371773362159729
1789222843908043300,7.775043212890625,-0.23509322106838226,-0.5769707560539246,0.20875541865825653
1789222843918037500,7.78503759765625,-0.3309227228164673,-0.007082061842083931,0.1070028617978096
1789222843928031500,7.795031494140625,-0.3814564645290375,0.32034987211227417,0.09854945540428162
1789222843938025500,7.805025390625,-0.5503776669502258,0.7559105157852173,-0.27349746227264404
1789222843948018400,7.815018310546875,-0.6766757369041443,0.04738178476691246,-0.16853588819503784
1789222843958012400,7.825012451171875,-0.6678467392921448,-0.8969094753265381,0.0932028666138649
1789222843968006400,7.83500634765625,-0.4466933012008667,-0.8246259689331055,0.1933015137910843
1789222843978000400,7.84500048828125,-0.1170249730348587,-0.12131908535957336,0.05043300986289978
1789222843987993600,7.85499365234375,0.03318477049469948,0.45576635003089905,-0.13970284163951874
1789222843997987300,7.8649873046875,-0.09105075895786285,0.5671337842941284,-0.043130457401275635
1789222844007981300,7.874981201171875,-0.3184668719768524,0.3782013952732086,-0.18580345809459686
1789222844017975300,7.884975341796875,-0.36493319272994995,-0.580178439617157,-0.2902377247810364
1789222844027968500,7.894968505859375,-0.34677788615226746,-1.0173728466033936,-0.11724917590618134
1789222844037962500,7.90496240234375,-0.22193600237369537,-0.7753459811210632,0.0421355776488781
1789222844047956500,7.91495654296875,-0.011084487661719322,-0.14133523404598236,0.10050380975008011
1789222844057950500,7.924950439453125,0.06807311624288559,0.9470316171646118,0.16132494807243347
1789222844067943400,7.934943359375,-0.12114075571298599,1.6045740842819214,0.18909212946891785
1789222844077937400,7.9449375,-0.28170424699783325,0.27867379784584045,0.21765202283859253
1789222844087931400,7.954931396484375,-0.2805979549884796,-1.3019671440124512,0.11364598572254181
1789222844097925400,7.96492529296875,-0.19412563741207123,-1.1396604776382446,0.1283336579799652
1789222844107918600,7.974918701171875,0.043587576597929,-0.16489562392234802,-0.0734039843082428
1789222844117912300,7.984912353515625,0.37274062633514404,0.22264613211154938,-0.3737953305244446
1789222844127906300,7.99490625,0.40753111243247986,0.7428812980651855,-0.21525095403194427
1789222844137900300,8.004900390625,0.16879136860370636,1.0200254917144775,-0.004097598604857922
1789222844147893500,8.0148935546875,-0.055746935307979584,0.0241305660456419,0.2800441086292267
1789222844157887500,8.024887451171875,-0.1688506156206131,-0.9307368993759155,0.33487018942832947
1789222844167881500,8.034881591796875,-0.21159328520298004,-0.432676762342453,-0.21109433472156525
1789222844177875200,8.044875244140625,-0.1440494954586029,0.12540137767791748,-0.21186093986034393
1789222844187868400,8.054868408203125,0.04824165254831314,0.1758728176355362,-0.046781715005636215
1789222844197862400,8.0648623046875,0.23558437824249268,0.1547970324754715,0.05133252590894699
1789222844207856400,8.0748564453125,0.3401680588722229,0.02956535667181015,-0.027276530861854553
1789222844217850400,8.084850341796875,0.2618374228477478,-0.12933649122714996,0.03096611239016056
1789222844227843300,8.09484326171875,-0.022955697029829025,0.030136791989207268,0.250059574842453
1789222844237837300,8.10483740234375,-0.3036961853504181,0.21588806807994843,0.0843660980463028
1789222844247831300,8.114831298828125,-0.4467036724090576,0.024144452065229416,0.055074259638786316
1789222844257825300,8.1248251953125,-0.38217538595199585,-0.1282116174697876,-0.17322145402431488
1789222844267818500,8.134818603515624,-0.2179315686225891,-0.03260758891701698,-0.23304350674152374
1789222844277812500,8.1448125,-0.19433721899986267,0.3348040282726288,-0.10706112533807755
1789222844287806200,8.15480615234375,-0.3026256263256073,0.07312554121017456,0.22675864398479462
1789222844297800200,8.16480029296875,-0.41462641954421997,-0.5548115968704224,0.32015863060951233
1789222844307794400,8.17479443359375,-0.46570852398872375,-0.7539020776748657,0.11327391862869263
1789222844317787400,8.184787353515626,-0.512285053730011,-0.42152345180511475,-0.012270068749785423
1789222844327781400,8.194781494140624,-0.6128981709480286,-0.031591929495334625,-0.14390292763710022
1789222844337775400,8.204775390625,-0.6830735206604004,0.03869017958641052,-0.1258145570755005
1789222844347769600,8.21476953125,-0.6400629281997681,-0.25478750467300415,0.09171217679977417
1789222844357762300,8.22476220703125,-0.582385241985321,-0.4153252840042114,0.10096926242113113
1789222844367756300,8.23475634765625,-0.6096847653388977,-0.49755463004112244,0.09201544523239136
1789222844377750300,8.244750244140626,-0.7003685235977173,-0.894564151763916,0.5086514949798584
1789222844387744500,8.25474462890625,-0.697394609451294,-1.0063207149505615,0.2472454011440277
1789222844397737500,8.264737548828125,-0.5545607209205627,-0.5792405605316162,-0.5350431203842163
1789222844407731200,8.274731201171875,-0.38672134280204773,-0.34784916043281555,-0.6064019799232483
1789222844417725400,8.284725341796875,-0.443473756313324,-0.002166246995329857,-0.3990520238876343
1789222844427719400,8.294719482421876,-0.6186000108718872,-0.21237912774085999,0.08714930713176727
1789222844437712400,8.30471240234375,-0.6913360357284546,-0.8871300220489502,0.7289483547210693
1789222844447706400,8.314706298828124,-0.7999793887138367,-0.5398035049438477,0.8781226873397827
1789222844457700600,8.32470068359375,-0.8005130290985107,0.0957733690738678,0.3939935266971588
1789222844467694300,8.3346943359375,-0.533614456653595,-0.17079174518585205,-0.13365404307842255
1789222844477687300,8.344687255859375,-0.1331852674484253,-0.9920191764831543,-0.19348426163196564
1789222844487681300,8.354681396484375,-0.01568499580025673,-0.41164126992225647,-0.7206452488899231
1789222844497675500,8.364675537109376,-0.11592255532741547,-0.47271621227264404,-0.2977278232574463
1789222844507669500,8.37466943359375,-0.20300498604774475,-1.0987063646316528,0.10172238200902939
1789222844517662200,8.384662109375,-0.09162969887256622,-1.5794200897216797,0.13909867405891418
1789222844527656200,8.39465625,-0.03721918910741806,-0.4789188802242279,0.22397442162036896
1789222844537650400,8.404650390625,-0.30063220858573914,1.3570387363433838,0.15194834768772125
1789222844547644400,8.41464453125,-0.4896354079246521,1.2820444107055664,0.25213804841041565
1789222844557637400,8.424637451171876,-0.4087107479572296,-0.43689823150634766,0.5440506935119629
1789222844567631400,8.43463134765625,-0.02579719014465809,-1.7443923950195312,0.364798367023468
1789222844577625300,8.444625244140624,0.4447355270385742,-1.3963121175765991,-0.2726799547672272
1789222844587619300,8.454619384765625,0.8106509447097778,-0.5879654884338379,-0.3955856263637543
1789222844597612300,8.4646123046875,0.8820835947990417,0.21872827410697937,-0.1892659217119217
1789222844607606500,8.4746064453125,0.6447546482086182,0.9053436517715454,-0.04999350756406784
1789222844617600500,8.4846005859375,0.2980556786060333,0.7922334671020508,0.0056882938370108604
1789222844627594500,8.494594482421874,0.11392845958471298,-0.20325985550880432,0.013682037591934204
1789222844637587500,8.50458740234375,0.15796169638633728,-0.9277915954589844,0.09818889200687408
1789222844647580400,8.514580322265624,0.3923763036727905,-0.8556188941001892,0.345564603805542
1789222844657574400,8.524574462890625,0.6853005886077881,0.011803478933870792,0.37968820333480835
1789222844667568400,8.534568359375,0.9960421919822693,0.924907386302948,-0.12488523125648499
1789222844677562400,8.544562255859375,1.1834875345230103,0.5836734771728516,-0.11998263746500015
1789222844687555600,8.5545556640625,1.040838599205017,-0.01070274319499731,0.01090666837990284
1789222844697549600,8.564549560546874,0.771998941898346,-0.3400181829929352,-0.023034686222672462
1789222844707543300,8.574543212890624,0.6279749274253845,-0.38576754927635193,0.00845399871468544
1789222844717537300,8.584537353515625,0.6284217238426208,0.1803322732448578,-0.1772756725549698
1789222844727530500,8.594530517578125,0.6647635102272034,0.8640562295913696,-0.288119375705719
1789222844737524500,8.6045244140625,0.8145347833633423,0.6275160312652588,-0.2382066249847412
1789222844747518500,8.6145185546875,1.0031627416610718,-0.08903243392705917,0.015889571979641914
1789222844757512400,8.624512451171874,0.959298312664032,0.1919008195400238,0.029220454394817352
1789222844767505400,8.63450537109375,0.8308109045028687,0.20946383476257324,0.16048793494701385
1789222844777499400,8.64449951171875,0.7576844692230225,-0.2081376612186432,0.3032543957233429
1789222844787493400,8.654493408203125,0.7254040241241455,-0.14060762524604797,0.1421605795621872
1789222844797487600,8.664487548828125,0.6809835433959961,0.4853461980819702,-0.09372559189796448
1789222844807480600,8.67448046875,0.6333582401275635,0.9241347312927246,-0.3103575110435486
1789222844817474300,8.684474365234376,0.6605565547943115,0.6319721937179565,-0.34276634454727173
1789222844827468300,8.69446826171875,0.7040148377418518,0.019299250096082687,0.04040394350886345
1789222844837462500,8.704462646484375,0.6389322876930237,0.08949694037437439,0.26892173290252686
1789222844847456500,8.71445654296875,0.4835042953491211,0.4608079195022583,0.3134758770465851
1789222844857449500,8.724449462890625,0.35433030128479004,0.5917510390281677,-0.043471790850162506
1789222844867443500,8.734443359375,0.3494977355003357,0.16163238883018494,-0.2904512286186218
1789222844877437400,8.7444375,0.41176319122314453,-0.06637878715991974,-0.24671396613121033
1789222844887431400,8.754431396484375,0.45799699425697327,0.17567671835422516,-0.18872708082199097
1789222844897424400,8.76442431640625,0.4710201919078827,0.25564277172088623,0.14413824677467346
1789222844907418400,8.77441845703125,0.4468749165534973,0.42150551080703735,0.08615350723266602
1789222844917412600,8.78441259765625,0.3355981707572937,0.4778822064399719,0.14875909686088562
1789222844927406600,8.794406494140626,0.0811576247215271,0.7405053377151489,0.0011350163258612156
1789222844937399300,8.8043994140625,-0.07592872530221939,0.47928640246391296,-0.13016337156295776
1789222844947393500,8.8143935546875,0.0014611352235078812,-0.1369704008102417,-0.13376343250274658
1789222844957387500,8.824387451171875,0.2528867721557617,-0.3663041591644287,-0.15930551290512085
1789222844967381500,8.834381591796875,0.3951760232448578,0.3162302076816559,-0.05753229185938835
1789222844977374500,8.84437451171875,0.35568422079086304,0.8792210221290588,0.15684303641319275
1789222844987368700,8.85436865234375,0.1925685554742813,0.6857636570930481,0.3005235195159912
1789222844997362400,8.864362548828124,0.008026462979614735,0.3073042929172516,0.0955231636762619
1789222845007356400,8.8743564453125,-0.12894709408283234,0.03130333870649338,0.1516663283109665
1789222845017350400,8.884350341796875,-0.25925588607788086,0.11519287526607513,0.4455581307411194
1789222845027343600,8.894343505859375,-0.26658570766448975,0.08665522933006287,0.3778850734233856
1789222845037337600,8.904337646484375,-0.12131278961896896,0.13865980505943298,-0.17959770560264587
1789222845047331600,8.91433154296875,0.08559352159500122,0.24348874390125275,-0.4099310636520386
1789222845057325300,8.9243251953125,0.18780215084552765,0.46110278367996216,-0.5156079530715942
1789222845067318500,8.934318603515624,0.06825338304042816,0.5284419059753418,-0.515098512172699
1789222845077312500,8.9443125,-0.18310540914535522,-0.07920806854963303,0.11807999014854431
1789222845087306500,8.954306396484375,-0.45381224155426025,-0.13326331973075867,0.6130654811859131
1789222845097300500,8.964300537109375,-0.5938037633895874,0.4702836275100708,0.5952560901641846
1789222845107293400,8.97429345703125,-0.5918609499931335,0.8326506614685059,0.20460711419582367
1789222845117287400,8.984287353515626,-0.5323224067687988,0.23096762597560883,0.11017864942550659
1789222845127281400,8.994281494140624,-0.45711979269981384,-0.4659461975097656,0.19122236967086792
1789222845137275400,9.004275390625,-0.3409672975540161,-0.37102097272872925,-0.2631630301475525
1789222845147268600,9.0142685546875,-0.3188398778438568,0.04974622279405594,-0.5364515781402588
1789222845157262600,9.0242626953125,-0.46971017122268677,0.24568578600883484,-0.3781013488769531
1789222845167256300,9.03425634765625,-0.5774630308151245,-0.2430327832698822,-0.06040169298648834
1789222845177250300,9.044250244140626,-0.6426653861999512,-0.443354994058609,0.22461099922657013
1789222845187244300,9.054244384765624,-0.7375338673591614,0.0818997472524643,0.2971661388874054
1789222845197237500,9.064237548828125,-0.7752857208251953,0.0688721314072609,0.29895395040512085
1789222845207231500,9.0742314453125,-0.7637435793876648,-0.07281576097011566,0.13913364708423615
1789222845217225500,9.0842255859375,-0.7292267680168152,0.15733663737773895,0.03847179561853409
1789222845227219500,9.094219482421876,-0.7350678443908691,0.3435025215148926,-0.08724857866764069
1789222845237212400,9.10421240234375,-0.7315821647644043,-0.27765482664108276,-0.27952122688293457
1789222845247206400,9.114206298828124,-0.719656229019165,-1.0903762578964233,-0.014850424602627754
1789222845257200400,9.124200439453125,-0.7078077793121338,-0.7242952585220337,0.21028020977973938
1789222845267194600,9.134194580078125,-0.5901147127151489,-0.012932679615914822,-0.029592037200927734
1789222845277187600,9.1441875,-0.47736239433288574,0.22101327776908875,-0.12366299331188202
1789222845287181300,9.154181396484375,-0.5369162559509277,0.34036391973495483,0.15785682201385498
1789222845297175300,9.16417529296875,-0.6852254271507263,0.12644460797309875,0.41704583168029785
1789222845307169500,9.17416943359375,-0.7770962715148926,-0.6395620107650757,0.3515712022781372
1789222845317163500,9.18416357421875,-0.7257983684539795,-1.2409743070602417,0.1768089383840561
1789222845327156500,9.194156494140625,-0.5114139318466187,-0.9713937044143677,-0.29490771889686584
1789222845337150500,9.204150390625,-0.15856711566448212,-0.503270149230957,-0.7509967684745789
1789222845347144400,9.21414453125,-0.029393143951892853,0.23131407797336578,-0.49631360173225403
1789222845357138400,9.224138427734376,-0.16483056545257568,0.6026840209960938,-0.053832244127988815
1789222845367131400,9.23413134765625,-0.3342462182044983,-0.2981286644935608,0.4369065761566162
1789222845377125400,9.24412548828125,-0.4302772879600525,-1.17236328125,0.7103196978569031
1789222845387119600,9.25411962890625,-0.6352930068969727,-0.1709422618150711,0.4546673893928528
1789222845397113600,9.264113525390625,-0.7826005220413208,0.7029061913490295,0.1984235793352127
1789222845407106300,9.274106201171875,-0.6521016359329224,0.08429621160030365,-0.09756015241146088
1789222845417100500,9.2841005859375,-0.26015540957450867,-0.953112006187439,-0.4115976393222809
1789222845427094500,9.294094482421874,0.19345441460609436,-1.304134726524353,-0.4713011682033539
1789222845437088500,9.304088623046875,0.4189777970314026,-0.7685525417327881,-0.3413723111152649
1789222845447082500,9.31408251953125,0.35047197341918945,-0.34070318937301636,0.10751385241746902
1789222845457075500,9.324075439453125,0.04281852766871452,0.030495673418045044,0.531620442867279
1789222845467069400,9.3340693359375,-0.32376664876937866,0.6686835885047913,0.34915825724601746
1789222845477063400,9.3440634765625,-0.4060155153274536,0.11925065517425537,0.15560877323150635
1789222845487057400,9.354057373046874,-0.32084494829177856,-0.671453595161438,-0.044957343488931656
1789222845497050600,9.364050537109375,-0.21507367491722107,-0.8656826019287109,-0.06578163057565689
1789222845507044600,9.374044677734375,-0.0011126385070383549,-0.8825539946556091,0.2468830645084381
1789222845517038600,9.38403857421875,0.29675257205963135,-0.11345989257097244,0.03211098536849022
1789222845527032300,9.3940322265625,0.6085091233253479,0.3684904873371124,-0.1372186541557312
1789222845537026300,9.4040263671875,0.6818621158599854,0.30934715270996094,-0.32278013229370117
1789222845547019500,9.41401953125,0.40592190623283386,0.11609835177659988,-0.3871042728424072
1789222845557013500,9.424013427734375,0.016900114715099335,-0.3866465091705322,0.31466349959373474
1789222845567007500,9.434007568359375,-0.20260533690452576,-0.361517995595932,0.40779292583465576
1789222845577001500,9.44400146484375,-0.003928030841052532,-0.2983655333518982,0.05895599350333214
1789222845586994400,9.453994384765625,0.4471677541732788,-0.47005340456962585,-0.08976610004901886
1789222845596988400,9.463988525390626,0.7408959865570068,-0.021207235753536224,-0.4558127522468567
1789222845606982400,9.473982421875,0.8037819862365723,0.17035767436027527,-0.3124113976955414
1789222845616976400,9.483976318359375,0.6623156666755676,0.21143046021461487,0.14143139123916626
1789222845626969600,9.493969482421875,0.5304931998252869,-0.007439568638801575,0.214522123336792
1789222845636963300,9.50396337890625,0.3997240364551544,-0.31526416540145874,0.2582317888736725
1789222845646957300,9.513957275390625,0.33179423213005066,-0.3890552818775177,0.20077009499073029
1789222845656951600,9.52395166015625,0.3321528732776642,-0.13842977583408356,0.3577316105365753
1789222845666945500,9.533945556640624,0.3915408253669739,0.6511759161949158,0.22686493396759033
1789222845676938500,9.5439384765625,0.5874254107475281,1.1298737525939941,-0.5534960627555847
1789222845686932500,9.553932373046875,0.8606966137886047,0.13153931498527527,-0.5797079801559448
1789222845696926500,9.563926513671875,0.8334841132164001,-0.3441005349159241,-0.33762019872665405
1789222845706920400,9.57392041015625,0.6713106632232666,-0.47990816831588745,-0.05726122483611107
1789222845716913400,9.583913330078126,0.4551377594470978,-0.14253738522529602,0.41721612215042114
1789222845726907400,9.593907470703124,0.2585922181606293,0.7633903622627258,0.3139488697052002
1789222845736901600,9.603901611328125,0.1836993247270584,0.964130163192749,0.058234602212905884
1789222845746895600,9.6138955078125,0.21200206875801086,0.21449507772922516,0.06381791830062866
1789222845756889600,9.6238896484375,0.22877424955368042,-0.23712016642093658,0.13905146718025208
1789222845766882300,9.63388232421875,0.15948624908924103,-0.01649405248463154,0.3610832095146179
1789222845776876500,9.64387646484375,0.1729649156332016,0.15531982481479645,0.2741781771183014
1789222845786870500,9.65387060546875,0.31710079312324524,-0.1805974692106247,-0.3251284062862396
1789222845796864500,9.663864501953125,0.41300466656684875,-0.5260190367698669,-0.6515769958496094
1789222845806857500,9.673857421875,0.357697457075119,-0.3962431848049164,-0.784965455532074
1789222845816851500,9.6838515625,0.2001979649066925,-0.2229195088148117,-0.2585573196411133
1789222845826845400,9.693845458984375,0.026877587661147118,0.1688176393508911,0.24818924069404602
1789222845836839400,9.70383935546875,-0.031179891899228096,0.19636750221252441,0.6544271111488342
1789222845846833400,9.71383349609375,-0.0004672533832490444,0.21286766231060028,0.656825840473175
1789222845856826600,9.72382666015625,0.05318848788738251,0.3947596251964569,0.1644328087568283
1789222845866820600,9.733820556640625,0.06138596311211586,0.12865176796913147,-0.05070667341351509
1789222845876814300,9.743814453125,0.11302172392606735,-0.5122419595718384,-0.20750001072883606
1789222845886808300,9.753808349609375,0.23181256651878357,-0.6089059114456177,-0.5990169644355774
1789222845896801500,9.763801513671876,0.4087804853916168,-0.384359747171402,-0.5739229321479797
1789222845906795500,9.77379541015625,0.4937686026096344,0.1337134838104248,-0.4127955436706543
1789222845916789500,9.78378955078125,0.2978433072566986,0.7627667784690857,-0.10313063114881516
1789222845926783500,9.793783447265625,-0.04313478618860245,0.592613160610199,0.621804416179657
1789222845936777500,9.803777587890625,-0.3038153052330017,0.19107899069786072,0.7756557464599609
1789222845946770400,9.8137705078125,-0.35174474120140076,-0.057250119745731354,0.5529414415359497
1789222845956764400,9.823764404296876,-0.17404334247112274,-0.01856827177107334,0.1376097947359085
1789222845966758400,9.83375830078125,0.1289636641740799,0.32661202549934387,-0.49554184079170227
1789222845976752600,9.843752685546875,0.37972715497016907,-0.03214343264698982,-0.46497660875320435
1789222845986745300,9.853745361328125,0.44851821660995483,-0.6749714016914368,-0.06897947192192078
1789222845996739300,9.8637392578125,0.3450833261013031,-0.5747419595718384,-0.10733509808778763
1789222846006733300,9.8737333984375,0.17144708335399628,-0.20598362386226654,-0.04911040887236595
1789222846016727600,9.8837275390625,-0.19097484648227692,0.6718407869338989,-0.23716580867767334
1789222846026721500,9.893721435546874,-0.5026158094406128,0.8064423203468323,-0.1047462597489357
1789222846036714500,9.903714599609375,-0.4863291084766388,-0.13913197815418243,0.4384802281856537
1789222846046708500,9.91370849609375,-0.15140490233898163,-0.43941110372543335,0.6087198853492737
1789222846056702500,9.923702392578125,0.3144111931324005,0.30993223190307617,0.2850271165370941
1789222846066696400,9.933696533203126,0.5487526059150696,0.8401172757148743,0.09763269871473312
1789222846076689400,9.943689453125,0.5144421458244324,0.1010436862707138,0.040657754987478256
1789222846086683400,9.953683349609374,0.29935380816459656,-0.6083601117134094,-0.21276119351387024
1789222846096677600,9.963677734375,0.10005845874547958,-0.6224399209022522,-0.42878687381744385
1789222846106671600,9.973671630859375,-0.06605647504329681,0.011730664409697056,-0.6597407460212708
1789222846116665300,9.983665283203125,-0.19082990288734436,0.496697336435318,-0.5495392680168152
1789222846126658600,9.993658447265625,-0.21472245454788208,0.2182563990354538,0.4629913866519928
1789222846136652500,10.003652587890626,-0.06727680563926697,0.07140034437179565,0.6776548624038696
1789222846146646500,10.013646484375,0.1964283287525177,0.09120041877031326,0.30676281452178955
1789222846156640500,10.023640625,0.32292240858078003,0.29760581254959106,-0.0768304318189621
1789222846166633500,10.033633544921875,0.3237200379371643,-0.03616948425769806,-0.20757274329662323
1789222846176627500,10.04362744140625,0.263690710067749,-0.5948091149330139,-0.04393734410405159
1789222846186621400,10.053621337890625,0.11862324923276901,0.05338779091835022,0.06279709190130234
1789222846196615400,10.063615478515626,0.13631659746170044,0.7309072017669678,-0.21381723880767822
1789222846206609400,10.073609375,0.2638748288154602,0.4147777855396271,-0.3493782579898834
1789222846216602600,10.0836025390625,0.11373192816972733,0.4783127009868622,0.13542874157428741
1789222846226596400,10.093596435546875,-0.06976200640201569,0.41715189814567566,0.6280006170272827
1789222846236590300,10.10359033203125,-0.042840875685214996,-0.0024101128801703453,0.5615174174308777
1789222846246584300,10.113584228515625,0.12730635702610016,-0.1943047195672989,0.2433556467294693
1789222846256578600,10.12357861328125,0.17248910665512085,0.43611302971839905,-0.4922158122062683
1789222846266571500,10.133571533203124,0.19780166447162628,0.23828436434268951,-0.684558093547821
1789222846276565500,10.1435654296875,0.2993377447128296,-0.5234349966049194,-0.4508926272392273
1789222846286559500,10.1535595703125,0.40506842732429504,-0.6121651530265808,-0.1621772199869156
1789222846296553500,10.163553466796875,0.23847255110740662,0.6469955444335938,0.118602454662323
1789222846306546400,10.17354638671875,-0.035493213683366776,1.1682748794555664,0.6729316711425781
1789222846316540400,10.18354052734375,-0.21212081611156464,0.6430009603500366,0.6497437953948975
1789222846326534400,10.193534423828124,-0.3074473440647125,0.21175795793533325,0.28682979941368103
1789222846336528600,10.203528564453125,-0.2345631718635559,0.19064752757549286,-0.3596324026584625
1789222846346522600,10.213522705078125,0.0335063561797142,-0.4284979999065399,-0.6556078791618347
1789222846356515300,10.223515380859375,0.27009904384613037,-1.0639362335205078,-0.33312898874282837
1789222846366509300,10.23350927734375,0.37244537472724915,-0.34447160363197327,-0.20195259153842926
1789222846376503600,10.243503662109376,0.3985164761543274,0.5892651081085205,0.025183269754052162
1789222846386497500,10.25349755859375,0.273168683052063,0.8279277086257935,0.11561410129070282
1789222846396490500,10.263490478515624,-0.15834595263004303,0.9822120070457458,0.07311476767063141
1789222846406484500,10.273484375,-0.6148948669433594,0.6195251941680908,0.5487406849861145
1789222846416478500,10.283478515625,-0.849030613899231,0.26725465059280396,0.7633015513420105
1789222846426472400,10.293472412109375,-0.6680120825767517,-0.17017780244350433,0.3034426271915436
1789222846436466400,10.303466552734376,-0.20842969417572021,-0.5296980738639832,-0.4232650399208069
1789222846446459600,10.313459716796874,0.2054569572210312,-0.8820840716362,-0.38720157742500305
1789222846456453600,10.32345361328125,0.3318798840045929,-0.3690498471260071,-0.22553299367427826
1789222846466447400,10.333447265625,0.20307771861553192,0.779487133026123,-0.596534252166748
1789222846476441300,10.34344140625,-0.2063847780227661,1.1003772020339966,-0.2844354808330536
1789222846486435300,10.353435302734376,-0.6280670166015625,0.3664292097091675,0.1400124877691269
1789222846496428500,10.363428466796876,-0.7046879529953003,-1.0188039541244507,0.39267876744270325
1789222846506422500,10.373422607421874,-0.5412119030952454,-1.2458844184875488,0.5827187895774841
1789222846516416500,10.38341650390625,-0.2921370267868042,-0.061251137405633926,0.255824476480484
1789222846526410500,10.393410400390625,-0.0222469475120306,0.5803629159927368,0.15138116478919983
1789222846536403500,10.403403564453125,0.11730093508958817,0.7308595776557922,0.015326341614127159
1789222846546397400,10.4133974609375,0.08208861947059631,0.7006641626358032,-0.34294337034225464
1789222846556391400,10.423391357421876,-0.03846699744462967,-0.05920669808983803,-0.2789379954338074
1789222846566385400,10.433385498046874,-0.09839797019958496,-1.0190297365188599,-0.17569099366664886
1789222846576379600,10.443379638671875,-0.07701551914215088,-0.9655705094337463,-0.20811213552951813
1789222846586372400,10.453372314453125,0.024904722347855568,-0.02454151213169098,-0.05033662170171738
1789222846596366300,10.463366455078125,0.07499890774488449,0.8685760498046875,0.26735565066337585
1789222846606360300,10.4733603515625,0.055598583072423935,1.0570107698440552,0.056085992604494095
1789222846616354600,10.4833544921875,0.06304048746824265,0.10410792380571365,0.06268209964036942
1789222846626348500,10.4933486328125,-0.030908111482858658,-0.34276384115219116,0.13599146902561188
1789222846636341500,10.503341552734375,-0.1572955846786499,-0.16629153490066528,0.19384978711605072
1789222846646335700,10.513335693359375,-0.08138936012983322,-0.26164335012435913,0.17040438950061798
1789222846656330000,10.523330078125,0.1288098394870758,-0.36159083247184753,0.09130953997373581
1789222846666324000,10.533323974609376,0.16007083654403687,0.41664156317710876,-0.08754116296768188
1789222846676317000,10.54331689453125,0.008816396817564964,0.6228398084640503,0.012920746579766273
1789222846686311000,10.553310791015624,-0.17201729118824005,-0.09215874969959259,-0.012823766097426414
1789222846696305000,10.563304931640625,-0.31903722882270813,-0.41433829069137573,-0.04100218042731285
1789222846706299000,10.573298828125,-0.2699058949947357,-0.28734225034713745,-0.2892540395259857
1789222846716292900,10.58329296875,-0.09012486040592194,-0.23736605048179626,-0.5167766809463501
1789222846726285800,10.593285888671875,0.13495725393295288,-0.3268173635005951,-0.26109081506729126
1789222846736280000,10.603280029296876,0.28379520773887634,0.018747486174106598,0.13384395837783813
1789222846746274000,10.613274169921874,0.22166498005390167,0.4243178963661194,0.5981096625328064
1789222846756267800,10.623267822265625,0.061359699815511703,0.249025359749794,0.7588582038879395
1789222846766261800,10.63326171875,-0.1268293857574463,0.05539437383413315,0.6689650416374207
1789222846776255000,10.6432548828125,-0.22585035860538483,0.34731313586235046,-0.033142752945423126
1789222846786249000,10.6532490234375,-0.013382311910390854,-0.14956185221672058,-0.804572343826294
1789222846796243000,10.663242919921874,0.1615990847349167,-0.4684983491897583,-1.2071465253829956
1789222846806237000,10.67323681640625,0.2272643893957138,-0.6080895066261292,-0.5545173287391663
1789222846816230000,10.68322998046875,0.3072911202907562,-0.18639911711215973,0.08036632835865021
1789222846826223900,10.693223876953125,0.5110615491867065,0.1559278666973114,0.48911523818969727
1789222846836217900,10.7032177734375,0.5855979323387146,0.8701438307762146,0.36511608958244324
1789222846846211800,10.7132119140625,0.22136591374874115,1.0646029710769653,0.031317055225372314
1789222846856205800,10.723205810546874,-0.24154210090637207,-0.022628597915172577,0.541496992111206
1789222846866198800,10.73319873046875,-0.5232544541358948,-0.6256446838378906,0.588567852973938
1789222846876192800,10.74319287109375,-0.43746069073677063,0.016624873504042625,-0.14956587553024292
1789222846886186800,10.753186767578125,0.12391210347414017,-0.2188824564218521,-0.5498594641685486
1789222846896181000,10.763180908203125,0.5227160453796387,-0.10350510478019714,-0.8601077795028687
1789222846906175000,10.773175048828126,0.5725088715553284,0.02520572952926159,-0.35554155707359314
1789222846916168000,10.78316796875,0.39259853959083557,0.22117048501968384,0.17608346045017242
1789222846926162000,10.793161865234374,0.1396334022283554,0.3968490958213806,0.3048582077026367
1789222846936156000,10.803156005859375,-0.14696569740772247,0.28710198402404785,0.2704924941062927
1789222846946150000,10.81314990234375,-0.4568071663379669,0.0867539644241333,0.3150269389152527
1789222846956143900,10.823143798828125,-0.5617197155952454,-0.2170434296131134,0.3306386470794678
1789222846966136800,10.83313671875,-0.33552706241607666,-0.21644660830497742,-0.11111292243003845
1789222846976131000,10.843131103515624,0.056570276618003845,0.036445412784814835,-0.40371233224868774
1789222846986125000,10.853125,0.3079710602760315,0.3297632932662964,-0.16251569986343384
1789222846996118800,10.863118896484375,0.27763432264328003,0.5163236856460571,-0.09197598695755005
1789222847006112800,10.87311279296875,0.15464022755622864,-0.34582436084747314,0.04276371747255325
1789222847016106000,10.88310595703125,0.04011264443397522,-1.1539946794509888,0.07527244091033936
1789222847026100000,10.893099853515626,-0.12781962752342224,-0.4318961501121521,-0.002920625265687704
1789222847036094000,10.903093994140624,-0.2951241135597229,0.9540128707885742,-0.21215420961380005
1789222847046088000,10.913087890625,-0.3639146387577057,1.0718086957931519,-0.000047269510105252266
1789222847056081000,10.923080810546875,-0.32313546538352966,0.3415520489215851,0.18999649584293365
1789222847066075000,10.933074951171875,-0.15947064757347107,-0.3061516284942627,0.07175186276435852
1789222847076068900,10.94306884765625,0.07641315460205078,-0.8319376707077026,0.06144110485911369
1789222847086062800,10.953062744140626,0.19356374442577362,-0.804793119430542,0.11507423967123032
1789222847096056800,10.963056884765624,0.14156734943389893,0.0012817545793950558,0.04057701677083969
1789222847106049800,10.9730498046875,-0.041705261915922165,0.8302172422409058,-0.10604651272296906
1789222847116043800,10.983043701171875,-0.35019606351852417,0.8728684782981873,-0.012905677780508995
1789222847126037800,10.993037841796875,-0.6090995669364929,0.20790885388851166,-0.06015174835920334
1789222847136031700,11.00303173828125,-0.634201169013977,-0.7447822093963623,0.3316623270511627
1789222847146026000,11.01302587890625,-0.3926011025905609,-0.8964406847953796,0.32251596450805664
1789222847156019000,11.02301904296875,0.03904973715543747,-0.5765478014945984,-0.06949809938669205
1789222847166013000,11.033012939453124,0.3002685606479645,-0.01676386222243309,-0.1891818791627884
1789222847176007000,11.0430068359375,0.19231894612312317,0.5679656267166138,-0.21578213572502136
1789222847186001000,11.0530009765625,-0.10915141552686691,0.42117324471473694,-0.3046366572380066
1789222847195995000,11.062994873046875,-0.2841741740703583,-0.6610121130943298,-0.18111617863178253
1789222847205987800,11.07298779296875,-0.28669965267181396,-1.2145916223526,0.0794546976685524
1789222847215982000,11.082982177734374,-0.21797382831573486,-0.46288707852363586,0.31403136253356934
1789222847225976000,11.09297607421875,-0.11794203519821167,0.4981907606124878,0.5174590349197388
1789222847235969800,11.1029697265625,0.07054005563259125,0.9326716661453247,0.25624239444732666
1789222847245963800,11.1129638671875,0.23558492958545685,0.6354959607124329,0.12107737362384796
1789222847255957000,11.12295703125,0.25773656368255615,0.31203848123550415,-0.27216240763664246
1789222847265951000,11.132950927734376,0.2634149491786957,-0.3327311873435974,-0.7567543983459473
1789222847275945000,11.142945068359374,0.25976037979125977,-0.9894247055053711,-0.24132540822029114
1789222847285939000,11.15293896484375,0.25282469391822815,-0.2749713063240051,-0.18705791234970093
1789222847295932700,11.1629326171875,0.32232779264450073,0.6327675580978394,-0.19134756922721863
1789222847305926000,11.17292578125,0.26348045468330383,1.024721384048462,0.22337745130062103
1789222847315920000,11.182919921875,0.04141552746295929,0.9689010977745056,0.3089481592178345
1789222847325913900,11.192913818359376,-0.11355141550302505,-0.06604908406734467,0.45609524846076965
1789222847335907800,11.202907958984374,-0.07488632202148438,-0.9180052280426025,0.2848711311817169
1789222847345902000,11.212902099609375,0.03545457124710083,-0.43632349371910095,-0.09119518101215363
1789222847355894800,11.222894775390625,0.15022483468055725,0.12212132662534714,-0.022017866373062134
1789222847365888800,11.232888671875,0.2631542980670929,0.3898443877696991,-0.17600663006305695
1789222847375882800,11.2428828125,0.27646583318710327,0.37656617164611816,-0.3020014464855194
1789222847385877000,11.252876953125,0.0941772386431694,0.23432831466197968,-0.17930534482002258
1789222847395870000,11.262869873046874,-0.18301880359649658,0.12266019731760025,-0.3687904179096222
1789222847405864000,11.272864013671875,-0.3450700342655182,-0.46884918212890625,-0.09192608296871185
1789222847415857700,11.282857666015625,-0.39979806542396545,-0.45980939269065857,0.47062280774116516
1789222847425852000,11.292851806640625,-0.29213523864746094,0.2151365578174591,0.46064046025276184
1789222847435846000,11.302845947265626,-0.01941719651222229,0.5327131152153015,0.24117308855056763
1789222847445838800,11.3128388671875,0.31856033205986023,0.032289739698171616,-0.03999892249703407
1789222847455832800,11.322832763671874,0.2577540874481201,0.07281004637479782,-0.20988829433918
1789222847465827000,11.3328271484375,-0.11435156315565109,0.04661945253610611,0.108921118080616
1789222847475820800,11.34282080078125,-0.4332863688468933,-0.38308414816856384,-0.0012923001777380705
1789222847485814800,11.352814697265625,-0.5778669714927673,-0.6846120357513428,-0.05247000232338905
1789222847495808000,11.36280810546875,-0.6055842041969299,-0.15405502915382385,-0.10037463158369064
1789222847505802000,11.372802001953126,-0.5285794138908386,0.72764652967453,-0.6715962886810303
1789222847515796000,11.3827958984375,-0.3200426399707794,0.09636205434799194,-0.19334997236728668
1789222847525790000,11.3927900390625,-0.1748601347208023,-0.7089147567749023,0.2549301087856293
1789222847535784000,11.402783935546875,-0.19778890907764435,-0.7089894413948059,0.08672168105840683
1789222847545777000,11.41277685546875,-0.3302180767059326,-0.6783596277236938,0.2236291915178299
1789222847555771000,11.42277099609375,-0.495764821767807,-0.307268887758255,0.22155092656612396
1789222847565764900,11.432764892578126,-0.6225882768630981,0.4619028866291046,-0.06537032127380371
1789222847575758800,11.4427587890625,-0.6140099763870239,0.695184588432312,0.002412186237052083
1789222847585753000,11.452753173828125,-0.45105648040771484,0.06653665751218796,0.06319218128919601
1789222847595745800,11.462745849609375,-0.32855522632598877,-0.6521449089050293,0.44459548592567444
1789222847605739800,11.47273974609375,-0.25183671712875366,-0.799666702747345,0.5822625160217285
1789222847615733800,11.482733642578125,-0.15058527886867523,-0.17354270815849304,-0.07333262264728546
1789222847625728000,11.49272802734375,0.03118319623172283,-0.03878196328878403,-0.5670155882835388
1789222847635722000,11.502721923828124,-0.02239863947033882,0.2825799882411957,-0.7490893006324768
1789222847645714200,11.512714111328124,-0.2625041604042053,0.3111155033111572,-0.38834333419799805
1789222847655708400,11.52270849609375,-0.3917345702648163,-0.4940931499004364,0.40503618121147156
1789222847665702100,11.5327021484375,-0.2304583191871643,-1.0667564868927002,0.6626285910606384
1789222847675696000,11.542696044921875,-0.00453368853777647,-0.3816830515861511,0.3329474627971649
1789222847685690000,11.552690185546876,0.042834892868995667,0.5514723062515259,0.08371127396821976
1789222847695683300,11.562683349609374,0.03720284253358841,0.2009502500295639,0.07488148659467697
1789222847705677300,11.57267724609375,0.054618582129478455,-0.14026060700416565,-0.4198046624660492
1789222847715671300,11.58267138671875,0.17461153864860535,-0.49515312910079956,-0.49805086851119995
1789222847725665300,11.592665283203125,0.16051408648490906,-0.029007289558649063,-0.36022669076919556
1789222847735659000,11.602658935546875,0.10155031085014343,0.33142343163490295,-0.048969995230436325
1789222847745652200,11.61265234375,0.16632984578609467,0.04587848484516144,0.30259284377098083
1789222847755646200,11.622646240234374,0.33892345428466797,-0.22061358392238617,0.405914843082428
1789222847765640200,11.63264013671875,0.33799853920936584,0.5141003727912903,0.10932926088571548
1789222847775634200,11.64263427734375,0.2623607814311981,0.6487743258476257,0.09731227904558182
1789222847785628400,11.65262841796875,0.2661893367767334,-0.15729959309101105,0.23481208086013794
1789222847795621000,11.66262109375,0.3079688847064972,-0.3782520592212677,0.15133339166641235
1789222847805615000,11.672614990234376,0.3520396649837494,0.18500304222106934,-0.20724685490131378
1789222847815609300,11.682609375,0.48707255721092224,0.12169764935970306,-0.5524860620498657
1789222847825603300,11.692603271484375,0.4873063862323761,-0.0882880687713623,-0.2714623510837555
1789222847835597300,11.702597412109375,0.32859721779823303,0.37962815165519714,0.022385194897651672
1789222847845590000,11.712590087890625,0.27305352687835693,0.3212588429450989,0.13254046440124512
1789222847855584300,11.722584228515625,0.35398948192596436,-0.34043583273887634,0.15576528012752533
1789222847865578200,11.732578125,0.32389310002326965,-0.20438823103904724,0.14267584681510925
1789222847875572200,11.742572265625,0.18456196784973145,0.4587882459163666,0.11690013110637665
1789222847885566200,11.752566162109375,0.08811691403388977,0.5664097666740417,0.20470747351646423
1789222847895559400,11.762559326171875,0.12217099219560623,0.09839753806591034,0.03440497815608978
1789222847905553200,11.77255322265625,0.18108436465263367,-0.09391384571790695,-0.30709511041641235
1789222847915547100,11.782547119140625,0.13321678340435028,0.12604045867919922,-0.2634449899196625
1789222847925541000,11.792541015625,0.06320734322071075,-0.03710451349616051,0.08740011602640152
1789222847935535000,11.80253515625,0.07440786808729172,-0.25957801938056946,-0.018761534243822098
1789222847945528300,11.8125283203125,0.10895518958568573,-0.09698858857154846,-0.060800857841968536
1789222847955522300,11.822522216796875,0.040304992347955704,0.4214624762535095,0.01933215744793415
1789222847965516300,11.832516357421875,-0.047473859041929245,0.30605944991111755,0.03937164321541786
1789222847975510000,11.842510009765626,-0.11125094443559647,-0.3070036470890045,0.2888188362121582
1789222847985504300,11.852504150390626,-0.10795474797487259,-0.30207890272140503,0.1551332175731659
1789222847995497200,11.862497314453124,-0.06048060953617096,0.17340965569019318,-0.18571390211582184
1789222848005491200,11.8724912109375,0.05384010821580887,0.045535583049058914,-0.23913878202438354
1789222848015485200,11.882485107421875,0.0931238904595375,-0.1326151341199875,-0.016048265621066093
1789222848025479400,11.8924794921875,0.05867163836956024,0.18568773567676544,0.0810825452208519
1789222848035473200,11.90247314453125,0.0698939710855484,0.13108788430690765,0.16732682287693024
1789222848045466000,11.912466064453126,0.032077353447675705,-0.08447716385126114,0.15914346277713776
1789222848055460000,11.922460205078124,-0.019845999777317047,-0.11446645110845566,-0.04067963361740112
1789222848065454300,11.932454345703125,0.007990957237780094,-0.023808719590306282,-0.32327669858932495
1789222848075448300,11.9424482421875,0.15496009588241577,-0.16247797012329102,-0.293585866689682
1789222848085442300,11.9524423828125,0.24988262355327606,0.0010419958271086216,-0.13977205753326416
1789222848095435300,11.962435302734375,0.2803025245666504,0.15029551088809967,0.0481288805603981
1789222848105429200,11.97242919921875,0.25049376487731934,0.11385894566774368,0.25079649686813354
1789222848115423200,11.98242333984375,0.16736793518066406,0.058858465403318405,0.28308066725730896
1789222848125417200,11.992417236328125,0.06836172938346863,0.16362695395946503,0.05486798658967018
1789222848135411200,12.0024111328125,-0.007273905910551548,0.4467127025127411,-0.12901058793067932
1789222848145405200,12.0124052734375,0.07161770761013031,0.22852736711502075,-0.2774549126625061
1789222848155398100,12.022398193359376,0.24183277785778046,-0.36305370926856995,-0.24850285053253174
1789222848165392100,12.03239208984375,0.3582315742969513,-0.3761617839336395,-0.16966259479522705
1789222848175386000,12.04238623046875,0.3479546308517456,0.17787764966487885,-0.061392080038785934
1789222848185380000,12.052380126953125,0.227964848279953,0.5597885251045227,0.04364033043384552
1789222848195374300,12.062374267578125,0.06500430405139923,0.466064989566803,0.09407813847064972
1789222848205367300,12.0723671875,-0.09285856038331985,0.2146678864955902,0.23690906167030334
1789222848215361000,12.082361083984376,-0.09839020669460297,-0.08013442158699036,0.09864021092653275
1789222848225355300,12.092355224609374,0.0564691424369812,-0.30817556381225586,-0.020674461498856544
1789222848235349200,12.102349365234375,0.21029575169086456,-0.09084436297416687,-0.05909550189971924
1789222848245343200,12.11234326171875,0.2598681151866913,0.409585177898407,-0.18792006373405457
1789222848255336200,12.122336181640625,0.22440007328987122,0.42942720651626587,-0.14668484032154083
1789222848265330400,12.132330322265625,0.14170758426189423,0.04408378154039383,-0.12299095094203949
1789222848275324200,12.14232421875,0.03510883450508118,-0.12662149965763092,-0.07747429609298706
1789222848285318100,12.152318115234374,-0.031766071915626526,-0.08030299842357635,0.10291171818971634
1789222848295312100,12.16231201171875,-0.07721797376871109,0.12227118015289307,0.3141460120677948
1789222848305305300,12.172305419921875,-0.10165061801671982,0.4926023781299591,0.20134302973747253
1789222848315299300,12.18229931640625,-0.040923114866018295,0.5159776210784912,-0.0525386780500412
1789222848325293300,12.192293212890625,0.0855804979801178,-0.11785204708576202,-0.02365802973508835
1789222848335287300,12.202287353515626,0.1156378984451294,-0.4436136484146118,-0.01713733933866024
1789222848345281000,12.212281005859374,0.055207304656505585,-0.14257311820983887,-0.09547288715839386
1789222848355274200,12.222274169921874,-0.013095317408442497,0.2554187476634979,-0.13855324685573578
1789222848365268200,12.232268310546875,-0.11713170260190964,0.3213375508785248,-0.20643216371536255
1789222848375262200,12.24226220703125,-0.26196902990341187,0.005303703248500824,-0.09180338680744171
1789222848385256200,12.252256103515625,-0.3785869777202606,-0.16341820359230042,0.15881924331188202
1789222848395250400,12.26225048828125,-0.39611226320266724,0.050589390099048615,0.2922649681568146
1789222848405243100,12.2722431640625,-0.31901293992996216,0.12377198785543442,0.09501422196626663
1789222848415237000,12.282237060546874,-0.31195300817489624,0.06466739624738693,0.0038307735230773687
1789222848425231000,12.292231201171875,-0.4077482521533966,0.12415682524442673,0.00796426646411419
1789222848435225300,12.302225341796875,-0.4791548252105713,-0.1269560605287552,0.0689191073179245
1789222848445219300,12.31221923828125,-0.47020047903060913,-0.5448699593544006,-0.2120893895626068
1789222848455213300,12.32221337890625,-0.4690178632736206,-0.5110793113708496,-0.17358383536338806
1789222848465206300,12.332206298828124,-0.5233138799667358,-0.013935882598161697,0.14818327128887177
1789222848475200300,12.3422001953125,-0.4940289855003357,0.12184751033782959,0.13388431072235107
