time,seconds_elapsed,z,y,x
1789222459343668500,0.04266845703125,1.5420074462890625,0.349609375,-0.416229248046875
1789222459353661400,0.052661376953125,0.26123046875,0.1619110107421875,-0.4907073974609375
1789222459363655700,0.06265576171875,-1.554656982421875,-1.3182830810546875,-0.1016693115234375
1789222459373649700,0.072649658203125,-1.2548828125,-0.3874664306640625,0.5205230712890625
1789222459383643600,0.0826435546875,-1.24652099609375,-0.3435516357421875,0.602447509765625
1789222459393637400,0.092637451171875,-1.2889556884765625,-2.1612396240234375,0.3677520751953125
1789222459403631400,0.10263134765625,-0.516815185546875,-0.26763916015625,0.3488616943359375
1789222459413625600,0.11262548828125,-0.7168426513671875,-0.352935791015625,-0.1190643310546875
1789222459423619600,0.12261962890625,-0.176177978515625,-1.4548187255859375,-0.4044036865234375
1789222459433613600,0.132613525390625,0.46209716796875,0.020782470703125,0.3074188232421875
1789222459443607600,0.142607666015625,-1.131988525390625,-0.7405548095703125,0.54803466796875
1789222459453600500,0.1526005859375,-2.3605194091796875,-1.239288330078125,0.38134765625
1789222459463594500,0.162594482421875,-1.3494415283203125,-0.3467864990234375,0.3636627197265625
1789222459473588500,0.17258837890625,0.1342926025390625,-1.0186309814453125,0.058837890625
1789222459483582500,0.18258251953125,0.8009796142578125,-0.1255035400390625,-0.0368499755859375
1789222459493576400,0.192576416015625,-0.3920135498046875,-0.0389404296875,0.14312744140625
1789222459503570400,0.2025703125,-1.2844390869140625,-1.5687255859375,0.3627166748046875
1789222459513564700,0.212564697265625,-0.7636566162109375,-1.0628662109375,0.5503692626953125
1789222459523558700,0.22255859375,-0.7418060302734375,-0.7643280029296875,0.220947265625
1789222459533552400,0.232552490234375,-0.6943817138671875,-0.7939300537109375,-0.198150634765625
1789222459543545600,0.242545654296875,-1.0373687744140625,-0.486114501953125,0.0333404541015625
1789222459553539600,0.25253955078125,-0.9071044921875,-0.7061004638671875,0.1353759765625
1789222459563533600,0.262533447265625,0.3073883056640625,-0.3451080322265625,0.049468994140625
1789222459573527600,0.272527587890625,0.58465576171875,-0.1346282958984375,0.264068603515625
1789222459583521500,0.282521484375,-0.435333251953125,-0.4346771240234375,0.379638671875
1789222459593515500,0.292515625,-1.946685791015625,-1.224273681640625,0.3476715087890625
1789222459603509500,0.302509521484375,-3.16705322265625,-1.2104644775390625,0.11279296875
1789222459613503500,0.31250341796875,-1.7075653076171875,-0.931854248046875,-0.576324462890625
1789222459623497500,0.32249755859375,-0.1441650390625,-1.3100433349609375,-0.62835693359375
1789222459633491500,0.332491455078125,0.61627197265625,-0.743072509765625,-0.049774169921875
1789222459643484700,0.342484619140625,1.0142974853515625,-0.2132568359375,0.27764892578125
1789222459653478700,0.352478759765625,0.9402923583984375,0.19964599609375,0.4016876220703125
1789222459663472400,0.362472412109375,0.2974700927734375,-0.0157928466796875,0.5718994140625
1789222459673466400,0.37246630859375,-1.10919189453125,-1.0290069580078125,0.7948760986328125
1789222459683460400,0.38246044921875,-3.19598388671875,-0.955718994140625,0.8664398193359375
1789222459693454600,0.39245458984375,-2.986419677734375,-1.5866546630859375,0.0387115478515625
1789222459703448600,0.402448486328125,-0.847991943359375,-2.01300048828125,-0.7934112548828125
1789222459713442600,0.412442626953125,0.677825927734375,-0.7015380859375,-0.910308837890625
1789222459723436500,0.4224365234375,0.523284912109375,-0.18951416015625,-0.68548583984375
1789222459733429500,0.432429443359375,-0.1718902587890625,-1.2393646240234375,-0.2678680419921875
1789222459743423500,0.442423583984375,-0.5734710693359375,0.09356689453125,0.241119384765625
1789222459753417500,0.45241748046875,-1.3154449462890625,0.1703948974609375,0.766845703125
1789222459763411500,0.462411376953125,-2.400238037109375,-1.2116546630859375,1.201141357421875
1789222459773405400,0.472405517578125,-0.9221038818359375,-0.748992919921875,0.8237152099609375
1789222459783399700,0.482399658203125,1.0799102783203125,0.0667266845703125,-0.3029937744140625
1789222459793393700,0.4923935546875,0.6139068603515625,-0.820220947265625,-0.6582183837890625
1789222459803387400,0.502387451171875,-0.5001983642578125,-1.5283966064453125,-0.1321563720703125
1789222459813381400,0.51238134765625,0.19683837890625,-0.0001068115234375,0.219818115234375
1789222459823375400,0.522375244140625,-0.1059417724609375,-0.1912841796875,0.2018280029296875
1789222459833368600,0.53236865234375,-2.650390625,-2.77105712890625,0.5406951904296875
1789222459843362600,0.542362548828125,-2.36712646484375,-0.1504058837890625,0.6714630126953125
1789222459853356500,0.5523564453125,-0.8980560302734375,0.178924560546875,-0.2969512939453125
1789222459863350500,0.5623505859375,0.569915771484375,-2.1161346435546875,-0.87103271484375
1789222459873344500,0.572344482421875,1.3255615234375,0.3412017822265625,-0.017822265625
1789222459883338500,0.58233837890625,0.1522979736328125,1.3995361328125,0.4408111572265625
1789222459893332500,0.59233251953125,-1.5807037353515625,-1.6914520263671875,0.0085296630859375
1789222459903326500,0.602326416015625,-1.331512451171875,-1.3641204833984375,0.0707550048828125
1789222459913320400,0.612320556640625,-0.671356201171875,0.524444580078125,0.2644195556640625
1789222459923313700,0.622313720703125,-2.3374481201171875,-1.539825439453125,0.343414306640625
1789222459933307400,0.632307373046875,-2.895355224609375,-1.2064666748046875,0.2097625732421875
1789222459943301400,0.64230126953125,-0.6051483154296875,-0.8087005615234375,-0.199981689453125
1789222459953295400,0.65229541015625,1.163360595703125,-0.9415283203125,-0.0488433837890625
1789222459963289600,0.66228955078125,0.805938720703125,-0.2512359619140625,0.3886871337890625
1789222459973283600,0.67228369140625,0.0899505615234375,-0.8141632080078125,0.236907958984375
1789222459983277600,0.682277587890625,-0.0660858154296875,0.0455780029296875,0.2540283203125
1789222459993271600,0.692271484375,-0.2209014892578125,0.1967620849609375,0.5145416259765625
1789222460003265500,0.702265625,-1.5465850830078125,-1.1792144775390625,0.6240386962890625
1789222460013258500,0.712258544921875,-2.2085723876953125,-0.694305419921875,0.486083984375
1789222460023252500,0.72225244140625,-1.0500335693359375,-0.2900238037109375,-0.03216552734375
1789222460033246500,0.73224658203125,-0.047149658203125,-1.3024139404296875,-0.4585418701171875
1789222460043240400,0.742240478515625,0.17242431640625,-1.0149688720703125,-0.524322509765625
1789222460053234700,0.752234619140625,-0.154998779296875,-0.4324493408203125,-0.2733306884765625
1789222460063228700,0.762228759765625,-0.6352081298828125,-0.36065673828125,0.169830322265625
1789222460073222400,0.772222412109375,-1.3055419921875,-1.188568115234375,0.5979461669921875
1789222460083216400,0.78221630859375,-1.8602142333984375,-1.475311279296875,0.7157745361328125
1789222460093210400,0.79221044921875,-1.774566650390625,-1.0190887451171875,0.4611663818359375
1789222460103204600,0.80220458984375,-1.426239013671875,-0.77899169921875,-0.2498321533203125
1789222460113197600,0.812197509765625,-1.1445159912109375,-1.5865631103515625,-0.8433837890625
1789222460123191600,0.822191650390625,-1.539581298828125,-1.666290283203125,-1.0149383544921875
1789222460133185500,0.832185546875,-1.2982330322265625,-0.2343902587890625,-0.8588409423828125
1789222460143179500,0.842179443359375,-0.6585845947265625,-0.2350006103515625,-0.38360595703125
1789222460153173500,0.852173583984375,-1.13104248046875,-1.584716796875,0.347381591796875
1789222460163167500,0.86216748046875,-0.572479248046875,0.10723876953125,1.1033172607421875
1789222460173161500,0.872161376953125,0.6053619384765625,0.5694427490234375,1.1197357177734375
1789222460183155500,0.882155517578125,-0.324249267578125,-1.472747802734375,0.79840087890625
1789222460193149400,0.8921494140625,-1.8031158447265625,-2.03497314453125,0.7223358154296875
1789222460203143700,0.902143798828125,-0.888153076171875,-0.9694976806640625,0.2580718994140625
1789222460213136400,0.912136474609375,0.0738677978515625,-1.368011474609375,-0.4429473876953125
1789222460223130400,0.92213037109375,0.7001495361328125,-1.7071990966796875,-0.680938720703125
1789222460233124600,0.93212451171875,1.3435516357421875,0.332000732421875,-0.304473876953125
1789222460243118600,0.94211865234375,0.86724853515625,0.917022705078125,0.08984375
1789222460253112600,0.952112548828125,-1.6219024658203125,-1.15789794921875,0.2444610595703125
1789222460263106600,0.9621064453125,-4.2545013427734375,-1.07794189453125,0.5369720458984375
1789222460273100500,0.9721005859375,-2.1692352294921875,0.6451416015625,0.257080078125
1789222460283094300,0.98209423828125,0.1349029541015625,-0.9526824951171875,-0.1406402587890625
1789222460293088300,0.992088134765625,1.0539703369140625,-0.97412109375,-0.0211029052734375
1789222460303081000,1.0020810546875,1.3793487548828125,0.884674072265625,0.283294677734375
1789222460313075000,1.012074951171875,0.255218505859375,-0.0736846923828125,0.4499053955078125
1789222460323069200,1.022069091796875,-1.8560638427734375,-2.3646392822265625,0.4578857421875
1789222460333063200,1.032063232421875,-2.0326690673828125,-0.59130859375,0.2791290283203125
1789222460343057200,1.04205712890625,-0.5654754638671875,-0.050872802734375,-0.1644744873046875
1789222460353051100,1.052051025390625,0.025543212890625,-1.3600311279296875,-0.2521209716796875
1789222460363045000,1.062045166015625,0.49029541015625,0.4093780517578125,-0.036102294921875
1789222460373039400,1.072039306640625,-0.5892333984375,0.1872100830078125,0.1143951416015625
1789222460383033000,1.082033203125,-1.88720703125,-2.450225830078125,0.251068115234375
1789222460393027000,1.092027099609375,-1.5809478759765625,-1.0503692626953125,0.261383056640625
1789222460403020000,1.10202001953125,-1.234466552734375,-0.998687744140625,-0.285125732421875
1789222460413014300,1.11201416015625,-1.2295074462890625,-2.1573944091796875,-0.591461181640625
1789222460423008300,1.12200830078125,-0.2789306640625,-1.188018798828125,-0.071624755859375
1789222460433002200,1.132002197265625,1.212615966796875,0.4163665771484375,0.3969573974609375
1789222460442996000,1.141995849609375,1.62261962890625,0.0751190185546875,0.204437255859375
1789222460452990000,1.151989990234375,0.643157958984375,-1.4789886474609375,0.1257781982421875
1789222460462984200,1.161984130859375,-0.48846435546875,0.0072479248046875,0.484527587890625
1789222460472978200,1.171978271484375,-0.5921630859375,0.9300384521484375,0.3078765869140625
1789222460482972200,1.18197216796875,-0.7069549560546875,-1.4984283447265625,-0.2451629638671875
1789222460492966100,1.191966064453125,-2.48321533203125,-1.8122711181640625,-0.02630615234375
1789222460502959400,1.20195947265625,-4.902801513671875,0.39801025390625,0.5258941650390625
1789222460512953000,1.211953125,-2.916168212890625,-1.1381378173828125,0.1838836669921875
1789222460522947000,1.221947021484375,0.0384979248046875,-1.9672698974609375,0.0403900146484375
1789222460532941000,1.231941162109375,0.7630615234375,-0.3148345947265625,0.21014404296875
1789222460542935000,1.24193505859375,-1.0392303466796875,1.0550384521484375,0.25244140625
1789222460552929300,1.25192919921875,-2.05633544921875,-2.2202301025390625,-0.2252655029296875
1789222460562923300,1.26192333984375,-0.2128753662109375,-2.570220947265625,-0.1558837890625
1789222460572917200,1.271917236328125,1.6420135498046875,1.0796966552734375,0.467559814453125
1789222460582911200,1.2819111328125,1.966949462890625,1.5825042724609375,0.1505279541015625
1789222460592904200,1.291904296875,0.510833740234375,-2.0399169921875,-0.499176025390625
1789222460602898200,1.301898193359375,-1.3436279296875,-2.0794830322265625,-0.2165679931640625
1789222460612892200,1.31189208984375,-2.3578033447265625,0.2588958740234375,0.2071685791015625
1789222460622886100,1.32188623046875,-2.4888153076171875,-2.44134521484375,-0.177459716796875
1789222460632880000,1.331880126953125,-0.3776397705078125,-1.83355712890625,-0.4892425537109375
1789222460642874400,1.341874267578125,0.797576904296875,0.23187255859375,-0.4434967041015625
1789222460652868000,1.3518681640625,-0.0868377685546875,-0.5101776123046875,-0.5193328857421875
1789222460662862000,1.361862060546875,-1.0359344482421875,-0.9398193359375,-0.185394287109375
1789222460672856000,1.37185595703125,-0.3321380615234375,0.22119140625,0.23321533203125
1789222460682850000,1.38185009765625,0.7857666015625,-0.4007110595703125,0.0584716796875
1789222460692843300,1.39184326171875,-0.450714111328125,-1.5756072998046875,0.1612548828125
1789222460702837200,1.401837158203125,-2.1872711181640625,-0.759124755859375,0.1230621337890625
1789222460712831200,1.411831298828125,-1.9048919677734375,-1.4913787841796875,-0.4921417236328125
1789222460722825000,1.421824951171875,-0.5605010986328125,-0.8082427978515625,-0.806121826171875
1789222460732819200,1.431819091796875,-0.011383056640625,0.1955718994140625,-0.6285400390625
1789222460742813200,1.441813232421875,-0.3618621826171875,-1.3784332275390625,-0.19512939453125
1789222460752807200,1.45180712890625,-0.541534423828125,-0.940338134765625,0.0591888427734375
1789222460762801200,1.46180126953125,-0.4698638916015625,0.5815277099609375,-0.005096435546875
1789222460772795100,1.471795166015625,-0.842193603515625,-0.7266845703125,-0.13311767578125
1789222460782789000,1.4817890625,-0.909149169921875,-1.6088714599609375,-0.1466064453125
1789222460792782000,1.491781982421875,-1.054962158203125,0.101898193359375,-0.1486053466796875
1789222460802776000,1.501776123046875,-1.3961639404296875,-0.374298095703125,-0.00689697265625
1789222460812770000,1.51177001953125,-1.1117095947265625,-1.71722412109375,0.3623046875
1789222460822764000,1.521763916015625,-0.6302642822265625,-0.725799560546875,0.5068359375
1789222460832758300,1.53175830078125,-0.404205322265625,0.2830810546875,0.133544921875
1789222460842752300,1.541752197265625,-0.9063720703125,-0.5252685546875,-0.0490570068359375
1789222460852746200,1.551746337890625,-1.44921875,-1.324432373046875,0.260833740234375
1789222460862740000,1.561739990234375,-0.9479827880859375,-0.3956756591796875,0.485687255859375
1789222460872734000,1.57173388671875,0.2565155029296875,0.3327484130859375,0.4188232421875
1789222460882728200,1.581728271484375,0.9011077880859375,-0.722442626953125,0.448028564453125
1789222460892721200,1.59172119140625,0.6685638427734375,-1.061920166015625,0.71905517578125
1789222460902715100,1.601715087890625,-0.0703277587890625,-0.7973480224609375,0.8004302978515625
1789222460912709000,1.611709228515625,-2.204681396484375,-0.7796783447265625,0.3251800537109375
1789222460922703000,1.621703125,-3.1317596435546875,-0.28546142578125,-0.34375
1789222460932697000,1.631697021484375,-0.329620361328125,-0.4971466064453125,-0.418792724609375
1789222460942691000,1.641691162109375,-0.7806243896484375,-1.6089019775390625,-0.1335296630859375
1789222460952685000,1.65168505859375,-2.72503662109375,-1.2450714111328125,-0.1317138671875
1789222460962679000,1.661678955078125,-1.8619537353515625,-0.24505615234375,-0.247344970703125
1789222460972673300,1.67167333984375,-0.541259765625,-0.961883544921875,-0.02911376953125
1789222460982667300,1.681667236328125,-0.102874755859375,-2.2298736572265625,0.4692230224609375
1789222460992660000,1.691659912109375,1.345916748046875,-1.0330810546875,0.363677978515625
1789222461002654000,1.701654052734375,2.1882781982421875,0.9091796875,-0.138092041015625
1789222461012648200,1.711648193359375,0.783172607421875,-0.5111236572265625,-0.1353607177734375
1789222461022642200,1.72164208984375,-0.7877655029296875,-1.5235595703125,0.1640777587890625
1789222461032636200,1.73163623046875,-0.3890533447265625,0.2906036376953125,-0.151611328125
1789222461042630100,1.741630126953125,-0.6578369140625,-0.9384307861328125,-0.6006927490234375
1789222461052624100,1.7516240234375,-3.736968994140625,-2.5115203857421875,0.16412353515625
1789222461062618400,1.761618408203125,-3.9487152099609375,-0.675445556640625,0.5153350830078125
1789222461072612000,1.771612060546875,0.0125274658203125,-0.8302154541015625,-0.7626800537109375
1789222461082606000,1.781606201171875,1.9001922607421875,-0.8492431640625,-1.273101806640625
1789222461092599000,1.79159912109375,1.075347900390625,0.1351165771484375,-0.2550811767578125
1789222461102593300,1.80159326171875,0.0447235107421875,0.4885711669921875,0.61932373046875
1789222461112587300,1.811587158203125,0.5808868408203125,-0.226318359375,0.4488677978515625
1789222461122581200,1.821581298828125,-0.362701416015625,-0.6686553955078125,0.101348876953125
1789222461132575000,1.831574951171875,-4.4228515625,-1.429168701171875,0.4970245361328125
1789222461142569000,1.84156884765625,-2.589935302734375,-1.3600616455078125,1.03997802734375
1789222461152563200,1.851563232421875,0.56317138671875,-0.4176483154296875,0.420654296875
1789222461162557200,1.86155712890625,2.0239410400390625,-0.3173370361328125,-0.536224365234375
1789222461172551200,1.87155126953125,-1.1526641845703125,-0.3629913330078125,-0.9525146484375
1789222461182545200,1.881545166015625,-3.8008880615234375,-2.0623016357421875,-0.2311553955078125
1789222461192539100,1.8915390625,-0.3986358642578125,-0.407196044921875,0.71661376953125
1789222461202532000,1.901531982421875,0.9420318603515625,0.2636566162109375,0.7149658203125
1789222461212526000,1.911526123046875,0.3199005126953125,-1.491058349609375,0.7240447998046875
1789222461222520000,1.92152001953125,-0.90380859375,-0.469635009765625,0.6520233154296875
1789222461232514000,1.93151416015625,-2.2667999267578125,-0.0445404052734375,0.3517303466796875
1789222461242508300,1.94150830078125,-1.127288818359375,-1.5494842529296875,0.1862335205078125
1789222461252502300,1.951502197265625,0.2327728271484375,-0.946044921875,-0.2091522216796875
1789222461262496300,1.961496337890625,0.2618255615234375,-0.1067962646484375,-0.446197509765625
1789222461272490000,1.971489990234375,-1.374664306640625,-1.102294921875,-0.3379669189453125
1789222461282483700,1.981483642578125,-1.69317626953125,-1.75213623046875,-0.059906005859375
1789222461292478000,1.99147802734375,-0.4713134765625,-0.334136962890625,0.2458648681640625
1789222461302472000,2.001471923828125,-0.3653106689453125,-0.7925872802734375,0.504486083984375
1789222461312464600,2.011464599609375,-0.0537109375,-1.5496368408203125,0.4850006103515625
1789222461322458600,2.021458740234375,1.0646820068359375,-0.4578399658203125,0.20367431640625
1789222461332452900,2.031452880859375,0.6622161865234375,0.779876708984375,0.0774688720703125
1789222461342446800,2.04144677734375,-0.9244537353515625,-0.8294525146484375,-0.05731201171875
1789222461352440800,2.05144091796875,-2.8630218505859375,-2.3503265380859375,-0.0865631103515625
1789222461362434800,2.061434814453125,-3.34210205078125,0.0373992919921875,-0.0380096435546875
1789222461372428500,2.071428466796875,-1.2303009033203125,-0.5103302001953125,-0.4799652099609375
1789222461382422800,2.0814228515625,-0.4249114990234375,-1.61614990234375,-0.5623016357421875
1789222461392416800,2.091416748046875,-0.3594207763671875,-0.437469482421875,-0.3155059814453125
1789222461402410800,2.10141064453125,-0.3931732177734375,-0.1076202392578125,-0.0379638671875
1789222461412403700,2.11140380859375,0.6739959716796875,-1.375518798828125,0.1851806640625
1789222461422398000,2.12139794921875,2.092559814453125,-0.4998779296875,0.5853118896484375
1789222461432392000,2.131391845703125,1.8936767578125,0.6090850830078125,0.9531707763671875
1789222461442385700,2.1413857421875,-0.3612518310546875,-0.4614410400390625,0.7117156982421875
1789222461452379600,2.151379638671875,-4.0798187255859375,-1.6828765869140625,0.4849700927734375
1789222461462373600,2.16137353515625,-2.9304351806640625,-1.4293670654296875,-0.001617431640625
1789222461472367900,2.171367919921875,0.4411773681640625,-0.3426361083984375,-0.566375732421875
1789222461482361900,2.18136181640625,0.5718994140625,-0.4310760498046875,-1.05865478515625
1789222461492355800,2.19135595703125,-1.1900787353515625,-1.2613067626953125,-1.03033447265625
1789222461502349800,2.201349853515625,-2.69915771484375,-1.902435302734375,-0.2501373291015625
1789222461512343800,2.21134375,-1.5347442626953125,-1.0167083740234375,0.4296112060546875
1789222461522336800,2.221336669921875,0.572967529296875,-1.3292388916015625,0.618896484375
1789222461532330800,2.231330810546875,0.7972869873046875,-0.701385498046875,0.6528472900390625
1789222461542324700,2.24132470703125,0.3740081787109375,0.1953277587890625,0.501708984375
1789222461552318700,2.251318603515625,0.0345306396484375,-0.8615264892578125,0.4277191162109375
1789222461562313000,2.26131298828125,-0.3571014404296875,-0.7320709228515625,0.1231689453125
1789222461572307000,2.271306884765625,-1.05059814453125,-0.1254425048828125,-0.4406585693359375
1789222461582300700,2.28130078125,-2.5099945068359375,-0.97943115234375,-0.4233856201171875
1789222461592294700,2.291294677734375,-2.6586151123046875,-1.28155517578125,0.10772705078125
1789222461602288600,2.30128857421875,-0.27740478515625,-0.6712646484375,0.0608062744140625
1789222461612283000,2.311282958984375,1.0854339599609375,0.029022216796875,-0.2470703125
1789222461622276900,2.32127685546875,0.497711181640625,-0.60455322265625,0.0313873291015625
1789222461632269800,2.331269775390625,-0.4523468017578125,-0.60479736328125,0.470855712890625
1789222461642263600,2.341263671875,-0.9597015380859375,0.133392333984375,0.572265625
1789222461652257800,2.3512578125,-1.049560546875,-0.6076507568359375,0.250732421875
1789222461662251800,2.361251708984375,-1.399810791015625,-1.3160247802734375,0.2135467529296875
1789222461672245800,2.371245849609375,-1.443634033203125,-0.683624267578125,0.304656982421875
1789222461682239700,2.38123974609375,-0.5999908447265625,-0.5240631103515625,-0.1094818115234375
1789222461692233700,2.391233642578125,-0.542205810546875,-1.0397186279296875,-0.608978271484375
1789222461702227700,2.401227783203125,-0.6450042724609375,-1.1853485107421875,-0.439178466796875
1789222461712222000,2.411221923828125,0.043487548828125,-0.638702392578125,-0.032684326171875
1789222461722215700,2.421215576171875,0.2884674072265625,-0.72344970703125,0.0775146484375
1789222461732209700,2.431209716796875,-0.1263580322265625,-1.2590179443359375,0.2841949462890625
1789222461742203000,2.441202880859375,-0.106292724609375,-0.9602813720703125,0.6421966552734375
1789222461752196900,2.45119677734375,0.6416168212890625,-0.073333740234375,0.491912841796875
1789222461762190800,2.46119091796875,-0.1456298828125,-0.350433349609375,0.1239013671875
1789222461772184800,2.471184814453125,-1.8689422607421875,-0.920654296875,-0.133331298828125
1789222461782178800,2.4811787109375,-2.0629425048828125,-0.6764678955078125,-0.695343017578125
1789222461792172500,2.491172607421875,-1.467437744140625,-1.0181427001953125,-1.124847412109375
1789222461802166800,2.501166748046875,-0.9236297607421875,-1.14849853515625,-0.995025634765625
1789222461812160800,2.511160888671875,-0.392425537109375,-0.253570556640625,-0.4427032470703125
1789222461822154800,2.52115478515625,0.0576934814453125,-0.858367919921875,0.316802978515625
1789222461832148700,2.531148681640625,-0.09112548828125,-1.4342498779296875,1.060394287109375
1789222461842142700,2.541142822265625,-0.25128173828125,-0.3946533203125,1.22076416015625
1789222461852135700,2.5511357421875,-0.4330596923828125,-0.28515625,0.803009033203125
1789222461862129700,2.561129638671875,-0.1805267333984375,-1.00518798828125,0.3162689208984375
1789222461872123600,2.57112353515625,0.31451416015625,-0.76727294921875,-0.0691986083984375
1789222461882117600,2.58111767578125,-0.426666259765625,0.3306121826171875,-0.5184173583984375
1789222461892112000,2.59111181640625,-1.5359039306640625,-0.8416290283203125,-0.422882080078125
1789222461902105900,2.60110595703125,-2.332794189453125,-1.0961151123046875,0.0858154296875
1789222461912099800,2.611099853515625,-1.6560516357421875,0.2954864501953125,0.234619140625
1789222461922093800,2.62109375,-1.604888916015625,-1.4200286865234375,0.1922454833984375
1789222461932087600,2.631087646484375,-1.7880096435546875,-1.3944549560546875,0.0890655517578125
1789222461942081800,2.641081787109375,-1.102691650390625,-0.167449951171875,-0.19000244140625
1789222461952075800,2.65107568359375,-0.300994873046875,-0.510406494140625,-0.1237640380859375
1789222461962069800,2.66106982421875,-0.3643646240234375,-1.222564697265625,0.4009552001953125
1789222461972062700,2.671062744140625,-0.7860565185546875,-0.926513671875,0.6666412353515625
1789222461982057000,2.681056884765625,0.2076568603515625,-0.43951416015625,0.359466552734375
1789222461992050700,2.69105078125,0.8286285400390625,-0.3789215087890625,0.1272735595703125
1789222462002044700,2.701044677734375,-0.7752532958984375,-0.2261505126953125,0.135467529296875
1789222462012038700,2.71103857421875,-2.0727691650390625,-0.9573211669921875,0.0098724365234375
1789222462022032600,2.72103271484375,-1.353302001953125,-0.75323486328125,-0.114501953125
1789222462032027000,2.73102685546875,-0.18719482421875,-0.671905517578125,-0.01422119140625
1789222462042020900,2.741020751953125,0.416290283203125,-1.1507415771484375,0.0945587158203125
1789222462052014800,2.751014892578125,-0.5615997314453125,-1.235748291015625,0.440399169921875
1789222462062008800,2.7610087890625,-0.908447265625,-1.1031036376953125,0.745147705078125
1789222462072002600,2.77100244140625,0.033721923828125,-0.8907012939453125,0.3071136474609375
1789222462081996800,2.780996826171875,0.09228515625,-0.730865478515625,-0.0550384521484375
1789222462091989800,2.79098974609375,-0.25140380859375,-1.079376220703125,0.0267333984375
1789222462101983700,2.800983642578125,0.02642822265625,-0.10076904296875,-0.1099700927734375
1789222462111977700,2.810977783203125,-0.5168914794921875,0.2502288818359375,-0.2496185302734375
1789222462121972000,2.820971923828125,-2.0274505615234375,-1.3348388671875,-0.0986175537109375
1789222462131966000,2.830966064453125,-0.9345550537109375,-1.1645355224609375,-0.231597900390625
1789222462141959700,2.840959716796875,0.380615234375,0.2261505126953125,-0.6062164306640625
1789222462151953700,2.85095361328125,-1.38299560546875,-1.3870849609375,-0.2650604248046875
1789222462161947600,2.86094775390625,-2.0590057373046875,-1.859130859375,0.3644561767578125
1789222462171941600,2.870941650390625,0.1922607421875,0.669586181640625,0.206634521484375
1789222462181935900,2.880935791015625,0.3026123046875,-0.6624908447265625,-0.0227813720703125
1789222462191929900,2.890929931640625,-0.8211212158203125,-2.2448577880859375,0.2897186279296875
1789222462201922600,2.900922607421875,-1.266204833984375,0.1854095458984375,0.2471160888671875
1789222462211916800,2.910916748046875,-1.855560302734375,-0.3224945068359375,-0.28271484375
1789222462221910800,2.920910888671875,-0.490753173828125,-2.0361785888671875,-0.497894287109375
1789222462231904800,2.93090478515625,0.8148193359375,-0.09637451171875,-0.2318267822265625
1789222462241898800,2.940898681640625,0.14373779296875,0.6856536865234375,-0.11297607421875
1789222462251892700,2.950892822265625,-0.76727294921875,-1.4381866455078125,-0.099273681640625
1789222462261886700,2.96088671875,-1.1202239990234375,-1.1292572021484375,0.211761474609375
1789222462271881000,2.970880859375,-1.9900360107421875,-0.492279052734375,0.4296112060546875
1789222462281875000,2.980875,-2.2130126953125,-1.70001220703125,0.4157562255859375
1789222462291869000,2.990868896484375,0.101531982421875,-1.296844482421875,0.2144622802734375
1789222462301863000,3.00086279296875,2.4390869140625,-0.0522308349609375,0.08148193359375
1789222462311857000,3.01085693359375,2.088653564453125,0.60833740234375,0.2205047607421875
1789222462321849900,3.020849853515625,-2.7469024658203125,-1.4044189453125,0.323486328125
1789222462331843800,3.03084375,-5.4666595458984375,-3.07452392578125,0.1909332275390625
1789222462341837800,3.040837890625,-0.365966796875,0.05230712890625,-0.161956787109375
1789222462351831800,3.050831787109375,1.6785888671875,0.45135498046875,-0.295196533203125
1789222462361826000,3.060825927734375,0.7080535888671875,-1.433319091796875,-0.6793365478515625
1789222462371820000,3.070820068359375,-1.18865966796875,-0.731689453125,-0.6834564208984375
1789222462381814000,3.08081396484375,-2.61968994140625,-0.072418212890625,-0.042327880859375
1789222462391807700,3.090807861328125,-0.5772247314453125,-1.105621337890625,0.3359222412109375
1789222462401801700,3.1008017578125,0.800445556640625,-0.9039306640625,0.467529296875
1789222462411796000,3.1107958984375,-1.3977203369140625,-1.63201904296875,0.7225799560546875
1789222462421790000,3.1207900390625,-2.73712158203125,-0.827117919921875,0.773193359375
1789222462431784000,3.130783935546875,-0.21832275390625,-0.3478546142578125,0.2206573486328125
1789222462441777000,3.14077685546875,1.83001708984375,-1.108642578125,-0.344146728515625
1789222462451771000,3.15077099609375,1.638458251953125,-0.3400726318359375,-0.470703125
1789222462461764900,3.160764892578125,-0.374664306640625,0.7868194580078125,-0.06427001953125
1789222462471758800,3.1707587890625,-1.8753509521484375,-0.9349365234375,0.1470489501953125
1789222462481752800,3.1807529296875,-2.1753692626953125,-2.2613983154296875,0.1318359375
1789222462491746800,3.190746826171875,-2.178985595703125,-0.571075439453125,0.36065673828125
1789222462501741000,3.200740966796875,-2.1978912353515625,-0.4756317138671875,0.3939361572265625
1789222462511735000,3.210735107421875,0.3496551513671875,-1.272491455078125,-0.162445068359375
1789222462521729000,3.22072900390625,2.8993072509765625,-0.125030517578125,-0.34649658203125
1789222462531722800,3.23072265625,1.67486572265625,0.99151611328125,0.016204833984375
1789222462541716700,3.240716796875,-1.83563232421875,-1.6416473388671875,0.419708251953125
1789222462551710700,3.250710693359375,-3.3795928955078125,-3.120452880859375,0.5880584716796875
1789222462561705000,3.260705078125,-1.712066650390625,0.505645751953125,0.3787078857421875
1789222462571698000,3.270697998046875,-0.6245269775390625,-0.850860595703125,0.2043914794921875
1789222462581692000,3.28069189453125,0.5955657958984375,-1.6427154541015625,0.14715576171875
1789222462591686000,3.290685791015625,1.287322998046875,0.79486083984375,-0.2611236572265625
1789222462601680000,3.300679931640625,-0.80609130859375,0.468902587890625,-0.7440032958984375
1789222462611673900,3.310673828125,-2.6732025146484375,-2.3773651123046875,-0.3441314697265625
1789222462621667800,3.320667724609375,-0.69561767578125,-1.208648681640625,0.2928924560546875
1789222462631661800,3.330661865234375,0.30364990234375,-0.365142822265625,0.387786865234375
1789222462641655800,3.34065576171875,-1.68243408203125,-1.49945068359375,0.596282958984375
1789222462651650000,3.350650146484375,-1.0670623779296875,-1.1476898193359375,0.421600341796875
1789222462661644000,3.36064404296875,0.774017333984375,-0.0480194091796875,-0.086669921875
1789222462671637800,3.3706376953125,0.690093994140625,-0.31451416015625,-0.5930938720703125
1789222462681631700,3.3806318359375,-1.5118560791015625,-1.4642333984375,-0.64886474609375
1789222462691625000,3.390625,-4.266845703125,-1.650177001953125,-0.03399658203125
1789222462701619000,3.400618896484375,-0.736572265625,-0.9918975830078125,-0.047607421875
1789222462711613000,3.410613037109375,2.1624908447265625,-0.2433013916015625,-0.036895751953125
1789222462721607000,3.42060693359375,1.2333831787109375,-0.45367431640625,0.1865081787109375
1789222462731601000,3.430600830078125,-0.8599090576171875,-0.83673095703125,0.1530609130859375
1789222462741595000,3.440594970703125,-0.9725799560546875,0.06072998046875,-0.191864013671875
1789222462751588900,3.4505888671875,0.075653076171875,0.0135345458984375,-0.1548004150390625
1789222462761582800,3.460582763671875,0.363311767578125,-1.401885986328125,0.2396087646484375
1789222462771576800,3.470576904296875,-2.8145599365234375,-0.677490234375,0.71160888671875
1789222462781570800,3.48057080078125,-5.2340240478515625,-1.51336669921875,0.728240966796875
1789222462791565000,3.49056494140625,0.2509918212890625,-1.492950439453125,0.010406494140625
1789222462801559000,3.50055908203125,3.443695068359375,0.5587921142578125,-0.4020538330078125
1789222462811553000,3.510552978515625,2.2202301025390625,0.5913543701171875,-0.630615234375
1789222462821545700,3.520545654296875,-1.919189453125,-1.0367279052734375,-0.825531005859375
1789222462831540000,3.5305400390625,-4.379608154296875,-2.67449951171875,-0.3296966552734375
1789222462841534000,3.540533935546875,-1.0609283447265625,-0.117431640625,0.4236297607421875
1789222462851528000,3.55052783203125,0.568878173828125,-0.21722412109375,0.9466705322265625
1789222462861522000,3.56052197265625,0.17333984375,-1.917022705078125,1.13323974609375
1789222462871516000,3.570515869140625,0.236175537109375,0.455810546875,0.71832275390625
1789222462881510000,3.580510009765625,-0.4719696044921875,0.342041015625,-0.172149658203125
1789222462891503900,3.59050390625,-1.78033447265625,-2.2942047119140625,-0.4519805908203125
1789222462901497900,3.600497802734375,-1.4311065673828125,-1.59564208984375,-0.051239013671875
1789222462911491800,3.610491943359375,-0.053131103515625,0.4700164794921875,-0.003631591796875
1789222462921485800,3.62048583984375,0.05487060546875,-1.0202484130859375,-0.022613525390625
1789222462931479800,3.630479736328125,-0.6487884521484375,-1.590789794921875,0.434844970703125
1789222462941474000,3.64047412109375,-1.1886749267578125,0.339324951171875,0.6011810302734375
1789222462951468000,3.650468017578125,-1.535003662109375,-0.8792724609375,0.33294677734375
1789222462961460700,3.660460693359375,-0.970062255859375,-1.431488037109375,-0.007110595703125
1789222462971455000,3.670455078125,-0.36798095703125,-0.12432861328125,-0.2626495361328125
1789222462981449000,3.680448974609375,-0.1413421630859375,-0.759979248046875,-0.2174224853515625
1789222462991443000,3.69044287109375,0.062103271484375,-0.886993408203125,0.0089874267578125
1789222463001437000,3.70043701171875,-0.1164703369140625,-0.4011077880859375,0.147979736328125
1789222463011431000,3.710430908203125,-1.03265380859375,-0.830352783203125,0.254730224609375
1789222463021425000,3.7204248046875,-1.4839324951171875,-0.8525238037109375,0.417938232421875
1789222463031419000,3.7304189453125,-1.34228515625,-0.664306640625,0.370391845703125
1789222463041412900,3.740412841796875,-0.99664306640625,-1.25885009765625,0.328125
1789222463051406800,3.75040673828125,-0.1123809814453125,-0.3898773193359375,0.261932373046875
1789222463061400800,3.76040087890625,0.1213226318359375,-0.032745361328125,0.0476837158203125
1789222463071394800,3.770394775390625,-0.6313934326171875,-0.991729736328125,0.0352020263671875
1789222463081389000,3.78038916015625,-1.233612060546875,-0.9456329345703125,0.0271148681640625
1789222463091381800,3.7903818359375,-0.659210205078125,-0.3509063720703125,-0.3616790771484375
1789222463101375700,3.800375732421875,-0.2659759521484375,-0.3299407958984375,-0.554656982421875
1789222463111369700,3.81036962890625,-1.404144287109375,-1.202301025390625,-0.2376708984375
1789222463121364000,3.820364013671875,-1.115325927734375,-1.18572998046875,0.2241058349609375
1789222463131358000,3.83035791015625,-0.240875244140625,-0.286895751953125,0.4210662841796875
1789222463141352000,3.84035205078125,0.4253082275390625,-0.933013916015625,0.4109649658203125
1789222463151346000,3.850345947265625,0.11920166015625,-1.1333465576171875,0.5829315185546875
1789222463161340000,3.86033984375,-2.6452484130859375,-0.8884124755859375,0.731231689453125
1789222463171334000,3.870333984375,-2.3023681640625,-1.026824951171875,0.09820556640625
1789222463181328000,3.880327880859375,0.372772216796875,-0.9515380859375,-0.5779266357421875
1789222463191321900,3.89032177734375,0.5529632568359375,-0.88690185546875,-0.6786651611328125
1789222463201315800,3.90031591796875,-0.01678466796875,-0.834014892578125,-0.5158843994140625
1789222463211309800,3.910309814453125,0.5428314208984375,-0.0777130126953125,-0.1184234619140625
1789222463221303000,3.920302978515625,1.2709197998046875,0.6662445068359375,0.0814361572265625
1789222463231296800,3.930296875,-0.1491546630859375,-0.84930419921875,0.235137939453125
1789222463241290800,3.940290771484375,-3.5329437255859375,-1.6186981201171875,0.733978271484375
1789222463251284700,3.95028466796875,-4.720733642578125,-0.5660400390625,0.6657257080078125
1789222463261279000,3.960279052734375,-0.1420745849609375,-1.223724365234375,-0.2909393310546875
1789222463271273000,3.97027294921875,1.955230712890625,-0.397674560546875,-0.1890869140625
1789222463281268000,3.98026806640625,-0.3921051025390625,-0.450836181640625,-0.0992279052734375
1789222463291261700,3.99026171875,-3.845367431640625,-2.5385894775390625,0.0732574462890625
1789222463301255700,4.000255615234375,-1.320159912109375,-0.7303466796875,0.08917236328125
1789222463311249700,4.010249755859375,1.7762603759765625,0.2989501953125,-0.1273956298828125
1789222463321243600,4.02024365234375,1.2177886962890625,-1.4808349609375,-0.1644439697265625
1789222463331238000,4.03023779296875,-0.415863037109375,-0.726715087890625,0.00048828125
1789222463341231900,4.04023193359375,-1.4922027587890625,0.7469329833984375,-0.0810089111328125
1789222463351225900,4.050225830078125,-1.4673309326171875,-1.0538787841796875,-0.323699951171875
1789222463361218800,4.06021875,-0.840423583984375,-1.34332275390625,-0.050689697265625
1789222463371212800,4.070212890625,-0.3096160888671875,-0.2239837646484375,0.1583251953125
1789222463381206800,4.080206787109375,-0.6078643798828125,-1.007110595703125,0.0227203369140625
1789222463391200800,4.09020068359375,-0.335418701171875,-1.5762176513671875,-0.1436920166015625
1789222463401194800,4.10019482421875,0.133697509765625,-0.5482177734375,-0.11138916015625
1789222463411188700,4.110188720703125,-0.8361968994140625,-0.269775390625,-0.0309600830078125
1789222463421183000,4.120182861328125,-1.6799468994140625,-1.2294464111328125,0.1254730224609375
1789222463431176700,4.1301767578125,-0.5518341064453125,-0.6704559326171875,0.1865081787109375
1789222463441170700,4.140170654296875,-0.07464599609375,-0.564453125,0.0017852783203125
1789222463451164700,4.15016455078125,-0.608978271484375,-0.8902740478515625,-0.095123291015625
1789222463461158700,4.16015869140625,-0.0430908203125,-0.4109039306640625,-0.0031890869140625
1789222463471153000,4.17015283203125,0.4538116455078125,-0.287017822265625,-0.007415771484375
1789222463481147000,4.18014697265625,-1.05633544921875,-1.056121826171875,0.0169830322265625
1789222463491140900,4.190140869140625,-3.7688446044921875,-1.6822509765625,0.584686279296875
1789222463501133600,4.200133544921875,-2.1157989501953125,-0.7239837646484375,0.412384033203125
1789222463511127800,4.2101279296875,0.8965606689453125,-0.7436981201171875,0.0970306396484375
1789222463521121800,4.220121826171875,1.1016845703125,-0.96429443359375,0.211273193359375
1789222463531115800,4.23011572265625,0.0211334228515625,-0.1882781982421875,-0.0004425048828125
1789222463541109800,4.24010986328125,-0.9151458740234375,-0.2570037841796875,-0.1706085205078125
1789222463551103700,4.250103759765625,-0.44659423828125,-0.663421630859375,-0.1477203369140625
1789222463561098000,4.260097900390625,-0.130157470703125,-0.455413818359375,-0.10894775390625
1789222463571091700,4.270091796875,-1.7552032470703125,-0.184326171875,0.0210418701171875
1789222463581085700,4.280085693359375,-3.1660919189453125,-1.059600830078125,0.3597564697265625
1789222463591079700,4.29007958984375,-1.56915283203125,-1.5540008544921875,0.4142608642578125
1789222463601073700,4.30007373046875,0.75042724609375,-0.429840087890625,0.0719451904296875
1789222463611067600,4.310067626953125,0.6820526123046875,-0.6747589111328125,-0.0951690673828125
1789222463621062000,4.320061767578125,-0.2882080078125,-1.9288787841796875,0.36578369140625
1789222463631056000,4.330055908203125,-0.388458251953125,0.091278076171875,0.6846466064453125
1789222463641048600,4.340048583984375,-0.6998291015625,-1.100372314453125,0.18988037109375
1789222463651042800,4.350042724609375,-0.234588623046875,-1.567840576171875,-0.062530517578125
1789222463661036800,4.360036865234375,-0.024200439453125,0.73321533203125,0.239837646484375
1789222463671030800,4.37003076171875,-1.1792755126953125,-0.74346923828125,0.0909576416015625
1789222463681024800,4.380024658203125,-1.728363037109375,-1.2398529052734375,-0.2855224609375
1789222463691018800,4.390018798828125,-1.22467041015625,0.292816162109375,-0.3581085205078125
1789222463701012700,4.4000126953125,-1.1605682373046875,-0.814605712890625,-0.268951416015625
1789222463711007000,4.410007080078125,-0.4623260498046875,-1.649810791015625,0.059814453125
1789222463721000700,4.420000732421875,-0.0038909912109375,-0.6272430419921875,0.2382659912109375
1789222463730994700,4.42999462890625,-0.9399566650390625,0.060516357421875,0.3415985107421875
1789222463740988700,4.43998876953125,-1.1110992431640625,-1.064208984375,0.6007232666015625
1789222463750982700,4.449982666015625,-0.080963134765625,-1.304412841796875,0.7492828369140625
1789222463760977000,4.459976806640625,0.6850433349609375,-0.4615631103515625,0.585418701171875
1789222463770971000,4.469970947265625,0.23773193359375,0.2706756591796875,0.3228302001953125
1789222463780964900,4.47996484375,-1.0493927001953125,-1.247161865234375,0.4589996337890625
1789222463790957600,4.48995751953125,-0.3763427734375,-0.9188232421875,0.452301025390625
1789222463800951800,4.499951904296875,-0.1745758056640625,0.3138275146484375,0.12811279296875
1789222463810945800,4.50994580078125,-2.465606689453125,-1.337799072265625,-0.207763671875
1789222463820939800,4.519939697265625,-2.282257080078125,-1.3302764892578125,0.1509552001953125
1789222463830933800,4.529933837890625,-0.4564361572265625,-0.64544677734375,0.1473541259765625
1789222463840927700,4.539927734375,0.565673828125,-0.7911529541015625,-0.2739410400390625
1789222463850922000,4.549921875,-0.176849365234375,-1.125946044921875,-0.37103271484375
1789222463860915700,4.559915771484375,-1.6416168212890625,-1.3984527587890625,0.0431671142578125
1789222463870909700,4.56990966796875,-0.55938720703125,-0.03509521484375,0.63140869140625
1789222463880903700,4.579903564453125,0.7516021728515625,-0.491455078125,0.59503173828125
1789222463890897700,4.589897705078125,1.352935791015625,-0.9603118896484375,0.3003387451171875
1789222463900892000,4.599891845703125,-1.30572509765625,-0.0948333740234375,0.1273651123046875
1789222463910886000,4.609885986328125,-4.4460296630859375,-0.57794189453125,-0.1708984375
1789222463920879900,4.6198798828125,-1.3298492431640625,-1.16363525390625,-0.06512451171875
1789222463930873900,4.629873779296875,0.5070037841796875,-1.3807525634765625,-0.22344970703125
1789222463940866800,4.63986669921875,0.7865753173828125,-0.6617584228515625,-0.3329315185546875
1789222463950860800,4.64986083984375,-0.06884765625,-0.285614013671875,-0.386749267578125
1789222463960854800,4.659854736328125,-0.5139617919921875,-1.2653656005859375,-0.2323150634765625
1789222463970848800,4.669848876953125,0.0647430419921875,-0.4023590087890625,0.1705474853515625
1789222463980842800,4.6798427734375,-0.0081787109375,0.16619873046875,0.4154205322265625
1789222463990836700,4.689836669921875,-1.247344970703125,-1.9792327880859375,0.401336669921875
1789222464000830700,4.699830810546875,-2.30181884765625,-1.0584564208984375,0.384613037109375
1789222464010824700,4.70982470703125,-2.2479248046875,0.4952850341796875,-0.0761260986328125
1789222464020818700,4.719818603515625,-0.379791259765625,-1.95660400390625,-0.83404541015625
1789222464030812700,4.729812744140625,0.9888916015625,-1.2266387939453125,-0.6060791015625
1789222464040806700,4.739806640625,0.1166229248046875,0.4810028076171875,0.13873291015625
1789222464050801000,4.74980078125,-1.3702392578125,-1.1828460693359375,0.2435150146484375
1789222464060795000,4.759794921875,-0.751556396484375,-1.4285888671875,-0.0471954345703125
1789222464070788900,4.769788818359375,0.2711029052734375,-0.199615478515625,0.1334228515625
1789222464080781800,4.77978173828125,-1.046844482421875,-1.0152130126953125,0.34844970703125
1789222464090775800,4.78977587890625,-2.227996826171875,-0.8063812255859375,-0.011138916015625
1789222464100769800,4.799769775390625,-0.9184112548828125,-0.466552734375,-0.331390380859375
1789222464110763800,4.809763671875,0.2333831787109375,-0.877838134765625,-0.163116455078125
1789222464120757800,4.8197578125,-0.02398681640625,-0.647613525390625,0.066314697265625
1789222464130751700,4.829751708984375,-1.3231658935546875,-0.9673004150390625,0.26446533203125
1789222464140746000,4.83974609375,-1.11767578125,-0.531158447265625,0.2836761474609375
1789222464150739700,4.84973974609375,-0.055450439453125,-0.917327880859375,0.146331787109375
1789222464160733700,4.859733642578125,-0.510528564453125,-1.386993408203125,0.1563262939453125
1789222464170727700,4.869727783203125,-1.00506591796875,-0.5789031982421875,0.1938934326171875
1789222464180721700,4.8797216796875,-0.567352294921875,-0.3209228515625,0.14910888671875
1789222464190716000,4.8897158203125,-0.2364044189453125,-0.4569549560546875,0.1446075439453125
1789222464200710000,4.8997099609375,0.2173004150390625,-0.7095794677734375,-0.011444091796875
1789222464210704000,4.909703857421875,-0.05877685546875,-0.7097930908203125,-0.350250244140625
1789222464220697900,4.91969775390625,-1.599151611328125,-0.3931732177734375,-0.192535400390625
1789222464230690800,4.92969091796875,-2.3989105224609375,-0.530975341796875,0.1816253662109375
1789222464240684800,4.939684814453125,-0.9107666015625,-1.3776092529296875,-0.0337066650390625
1789222464250678800,4.9496787109375,0.827880859375,-0.51025390625,-0.06842041015625
1789222464260672800,4.9596728515625,0.2060089111328125,0.4281463623046875,0.52685546875
1789222464270666800,4.969666748046875,-1.333648681640625,-0.92724609375,0.694000244140625
1789222464280660200,4.97966015625,-1.3142242431640625,-1.327606201171875,0.0556488037109375
1789222464290654200,4.989654296875,-0.7482452392578125,-1.049652099609375,-0.3654327392578125
1789222464300648200,4.999648193359375,-0.9732666015625,-0.1631927490234375,-0.2669525146484375
1789222464310642200,5.00964208984375,-1.399444580078125,-1.0628662109375,-0.3123321533203125
1789222464320636200,5.01963623046875,-0.780517578125,-2.1826934814453125,-0.2529296875
1789222464330630100,5.029630126953125,0.3151397705078125,0.469573974609375,-0.005126953125
1789222464340624100,5.0396240234375,-0.504364013671875,-0.185211181640625,0.0880279541015625
1789222464350618000,5.0496181640625,-1.5945587158203125,-2.4605712890625,0.08251953125
1789222464360612000,5.059612060546875,-1.1120758056640625,-1.1853790283203125,0.144683837890625
1789222464370606000,5.069606201171875,-0.0645904541015625,-0.143585205078125,-0.163970947265625
1789222464380600300,5.079600341796875,0.010040283203125,-0.943115234375,-0.50799560546875
1789222464390593000,5.089593017578125,-1.0661163330078125,-1.544677734375,-0.1068878173828125
1789222464400587000,5.0995869140625,-0.893951416015625,-0.57373046875,0.093658447265625
1789222464410581000,5.1095810546875,0.5755157470703125,-0.50799560546875,-0.4840850830078125
1789222464420575200,5.1195751953125,0.492584228515625,-0.8238677978515625,-0.6264495849609375
1789222464430569200,5.1295693359375,-1.6185760498046875,-1.53076171875,-0.0209503173828125
1789222464440563200,5.139563232421875,-2.054656982421875,-1.08587646484375,0.2444305419921875
1789222464450557200,5.14955712890625,-0.3925628662109375,0.0690765380859375,-0.101226806640625
1789222464460551000,5.159551025390625,0.2158050537109375,-1.4353485107421875,-0.2827911376953125
1789222464470545200,5.169545166015625,-0.0022735595703125,-1.0246124267578125,-0.1115875244140625
1789222464480539100,5.1795390625,-0.4923248291015625,0.5324249267578125,-0.1710205078125
1789222464490533000,5.189533203125,-0.94683837890625,-0.9691314697265625,-0.4926300048828125
1789222464500527000,5.199527099609375,-0.4413299560546875,-1.166748046875,-0.4146575927734375
1789222464510521000,5.20952099609375,-0.796478271484375,-0.2501220703125,-0.030975341796875
1789222464520515300,5.219515380859375,-1.5468292236328125,-1.0037078857421875,0.1835479736328125
1789222464530509300,5.22950927734375,-0.644317626953125,-0.83306884765625,0.240203857421875
1789222464540503000,5.2395029296875,-0.1488494873046875,-0.688568115234375,0.18017578125
1789222464550496000,5.24949609375,-0.2801361083984375,-0.5028839111328125,0.156341552734375
1789222464560490200,5.259490234375,0.0175933837890625,0.0504150390625,0.0672607421875
1789222464570484200,5.269484130859375,-0.5681304931640625,-0.656402587890625,-0.06884765625
1789222464580478200,5.279478271484375,-2.4393463134765625,-1.469146728515625,-0.0081634521484375
1789222464590472200,5.28947216796875,-2.5239105224609375,-0.45513916015625,0.0813751220703125
1789222464600466200,5.299466064453125,-1.023773193359375,-0.5077972412109375,-0.144195556640625
1789222464610460200,5.309460205078125,0.1603851318359375,-1.325836181640625,-0.109222412109375
1789222464620454100,5.3194541015625,1.2971649169921875,-0.2492523193359375,0.16339111328125
1789222464630448000,5.3294482421875,0.864654541015625,0.9664764404296875,0.314849853515625
1789222464640442000,5.339442138671875,-1.42987060546875,-0.8473052978515625,0.4289398193359375
1789222464650436000,5.34943603515625,-2.954498291015625,-2.0260467529296875,0.603424072265625
1789222464660430000,5.35943017578125,-1.637481689453125,-1.2161102294921875,0.42083740234375
1789222464670424300,5.36942431640625,0.4163970947265625,-1.3302459716796875,0.2719573974609375
1789222464680418300,5.379418212890625,1.195159912109375,0.5401763916015625,0.5911407470703125
1789222464690412000,5.389412109375,0.689697265625,0.5280609130859375,0.63580322265625
1789222464700406000,5.399406005859375,-0.0009002685546875,-2.036376953125,0.308929443359375
1789222464710399200,5.409399169921875,0.057891845703125,-0.5047760009765625,0.272796630859375
1789222464720393200,5.419393310546875,-0.8667449951171875,1.197662353515625,0.2840576171875
1789222464730387200,5.42938720703125,-3.6596221923828125,-1.4894866943359375,-0.0988311767578125
1789222464740381200,5.439381103515625,-3.428131103515625,-2.01409912109375,-0.3611602783203125
1789222464750375000,5.449375,-0.8056182861328125,0.1944427490234375,-0.159423828125
1789222464760369200,5.459369140625,0.4899749755859375,0.0521392822265625,0.045867919921875
1789222464770363100,5.469363037109375,0.826385498046875,-1.2681427001953125,-0.1410369873046875
1789222464780357000,5.479357177734375,0.6547393798828125,-1.8377838134765625,-0.0078582763671875
1789222464790351000,5.48935107421875,0.2478179931640625,0.0793609619140625,0.6840972900390625
1789222464800345000,5.499344970703125,-0.949127197265625,0.3765716552734375,0.859405517578125
1789222464810339300,5.50933935546875,-2.284088134765625,-2.4071807861328125,0.217803955078125
1789222464820333300,5.519333251953125,-1.6369476318359375,-0.7858123779296875,0.0036468505859375
1789222464830327000,5.5293271484375,-0.372100830078125,0.5355987548828125,0.1598358154296875
1789222464840321000,5.539321044921875,0.64801025390625,-1.10784912109375,-0.36297607421875
1789222464850315000,5.54931494140625,1.1182403564453125,-1.0670623779296875,-0.96234130859375
1789222464860309200,5.559309326171875,0.001983642578125,-0.6150665283203125,-0.599945068359375
1789222464870302200,5.56930224609375,-1.8957672119140625,-1.38238525390625,0.12469482421875
1789222464880296200,5.579296142578125,-2.6193084716796875,-1.3863983154296875,0.26031494140625
1789222464890290000,5.5892900390625,-1.4825897216796875,-1.293243408203125,0.010498046875
1789222464900284200,5.5992841796875,0.382232666015625,-0.8310699462890625,-0.1644287109375
1789222464910278100,5.609278076171875,1.0638885498046875,-0.1147003173828125,-0.1316986083984375
1789222464920272100,5.619272216796875,-0.849517822265625,-0.33233642578125,-0.4108734130859375
1789222464930266000,5.62926611328125,-2.77880859375,-1.9616851806640625,-0.538421630859375
1789222464940260000,5.639260009765625,-0.93145751953125,-1.065093994140625,-0.2154083251953125
1789222464950254000,5.649254150390625,1.0903167724609375,-0.7754364013671875,-0.172698974609375
1789222464960248300,5.659248291015625,0.285919189453125,-1.0576019287109375,-0.1204376220703125
1789222464970242000,5.669241943359375,-1.2387542724609375,-0.0838775634765625,0.406463623046875
1789222464980236000,5.679236083984375,-1.5444488525390625,0.0511016845703125,0.4368133544921875
1789222464990230000,5.68922998046875,-0.688934326171875,-1.4914093017578125,-0.0297393798828125
1789222465000224000,5.69922412109375,0.0431060791015625,-0.7485809326171875,-0.094696044921875
1789222465010218200,5.70921826171875,-0.8778228759765625,-0.1611480712890625,-0.016845703125
1789222465020212200,5.719212158203125,-2.2647247314453125,-1.3619232177734375,0.020904541015625
1789222465030206200,5.729206298828125,-0.8735809326171875,-1.062103271484375,-0.0362548828125
1789222465040199200,5.73919921875,0.7988128662109375,0.1012725830078125,-0.03021240234375
1789222465050193200,5.749193115234375,0.1121826171875,-0.5550689697265625,0.1532440185546875
1789222465060187100,5.759187255859375,-0.6933441162109375,-0.8911895751953125,0.367156982421875
1789222465070181000,5.76918115234375,-0.7823333740234375,0.224517822265625,0.5553131103515625
1789222465080175000,5.779175048828125,-1.0081024169921875,-0.4949951171875,0.55926513671875
1789222465090169000,5.789169189453125,-0.7870941162109375,-1.5487823486328125,0.309478759765625
1789222465100163300,5.799163330078125,-0.50439453125,-0.7784271240234375,0.0455322265625
1789222465110157300,5.8091572265625,-0.8516998291015625,-1.00958251953125,-0.092315673828125
1789222465120151000,5.819151123046875,-0.8119049072265625,-1.017547607421875,-0.0178375244140625
1789222465130145000,5.82914501953125,-0.58648681640625,-0.3336334228515625,0.10369873046875
1789222465140139000,5.839138916015625,-0.851531982421875,-0.959320068359375,0.149444580078125
1789222465150133200,5.84913330078125,-0.8187713623046875,-0.835113525390625,0.197235107421875
1789222465160127200,5.859127197265625,-0.6645660400390625,-1.020233154296875,0.189666748046875
1789222465170121200,5.869121337890625,0.215179443359375,-0.72308349609375,-0.003387451171875
1789222465180115200,5.879115234375,0.6112518310546875,-0.052276611328125,-0.252349853515625
1789222465190109200,5.889109130859375,-0.5007476806640625,-0.9392242431640625,-0.20953369140625
1789222465200103200,5.899103271484375,-1.1848907470703125,-0.6985015869140625,0.147796630859375
1789222465210097200,5.90909716796875,-1.478729248046875,-0.82354736328125,0.2115478515625
1789222465220090000,5.919090087890625,-0.896240234375,-1.7896881103515625,-0.116424560546875
1789222465230084000,5.929083984375,-0.3768310546875,-0.9805145263671875,-0.1895751953125
1789222465240078300,5.939078369140625,-0.6315155029296875,-1.0169677734375,-0.193603515625
1789222465250072300,5.949072265625,0.131805419921875,-0.959014892578125,-0.226318359375
1789222465260066000,5.959066162109375,0.48272705078125,0.6074981689453125,-0.1153564453125
1789222465270060000,5.96906005859375,-0.281951904296875,-0.672210693359375,-0.2001495361328125
1789222465280054000,5.979053955078125,-1.3178558349609375,-1.2301788330078125,-0.13665771484375
1789222465290048000,5.989048095703125,-2.26287841796875,-0.493865966796875,-0.0750274658203125
1789222465300042200,5.999042236328125,-2.9528656005859375,-1.638916015625,-0.3802642822265625
1789222465310036200,6.0090361328125,-1.1805572509765625,-0.705047607421875,-0.724395751953125
1789222465320030200,6.0190302734375,0.6042327880859375,-0.0785064697265625,-0.6629791259765625
1789222465330024200,6.029024169921875,0.30084228515625,-1.0510406494140625,-0.164886474609375
1789222465340018000,6.039017822265625,-0.7550811767578125,-0.821868896484375,0.6227569580078125
1789222465350012200,6.04901220703125,-0.5711212158203125,0.5492706298828125,0.9663543701171875
1789222465360006100,6.059006103515625,-1.07598876953125,-0.947601318359375,0.7882232666015625
1789222465370000100,6.069000244140625,-1.244537353515625,-1.9696807861328125,0.5700225830078125
1789222465379994000,6.078994140625,-0.1403045654296875,-0.1246337890625,0.4268341064453125
1789222465389987300,6.0889873046875,0.557220458984375,0.3631439208984375,0.0432586669921875
1789222465399981000,6.09898095703125,0.4942779541015625,-0.8323974609375,-0.2322235107421875
1789222465409975000,6.10897509765625,0.2333221435546875,-0.616180419921875,0.1237945556640625
1789222465419969000,6.118968994140625,-1.2895965576171875,-0.0025482177734375,0.5365447998046875
1789222465429963000,6.128962890625,-4.462890625,-0.927490234375,0.5183258056640625
1789222465439957200,6.138957275390625,-2.7236328125,-1.4364013671875,-0.0204620361328125
1789222465449951200,6.148951171875,1.0871734619140625,-0.8363800048828125,0.21728515625
1789222465459945200,6.1589453125,2.250213623046875,0.1519012451171875,0.4593048095703125
1789222465469939200,6.168939208984375,1.3329010009765625,0.1905364990234375,0.33380126953125
1789222465479933000,6.178932861328125,-0.1571044921875,-0.9747772216796875,0.3860321044921875
1789222465489927200,6.18892724609375,-1.086669921875,-1.2830352783203125,1.0222015380859375
1789222465499921200,6.198921142578125,-2.7644805908203125,-0.3535308837890625,1.3399658203125
1789222465509915100,6.2089150390625,-3.13006591796875,-0.86004638671875,0.5692596435546875
1789222465519909000,6.2189091796875,-0.566650390625,-0.52447509765625,0.067291259765625
1789222465529903000,6.228903076171875,0.3878631591796875,0.31414794921875,0.01312255859375
1789222465539897000,6.23889697265625,-1.1797637939453125,-0.412445068359375,-0.286376953125
1789222465549891300,6.248891357421875,-2.0914154052734375,-1.9212799072265625,-0.0176849365234375
1789222465559885000,6.258885009765625,0.03594970703125,-0.2786712646484375,0.424896240234375
1789222465569878000,6.2688779296875,0.7890777587890625,-0.6663665771484375,0.4799346923828125
1789222465579872300,6.278872314453125,-0.0742950439453125,-2.17071533203125,0.394775390625
1789222465589866200,6.2888662109375,-0.8557891845703125,-0.0638580322265625,0.4998321533203125
1789222465599860200,6.298860107421875,-0.89959716796875,0.5304412841796875,0.530059814453125
1789222465609854200,6.308854248046875,0.0277099609375,-1.4419097900390625,0.18475341796875
1789222465619848200,6.31884814453125,0.2990264892578125,-0.8177337646484375,-0.088592529296875
1789222465629842000,6.328842041015625,-1.01031494140625,0.037384033203125,-0.0067901611328125
1789222465639836200,6.338836181640625,-2.8641357421875,-1.351165771484375,0.045135498046875
1789222465649830100,6.348830078125,-2.1138763427734375,-1.97119140625,-0.4456329345703125
1789222465659824000,6.35882421875,-0.2653961181640625,-0.6181793212890625,-0.6799774169921875
1789222465669818000,6.368818115234375,0.3809356689453125,0.1023101806640625,-0.160430908203125
1789222465679812000,6.37881201171875,0.5272674560546875,-0.6021728515625,0.141448974609375
1789222465689806300,6.388806396484375,0.206634521484375,-1.1952667236328125,0.228851318359375
1789222465699800300,6.39880029296875,-1.54296875,-0.2667999267578125,0.8297271728515625
1789222465709794000,6.4087939453125,-2.54266357421875,-0.4781341552734375,0.85382080078125
1789222465719788000,6.4187880859375,-0.4923858642578125,-1.7961273193359375,-0.023895263671875
1789222465729782000,6.428781982421875,0.899993896484375,-0.661376953125,-0.1739044189453125
1789222465739776300,6.4387763671875,0.03509521484375,0.370880126953125,-0.0431365966796875
1789222465749769200,6.448769287109375,-1.5763397216796875,-0.95794677734375,-0.3538055419921875
1789222465759763200,6.45876318359375,-1.2657928466796875,-1.6175537109375,-0.341522216796875
1789222465769757000,6.4687568359375,0.3840789794921875,-0.675567626953125,0.065093994140625
1789222465779751200,6.478751220703125,-0.0268707275390625,-0.5041961669921875,0.402496337890625
1789222465789745200,6.4887451171875,-1.6354217529296875,-1.3885345458984375,0.5056304931640625
1789222465799739100,6.4987392578125,-1.1371002197265625,-0.5213775634765625,0.2989501953125
1789222465809733000,6.508733154296875,0.1697998046875,-0.1392974853515625,-0.1046600341796875
1789222465819727000,6.51872705078125,-0.1940155029296875,-1.047088623046875,-0.43634033203125
1789222465829721000,6.52872119140625,-0.8997039794921875,-1.300384521484375,-0.5769500732421875
1789222465839715300,6.53871533203125,-1.6684112548828125,-1.50146484375,-0.5374908447265625
1789222465849709000,6.548708984375,-1.7713775634765625,-1.407562255859375,-0.239898681640625
1789222465859703000,6.558703125,-1.04998779296875,-0.46722412109375,0.0301513671875
1789222465869697000,6.568697021484375,-0.68310546875,-0.9454345703125,0.0508575439453125
1789222465879691000,6.57869091796875,-0.73968505859375,-0.8653564453125,-0.0958099365234375
1789222465889685200,6.588685302734375,-0.227264404296875,-0.5650787353515625,-0.445648193359375
1789222465899679200,6.59867919921875,0.01055908203125,-1.70513916015625,-0.6775665283203125
1789222465909673200,6.608673095703125,-0.1722412109375,-0.363372802734375,-0.438568115234375
1789222465919667200,6.618667236328125,-0.144439697265625,-0.171295166015625,-0.11724853515625
1789222465929661000,6.628660888671875,-0.0509796142578125,-1.2080230712890625,-0.05499267578125
1789222465939654100,6.638654052734375,-1.89459228515625,-0.1238861083984375,0.6894989013671875
1789222465949648100,6.648648193359375,-2.326263427734375,-0.7150115966796875,0.7142791748046875
1789222465959642000,6.65864208984375,-0.9124908447265625,-1.3816070556640625,-0.198974609375
1789222465969636000,6.668635986328125,-0.3132781982421875,-1.184234619140625,-0.6865386962890625
1789222465979630300,6.67863037109375,-0.2346038818359375,-1.0072174072265625,-0.622650146484375
1789222465989624000,6.6886240234375,0.3483734130859375,-0.286041259765625,-0.4585113525390625
1789222465999618000,6.6986181640625,1.293487548828125,-0.8428802490234375,-0.2145538330078125
1789222466009612000,6.708612060546875,2.0093841552734375,-0.4196014404296875,0.1505279541015625
1789222466019606000,6.71860595703125,0.162017822265625,0.4663848876953125,0.475799560546875
1789222466029600300,6.728600341796875,-4.08642578125,-1.6363372802734375,0.6260986328125
1789222466039594200,6.73859423828125,-3.2545166015625,-1.892822265625,0.0128326416015625
1789222466049588200,6.748588134765625,-0.2070465087890625,0.2006683349609375,-0.3591766357421875
1789222466059582200,6.758582275390625,0.6051788330078125,-0.4340362548828125,-0.7536773681640625
1789222466069576000,6.768575927734375,-0.451446533203125,-1.94390869140625,-1.036773681640625
1789222466079570200,6.778570068359375,-1.8311614990234375,-1.2448272705078125,-0.5764923095703125
1789222466089564200,6.788564208984375,-0.7116851806640625,-0.60333251953125,-0.150665283203125
1789222466099558100,6.79855810546875,0.565887451171875,-0.3375091552734375,0.148529052734375
1789222466109552000,6.80855224609375,0.768951416015625,-0.6342010498046875,0.3056793212890625
1789222466119546000,6.818546142578125,0.0329132080078125,-0.449462890625,0.2887725830078125
1789222466129540000,6.8285400390625,-1.292327880859375,0.1370849609375,0.1626434326171875
1789222466139533000,6.838532958984375,-2.218292236328125,-0.483489990234375,-0.333038330078125
1789222466149527000,6.848527099609375,-1.4933624267578125,-1.7543792724609375,-0.9829559326171875
1789222466159521000,6.85852099609375,-0.535064697265625,-1.502838134765625,-1.05169677734375
1789222466169515000,6.868514892578125,-0.0084228515625,-1.1067657470703125,-0.641143798828125
1789222466179509200,6.87850927734375,0.239349365234375,-0.3094635009765625,-0.18231201171875
1789222466189503200,6.888503173828125,0.1277923583984375,-0.7384490966796875,0.1995849609375
1789222466199497200,6.898497314453125,-0.301300048828125,-0.9533843994140625,0.786041259765625
1789222466209491200,6.9084912109375,-0.9404754638671875,0.2503509521484375,1.0053558349609375
1789222466219485000,6.91848486328125,-1.663665771484375,0.0148468017578125,0.414215087890625
1789222466229479200,6.928479248046875,-1.3191070556640625,-0.920318603515625,-0.177398681640625
1789222466239473200,6.93847314453125,-0.502655029296875,-0.857666015625,-0.3004150390625
1789222466249467100,6.948467041015625,-0.348419189453125,-0.2344512939453125,-0.41278076171875
1789222466259461000,6.958461181640625,-0.6273651123046875,-0.4900970458984375,-0.4150848388671875
1789222466269455000,6.968455078125,-0.746673583984375,-0.9957122802734375,0.0344696044921875
1789222466279449300,6.978449462890625,-0.4759368896484375,-1.0700531005859375,0.5705108642578125
1789222466289443600,6.988443603515625,-0.2953338623046875,-0.100311279296875,0.717376708984375
1789222466299437600,6.9984375,-1.556732177734375,-0.1858062744140625,0.77410888671875
1789222466309431300,7.008431396484375,-1.4781951904296875,-0.5643157958984375,0.9629364013671875
1789222466319425300,7.01842529296875,0.488922119140625,0.014984130859375,0.8337249755859375
1789222466329419300,7.028419189453125,0.1898956298828125,-0.2452545166015625,0.385406494140625
1789222466339412500,7.03841259765625,-1.910491943359375,-1.4889068603515625,0.1369781494140625
1789222466349406500,7.048406494140625,-1.5363616943359375,-0.735198974609375,0.0927886962890625
1789222466359400400,7.058400390625,-0.7697296142578125,-0.2080535888671875,-0.0592193603515625
1789222466369394400,7.06839453125,-0.171417236328125,-1.750244140625,-0.1157989501953125
1789222466379388400,7.078388427734375,0.9561614990234375,0.0001678466796875,0.2523651123046875
1789222466389382400,7.08838232421875,0.47369384765625,1.5854339599609375,0.884490966796875
1789222466399376400,7.09837646484375,-0.5423431396484375,-1.1322174072265625,1.2183074951171875
1789222466409370400,7.108370361328125,-1.3001861572265625,-1.4490509033203125,1.102325439453125
1789222466419364400,7.1183642578125,-1.900726318359375,0.30364990234375,0.7057647705078125
1789222466429358600,7.128358642578125,-1.9827880859375,-1.158477783203125,-0.0672760009765625
1789222466439352600,7.1383525390625,-0.968963623046875,-2.0148773193359375,-0.4521484375
1789222466449346600,7.1483466796875,-0.175018310546875,-0.3640594482421875,-0.5353546142578125
1789222466459340300,7.15834033203125,-0.686614990234375,0.2209320068359375,-0.182891845703125
1789222466469334300,7.168334228515625,-1.79833984375,-0.9537353515625,0.492034912109375
1789222466479328500,7.17832861328125,-1.267242431640625,-0.9401092529296875,0.8367156982421875
1789222466489322500,7.188322509765625,0.50482177734375,-0.4593353271484375,0.4872283935546875
1789222466499316500,7.19831640625,0.10028076171875,-0.5702972412109375,0.2538909912109375
1789222466509310500,7.208310546875,-1.385528564453125,-1.07574462890625,0.4078216552734375
1789222466519304400,7.218304443359375,-1.2851104736328125,-0.820831298828125,0.4553070068359375
1789222466529298400,7.22829833984375,-0.753875732421875,-0.4207305908203125,0.431060791015625
1789222466539292400,7.23829248046875,-0.1055450439453125,-1.2140045166015625,0.2712249755859375
1789222466549286400,7.248286376953125,0.8311920166015625,-0.7024078369140625,-0.0672454833984375
1789222466559279400,7.258279296875,0.263397216796875,-0.268035888671875,-0.1389617919921875
1789222466569273300,7.2682734375,-1.9883575439453125,-1.1508636474609375,0.0826416015625
1789222466579267600,7.278267578125,-2.9912261962890625,-0.9774017333984375,0.20330810546875
1789222466589261600,7.288261474609375,-1.4319915771484375,0.3446197509765625,0.0593719482421875
1789222466599255300,7.29825537109375,-0.6958770751953125,-1.0880889892578125,0.0395355224609375
1789222466609249300,7.308249267578125,0.42047119140625,-2.02679443359375,-0.0770721435546875
1789222466619243300,7.3182431640625,0.2486419677734375,0.1335601806640625,-0.2531280517578125
1789222466629237500,7.328237548828125,-2.18121337890625,-1.027740478515625,-0.1696319580078125
1789222466639231500,7.3382314453125,-2.0578460693359375,-2.60211181640625,-0.000091552734375
1789222466649225500,7.3482255859375,0.7732696533203125,0.177978515625,0.0925750732421875
1789222466659219500,7.358219482421875,1.7961273193359375,-0.6912689208984375,0.04266357421875
1789222466669213400,7.36821337890625,0.832244873046875,-1.5023651123046875,-0.0353546142578125
1789222466679207400,7.37820751953125,-1.70013427734375,-0.5580596923828125,0.167388916015625
1789222466689201400,7.388201416015625,-3.2979278564453125,-0.8311767578125,0.131103515625
1789222466699195400,7.3981953125,-0.238067626953125,-1.490875244140625,-0.622802734375
1789222466709189400,7.408189453125,0.519439697265625,-0.828460693359375,-0.676422119140625
1789222466719183400,7.418183349609375,-1.8307342529296875,-0.58294677734375,-0.5302581787109375
1789222466729177600,7.428177490234375,-2.852996826171875,-1.2131805419921875,-0.759521484375
1789222466739171600,7.438171630859375,-0.6611785888671875,-1.301025390625,-1.0841217041015625
1789222466749165600,7.44816552734375,1.068450927734375,-1.1345672607421875,-0.7247314453125
1789222466759159300,7.4581591796875,0.91217041015625,0.2395172119140625,0.180694580078125
1789222466769153300,7.4681533203125,0.1920928955078125,-0.1090545654296875,0.35748291015625
1789222466779146500,7.478146484375,0.405792236328125,-1.076080322265625,-0.101470947265625
1789222466789140500,7.488140380859375,1.4790496826171875,0.235076904296875,-0.17205810546875
1789222466799134500,7.498134521484375,0.561187744140625,0.4610748291015625,-0.12518310546875
1789222466809128400,7.50812841796875,-4.9451141357421875,-2.6139068603515625,-0.0068359375
1789222466819122400,7.518122314453125,-5.7976837158203125,-2.449798583984375,-0.2957305908203125
1789222466829116400,7.528116455078125,1.3194732666015625,0.3272857666015625,-1.0462646484375
1789222466839110400,7.5381103515625,3.2628021240234375,0.271453857421875,-0.879913330078125
1789222466849104400,7.5481044921875,1.229339599609375,-0.624298095703125,-0.5113067626953125
1789222466859098400,7.558098388671875,-2.2107086181640625,-1.6365509033203125,-0.5850372314453125
1789222466869092400,7.56809228515625,-3.122406005859375,-0.16015625,-0.3871002197265625
1789222466879086600,7.578086669921875,-0.5260772705078125,-0.200103759765625,-0.012725830078125
1789222466889080600,7.58808056640625,-0.366790771484375,-1.83270263671875,0.7235107421875
1789222466899074300,7.59807421875,-0.316436767578125,-0.4023284912109375,0.6142120361328125
1789222466909068300,7.608068359375,-0.4952392578125,0.569061279296875,-0.284942626953125
1789222466919062300,7.618062255859375,-0.9077911376953125,-1.8166961669921875,-0.770599365234375
1789222466929056500,7.628056396484375,-0.60076904296875,-1.472198486328125,-0.27984619140625
1789222466939050500,7.638050537109375,-0.4002227783203125,0.809844970703125,0.053741455078125
1789222466949044500,7.64804443359375,-1.4857025146484375,-1.1103515625,0.017608642578125
1789222466959038500,7.65803857421875,-1.51922607421875,-1.6709747314453125,0.41510009765625
1789222466969032400,7.668032470703125,0.3618316650390625,0.307342529296875,0.677520751953125
1789222466979026400,7.6780263671875,1.0982513427734375,-0.766845703125,0.4677276611328125
1789222466989020400,7.6880205078125,1.0214385986328125,-0.6752471923828125,0.1394805908203125
1789222466999014400,7.698014404296875,0.6924591064453125,0.20501708984375,0.425872802734375
1789222467009007400,7.70800732421875,0.2078399658203125,0.4614105224609375,0.634124755859375
1789222467019001600,7.718001708984375,-2.4231414794921875,-1.3472137451171875,0.3303375244140625
1789222467028995600,7.72799560546875,-8.303253173828125,-2.4658050537109375,0.1216888427734375
1789222467038989600,7.737989501953125,-2.4745635986328125,-0.860748291015625,-0.3247222900390625
1789222467048983300,7.7479833984375,2.8455352783203125,-0.257293701171875,-0.2593994140625
1789222467058977300,7.757977294921875,2.882568359375,-0.075225830078125,-0.07293701171875
1789222467068971500,7.767971435546875,-0.212890625,-0.981903076171875,0.0989227294921875
1789222467078965500,7.777965576171875,-6.228759765625,-2.351318359375,0.6941680908203125
1789222467088959500,7.78795947265625,-1.733367919921875,-0.3796234130859375,0.8514404296875
1789222467098953500,7.797953369140625,3.135162353515625,0.6380157470703125,0.6201019287109375
1789222467108947500,7.807947509765625,2.5353240966796875,-1.11627197265625,0.1748504638671875
1789222467118941400,7.81794140625,0.054290771484375,-0.190582275390625,-0.045318603515625
1789222467128935400,7.827935302734375,-4.22650146484375,0.5441741943359375,0.2454986572265625
1789222467138929400,7.837929443359375,-3.2778167724609375,-3.1412200927734375,-0.17449951171875
1789222467148923400,7.84792333984375,-0.094390869140625,-1.21673583984375,-0.032928466796875
1789222467158917400,7.85791748046875,0.914764404296875,-0.0450592041015625,0.1755218505859375
1789222467168911400,7.867911376953125,0.8289794921875,-1.188018798828125,-0.04510498046875
1789222467178905600,7.877905517578125,0.672088623046875,0.0381317138671875,-0.1754913330078125
1789222467188899600,7.887899658203125,0.29913330078125,0.2462921142578125,0.056854248046875
1789222467198893600,7.8978935546875,0.1341400146484375,-0.966583251953125,0.487945556640625
1789222467208887300,7.90788720703125,0.5305023193359375,0.14263916015625,0.49755859375
1789222467218881300,7.91788134765625,-2.0896453857421875,-0.2759857177734375,0.3159332275390625
1789222467228875500,7.92787548828125,-6.0811614990234375,-2.54168701171875,0.3805389404296875
1789222467238869500,7.937869384765625,-1.5672607421875,-1.1553497314453125,-0.3108062744140625
1789222467248862500,7.947862548828125,2.8090972900390625,0.3710174560546875,-0.66839599609375
1789222467258856400,7.9578564453125,2.6320953369140625,-0.74676513671875,-0.7545013427734375
1789222467268850400,7.967850341796875,-1.7839508056640625,-1.843170166015625,-0.5650177001953125
1789222467278844400,7.977844482421875,-7.8436737060546875,-1.79547119140625,0.219879150390625
1789222467288840700,7.9878408203125,-0.1651458740234375,-0.862762451171875,0.7493438720703125
1789222467298834700,7.997834716796875,3.4446868896484375,0.6191558837890625,0.9355926513671875
1789222467308829000,8.007828857421876,1.4008026123046875,-1.094207763671875,1.0225677490234375
1789222467318823000,8.017822998046874,-1.5066070556640625,-0.1851959228515625,0.7329254150390625
1789222467328816600,8.027816650390625,-2.5865478515625,0.7760467529296875,0.01092529296875
1789222467338810600,8.037810546875,-1.1611480712890625,-2.226898193359375,-0.4199371337890625
1789222467348804600,8.0478046875,0.3652191162109375,-1.157440185546875,0.0550537109375
1789222467358798800,8.057798828125,0.4854736328125,0.51812744140625,0.379058837890625
1789222467368792800,8.067792724609374,-0.806365966796875,-1.9860382080078125,0.704437255859375
1789222467378786800,8.077786865234375,-0.1935577392578125,-0.961212158203125,0.929412841796875
1789222467388780800,8.08778076171875,0.8908843994140625,0.647857666015625,0.5773468017578125
1789222467398774800,8.09777490234375,-0.49908447265625,-1.2354583740234375,0.3240509033203125
1789222467408768800,8.107768798828126,-2.41656494140625,-0.6474151611328125,0.1764678955078125
1789222467418762800,8.1177626953125,-2.08795166015625,0.409637451171875,-0.15203857421875
1789222467428756700,8.1277568359375,-0.907318115234375,-0.636993408203125,-0.3317718505859375
1789222467438750700,8.137750732421875,-0.328125,-0.8097991943359375,-0.2256317138671875
1789222467448744700,8.14774462890625,-0.160491943359375,-0.3106689453125,-0.182281494140625
1789222467458738700,8.15773876953125,-1.791473388671875,-1.13909912109375,0.057891845703125
1789222467468733000,8.16773291015625,-2.178924560546875,-1.3133697509765625,0.3304595947265625
1789222467478727000,8.177726806640624,-0.862030029296875,-0.218505859375,0.338836669921875
1789222467488720600,8.187720703125,0.1122589111328125,-1.16748046875,0.386077880859375
1789222467498714600,8.197714599609375,0.7382659912109375,-0.7066497802734375,0.753692626953125
1789222467508708600,8.20770849609375,0.3498382568359375,0.42535400390625,0.874786376953125
1789222467518701800,8.217701904296876,-0.42108154296875,-0.5995941162109375,0.4151763916015625
1789222467528695800,8.22769580078125,-0.6905364990234375,-1.249725341796875,-0.115234375
1789222467538689800,8.237689697265624,-1.3430938720703125,-0.9025115966796875,-0.3113555908203125
1789222467548683800,8.247683837890625,-1.3802947998046875,-1.1863555908203125,-0.6474609375
1789222467558677800,8.257677734375,-0.4820404052734375,-2.1280059814453125,-0.715087890625
1789222467568671700,8.267671630859375,0.7491912841796875,-0.8019256591796875,-0.110931396484375
1789222467578665700,8.277665771484376,0.0270538330078125,0.928375244140625,0.496856689453125
1789222467588659700,8.28765966796875,-2.1873626708984375,-1.8142547607421875,0.441314697265625
1789222467598653700,8.29765380859375,-1.7593994140625,-2.216766357421875,0.0364227294921875
1789222467608648000,8.30764794921875,0.0679931640625,0.5738372802734375,-0.0326080322265625
1789222467618642000,8.317641845703125,0.0806732177734375,-0.89813232421875,-0.5086517333984375
1789222467628636000,8.327635986328126,-0.6548919677734375,-1.744354248046875,-1.1260223388671875
1789222467638629600,8.337629638671874,-1.252349853515625,0.239013671875,-0.587249755859375
1789222467648623600,8.34762353515625,-0.7906951904296875,-0.152099609375,-0.0618438720703125
1789222467658617900,8.357617919921875,-0.1387939453125,-1.2640838623046875,-0.1923065185546875
1789222467668611800,8.36761181640625,-0.8466949462890625,-0.965667724609375,-0.112762451171875
1789222467678605800,8.377605712890626,-1.947052001953125,-0.9479827880859375,0.11810302734375
1789222467688599800,8.387599853515624,-1.5567626953125,-0.9180908203125,-0.0366058349609375
1789222467698593800,8.39759375,0.5185699462890625,-1.4712066650390625,-0.66253662109375
1789222467708587500,8.40758740234375,1.422393798828125,-0.3280487060546875,-0.5043487548828125
1789222467718581800,8.417581787109375,-0.46002197265625,-0.2011260986328125,0.131195068359375
1789222467728575700,8.42757568359375,-1.90203857421875,-2.4323272705078125,0.0345611572265625
1789222467738569700,8.43756982421875,-0.8199615478515625,0.1197052001953125,-0.1073455810546875
1789222467748563700,8.447563720703124,-0.1337432861328125,-0.5620269775390625,-0.3094329833984375
1789222467758557700,8.4575576171875,-0.2312164306640625,-1.767730712890625,-0.527587890625
1789222467768552000,8.467552001953125,-0.7114105224609375,1.0480499267578125,-0.349700927734375
1789222467778544600,8.477544677734375,-2.0220184326171875,-0.27752685546875,-0.1672515869140625
1789222467788538600,8.48753857421875,-1.207122802734375,-1.570587158203125,-0.199066162109375
1789222467798532600,8.49753271484375,0.5235443115234375,-0.30419921875,-0.1703643798828125
1789222467808526800,8.50752685546875,-0.18206787109375,-0.8212890625,0.0642242431640625
1789222467818520800,8.517520751953125,-1.5528717041015625,-1.524658203125,0.3336639404296875
1789222467828514800,8.527514892578125,-1.0446319580078125,-1.435333251953125,0.3051300048828125
1789222467838508800,8.5375087890625,0.3770294189453125,-0.9620513916015625,0.0341949462890625
1789222467848502800,8.547502685546876,1.077667236328125,-0.3318939208984375,-0.115875244140625
1789222467858496800,8.557496826171874,0.634552001953125,0.0137786865234375,-0.12200927734375
1789222467868490800,8.56749072265625,-0.0293426513671875,-0.552032470703125,-0.135040283203125
1789222467878484700,8.577484619140625,-1.000579833984375,-0.0579071044921875,-0.249603271484375
1789222467888478700,8.587478759765625,-3.7348175048828125,-0.5878753662109375,-0.231414794921875
1789222467898472700,8.59747265625,-3.1809234619140625,-1.764678955078125,-0.5760498046875
1789222467908466700,8.607466796875,-0.5429229736328125,-0.6531219482421875,-0.5704498291015625
1789222467918461000,8.6174609375,-0.019439697265625,-0.4305572509765625,-0.290252685546875
1789222467928455000,8.627454833984375,-0.2711334228515625,-1.7402496337890625,-0.0384979248046875
1789222467938448600,8.63744873046875,1.130035400390625,-0.4559478759765625,0.7928314208984375
1789222467948442600,8.647442626953126,2.2346649169921875,1.87213134765625,1.1708831787109375
1789222467958436600,8.6574365234375,0.3135223388671875,-1.3124542236328125,0.5734710693359375
1789222467968430800,8.667430908203125,-4.17926025390625,-2.122314453125,0.267822265625
1789222467978424800,8.6774248046875,-4.99090576171875,-0.1421966552734375,-0.2837066650390625
1789222467988418800,8.687418701171875,0.8535308837890625,-1.3633270263671875,-0.8771514892578125
1789222467998412800,8.697412841796876,2.0771484375,-0.362945556640625,0.0057220458984375
1789222468008406800,8.70740673828125,0.2813873291015625,-0.3804168701171875,0.174896240234375
1789222468018400800,8.71740087890625,-2.922149658203125,-1.9702911376953125,0.195068359375
1789222468028394800,8.727394775390625,-1.9600982666015625,-0.2074432373046875,0.3260345458984375
1789222468038388700,8.737388671875,0.9736785888671875,0.6275634765625,0.5201873779296875
1789222468048382700,8.7473828125,0.3379974365234375,-1.2483673095703125,0.58233642578125
1789222468058376700,8.757376708984374,-1.530853271484375,-1.5015106201171875,0.6358642578125
1789222468068371000,8.767370849609375,-2.222320556640625,0.757598876953125,0.926605224609375
1789222468078365000,8.777364990234375,-0.3301849365234375,-0.9753875732421875,0.534942626953125
1789222468088357600,8.787357666015625,1.7629241943359375,-1.50567626953125,0.0623931884765625
1789222468098351600,8.7973515625,1.0379180908203125,1.098968505859375,0.1165618896484375
1789222468108345900,8.807345947265626,-2.913848876953125,-0.4750823974609375,0.19256591796875
1789222468118339800,8.81733984375,-3.92108154296875,-2.8506927490234375,0.234588623046875
1789222468128333800,8.827333740234375,-0.28033447265625,0.2862091064453125,0.3503570556640625
1789222468138327800,8.837327880859375,1.7410888671875,0.394989013671875,0.3603363037109375
1789222468148321800,8.84732177734375,0.9761962890625,-0.80657958984375,0.4763031005859375
1789222468158315800,8.857315673828126,-1.59246826171875,-0.7669525146484375,0.9119415283203125
1789222468168309800,8.867309814453124,-4.5384979248046875,-0.2180328369140625,1.1422882080078125
1789222468178303700,8.8773037109375,-1.598968505859375,-1.594024658203125,0.189239501953125
1789222468188297700,8.887297607421875,2.06536865234375,-0.8814239501953125,-0.1155242919921875
1789222468198291700,8.897291748046875,2.5370330810546875,0.0155181884765625,0.0361175537109375
1789222468208285700,8.90728564453125,0.52734375,-0.660888671875,0.040130615234375
1789222468218280000,8.917280029296874,-2.41131591796875,-1.659271240234375,0.0496673583984375
1789222468228274000,8.92727392578125,-3.22930908203125,-1.498809814453125,0.1974334716796875
1789222468238267600,8.937267578125,-0.5319061279296875,-0.7148895263671875,0.1171722412109375
1789222468248261600,8.94726171875,1.06439208984375,-0.7443695068359375,0.1561431884765625
1789222468258255600,8.957255615234375,0.894317626953125,-0.4530181884765625,0.03741455078125
1789222468268249900,8.967249755859376,-0.6968841552734375,-0.3718719482421875,-0.3285369873046875
1789222468278243800,8.977243896484374,-3.4608154296875,-1.0393829345703125,-0.079742431640625
1789222468288235800,8.98723583984375,-2.36328125,-0.763275146484375,-0.0337677001953125
1789222468298230000,8.99722998046875,0.6027374267578125,-0.91729736328125,-0.4513397216796875
1789222468308224000,9.00722412109375,1.0654754638671875,-1.3430328369140625,-0.37841796875
1789222468318218000,9.017218017578125,-0.16510009765625,-0.6487884521484375,0.117523193359375
1789222468328211700,9.027211669921876,-2.93359375,-0.736785888671875,0.3508758544921875
1789222468338205700,9.037205810546874,-2.2578887939453125,-1.474609375,0.049224853515625
1789222468348200000,9.047199951171875,0.5601959228515625,-0.375,0.082122802734375
1789222468358194000,9.05719384765625,1.35919189453125,-0.5569305419921875,-0.0040435791015625
1789222468368188000,9.06718798828125,0.814971923828125,-0.91961669921875,-0.3968048095703125
1789222468378182000,9.077181884765626,-0.912139892578125,0.160919189453125,-0.333099365234375
1789222468388176000,9.08717578125,-3.139129638671875,-1.003997802734375,0.1220550537109375
1789222468398170000,9.097170166015625,-2.11114501953125,-1.4862213134765625,0.2858734130859375
1789222468408163800,9.107163818359375,-0.230316162109375,-0.222442626953125,0.3099517822265625
1789222468418156800,9.11715673828125,0.1733551025390625,-0.7105560302734375,0.140167236328125
1789222468428150800,9.12715087890625,-0.0346221923828125,-0.891265869140625,-0.06689453125
1789222468438145000,9.13714501953125,-0.1356658935546875,-0.6226654052734375,-0.006439208984375
1789222468448139000,9.147138916015624,-0.1519927978515625,-0.2886962890625,0.28387451171875
1789222468458133000,9.157133056640625,-0.6869659423828125,-0.30413818359375,0.16802978515625
1789222468468126700,9.167126708984375,-3.140411376953125,-1.5078277587890625,0.318756103515625
1789222468478120700,9.17712060546875,-2.78424072265625,-1.6772613525390625,0.397125244140625
1789222468488115000,9.187114990234376,0.856903076171875,-0.688385009765625,-0.1042633056640625
1789222468498109000,9.19710888671875,1.798828125,-0.1235809326171875,-0.387298583984375
1789222468508103000,9.20710302734375,0.234130859375,-0.980621337890625,-0.3194122314453125
1789222468518097000,9.217096923828125,-1.6946258544921875,-0.2555084228515625,0.086456298828125
1789222468528091000,9.2270908203125,-2.4507904052734375,-0.4987945556640625,0.4104766845703125
1789222468538084900,9.2370849609375,-1.511962890625,-2.0476226806640625,0.276214599609375
1789222468548078800,9.247078857421876,-0.0177764892578125,-1.3084259033203125,0.08489990234375
1789222468558072800,9.25707275390625,0.8233795166015625,-0.034820556640625,-0.1942138671875
1789222468568066800,9.26706689453125,0.0461883544921875,-0.5870361328125,-0.6393280029296875
1789222468578060800,9.277060791015625,-1.3642578125,-1.3812408447265625,-0.554962158203125
1789222468588054800,9.2870546875,-0.827606201171875,-0.1373748779296875,-0.0855712890625
1789222468598049000,9.297049072265626,-0.369384765625,-0.9254302978515625,0.0046234130859375
1789222468608043000,9.30704296875,-1.2335052490234375,-2.5128936767578125,0.02935791015625
1789222468618037000,9.317037109375,-1.054168701171875,-0.811004638671875,0.088409423828125
1789222468628030700,9.32703076171875,-0.3120574951171875,-0.213287353515625,-0.249237060546875
1789222468638024700,9.337024658203125,0.431732177734375,-0.7682342529296875,-0.6858673095703125
1789222468648019000,9.34701904296875,0.236053466796875,-0.67633056640625,-0.445648193359375
1789222468658013000,9.357012939453124,-0.588775634765625,-0.8186187744140625,-0.2439727783203125
1789222468668007000,9.3670068359375,-2.0649566650390625,-1.232330322265625,-0.2326202392578125
1789222468678001000,9.3770009765625,-1.8457794189453125,-1.40606689453125,-0.286712646484375
1789222468687995000,9.386994873046875,0.078216552734375,-0.064239501953125,-0.4037322998046875
1789222468697988900,9.39698876953125,0.4431304931640625,-0.4239501953125,-0.533050537109375
1789222468707982800,9.40698291015625,-0.0493621826171875,-1.271484375,-0.495208740234375
1789222468717976800,9.416976806640625,-0.1485595703125,0.68597412109375,-0.1084442138671875
1789222468727970800,9.426970703125,-0.92584228515625,-0.212127685546875,-0.1057586669921875
1789222468737964800,9.43696484375,-2.329986572265625,-2.81646728515625,-0.15484619140625
1789222468747958800,9.446958740234376,-1.85980224609375,-0.4751129150390625,-0.134124755859375
1789222468757953000,9.456953125,0.0527496337890625,-0.0653533935546875,-0.305328369140625
1789222468767947000,9.466947021484375,1.1995086669921875,-1.287811279296875,-0.3204345703125
1789222468777941000,9.47694091796875,0.8069305419921875,-0.3920135498046875,-0.168243408203125
1789222468787934000,9.486933837890625,-1.1892242431640625,0.009124755859375,0.0946197509765625
1789222468797928000,9.496927978515625,-2.13238525390625,-0.8353118896484375,0.3604888916015625
1789222468807922000,9.506921875,-0.6624298095703125,-1.1685791015625,0.128570556640625
1789222468817916000,9.516916015625,-0.0555419921875,-0.5549468994140625,-0.122161865234375
1789222468827910000,9.526909912109375,-1.625518798828125,0.1192474365234375,-0.0121612548828125
1789222468837904000,9.53690380859375,-2.6417083740234375,-1.3902130126953125,0.2506103515625
1789222468847898000,9.546898193359375,-0.2857666015625,-1.0069580078125,0.095855712890625
1789222468857891800,9.556891845703126,1.4199981689453125,0.179290771484375,-0.07904052734375
1789222468867885800,9.5668857421875,0.425750732421875,-0.334930419921875,0.0303802490234375
1789222468877879800,9.5768798828125,-1.621337890625,-0.771148681640625,0.550018310546875
1789222468887873800,9.586873779296875,-1.8506011962890625,-0.45782470703125,1.0798492431640625
1789222468897868000,9.596867919921875,-0.5099029541015625,-0.833770751953125,1.3495025634765625
1789222468907862000,9.606862060546876,-0.7950439453125,-0.9967803955078125,0.6096343994140625
1789222468917856000,9.61685595703125,-0.7291412353515625,-0.2369842529296875,-0.218841552734375
1789222468927850000,9.62685009765625,0.2651824951171875,-0.322723388671875,0.0677642822265625
1789222468937843700,9.63684375,0.48114013671875,-0.9321136474609375,0.123077392578125
1789222468947838000,9.646837890625,0.1738128662109375,-0.05462646484375,-0.558380126953125
1789222468957832000,9.65683203125,-0.3536376953125,0.21697998046875,-0.07061767578125
1789222468967826000,9.666825927734376,-2.215667724609375,-1.193145751953125,1.13385009765625
1789222468977820000,9.67681982421875,-4.0853424072265625,-1.7547454833984375,1.3296661376953125
1789222468987814000,9.68681396484375,-1.37359619140625,-0.4455108642578125,0.327301025390625
1789222468997807900,9.696807861328125,1.6872406005859375,-0.725341796875,-0.04461669921875
1789222469007802000,9.706802001953125,1.90704345703125,-0.2891082763671875,-0.04638671875
1789222469017795800,9.7167958984375,-0.1118316650390625,0.09222412109375,-0.2057037353515625
1789222469027789800,9.726789794921874,-3.3841552734375,-1.5087738037109375,0.0786285400390625
1789222469037783800,9.73678369140625,-2.6277923583984375,-1.7837677001953125,0.575286865234375
1789222469047777800,9.74677783203125,0.337127685546875,-0.055419921875,0.9087371826171875
1789222469057772000,9.75677197265625,1.72222900390625,-1.0332183837890625,0.5598602294921875
1789222469067766000,9.76676611328125,0.8712921142578125,-0.5699920654296875,0.187164306640625
1789222469077760000,9.776760009765624,-2.96051025390625,0.0974273681640625,0.0830078125
1789222469087753700,9.786753662109374,-4.2380218505859375,-1.6443023681640625,-0.00726318359375
1789222469097747700,9.796747802734375,0.4658203125,-0.874481201171875,-0.0647430419921875
1789222469107742000,9.806741943359375,2.010589599609375,0.224700927734375,0.0231781005859375
1789222469117736000,9.81673583984375,-0.3921661376953125,-1.27154541015625,0.1822662353515625
1789222469127730000,9.82672998046875,-3.10589599609375,-1.6923675537109375,0.4578704833984375
1789222469137724000,9.836723876953124,-1.7001495361328125,-0.5490875244140625,0.0219268798828125
1789222469147718000,9.8467177734375,0.28717041015625,-1.0234222412109375,-0.2083892822265625
1789222469157712000,9.8567119140625,0.5914459228515625,-0.4110107421875,0.0263824462890625
1789222469167705900,9.866705810546875,0.4034881591796875,-0.119140625,0.2291717529296875
1789222469177699800,9.876699951171876,0.0740509033203125,-0.640899658203125,0.40478515625
1789222469187693800,9.88669384765625,-0.060577392578125,-0.339080810546875,0.350311279296875
1789222469197687800,9.896687744140625,-1.1140594482421875,-0.97210693359375,0.1160430908203125
1789222469207681800,9.906681884765625,-2.090362548828125,-1.6799774169921875,-0.1145172119140625
1789222469217676000,9.916676025390625,-1.7227630615234375,-1.1240692138671875,-0.307281494140625
1789222469227670000,9.926669921875,-0.5413360595703125,-0.263214111328125,-0.5329132080078125
1789222469237662700,9.936662841796876,0.478118896484375,-0.4477386474609375,-0.46258544921875
1789222469247656700,9.94665673828125,-0.1286163330078125,-1.27459716796875,0.1059722900390625
1789222469257651000,9.95665087890625,-1.1595458984375,-0.3285675048828125,0.6884613037109375
1789222469267645000,9.96664501953125,-1.1299285888671875,-0.3725738525390625,0.4273223876953125
1789222469277639000,9.976638916015625,-0.5317535400390625,-1.4335784912109375,-0.26092529296875
1789222469287632100,9.986632080078126,-0.1772003173828125,-1.4452972412109375,-0.4624176025390625
1789222469297626400,9.99662646484375,-0.272216796875,-0.4239654541015625,-0.0433502197265625
1789222469307620400,10.006620361328125,-0.350738525390625,-0.3463287353515625,0.186065673828125
1789222469317614300,10.0166142578125,-0.121002197265625,-1.488922119140625,0.1266326904296875
1789222469327608300,10.0266083984375,-0.4528350830078125,-0.496490478515625,0.4529571533203125
1789222469337602300,10.036602294921876,-1.6803741455078125,-0.31878662109375,0.44097900390625
1789222469347596300,10.04659619140625,-1.270721435546875,-1.2369537353515625,-0.16607666015625
1789222469357590300,10.05659033203125,-0.07171630859375,-0.3779296875,-0.4805450439453125
1789222469367584300,10.066584228515625,0.311767578125,0.036285400390625,-0.48162841796875
1789222469377578200,10.076578125,-0.1979522705078125,-0.793365478515625,-0.2467803955078125
1789222469387572200,10.086572265625,-1.864501953125,-1.372589111328125,0.330902099609375
1789222469397566200,10.096566162109376,-3.4880218505859375,-1.3565216064453125,0.7334747314453125
1789222469407560400,10.106560546875,-1.14093017578125,-1.4419097900390625,0.2383575439453125
1789222469417554400,10.116554443359375,1.24493408203125,-0.649017333984375,-0.1117401123046875
1789222469427548400,10.12654833984375,1.1347503662109375,-0.1787109375,-0.4154510498046875
1789222469437542100,10.136542236328125,0.12939453125,-0.2965087890625,-0.5526275634765625
1789222469447536000,10.1465361328125,-0.231964111328125,-0.363006591796875,-0.134765625
1789222469457530400,10.1565302734375,-2.0359344482421875,-1.2445831298828125,0.230377197265625
1789222469467524400,10.1665244140625,-3.9903106689453125,-2.7873077392578125,0.355865478515625
1789222469477518300,10.176518310546875,-1.1896514892578125,-0.93670654296875,0.023040771484375
1789222469487512300,10.18651220703125,1.1466827392578125,-0.1565093994140625,-0.293243408203125
1789222469497506300,10.19650634765625,1.1922607421875,-0.9139404296875,-0.6350250244140625
1789222469507500300,10.206500244140624,0.2020263671875,-0.1474151611328125,-0.8020782470703125
1789222469517494300,10.216494384765625,-1.43255615234375,-0.246185302734375,-0.1605377197265625
1789222469527488300,10.22648828125,-1.5819549560546875,-0.9561309814453125,0.3314971923828125
1789222469537482200,10.236482177734375,0.3380889892578125,-0.6524200439453125,0.2750244140625
1789222469547476200,10.246476318359376,0.9170379638671875,-0.4859619140625,0.2458038330078125
1789222469557470200,10.25647021484375,-0.85968017578125,-1.01971435546875,0.1947784423828125
1789222469567464400,10.26646435546875,-2.331512451171875,-0.6298675537109375,-0.11004638671875
1789222469577458400,10.27645849609375,-1.17877197265625,-0.56201171875,-0.538299560546875
1789222469587452400,10.286452392578125,0.2484130859375,-1.305023193359375,-0.4495086669921875
1789222469597446100,10.296446044921876,0.903106689453125,0.3387451171875,-0.1642303466796875
1789222469607440100,10.306440185546874,-0.6065216064453125,0.3310394287109375,0.261474609375
1789222469617434400,10.316434326171875,-5.0029449462890625,-1.8958587646484375,0.9703521728515625
1789222469627428400,10.326428466796875,-2.5813140869140625,-1.1917572021484375,0.4995880126953125
1789222469637422300,10.33642236328125,2.368621826171875,0.2376708984375,-0.0855712890625
1789222469647416300,10.346416259765626,2.4893951416015625,-0.139801025390625,-0.0655975341796875
1789222469657410300,10.356410400390626,0.85821533203125,-1.21014404296875,-0.1563568115234375
1789222469667404300,10.366404296875,-0.62469482421875,-0.0372161865234375,-0.0351715087890625
1789222469677398300,10.376398193359375,-3.5602874755859375,0.0302886962890625,0.3480987548828125
1789222469687392300,10.386392333984375,-3.564056396484375,-3.4692840576171875,0.617279052734375
1789222469697386200,10.39638623046875,0.1191253662109375,-0.716827392578125,0.952972412109375
1789222469707380200,10.406380126953126,2.2094879150390625,0.755096435546875,0.5904541015625
1789222469717374200,10.416374267578124,0.1893768310546875,-0.55291748046875,0.2246856689453125
1789222469727368400,10.426368408203125,-4.17877197265625,-2.563018798828125,0.3484649658203125
1789222469737362400,10.436362548828125,-3.2237396240234375,-0.2376556396484375,0.3885040283203125
1789222469747356400,10.4463564453125,1.692901611328125,0.9083404541015625,-0.01116943359375
1789222469757350100,10.45635009765625,1.48162841796875,-1.48309326171875,0.162750244140625
1789222469767344000,10.46634423828125,-1.3484649658203125,-1.6899566650390625,0.6059722900390625
1789222469777338400,10.47633837890625,-2.9971466064453125,0.1862335205078125,0.9664459228515625
1789222469787331300,10.486331298828125,-0.9532623291015625,-0.7840118408203125,0.4358978271484375
1789222469797326300,10.496326416015625,1.2964630126953125,-1.6558380126953125,0.171539306640625
1789222469807319300,10.5063193359375,1.7628936767578125,0.4912567138671875,0.1937713623046875
1789222469817313300,10.516313232421876,-0.5947418212890625,1.139801025390625,0.2806243896484375
1789222469827307300,10.526307373046874,-2.989410400390625,-2.0177764892578125,0.266693115234375
1789222469837301200,10.53630126953125,-1.3223724365234375,-0.437744140625,0.1737518310546875
1789222469847295200,10.546295166015625,-0.9027557373046875,0.266387939453125,0.2994842529296875
1789222469857289200,10.556289306640625,-3.2981719970703125,-2.007415771484375,0.379547119140625
1789222469867283500,10.566283447265626,-2.1853485107421875,-0.84326171875,0.0199432373046875
1789222469877277400,10.57627734375,0.840576171875,-0.24163818359375,-0.6216888427734375
1789222469887271400,10.586271484375,1.596710205078125,-1.591400146484375,-0.759124755859375
1789222469897265200,10.59626513671875,0.686004638671875,-1.1753997802734375,-0.2798919677734375
1789222469907259100,10.606259033203125,-0.116485595703125,-0.029693603515625,0.2228240966796875
1789222469917253400,10.61625341796875,0.2662200927734375,-0.7135772705078125,0.317230224609375
1789222469927247400,10.626247314453124,0.046142578125,-1.952911376953125,0.261871337890625
1789222469937241300,10.636241455078125,-1.973785400390625,-1.374420166015625,0.553375244140625
1789222469947235300,10.6462353515625,-2.074462890625,-1.6015625,0.145843505859375
1789222469957229300,10.656229248046875,-0.276031494140625,0.047576904296875,-0.486083984375
1789222469967223300,10.666223388671876,0.6105194091796875,0.738067626953125,-0.9001617431640625
1789222469977217300,10.67621728515625,-0.419830322265625,-1.2900390625,-1.10382080078125
1789222469987211300,10.686211181640624,-1.5655517578125,-1.5948638916015625,-0.49053955078125
1789222469997205200,10.696205322265625,-0.37811279296875,-0.4168548583984375,-0.047515869140625
1789222470007199200,10.70619921875,0.887542724609375,-1.5300140380859375,-0.2229461669921875
1789222470017193200,10.716193115234375,-0.001708984375,-1.009521484375,-0.0672149658203125
1789222470027187500,10.7261875,-3.7324676513671875,-0.349029541015625,0.3820037841796875
1789222470037181400,10.736181396484374,-2.861053466796875,-2.4379730224609375,-0.2174072265625
1789222470047175400,10.746175537109375,0.8033294677734375,-0.8629150390625,-0.2696380615234375
1789222470057169200,10.756169189453125,1.7921600341796875,0.5727691650390625,-0.13299560546875
1789222470067163100,10.7661630859375,0.531890869140625,0.1558837890625,-1.0139007568359375
1789222470077157400,10.776157470703126,-1.6617584228515625,-1.74951171875,-1.28289794921875
1789222470087151400,10.7861513671875,-2.349212646484375,-0.24517822265625,-0.5077362060546875
1789222470097145300,10.796145263671875,-1.72650146484375,0.1176300048828125,-0.1741943359375
1789222470107139300,10.806139404296875,-0.977447509765625,-1.9548797607421875,-0.0376434326171875
1789222470117133300,10.81613330078125,-0.02398681640625,-0.656341552734375,0.341705322265625
1789222470127127300,10.826127197265626,0.05322265625,0.5553436279296875,0.407806396484375
1789222470137121300,10.836121337890624,-0.4898681640625,-1.5075225830078125,0.20819091796875
1789222470147115300,10.846115234375,-0.2466583251953125,-1.4531097412109375,0.14898681640625
1789222470157109200,10.856109130859375,-0.521575927734375,-0.5420684814453125,0.169677734375
1789222470167103200,10.866103271484375,-1.20819091796875,-0.833770751953125,-0.0634918212890625
1789222470177097200,10.87609716796875,-1.1514739990234375,-0.7275390625,-0.1455078125
1789222470187091500,10.886091552734374,-0.3209381103515625,-0.60186767578125,0.05877685546875
1789222470197085400,10.89608544921875,0.3116912841796875,-0.1979522705078125,0.42047119140625
1789222470207079400,10.906079345703125,-0.158782958984375,-0.5030975341796875,0.6911163330078125
1789222470217073200,10.9160732421875,-1.1496429443359375,-1.4137725830078125,0.6649169921875
1789222470227067100,10.926067138671876,-1.0060577392578125,-0.571746826171875,0.303131103515625
1789222470237061400,10.936061279296876,-0.696929931640625,-0.5950775146484375,-0.0882568359375
1789222470247055400,10.946055419921874,-0.0767059326171875,-1.0860748291015625,-0.114471435546875
1789222470257049300,10.95604931640625,0.385833740234375,-0.2415924072265625,0.0447235107421875
1789222470267043300,10.966043212890625,-0.9662933349609375,-0.355926513671875,0.091064453125
1789222470277037300,10.976037353515625,-2.54132080078125,-1.492218017578125,0.367523193359375
1789222470287031300,10.98603125,-1.4132080078125,-0.6266632080078125,0.346405029296875
1789222470297025300,10.996025390625,0.193389892578125,-0.8742218017578125,-0.111968994140625
1789222470307019300,11.006019287109375,0.6693115234375,-0.48284912109375,-0.316131591796875
1789222470317013000,11.016012939453125,0.0742340087890625,0.3664703369140625,-0.06719970703125
1789222470327007000,11.026007080078125,-0.53997802734375,-0.4410858154296875,0.3006744384765625
1789222470337001000,11.0360009765625,-0.2669219970703125,-0.897918701171875,0.5428924560546875
1789222470346995200,11.0459951171875,-0.720916748046875,-0.3451385498046875,0.5274810791015625
1789222470356989200,11.0559892578125,-2.6392364501953125,-1.224090576171875,0.227691650390625
1789222470366983200,11.065983154296875,-2.0724945068359375,-0.97723388671875,-0.3973388671875
1789222470376977200,11.07597705078125,0.1104583740234375,-0.4761810302734375,-0.644439697265625
1789222470386971100,11.08597119140625,0.1463775634765625,-0.7126007080078125,-0.13018798828125
1789222470396965000,11.095965087890624,-1.1995086669921875,-1.0853271484375,0.37005615234375
1789222470406959000,11.105958984375,-1.908966064453125,-0.8028717041015625,0.7763671875
1789222470416953000,11.115953125,-0.361053466796875,-0.229888916015625,0.6987152099609375
1789222470426947000,11.125947021484375,0.5829010009765625,-1.0532379150390625,0.149383544921875
1789222470436941000,11.135941162109376,-1.2780609130859375,-1.313690185546875,-0.202880859375
1789222470446935300,11.145935302734374,-3.5008544921875,-0.630767822265625,0.0234222412109375
1789222470456929300,11.15592919921875,-0.74298095703125,-1.003326416015625,0.13165283203125
1789222470466923300,11.16592333984375,1.4036407470703125,-0.9696044921875,0.35015869140625
1789222470476917000,11.1759169921875,1.5249786376953125,-0.221923828125,0.343902587890625
1789222470486911000,11.185910888671875,-0.1632080078125,-0.443634033203125,0.4033203125
1789222470496905200,11.1959052734375,-1.4909820556640625,-0.682342529296875,0.16064453125
1789222470506899200,11.205899169921874,-1.85302734375,-0.6445159912109375,-0.30035400390625
1789222470516893200,11.21589306640625,-0.9365997314453125,-1.471343994140625,-0.3333892822265625
1789222470526887200,11.22588720703125,0.5106201171875,-1.09112548828125,0.278045654296875
1789222470536881200,11.235881103515625,0.993133544921875,-0.8246917724609375,0.6296234130859375
1789222470546875100,11.245875244140626,0.2794342041015625,-0.4468994140625,0.5950927734375
1789222470556869000,11.255869140625,-0.96636962890625,-0.0818023681640625,0.3936309814453125
1789222470566863000,11.265863037109375,-2.6768035888671875,-1.2631378173828125,-0.104217529296875
1789222470576857000,11.275857177734375,-2.582489013671875,-1.5280914306640625,-0.601104736328125
1789222470586851000,11.28585107421875,-1.4537811279296875,-0.30535888671875,-0.9002838134765625
1789222470596845000,11.295844970703126,-0.7196197509765625,-0.7154388427734375,-1.0140380859375
1789222470606839300,11.30583935546875,0.1786346435546875,-0.9421844482421875,-0.418670654296875
1789222470616833300,11.315833251953125,-0.1334381103515625,-0.17230224609375,0.556427001953125
1789222470626827300,11.3258271484375,-1.270660400390625,-0.9662933349609375,0.859619140625
1789222470636821000,11.335821044921875,-0.8567352294921875,-1.7699432373046875,0.47454833984375
1789222470646815000,11.34581494140625,0.96014404296875,-0.4373016357421875,0.1619110107421875
1789222470656808200,11.35580810546875,1.6364288330078125,0.41217041015625,-0.0440521240234375
1789222470666802200,11.36580224609375,0.73040771484375,0.249969482421875,-0.3871612548828125
1789222470676796200,11.375796142578125,-1.269195556640625,-0.05389404296875,-0.379302978515625
1789222470686791200,11.385791259765625,-2.7644805908203125,-1.3848724365234375,0.1337890625
1789222470696784400,11.395784423828125,-2.427490234375,-1.7945556640625,0.6734619140625
1789222470706778000,11.405778076171876,-0.69219970703125,-1.0787353515625,0.3302001953125
1789222470716772000,11.415772216796874,0.4578094482421875,-0.1958160400390625,-0.434967041015625
1789222470726766000,11.42576611328125,0.030120849609375,0.57684326171875,-0.4558868408203125
1789222470736760000,11.435760009765625,-1.279510498046875,-0.7284698486328125,0.066925048828125
1789222470746754000,11.445754150390625,-2.4942779541015625,-1.333709716796875,0.782379150390625
1789222470756748300,11.455748291015626,-1.339141845703125,0.1723785400390625,1.1742401123046875
1789222470766742300,11.4657421875,0.399932861328125,-0.864013671875,0.9838409423828125
1789222470776736300,11.475736328125,1.161895751953125,-2.2877044677734375,0.617950439453125
1789222470786730000,11.48572998046875,0.7913970947265625,0.2296142578125,0.609954833984375
1789222470796724000,11.495723876953125,-0.9825592041015625,2.0179443359375,0.074188232421875
1789222470806718200,11.50571826171875,-1.12939453125,-2.5,-0.909912109375
1789222470816712200,11.515712158203126,-0.01068115234375,-1.4245147705078125,-0.2514495849609375
1789222470826706200,11.5257060546875,0.3577117919921875,1.7116546630859375,0.6641082763671875
1789222470836700200,11.5357001953125,-1.6676788330078125,-1.0357666015625,0.478912353515625
1789222470846694100,11.545694091796875,-3.5866851806640625,-2.4029693603515625,0.4060211181640625
1789222470856688000,11.555688232421875,-2.51641845703125,-0.109954833984375,0.415863037109375
1789222470866682000,11.56568212890625,-0.189208984375,-1.5909576416015625,-0.2501220703125
1789222470876676000,11.575676025390624,1.30804443359375,-1.2152099609375,-0.4102630615234375
1789222470886670000,11.585670166015625,0.9716796875,-0.080352783203125,-0.3046417236328125
1789222470896664000,11.5956640625,-0.779876708984375,-2.41851806640625,-0.1414337158203125
1789222470906658000,11.605657958984375,-0.5285797119140625,-1.3980712890625,0.5111541748046875
1789222470916652300,11.61565234375,1.1778564453125,0.778900146484375,0.4984893798828125
1789222470926646300,11.625646240234374,-0.4597930908203125,-1.9802093505859375,0.07977294921875
1789222470936640000,11.635639892578125,-4.2182159423828125,-1.858062744140625,0.2553863525390625
1789222470946634000,11.645634033203125,-2.944183349609375,-0.064971923828125,-0.525848388671875
1789222470956628000,11.6556279296875,0.6320648193359375,-1.286834716796875,-1.7451629638671875
1789222470966622200,11.665622314453126,1.1695098876953125,-0.2633209228515625,-1.632293701171875
1789222470976616200,11.6756162109375,-0.4405670166015625,0.30767822265625,-0.7267303466796875
1789222470986610200,11.685610107421875,-2.3172607421875,-0.77001953125,-0.2201690673828125
1789222470996604200,11.695604248046875,-1.0091705322265625,-0.845489501953125,-0.1485443115234375
1789222471006598100,11.70559814453125,0.4882354736328125,0.25848388671875,0.397857666015625
1789222471016592100,11.715592041015626,-0.95318603515625,-1.205108642578125,1.0132904052734375
1789222471026586000,11.725586181640624,-1.34222412109375,-1.151458740234375,0.753662109375
1789222471036580000,11.735580078125,0.4679718017578125,-0.001953125,0.1627044677734375
1789222471046574000,11.745573974609375,1.6165008544921875,-0.2092132568359375,-0.170074462890625
1789222471056568000,11.755568115234375,1.066986083984375,-0.1347503662109375,0.0437774658203125
1789222471066562000,11.76556201171875,-1.1552276611328125,-0.75738525390625,0.438385009765625
1789222471076556300,11.775556396484374,-2.72222900390625,-2.1354827880859375,0.3547210693359375
1789222471086550300,11.78555029296875,-1.3161468505859375,-1.2747650146484375,0.2618560791015625
1789222471096544000,11.7955439453125,0.224334716796875,-0.047271728515625,0.484100341796875
1789222471106538000,11.8055380859375,0.0551910400390625,-0.5487213134765625,0.5171356201171875
1789222471116532000,11.815531982421875,-0.89654541015625,-0.365509033203125,0.2912139892578125
1789222471126526200,11.825526123046876,-1.566558837890625,-0.330780029296875,0.1778564453125
1789222471136520200,11.835520263671874,-1.3211517333984375,-0.871673583984375,0.0040435791015625
1789222471146514200,11.84551416015625,-1.130615234375,-0.850799560546875,-0.178741455078125
1789222471156508200,11.855508056640625,-1.1312103271484375,-1.136505126953125,-0.270477294921875
1789222471166502100,11.865502197265625,-0.2935791015625,-1.3770294189453125,-0.2594146728515625
1789222471176496000,11.87549609375,-0.6247711181640625,-0.07427978515625,0.141357421875
1789222471186490000,11.885489990234374,-1.3019256591796875,-0.8736114501953125,0.4660491943359375
1789222471196484000,11.895484130859375,-0.27471923828125,-1.3168792724609375,0.0809783935546875
1789222471206478000,11.90547802734375,-0.39678955078125,-0.80780029296875,0.00750732421875
1789222471216472000,11.91547216796875,-1.883148193359375,-0.3649444580078125,0.339813232421875
1789222471226466300,11.92546630859375,-1.4956512451171875,-1.1946868896484375,0.0521087646484375
1789222471236460300,11.935460205078124,-0.0116424560546875,-1.38232421875,-0.6102752685546875
1789222471246454300,11.945454345703125,0.227569580078125,-0.4259185791015625,-0.572723388671875
1789222471256448000,11.955447998046875,0.03167724609375,-0.63861083984375,-0.207763671875
1789222471266442000,11.96544189453125,0.4972076416015625,-1.1702728271484375,-0.145477294921875
1789222471276436000,11.97543603515625,0.01593017578125,-0.673675537109375,0.39154052734375
1789222471286430500,11.985430419921874,-1.118408203125,0.1956024169921875,1.07061767578125
1789222471296424400,11.995424560546875,-1.3651885986328125,-0.429443359375,0.9521942138671875
1789222471306418400,12.00541845703125,-0.9715118408203125,-0.882965087890625,0.1133270263671875
1789222471316412400,12.015412353515625,-1.639617919921875,-0.9328460693359375,-0.483062744140625
1789222471326406400,12.025406494140626,-3.310302734375,-0.7987213134765625,-0.55413818359375
1789222471336400400,12.035400390625,-2.7363739013671875,-1.893402099609375,-0.6220703125
1789222471346394400,12.045394287109374,0.139373779296875,-0.253631591796875,-0.69207763671875
1789222471356388400,12.055388427734375,1.8698883056640625,1.516876220703125,-0.2401123046875
1789222471366382300,12.06538232421875,1.5968780517578125,0.2148284912109375,0.36883544921875
1789222471376376300,12.075376220703125,-0.1161346435546875,-1.0001983642578125,0.41339111328125
1789222471386370300,12.085370361328126,-2.2864532470703125,-1.5890350341796875,0.1819000244140625
1789222471396364500,12.095364501953124,-2.605255126953125,-0.454681396484375,0.52935791015625
1789222471406358500,12.105358642578125,-0.2909698486328125,-1.5027923583984375,0.3162841796875
1789222471416352300,12.115352294921875,0.9219818115234375,-1.85894775390625,0.3385009765625
1789222471426346200,12.12534619140625,1.007354736328125,0.0621337890625,0.5860748291015625
1789222471436340200,12.13534033203125,-0.336578369140625,-1.0716400146484375,0.4567108154296875
1789222471446334500,12.14533447265625,-0.4731292724609375,-1.57550048828125,0.027618408203125
1789222471456328400,12.155328369140625,-0.4404144287109375,0.2610626220703125,0.0236663818359375
1789222471466322400,12.165322509765625,-3.3267822265625,-1.24871826171875,0.3332672119140625
1789222471476316400,12.17531640625,-3.9971923828125,-2.0009918212890625,0.002593994140625
1789222471486310400,12.185310302734376,-0.67791748046875,-0.0793304443359375,-0.456573486328125
1789222471496304400,12.195304443359374,1.0252227783203125,0.1959381103515625,-0.30426025390625
1789222471506298400,12.20529833984375,1.3906402587890625,-0.218780517578125,-0.158172607421875
1789222471516292400,12.215292236328125,0.7421722412109375,-0.4253997802734375,0.2169647216796875
1789222471526286300,12.225286376953125,-0.3621826171875,-0.3304290771484375,0.8883819580078125
1789222471536280300,12.2352802734375,1.556427001953125,1.78680419921875,0.8271484375
1789222471546274300,12.2452744140625,-1.23516845703125,-0.4765472412109375,-0.5686187744140625
1789222471556268500,12.2552685546875,-11.144210815429688,-4.91558837890625,-0.9491119384765625
1789222471566262500,12.265262451171875,-1.0516815185546875,-0.3053436279296875,-0.2571563720703125
1789222471576256300,12.27525634765625,1.24334716796875,-0.9450531005859375,0.0350341796875
1789222471586250200,12.285250244140625,-0.5716400146484375,-3.517822265625,-0.0506134033203125
1789222471596244200,12.295244140625,-1.209716796875,-1.96844482421875,-0.143096923828125
1789222471606238500,12.305238525390624,-1.0302276611328125,-0.829315185546875,-0.6543121337890625
1789222471616232400,12.315232421875,1.120880126953125,-1.429718017578125,-0.8154144287109375
1789222471626226400,12.325226318359375,3.603515625,0.4407196044921875,-0.4888458251953125
1789222471636220400,12.335220458984375,4.1814422607421875,1.8614044189453125,-0.338592529296875
1789222471646214400,12.34521435546875,1.8193817138671875,0.0802459716796875,-0.52862548828125
1789222471656208400,12.35520849609375,-4.086639404296875,-2.291961669921875,-0.4551849365234375
1789222471666202400,12.365202392578125,-2.26416015625,-2.46136474609375,-0.25286865234375
1789222471676196400,12.3751962890625,1.6736297607421875,0.50262451171875,0.1253509521484375
1789222471686190300,12.3851904296875,0.1058807373046875,0.4044952392578125,0.1214141845703125
1789222471696184300,12.395184326171876,-4.734375,0.5371551513671875,-0.91876220703125
1789222471706178300,12.40517822265625,-3.2164306640625,0.6075897216796875,-1.959686279296875
1789222471716172500,12.415172607421875,0.678466796875,-0.7211456298828125,-1.576629638671875
1789222471726166500,12.42516650390625,-2.176055908203125,-0.0069427490234375,-0.4876861572265625
1789222471736160300,12.43516015625,-3.5237579345703125,0.4866943359375,0.5374908447265625
1789222471746154200,12.445154296875,-0.4343719482421875,-0.5550537109375,0.9184722900390625
1789222471756148200,12.455148193359374,2.09307861328125,-0.74853515625,1.10943603515625
1789222471766142500,12.465142578125,1.043487548828125,-1.75592041015625,1.865997314453125
1789222471776136400,12.475136474609375,-0.897216796875,-2.05474853515625,2.1878204345703125
1789222471786130400,12.48513037109375,-0.0016632080078125,-1.37957763671875,1.205078125
1789222471796124400,12.49512451171875,1.7882843017578125,-0.611541748046875,-0.0118865966796875
1789222471806118400,12.505118408203124,1.0519866943359375,0.424591064453125,-0.549530029296875
1789222471816112400,12.5151123046875,-1.29608154296875,-0.000579833984375,-0.748870849609375
1789222471826106400,12.5251064453125,-2.2516021728515625,-1.8356475830078125,-0.9185333251953125
1789222471836100400,12.535100341796875,-2.53948974609375,-1.4349212646484375,-0.640289306640625
1789222471846094300,12.54509423828125,-1.9302215576171875,-0.1793212890625,-0.25341796875
1789222471856088300,12.55508837890625,-0.1078948974609375,-1.0045013427734375,-0.224029541015625
1789222471866082300,12.565082275390624,0.08038330078125,-0.711151123046875,-0.136566162109375
1789222471876076500,12.57507666015625,-0.4514617919921875,-0.082763671875,-0.086700439453125
1789222471886070500,12.585070556640625,-0.38427734375,-0.8499908447265625,0.38043212890625
1789222471896064300,12.595064208984375,0.2919158935546875,-0.53143310546875,0.9543914794921875
1789222471906058200,12.605058349609376,-0.00860595703125,-0.1074371337890625,0.676483154296875
1789222471916052200,12.61505224609375,-1.7774658203125,-1.6262969970703125,0.542755126953125
1789222471926046500,12.62504638671875,-1.8573760986328125,-0.9558868408203125,0.6615753173828125
1789222471936040400,12.63504052734375,-0.8026123046875,-0.4671783447265625,0.106231689453125
1789222471946034400,12.645034423828125,0.1273193359375,-0.64312744140625,-0.57110595703125
1789222471956028400,12.6550283203125,0.552001953125,-0.409454345703125,-0.5249176025390625
1789222471966022400,12.6650224609375,-0.3786468505859375,-0.4457244873046875,0.1085052490234375
1789222471976016400,12.675016357421875,-1.6424560546875,-0.71551513671875,0.4041900634765625
1789222471986010400,12.68501025390625,-1.9965667724609375,-1.0810546875,0.218048095703125
1789222471996004400,12.69500439453125,-1.4456787109375,0.3459625244140625,0.0264892578125
1789222472005998300,12.704998291015626,-0.3546142578125,-0.1140594482421875,-0.3017730712890625
1789222472015992300,12.714992431640624,0.1229705810546875,-1.6122283935546875,-0.1352386474609375
1789222472025986600,12.724986572265625,0.2296142578125,-0.5596466064453125,0.246185302734375
1789222472035980500,12.73498046875,-0.7274322509765625,0.431060791015625,0.3401336669921875
1789222472045974500,12.744974609375,-1.588775634765625,-0.6958465576171875,0.341217041015625
1789222472055968300,12.75496826171875,0.0890960693359375,-0.791900634765625,0.2732391357421875
1789222472065962200,12.764962158203126,1.0620880126953125,-1.321258544921875,0.29522705078125
1789222472075956200,12.774956298828124,-1.0412139892578125,-1.8513946533203125,0.2650604248046875
1789222472085950500,12.784950439453125,-3.4611663818359375,-1.5171966552734375,0.130767822265625
1789222472095944400,12.7949443359375,-0.8134765625,-0.8181915283203125,-0.391265869140625
1789222472105938400,12.8049384765625,1.348052978515625,-0.648223876953125,-0.3269500732421875
1789222472115932400,12.814932373046876,0.5239410400390625,-0.689453125,-0.1372528076171875
1789222472125926400,12.824926513671874,-0.9229736328125,-0.8787841796875,-0.091766357421875
1789222472135920400,12.83492041015625,-1.9195404052734375,-0.7883758544921875,0.2449798583984375
1789222472145914400,12.844914306640625,-2.40557861328125,-0.8105010986328125,0.50079345703125
1789222472155908400,12.854908447265625,-0.5701904296875,-0.5474090576171875,0.0951080322265625
1789222472165902300,12.86490234375,1.3536834716796875,-0.1445465087890625,-0.3007354736328125
1789222472175896300,12.874896240234374,0.6278228759765625,-0.5850372314453125,-0.2338714599609375
1789222472185890600,12.884890625,-0.8119049072265625,-1.313232421875,0.030517578125
1789222472195884500,12.894884521484375,-0.2760467529296875,-0.7166290283203125,0.2112884521484375
