time,seconds_elapsed,z,y,x
1789315800112118300,0.0441181640625,9.143605777740477,3.070413991546631,0.48677112503051756
1789315800122152400,0.05415234375,9.035118515014648,3.0048727210998534,0.5644330413818359
1789315800132186000,0.06418603515625,9.034968877410888,2.982726355743408,0.7269394790649414
1789315800142220300,0.07422021484375,9.173533298492432,3.080589348602295,0.8764274452209472
1789315800152253200,0.084253173828125,9.207501034545897,3.079242610168457,0.9721955116271972
1789315800162287400,0.094287353515625,9.402029919433593,2.984073094177246,0.9431658164978027
1789315800172321300,0.1043212890625,9.564685994720458,2.880673509979248,0.77886372756958
1789315800182355200,0.114355224609375,9.58264250717163,3.0174422798156737,1.0446201118469238
1789315800192389400,0.124389404296875,9.45425344314575,3.015945903778076,0.9651625442504882
1789315800202423300,0.13442333984375,9.331251332855224,2.914341970825195,0.8716390419006347
1789315800212457200,0.144457275390625,9.191789086151122,2.916137622070312,0.8767267204284668
1789315800222491400,0.154491455078125,9.093626818084717,2.9327473960876462,0.8111854499816894
1789315800232525000,0.164525146484375,9.162609753417968,2.940229276275635,0.748936206817627
1789315800242559200,0.174559326171875,9.317783948516846,2.9445687667846676,0.7627028663635254
1789315800252593200,0.18459326171875,9.489418280029296,2.910002480316162,0.6985083343505859
1789315800262627000,0.194626953125,9.704896429443359,2.8317420135498046,0.5597942756652832
1789315800272661200,0.2046611328125,9.695618898010252,2.8094460105895993,0.5591957252502441
1789315800282695200,0.214695068359375,9.386467608642578,2.746298941802978,0.543932689666748
1789315800292729000,0.22472900390625,8.86138925704956,2.8095956481933593,0.5934627365112304
1789315800302763300,0.23476318359375,8.652495162200927,2.9417256523132322,0.7613561279296874
1789315800312797200,0.244797119140625,8.624363292694092,2.91134921875,0.637156916809082
1789315800322831000,0.2548310546875,8.639925603485107,2.8164789779663084,0.48078562088012694
1789315800332865300,0.264865234375,8.877250843048095,2.703801862335205,0.8360252922058105
1789315800342898200,0.274898193359375,8.958204786682128,2.866009024810791,0.931494083404541
1789315800352932000,0.28493212890625,8.88069250793457,2.9894600479125977,0.7902361854553223
1789315800362966300,0.29496630859375,9.075071755218506,2.9147908836364746,0.8696937530517578
1789315800373000200,0.305000244140625,10.10712230834961,2.8745383682250973,1.4161702819824218
1789315800383034000,0.3150341796875,10.7390419090271,3.0137013397216794,0.9187748870849609
1789315800393068300,0.325068359375,10.582221700286865,2.7832594299316407,0.9165303230285644
1789315800403102200,0.335102294921875,10.19600704498291,2.7549779228210447,1.2440870376586914
1789315800413136100,0.34513623046875,9.627084875488281,3.079990798187256,1.18108960647583
1789315800423170300,0.35517041015625,9.125649265289306,3.270629105377197,1.3217489540100096
1789315800433204200,0.365204345703125,8.838045790863037,3.1298201202392577,1.1094131942749024
1789315800443238100,0.375238037109375,8.623016554260253,2.9411271018981933,0.7386112121582031
1789315800453272000,0.38527197265625,8.441955053710936,2.7639561790466307,0.48407764816284177
1789315800463306200,0.39530615234375,8.569147016906738,2.6219500930786133,0.730979694366455
1789315800473340200,0.405340087890625,8.793603422546386,2.808398547363281,1.0122983894348143
1789315800483374000,0.4153740234375,8.623465467071533,2.9659669441223144,0.8762778076171874
1789315800493408300,0.425408203125,8.630797709655761,2.7314848190307615,0.6558616172790527
1789315800503442200,0.435442138671875,9.125349990081787,2.335842994689941,0.47884033203125
1789315800513475000,0.44547509765625,9.749937348175049,2.104353621673584,0.3538929328918457
1789315800523509200,0.45550927734375,10.08737014465332,2.1594202598571774,0.366462491607666
1789315800533543200,0.465543212890625,10.126425559234619,2.2240637046813965,0.40970775909423823
1789315800543577000,0.4755771484375,10.021978511810302,2.2005706008911132,0.3458125022888183
1789315800553611300,0.485611328125,9.864709390258788,2.23468797454834,0.28535891036987304
1789315800563645200,0.495645263671875,9.740959091949462,2.269703173828125,0.28700492401123046
1789315800573679000,0.50567919921875,9.605387422943116,2.101809782409668,0.3290530906677246
1789315800583713300,0.51571337890625,9.549123683929443,1.8655320060729979,0.31528643112182614
1789315800593747200,0.525747314453125,9.715371061706543,1.8992004669189453,0.2885013000488281
1789315800603781000,0.535781005859375,9.896432562255859,2.281225269317627,0.30570962448120115
1789315800613815300,0.545815185546875,9.885658654785155,2.3391350219726563,0.4565443290710449
1789315800623849200,0.55584912109375,9.347262556457519,1.8026842124938964,1.5370774658203123
1789315800633883100,0.565883056640625,8.905083437347411,1.7350480155944823,0.6461351730346679
1789315800643917300,0.575917236328125,9.440037870788574,1.6807295654296874,-0.7037456504821777
1789315800653951200,0.585951171875,9.552415711212157,1.3748703033447265,0.4786906944274902
1789315800663985200,0.595985107421875,9.277082520294188,2.122759046936035,0.5734112976074218
1789315800674019300,0.606019287109375,8.777592198944092,2.6042928558349607,0.7396586753845215
1789315800684052200,0.61605224609375,8.449586571502685,2.410063246154785,0.850989052581787
1789315800694086400,0.62608642578125,9.328857131195068,2.2667104217529297,0.5594950004577637
1789315800704120000,0.6361201171875,9.95299557647705,2.2376807266235352,0.5234323379516601
1789315800714154200,0.646154296875,9.881618439483642,2.2116437835693357,0.48108489608764643
1789315800724188400,0.6561884765625,9.477746546936034,2.4633342330932617,0.5249287139892578
1789315800734222000,0.66622216796875,9.472808506011962,2.784755805969238,1.4417583122253417
1789315800744256300,0.67625634765625,8.814851962280272,2.5386019477844237,2.179621336364746
1789315800754290200,0.686290283203125,7.693467759704589,2.4660277099609376,1.3307272102355956
1789315800764324000,0.696323974609375,8.531737615966797,2.4193407775878906,0.7190086860656738
1789315800774358300,0.706358154296875,9.079860158538818,2.1525369300842283,1.4932336479187012
1789315800784392200,0.71639208984375,9.298630335235595,2.334795531463623,1.835454847717285
1789315800794426000,0.726426025390625,9.515006310272216,2.4693197372436524,1.6505027694702148
1789315800804460300,0.736460205078125,9.089885877990723,2.3870190551757813,1.1860276473999023
1789315800814494200,0.746494140625,8.873659540557862,2.1689970664978024,1.0411784469604493
1789315800824528100,0.756528076171875,8.975263473510742,2.046144593811035,0.9712976860046386
1789315800834562300,0.766562255859375,9.273341580200194,1.7896657409667969,0.8559270935058593
1789315800844596200,0.77659619140625,10.282048667144775,1.6098013412475585,0.45070846252441404
1789315800854630100,0.786630126953125,10.924442900085449,1.589001714324951,0.7149684707641601
1789315800864663000,0.7966630859375,10.91740993270874,1.2811971633911132,0.4471171600341797
1789315800874697200,0.806697265625,10.74457850036621,0.6120177993774414,0.2258031440734863
1789315800884731400,0.8167314453125,10.40669679107666,0.07392097625732422,0.4632780212402344
1789315800894765000,0.82676513671875,10.101585717010497,0.3520972816467285,0.48228199691772455
1789315800904799200,0.83679931640625,10.22114616241455,0.5496189186096191,0.8283937744140625
1789315800914833400,0.84683349609375,10.292523299407959,0.6893804405212401,1.0371382316589355
1789315800924867000,0.8568671875,9.9721491897583,1.605761125946045,1.8008885612487793
1789315800934900500,0.866900390625,6.641515405273437,1.655440810394287,3.152565036010742
1789315800944934700,0.8769345703125,6.211307294464111,1.424998900604248,2.4417864181518554
1789315800954968600,0.886968505859375,10.060285738372801,1.5294459480285643,1.2828431770324706
1789315800965002500,0.89700244140625,11.120168885803222,1.5471031852722168,2.062754367828369
1789315800975036700,0.90703662109375,10.019434672546387,1.995716721343994,2.8143840515136715
1789315800985070600,0.917070556640625,9.470713579559325,0.5955576629638671,2.902520600128174
1789315800995104500,0.9271044921875,10.345943923950195,-1.3826514587402343,1.8692729461669921
1789315801005138700,0.937138671875,11.146505104064941,-1.089212117767334,0.6429927833557129
1789315801015172600,0.947172607421875,11.698069311523437,-0.06643909606933593,0.7845499565124511
1789315801025206500,0.95720654296875,11.117176133728027,0.3066074501037597,1.5925930168151854
1789315801035240700,0.96724072265625,9.799018482208252,0.2609679809570312,1.7480664871215819
1789315801045273600,0.977273681640625,8.948777617645263,0.12240355987548827,1.62162271194458
1789315801055307500,0.9873076171875,10.188076251983642,0.9032125762939452,1.5848118614196776
1789315801065341700,0.997341796875,11.899032613372801,0.9603741409301757,1.8697218589782714
1789315801075375600,1.007375732421875,12.375029830932617,0.5337573326110839,2.638709504699707
1789315801085409500,1.017409423828125,12.1564092918396,0.37768531188964843,2.0834043571472165
1789315801095443500,1.027443359375,10.957063897705078,0.5895721588134766,1.9393033447265624
1789315801105477600,1.0374775390625,9.797671743774414,0.7502829452514648,2.2381296394348142
1789315801115511600,1.047511474609375,9.823858324432372,1.6506524070739745,2.0542250244140625
1789315801125545500,1.05754541015625,10.268282007598877,1.3757681289672852,2.080710880279541
1789315801135579600,1.06757958984375,11.17867718887329,1.3819032707214354,2.1535843933105467
1789315801145613600,1.077613525390625,11.203367393493652,1.8375497741699218,3.174412126159668
1789315801155647500,1.0876474609375,11.136629022216797,1.694496224975586,2.632724000549316
1789315801165681700,1.097681640625,11.58120234298706,0.7463923675537109,2.477699443054199
1789315801175715600,1.107715576171875,11.524489691162108,0.3769371238708496,3.1904233497619625
1789315801185749500,1.11774951171875,10.533589479064942,-0.8479963005065917,3.4440590881347655
1789315801195783700,1.12778369140625,9.619004444885253,-1.5744868667602538,4.246715194702148
1789315801205817600,1.137817626953125,9.194931475830078,-1.2394482719421387,4.185363777160644
1789315801215850500,1.1478505859375,8.697236805725097,-1.5150807380676268,4.281580756378173
1789315801225884700,1.157884765625,8.583212951660157,-0.9644143562316894,3.3550247138977047
1789315801235918600,1.167918701171875,8.28004716644287,-0.35090018081665036,3.8476317054748534
1789315801245952500,1.177952392578125,8.26179137878418,-0.5099649536132812,3.8654385803222655
1789315801255986700,1.187986572265625,7.605181573486328,-0.6260837341308594,4.147804738616943
1789315801266020600,1.1980205078125,7.128286530303955,-0.6331167015075683,4.489876300811767
1789315801276054500,1.208054443359375,7.486967866516113,-0.3000233955383301,4.4954128921508785
1789315801286088700,1.218088623046875,7.96775348739624,0.24765023422241209,3.8756139373779295
1789315801296122600,1.22812255859375,8.513631465911864,1.0899603057861327,3.248931652832031
1789315801306156500,1.238156494140625,8.755595471191405,1.5882535263061524,2.3891139816284177
1789315801316190500,1.2481904296875,8.466495620727539,2.555211721801758,-0.02454056701660156
1789315801326224600,1.258224609375,7.864054627990722,3.1835400199890134,0.30570962448120115
1789315801336258600,1.268258544921875,7.451054841613769,2.0676924087524413,2.7174188842773437
1789315801346292500,1.27829248046875,8.44719236984253,1.3148656242370604,3.4727895080566404
1789315801356326700,1.28832666015625,9.370755660247802,1.497872413635254,3.446303652191162
1789315801366360600,1.298360595703125,10.783933190155029,2.3077111251831055,3.7958570945739742
1789315801376394500,1.30839453125,9.102904349517821,2.1417630226135254,3.1771056030273437
1789315801386427600,1.318427734375,8.996960926055907,1.1987468437194824,3.612850305175781
1789315801396461600,1.328461669921875,8.992471797943114,1.3189058395385742,2.935291235351562
1789315801406495500,1.33849560546875,8.23575443572998,1.534832901763916,3.4433109001159665
1789315801416529700,1.34852978515625,7.5345526245117185,0.03202244720458984,4.448576322174072
1789315801426563600,1.3585634765625,7.934234664154053,-1.0347440299987793,5.305999791717529
1789315801436597500,1.368597412109375,9.024045332336426,-0.04115034103393554,4.6365211524963375
1789315801446631700,1.378631591796875,8.882937071990966,1.1716624374389648,3.5989340080261227
1789315801456665600,1.38866552734375,8.002319773864746,1.1258733306884765,3.200449069213867
1789315801466699500,1.398699462890625,7.5822870201110835,0.931494083404541,2.8995278480529785
1789315801476733700,1.408733642578125,7.851335431671142,1.0534487304687499,2.977788314819336
1789315801486767600,1.418767578125,8.53592746887207,1.0601824226379395,3.404554760742187
1789315801496801500,1.428801513671875,8.806921169281006,0.9305962577819824,3.7927147048950194
1789315801506835700,1.438835693359375,8.764424089813232,0.4086602958679199,4.054580511474609
1789315801516869600,1.44886962890625,8.871115701293945,0.5035305366516113,3.7038299682617186
1789315801526903600,1.458903564453125,8.703222309875487,0.5123591552734374,3.6851252677917476
1789315801536937700,1.468937744140625,8.379556172943115,0.26396073303222656,3.7017350418090817
1789315801546971600,1.4789716796875,8.628852420806885,0.14200608596801756,3.541473168182373
1789315801557005600,1.489005615234375,8.91899973449707,0.20979192047119138,3.755155666351318
1789315801567038500,1.49903857421875,9.051429013824462,0.3318962051391601,3.9062896461486813
1789315801577072600,1.50907275390625,9.247753549957276,0.6209960556030273,3.8230911384582518
1789315801587106800,1.51910693359375,9.182810829925536,0.9156324974060058,3.404554760742187
1789315801597140500,1.529140380859375,9.146149617004394,0.7704840217590332,3.162740393066406
1789315801607174700,1.539174560546875,9.407416873168945,0.7432499778747558,3.1856349464416502
1789315801617208600,1.54920849609375,9.716568162536621,0.7457938171386719,3.6782419380187985
1789315801627242500,1.559242431640625,10.101735354614258,0.4929062667846679,4.095132302093505
1789315801637276700,1.569276611328125,9.998635045623779,0.8825625869750976,4.039167838287353
1789315801647310600,1.579310546875,9.444826274108886,1.3961188430786131,3.7952585441589353
1789315801657344500,1.589344482421875,8.850465711975097,1.4932336479187012,3.231124777984619
1789315801667378700,1.599378662109375,8.44000976486206,1.4007576087951659,3.006369097137451
1789315801677412600,1.60941259765625,8.473528588104248,1.1254244178771973,3.05170929107666
1789315801687446500,1.619446533203125,8.587851717376708,0.7935282127380371,3.394977954101562
1789315801697480700,1.629480712890625,8.95057326889038,0.5386953735351562,3.873818286132812
1789315801707514600,1.6395146484375,9.408613973999023,0.256029940032959,4.083759844207764
1789315801717548500,1.649548583984375,9.694571434783935,-0.050427872467041016,4.332607179260254
1789315801727581400,1.65958154296875,9.682151513671874,-0.0010474632263183592,4.139425032806396
1789315801737615600,1.66961572265625,9.438092581939697,0.13631985702514648,3.748272336578369
1789315801747649800,1.67964990234375,9.056367054748534,0.09786299285888671,3.5136405738830563
1789315801757683500,1.689683349609375,9.02733735961914,-0.2292448089599609,3.4822166770935055
1789315801767717600,1.699717529296875,9.154080410003662,-0.5398924743652344,3.7708676147460936
1789315801777751800,1.709751708984375,9.351452409362793,-0.3603273498535156,4.084508032226562
1789315801787785500,1.719785400390625,9.35983211517334,-0.039055414581298825,4.084208757019042
1789315801797819600,1.729819580078125,9.306710765838622,-0.028431144714355466,3.745878134918213
1789315801807853800,1.739853759765625,9.118765935516358,-0.16699556579589842,3.5517981628417967
1789315801817887500,1.749887451171875,8.766967929077149,-0.1740285331726074,3.6318542808532714
1789315801827921700,1.759921630859375,8.661772693634033,-0.22744915771484372,3.649361880493164
1789315801837955800,1.769955810546875,8.687659999084472,-0.26276363220214843,3.406051136779785
1789315801847989500,1.779989501953125,8.620921627807617,-0.23732523956298826,3.1955110282897947
1789315801858023700,1.790023681640625,8.449736209106446,-0.6277297477722168,3.2505776664733883
1789315801868057600,1.8000576171875,8.758288948059082,-1.068711766052246,3.6674680305480956
1789315801878091500,1.810091552734375,9.300276348876952,-1.0142436782836914,4.134636629486084
1789315801888125700,1.820125732421875,9.491513206481933,-0.7314286071777343,4.199878624725342
1789315801898159600,1.83015966796875,9.42926396331787,-0.3950432739257812,3.855412860870361
1789315801908192500,1.840192626953125,8.873060990142822,-0.24226328048706053,3.40260947189331
1789315801918226400,1.850226318359375,8.549544490814208,-0.16549918975830077,3.416376131439209
1789315801928260600,1.860260498046875,8.4406083152771,-0.6958148574829102,3.6629789024353023
1789315801938295600,1.870295654296875,8.754398370361328,-1.3365630767822265,4.04739790649414
1789315801948329700,1.880329833984375,9.662399349975585,-1.1691185981750487,4.588936394500732
1789315801958363600,1.89036376953125,9.855731134033203,-0.678007982635498,4.845265609741211
1789315801968397600,1.9003974609375,8.775347634887694,-0.776319888305664,4.064606230926514
1789315801978431700,1.910431640625,8.285883032989501,-0.5737105728149414,3.7198411918640133
1789315801988465700,1.920465576171875,8.5417633354187,0.23313538665771483,3.793013980102539
1789315801998499600,1.93049951171875,8.569147016906738,0.16894085464477537,3.742286832427978
1789315802008533800,1.94053369140625,8.719233533477782,0.01840542526245117,3.7484219741821287
1789315802018567700,1.950567626953125,8.739284972381592,-0.056413376617431635,3.608959727478027
1789315802028601600,1.9606015625,8.630199159240723,0.03142389678955078,3.46036958694458
1789315802038635800,1.9706357421875,8.595183959960938,0.22310966720581055,3.186233496856689
1789315802048669700,1.980669677734375,8.74093098602295,-0.02483984222412109,3.3186627761840817
1789315802058703600,1.99070361328125,9.175179312133789,-0.43020811080932614,3.5691561248779293
1789315802068737800,2.00073779296875,9.489567917633057,-0.8213608070373535,3.450792780303955
1789315802078770700,2.010770751953125,9.83223803024292,-0.873434693145752,3.079242610168457
1789315802088804600,2.0208046875,9.307458953857422,-0.8289923248291016,2.3370400955200195
1789315802098838500,2.030838623046875,8.522160809326172,-0.888697728729248,2.0217536643981933
1789315802108872700,2.040872802734375,8.509142337799071,-1.018283893585205,1.9122189384460448
1789315802118906600,2.05090673828125,8.901043222045898,-0.8334814529418945,1.6398784996032714
1789315802128940500,2.0609404296875,8.987833032226561,-1.4336778816223144,0.7933785751342773
1789315802138974700,2.070974609375,8.994267449188232,-2.082656169128418,1.61533793258667
1789315802149008600,2.081008544921875,9.268852452087401,-2.044049667358398,2.627636322021484
1789315802159042600,2.09104248046875,8.460959029388427,-3.012803514099121,3.137451638031006
1789315802169076700,2.10107666015625,7.3928458137512205,-5.520729753112793,1.371428638458252
1789315802179110700,2.111110595703125,7.575553327941894,-6.18646745223999,1.0109516510009764
1789315802189144600,2.12114453125,7.962366533660888,-5.887192244720459,1.0263643241882323
1789315802199178800,2.1311787109375,7.4134958030700675,-6.712443629455566,1.25126964263916
1789315802209212700,2.141212646484375,6.46135173034668,-8.236352986145018,2.595164962005615
1789315802219246600,2.15124658203125,6.182127961730957,-9.562291793060302,2.7588685005187985
1789315802229280800,2.16128076171875,5.665429315948486,-11.30691661529541,1.1049240661621094
1789315802239314700,2.171314697265625,4.903474637603759,-12.003928573608398,0.5981015022277831
1789315802249348600,2.1813486328125,4.472667976379395,-12.583175737762451,0.2745850028991699
1789315802259381800,2.1913818359375,7.660248211669922,-12.715754654693603,2.0581156021118163
1789315802269415700,2.201415771484375,11.33130754470825,-10.468347483825683,4.982483292388916
1789315802279449600,2.21144970703125,10.908581314086913,-7.875875998687744,4.626944345855713
1789315802289483800,2.22148388671875,7.518242125701904,-6.899490634155273,2.4953566802978515
1789315802299517700,2.231517578125,3.528604334259033,-7.230937926483154,0.41973347854614257
1789315802309551600,2.241551513671875,0.8200140686035156,-6.964732629394531,0.21039047088623045
1789315802319585800,2.251585693359375,0.3640682899475097,-7.277026308441162,0.3253121505737305
1789315802329619700,2.26161962890625,0.5750573112487792,-8.5800705619812,0.3839700912475586
1789315802339653600,2.271653564453125,2.195632559967041,-9.111882605743407,2.3464672645568845
1789315802349687600,2.2816875,2.7226562004089354,-8.176946857452393,5.795464393615722
1789315802359721700,2.2917216796875,1.416619194793701,-7.98002377090454,6.696432405853271
1789315802369755600,2.301755615234375,-0.806995597076416,-8.51048907623291,6.410923857879638
1789315802379789600,2.31178955078125,-2.6391584175109863,-8.95042363128662,6.123769296264648
1789315802389823700,2.32182373046875,-3.031957127380371,-9.806949275207518,5.529558371734619
1789315802399857700,2.331857666015625,-1.3507786491394043,-9.475651620483397,7.28420891342163
1789315802409891600,2.3418916015625,1.0535983680725096,-7.637503295898437,9.947010072326659
1789315802419925800,2.35192578125,2.7980735527038574,-6.649296560668945,10.581772787475586
1789315802429959700,2.361959716796875,2.953995935821533,-6.427383994293213,9.457695108032226
1789315802439992600,2.37199267578125,2.360832474517822,-5.902156005096435,7.624484824371337
1789315802450026800,2.38202685546875,1.8028338500976562,-6.052990709686279,5.378125116729736
1789315802460060700,2.392060791015625,0.5499181938171387,-7.43100340270996,2.4378958404541016
1789315802470094600,2.402094482421875,-0.8792705596923828,-8.355165243530273,0.10384849700927734
1789315802480128800,2.412128662109375,-1.6039654747009275,-8.63798031463623,-1.4381670097351074
1789315802490162700,2.42216259765625,-1.887828009033203,-8.838494703674316,-1.230918928527832
1789315802500196600,2.432196533203125,0.2973299186706543,-8.97631093673706,1.2400468223571777
1789315802510230800,2.442230712890625,4.156782994842529,-8.461557579803467,3.9297827499389646
1789315802520264700,2.4522646484375,5.166687182617188,-7.724293106079101,4.402787215423584
1789315802530298600,2.462298583984375,5.340715715789795,-6.889464914703368,4.885667762756348
1789315802540332800,2.472332763671875,4.849754737854004,-7.1869444709777826,5.896619413757324
1789315802550366700,2.48236669921875,3.1200936759948728,-8.65114842376709,6.120327631378173
1789315802560400600,2.492400634765625,0.5761047744750977,-9.426869761657715,3.8358103347778316
1789315802570434600,2.5024345703125,-1.906383071899414,-9.386916521453857,3.076549133300781
1789315802580468700,2.51246875,-2.0501848091125487,-8.687659999084472,2.4908675521850583
1789315802590502700,2.522502685546875,-2.0688895095825193,-9.291747005462646,2.0573674140930174
1789315802600536600,2.53253662109375,-2.409315058135986,-9.92217023010254,3.1721675621032714
1789315802610569700,2.54256982421875,-0.47704468078613277,-9.035118515014648,4.679167869567871
1789315802620604000,2.55260400390625,1.446696353149414,-8.946084140777588,5.691765534210205
1789315802630637600,2.562637451171875,3.8817490791320797,-6.64630380859375,6.795043586730957
1789315802640671700,2.572671630859375,1.51942022857666,-9.032574675750732,4.991012635803222
1789315802650705700,2.58270556640625,0.35179800643920894,-8.335413079833984,4.758176524353027
1789315802660739600,2.592739501953125,-3.9085342102050777,-10.524611222839354,2.967463320159912
1789315802670773800,2.602773681640625,-7.090727491760253,-10.475380451202392,1.3054384552001952
1789315802680807700,2.6128076171875,-6.9059250511169425,-8.987234481811523,-0.43364977569580077
1789315802690841600,2.622841552734375,-7.033416289520264,-7.242310384368896,-0.017357962036132813
1789315802700875800,2.632875732421875,-5.163694430541992,-8.308029398345946,1.553387964630127
1789315802710909700,2.64290966796875,-3.2978631492614743,-10.458321764373778,0.6866869636535644
1789315802720943600,2.652943603515625,-1.3555670524597168,-11.45954697113037,2.0869956596374513
1789315802730977800,2.662977783203125,-0.05237316131591797,-12.504316720581054,3.896263926696777
1789315802741011700,2.67301171875,-0.6233902572631835,-14.601338099670409,3.8570588745117185
1789315802751045600,2.683045654296875,1.3165116378784179,-14.69665725326538,3.6641760032653807
1789315802761079800,2.693079833984375,2.9562404998779295,-12.967744379425048,3.0193875686645506
1789315802771113700,2.70311376953125,4.116979392242431,-10.2655885307312,2.0196587379455564
1789315802781147000,2.71314697265625,4.987271695709228,-9.095272831726074,0.09711480484008789
1789315802791180500,2.7231806640625,4.160673572540283,-9.112331518554686,-0.9006687370300293
1789315802801214700,2.733214599609375,4.506486074829101,-9.267804988861084,-0.07826046676635742
1789315802811249000,2.743248779296875,3.480869938659668,-9.83134020462036,2.1095909378051756
1789315802821282600,2.753282470703125,2.82186593170166,-10.861744744110107,3.5028666664123533
1789315802831316700,2.763316650390625,2.340481760406494,-10.082731378936767,4.423437204742432
1789315802841351000,2.773350830078125,3.427150038909912,-9.954342314910889,4.5072342628479
1789315802851384600,2.783384521484375,0.9109937316894531,-10.842142218017578,3.4687492927551267
1789315802861418800,2.793418701171875,-0.0026934768676757813,-10.68711766052246,3.5543420021057126
1789315802871452700,2.80345263671875,0.6992565223693847,-10.786776304626464,3.0769980461120605
1789315802881486600,2.813486572265625,0.5746083984375,-9.465326625823973,3.2876877922058103
1789315802891520800,2.823520751953125,0.4975450325012207,-8.537423844909668,3.4522891563415525
1789315802901554700,2.8335546875,0.03441664886474609,-7.480982362365722,4.029591031646729
1789315802911588600,2.843588623046875,-0.7140706451416016,-7.473201206970215,4.2785880043029785
1789315802921622800,2.853622802734375,0.21697452545166016,-11.031284149169922,2.1712416305541993
1789315802931655700,2.86365576171875,0.3642179275512695,-14.486865332794189,1.456871710205078
1789315802941689600,2.873689697265625,-1.388636962890625,-13.694833496093748,2.8284499862670898
1789315802951723500,2.8837236328125,-2.9508535461425778,-10.926537826538086,4.115782291412353
1789315802961756700,2.893756591796875,-2.9798832412719727,-9.858424610900878,4.790498246765137
1789315802971790600,2.90379052734375,-2.337189733123779,-9.073425741577148,4.144961624145507
1789315802981824500,2.913824462890625,-1.1613374427795409,-11.492766519165038,3.984400475311279
1789315802991858400,2.9238583984375,0.07945756759643555,-13.978845668029784,4.88387211151123
1789315803001892600,2.933892578125,-0.07796119155883789,-15.494824231719969,6.875398979949951
1789315803011926500,2.943926513671875,-2.1980267616271973,-15.710302381134031,10.096797313690185
1789315803021960400,2.95396044921875,-1.7254712089538573,-15.087959587097167,9.169493083190918
1789315803031994600,2.96399462890625,-2.9040169761657713,-12.62163260192871,7.88500389251709
1789315803042028500,2.974028564453125,-3.8798037902832028,-10.232518620300292,8.060678439331054
1789315803052062500,2.9840625,-4.899135147094726,-2.7817630538940428,12.0031803855896
1789315803062096600,2.9940966796875,0.33623569564819333,-1.5732897659301757,12.28958675918579
1789315803072130600,3.004130615234375,3.299958075714111,-9.860669174957275,4.075529776000976
1789315803082164500,3.01416455078125,7.007080071258544,-9.928006096649169,-6.420051751708984
1789315803092198700,3.02419873046875,5.507112731170654,-9.288454978179931,-10.57219598083496
1789315803102232600,3.034232666015625,1.3952210174560546,-8.93156929321289,-10.127772297668457
1789315803112266500,3.0442666015625,-1.1978490180969237,-5.925200196075439,-5.298667549133301
1789315803122300700,3.05430078125,-1.0335469291687012,-4.211400720214844,-1.6138415565490722
1789315803132333600,3.06433349609375,-2.421585341644287,-4.253598524475097,1.0476128639221192
1789315803142367500,3.074367431640625,-4.088997160339355,-3.777601306915283,2.9052140769958497
1789315803152401700,3.084401611328125,-4.698171845245361,-4.862324296569824,1.2375029830932616
1789315803162435600,3.094435546875,-0.9406219772338866,-7.686135517120361,3.2007483444213864
1789315803172469500,3.104469482421875,0.9795277542114257,-7.237821256256103,5.755361515808105
1789315803182503700,3.114503662109375,0.750133307647705,-8.50375538406372,7.136815873718262
1789315803192537600,3.12453759765625,1.9770120208740234,-7.9843632614135736,6.742969700622559
1789315803202571500,3.134571533203125,2.918980736541748,-5.29896682434082,4.994005387878418
1789315803212605700,3.144605712890625,0.1304839904785156,-6.978499288940429,3.3580174659729
1789315803222639600,3.1546396484375,3.94549469833374,-7.46347476272583,2.475005966186523
1789315803232673500,3.164673583984375,7.388356685638428,-2.8196213676452637,2.3472154525756834
1789315803242707500,3.17470751953125,-1.1686696853637695,4.563946914672851,-2.027739168548584
1789315803252741600,3.18474169921875,-5.323058478546142,4.146009087371826,1.1662754837036131
1789315803262775600,3.194775634765625,-3.53683440246582,1.8694225837707519,3.998017497253418
1789315803272809500,3.2048095703125,-1.8453309295654297,-3.630208267211914,2.8592753326416016
1789315803282843600,3.21484375,3.261052298736572,-9.747243871307372,0.003890577697753906
1789315803292877600,3.224877685546875,9.65297218093872,-17.654094853973387,3.2595559226989743
1789315803302910500,3.234910400390625,5.868786819458007,-19.89312231903076,9.576058452606201
1789315803312944600,3.244944580078125,-8.895656268310546,-14.49210264892578,9.489268642425536
1789315803322978600,3.254978515625,-15.31570802001953,-14.196269106292723,6.231508370971679
1789315803333012500,3.265012451171875,-12.990938208007812,-17.832313240051267,8.955960222625732
1789315803343046700,3.275046630859375,-3.3891420875549314,-17.217751601409912,11.780818906402587
1789315803353080600,3.28508056640625,-2.568230193328857,-9.023596419525147,10.02946039199829
1789315803363114500,3.295114501953125,-10.92414362487793,-0.7294833183288574,4.587440018463134
1789315803373148700,3.305148681640625,-9.351602046966553,-3.1377509132385253,3.4329859054565426
1789315803383182600,3.3151826171875,-2.0624550926208496,-9.680804775238036,2.8508956268310546
1789315803393216500,3.325216552734375,1.1581950531005858,-13.857489571380615,2.6536732650756836
1789315803403250700,3.335250732421875,2.1607669982910154,-15.819238556671142,6.049848320007324
1789315803413284600,3.34528466796875,1.719934617614746,-16.009128675842284,9.968108974456786
1789315803423318500,3.355318603515625,0.06509235763549805,-15.80068349380493,8.729857803344727
1789315803433352700,3.365352783203125,-0.09651625442504883,-15.489886190795897,4.251353960418701
1789315803443386600,3.37538671875,-0.43065702362060543,-13.56629479446411,2.4124574478149414
1789315803453420500,3.385420654296875,-0.1375169578552246,-12.186187174987792,2.0994155807495116
1789315803463454500,3.395454345703125,-0.010324994659423827,-9.297582872009277,2.6741736167907715
1789315803473488600,3.405488525390625,-0.4860229370117187,-7.04149672012329,3.4949358734130858
1789315803483521800,3.415521728515625,-1.9859902770996092,-7.054215916442871,3.286789966583252
1789315803493555500,3.425555419921875,-1.0862193656921386,-10.377367820739746,2.306065111541748
1789315803503589600,3.435589599609375,-0.13542203140258788,-11.265317361450194,2.664746447753906
1789315803513623800,3.445623779296875,-1.9119196632385254,-10.950928755950928,1.301248602294922
1789315803523657500,3.455657470703125,-1.4772224243164063,-9.766397484588623,-1.373822840118408
1789315803533691600,3.465691650390625,-1.3204022155761719,-7.452551217651367,-3.7461774101257324
1789315803543725600,3.4757255859375,-2.255637239074707,-6.637624827575683,-4.194940583801269
1789315803553759500,3.485759521484375,0.10998363876342773,-5.566668497467041,-1.6630723281860351
1789315803563793700,3.495793701171875,4.76266565246582,-5.417779081726074,2.4555530776977537
1789315803573827600,3.50582763671875,4.816535189819335,-8.374318856811524,4.659864618682861
1789315803583861500,3.515861572265625,2.430563597869873,-11.620557032775878,3.719541916656494
1789315803593895700,3.525895751953125,0.0326209976196289,-12.448501894378662,2.578405550384521
1789315803603929600,3.5359296875,-1.1113584831237793,-12.262053440093993,1.905784521484375
1789315803613963500,3.545963623046875,-1.126920793914795,-11.719168213653564,1.3564648780822752
1789315803623997700,3.555997802734375,-0.5550058723449707,-9.744400756835937,0.8690952026367187
1789315803634031600,3.566031494140625,-0.04908113403320312,-8.345738074493408,1.1761515655517578
1789315803644065500,3.5760654296875,0.9305962577819824,-7.9384245170593255,3.1393969268798827
1789315803654098400,3.586098388671875,1.066916114807129,-8.104372619628906,4.276193802642822
1789315803664132600,3.596132568359375,1.5574281799316405,-8.65713392791748,4.1852141395568845
1789315803674166800,3.606166748046875,2.2514473861694335,-9.012972149658202,3.7410897315979
1789315803684200400,3.616200439453125,2.5513211441040036,-9.048436261749266,3.4680011047363277
1789315803694234600,3.626234619140625,2.4115596221923825,-8.527697400665282,3.215113554382324
1789315803704268800,3.636268798828125,1.9047370582580565,-8.174253380584716,3.0843302886962887
1789315803714302500,3.646302490234375,1.8975544532775879,-8.01818135986328,3.2986113372802732
1789315803724336600,3.656336669921875,2.250998473358154,-7.931690824890136,3.520224628448486
1789315803734370800,3.666370849609375,2.6485855865478514,-8.569147016906738,3.7002386657714843
1789315803744404500,3.676404541015625,2.7826608795166012,-9.291148455047606,4.039766388702392
1789315803754438700,3.686438720703125,2.728641704559326,-9.437643669128418,4.228609044647216
1789315803764472600,3.69647265625,2.530072604370117,-9.294440482330321,4.192995294952392
1789315803774506500,3.706506591796875,2.3924060089111325,-9.105298551177977,4.087650421905518
1789315803784540700,3.716540771484375,2.3425766868591307,-8.751555255889892,4.049193557739257
1789315803794574600,3.72657470703125,2.2001216880798338,-8.422352527618408,4.0143279960632325
1789315803804608500,3.7366083984375,2.0753239265441894,-8.199242860412598,3.9502831016540525
1789315803814642700,3.746642578125,1.9874866531372068,-8.120533480834961,3.9624037475585934
1789315803824676600,3.756676513671875,1.9017443061828612,-8.163479473114013,3.935319341278076
1789315803834709800,3.766709716796875,1.9009961181640624,-8.168716789245606,3.9546225921630858
1789315803844743400,3.776743408203125,1.8984522789001463,-8.237849362182617,3.8660371307373045
1789315803854777600,3.786777587890625,1.8599954147338866,-8.392574644470214,3.801244048309326
1789315803864811800,3.796811767578125,1.9194015434265135,-8.378807984924316,3.883544730377197
1789315803874845400,3.806845458984375,2.0311808334350583,-8.26179137878418,3.9106291366577146
1789315803884879600,3.816879638671875,1.960551884460449,-8.255805874633788,3.916315365600586
1789315803894913800,3.826913818359375,2.006490628814697,-8.473378950500488,3.887584945678711
1789315803904947500,3.836947509765625,2.098517755126953,-8.857797954559326,4.087201509094238
1789315803914981600,3.846981689453125,2.095525003051758,-9.106046739196778,4.242226066589355
1789315803925015800,3.857015869140625,2.11961665725708,-9.215132552337646,4.287865535736084
1789315803935049700,3.8670498046875,1.9683330398559569,-9.387515071868895,4.274398151397705
1789315803945084000,3.877083984375,1.8484733192443847,-9.527426231384277,4.330661890411377
1789315803955117800,3.887117919921875,1.8781015647888182,-9.680206224822998,4.248660483551025
1789315803965151700,3.89715185546875,1.8222867385864256,-9.772083713531494,4.1015667190551754
1789315803975186000,3.90718603515625,1.7366940292358397,-9.696516723632811,3.9845501129150387
1789315803985219800,3.9172197265625,1.7521067024230956,-9.411457088470458,3.8289270050048825
1789315803995253800,3.927253662109375,1.891718586730957,-9.003245705413818,3.6930560607910152
1789315804005288000,3.937287841796875,2.0437503921508786,-8.687211086273193,3.580678220367431
1789315804015320800,3.94732080078125,1.9595044212341308,-8.572439044189453,3.564367721557617
1789315804025354800,3.957354736328125,1.8439841911315917,-8.579472011566162,3.6043209617614744
1789315804035388700,3.967388671875,1.8992004669189453,-8.613888660430908,3.733009300994873
1789315804045422800,3.9774228515625,2.0088848304748534,-8.690802388763426,3.8757635749816894
1789315804055456800,3.987456787109375,2.02369895324707,-8.831312098693846,3.946093248748779
1789315804065490700,3.99749072265625,1.9135656768798828,-8.915408432006835,4.0069957534790035
1789315804075524900,4.00752490234375,1.7051204948425291,-8.945036677551268,3.99667075881958
1789315804085558800,4.017558837890625,1.5396213050842285,-8.966883767700194,3.962104472351074
1789315804095592700,4.0275927734375,1.4302362167358398,-8.939500086212158,3.9104794990539546
1789315804105627000,4.037626953125,1.3491326354980469,-8.914061693572998,3.8512230079650878
1789315804115660800,4.047660888671875,1.3195043899536132,-8.872911352539061,3.777601306915283
1789315804125694700,4.05769482421875,1.3724761016845701,-8.811559934997558,3.7487212493896482
1789315804135729000,4.06772900390625,1.498470964050293,-8.769511768341063,3.691559684753418
1789315804145762800,4.0777626953125,1.6240169136047362,-8.785822267150879,3.6381390602111816
1789315804155796700,4.087796630859375,1.6117466300964354,-8.783876978302002,3.5953427055358884
1789315804165831000,4.097830810546875,1.5191209533691405,-8.84208600616455,3.5901053894042967
1789315804175864600,4.107864501953125,1.4719851081848143,-8.913762418365478,3.6152445068359373
1789315804185897700,4.117897705078125,1.4513351188659667,-8.936357696533202,3.643077101135254
1789315804195932000,4.127931884765625,1.5108908851623535,-8.939350448608398,3.6605847007751464
1789315804205965800,4.1379658203125,1.6244658264160154,-8.962544277191162,3.722684306335449
1789315804215999700,4.147999755859375,1.702726293182373,-8.983493541717529,3.7879263015747067
1789315804226033700,4.15803369140625,1.6648679794311523,-9.007435558319091,3.8230911384582518
1789315804236067800,4.16806787109375,1.6106991668701172,-9.04050546875,3.8518215583801267
1789315804246101800,4.178101806640625,1.4502876556396485,-9.036165978240966,3.84314257736206
1789315804256135700,4.1881357421875,1.3166612754821776,-8.967931230926514,3.77326181640625
1789315804266169900,4.198169921875,1.3844471099853515,-8.956858048248291,3.5782840187072753
1789315804276203800,4.208203857421875,1.5062521194458007,-9.024643882751464,3.3563714523315427
1789315804286237700,4.21823779296875,1.5077484954833984,-9.063100746917724,3.214515003967285
1789315804296272000,4.22827197265625,1.4142249931335449,-9.10993731689453,3.2414497726440428
1789315804306305800,4.238305908203125,1.4092869522094726,-9.137171360778808,3.3583167411804196
1789315804316339700,4.248339599609375,1.5192705909729003,-9.197624952697753,3.3303345092773435
1789315804326374000,4.258373779296875,1.6084546028137205,-9.281272373199462,3.3174656753540037
1789315804336407800,4.26840771484375,1.576282518005371,-9.25044702682495,3.309385244750976
1789315804346441700,4.278441650390625,1.6147393821716307,-9.15437968521118,3.4011130958557128
1789315804356476000,4.288475830078125,1.471536195373535,-9.039158730316162,3.493589134979248
1789315804366508800,4.2985087890625,1.1896189498901366,-8.958504061889649,3.6016274848937986
1789315804376542700,4.308542724609375,1.0537480056762694,-8.905382712554932,3.7574002304077148
1789315804386577000,4.318576904296875,1.0797849487304687,-8.879645044708251,3.836408885192871
1789315804396610800,4.32861083984375,1.09819037399292,-8.860192156219481,3.838952724456787
1789315804406644700,4.338644775390625,1.1610381675720214,-8.927080165100097,3.7939118057250973
1789315804416679000,4.348678955078125,1.361103643798828,-8.986336656188964,3.67090969543457
1789315804426712800,4.358712890625,1.5887024391174316,-8.981099340057373,3.508253620147705
1789315804436746800,4.368746826171875,1.839943975830078,-8.967033405303955,3.4784757369995116
1789315804446781000,4.378781005859375,1.8330606460571288,-8.824877681732177,3.5179800643920895
1789315804456814800,4.38881494140625,1.6922516609191893,-8.749161054229736,3.510049271392822
1789315804466848800,4.398848876953125,1.4859014053344726,-8.817994351959229,3.5435680946350097
1789315804476882700,4.408882568359375,1.2247837867736815,-8.92543415145874,3.485209429168701
1789315804486916900,4.418916748046875,1.1436802055358886,-9.029282648468017,3.2855928657531734
1789315804496950800,4.42895068359375,1.204732347869873,-9.234435803222656,2.929754644012451
1789315804506984700,4.438984619140625,1.301248602294922,-9.448866489410399,2.6445453712463376
1789315804517019000,4.449018798828125,1.435174257659912,-9.624989949035644,2.5782559127807616
1789315804527052800,4.459052734375,1.473481484222412,-9.55091933517456,2.5577555610656737
1789315804537086700,4.469086669921875,1.4209586853027343,-9.319280324554443,2.6595091316223143
1789315804547119900,4.479119873046875,1.3778630554199218,-9.161711927795409,2.888753940582275
1789315804557153800,4.48915380859375,1.1429320175170898,-9.06549494857788,3.2097266006469725
1789315804567187700,4.499187744140625,0.8170213165283202,-9.07192936553955,3.3625065940856933
1789315804577222000,4.509221923828125,0.5111620544433594,-9.067739512634278,3.4153286682128905
1789315804587255800,4.519255859375,0.48078562088012694,-9.022848231506346,3.354875076293945
1789315804597289700,4.529289794921875,0.6672340751647949,-8.96972688217163,3.244592162322998
1789315804607324000,4.539323974609375,0.9205705383300781,-9.030629386901856,3.0940567329406736
1789315804617357800,4.54935791015625,1.0631751747131346,-9.14884309387207,3.0096611244201656
1789315804627391700,4.559391845703125,1.113453409576416,-9.119065210723877,3.1349077987670895
1789315804637426000,4.569426025390625,0.9433154541015625,-9.100510147857666,3.207930949401855
1789315804647459800,4.5794599609375,0.6443395217895508,-9.226804285430907,3.225887461853027
1789315804657493800,4.58949365234375,0.3342904067993164,-9.407865785980224,3.1624411178588865
1789315804667528000,4.59952783203125,0.16998831787109375,-9.525480942535399,3.0168437294006347
1789315804677561900,4.609561767578125,0.16415245132446288,-9.629329439544676,2.899827123260498
1789315804687595800,4.619595703125,0.21353286056518553,-9.717765263366699,2.8297967247009277
1789315804697629700,4.629629638671875,0.3904045082092285,-9.53191535949707,2.7965771766662595
1789315804707664000,4.639663818359375,0.36915596847534177,-9.316736485290527,2.7207109115600585
1789315804717697800,4.64969775390625,0.31917700881958005,-9.297433234405517,2.390161444854736
1789315804727730700,4.659730712890625,0.42377369384765623,-9.271246653747559,2.305316923522949
1789315804737764900,4.669764892578125,0.35359365768432616,-9.313893370819091,2.357091534423828
1789315804747799000,4.679799072265625,0.23433248748779295,-9.341576327514648,2.524386375427246
1789315804757832700,4.689832763671875,0.13392565536499024,-9.292345555877684,2.7138275817871094
1789315804767867000,4.699866943359375,-0.049829322052001954,-9.277082520294188,2.807201446533203
1789315804777900800,4.70990087890625,-0.011073182678222656,-9.418490055847167,2.909254292297363
1789315804787934700,4.719934814453125,0.22385785522460935,-9.733327574157714,3.004573445892334
1789315804797969000,4.729968994140625,0.2813186950683594,-9.975141941833495,3.12847338180542
1789315804808002800,4.7400029296875,0.13482348098754882,-9.922768780517577,3.1356559867858884
1789315804818036700,4.75003662109375,0.03980360260009765,-9.72390040512085,3.193416101837158
1789315804828071000,4.76007080078125,-0.13901333389282225,-9.580697218322753,3.16663097076416
1789315804838104800,4.770104736328125,-0.06584054565429687,-9.47445451965332,3.0544027679443357
1789315804848138800,4.780138671875,0.05716156463623046,-9.35249987258911,2.945765867614746
1789315804858173000,4.7901728515625,0.02498947982788086,-9.4113074508667,2.964919480895996
1789315804868206800,4.800206787109375,-0.11537059249877929,-9.495104508972167,3.0756513076782226
1789315804878240800,4.81024072265625,-0.3028665100097656,-9.428515775299072,3.095852384185791
1789315804888275000,4.82027490234375,-0.31319150466918944,-9.358335739135741,2.912097406768799
1789315804898308900,4.830308837890625,-0.27518355331420896,-9.457246195220947,2.796876451873779
1789315804908342800,4.8403427734375,-0.3703530693054199,-9.701754039764404,2.6632500717163086
1789315804918375700,4.850375732421875,-0.3425204750061035,-9.916783276367187,2.405125205230713
1789315804928409900,4.860409912109375,-0.3124433166503906,-10.063877040863037,2.13248549118042
1789315804938444300,4.8704443359375,-0.34281975021362304,-10.04232922592163,2.025644242095947
1789315804948478200,4.880478271484375,-0.30301614761352536,-9.958681805419921,1.9524714538574217
1789315804958512400,4.890512451171875,-0.25004443588256836,-9.977536143493651,1.9449895736694334
1789315804968546300,4.90054638671875,-0.27578210372924805,-10.133458526611328,1.9418471839904785
1789315804978580200,4.910580322265625,-0.3724479957580566,-10.270975484466552,2.06200617980957
1789315804988614400,4.920614501953125,-0.5641337661743163,-10.226982028961181,2.355295883178711
1789315804998648300,4.9306484375,-0.7266402038574218,-10.014646269226073,2.68120658416748
1789315805008682200,4.94068212890625,-0.9638158058166504,-10.120290417480469,2.8941408943176268
1789315805018716400,4.95071630859375,-1.1412860038757324,-10.479271028900145,3.014599165344238
1789315805028750300,4.960750244140625,-1.0917559570312498,-10.951078393554686,2.9665654945373534
1789315805038784300,4.9707841796875,-1.0809820495605469,-11.31350066986084,2.8911481422424314
1789315805048818400,4.980818359375,-1.206079086303711,-11.221323905944823,2.8010663047790527
1789315805058852000,4.99085205078125,-1.2464812393188476,-10.466402194976807,2.6514287010192867
1789315805068886300,5.00088623046875,-1.1754033775329589,-9.390657461547852,2.465578797149658
1789315805078920400,5.01092041015625,-1.0423755477905272,-8.809165733337402,2.094627177429199
1789315805088953300,5.020953369140625,-0.8090905235290526,-8.902988510894774,1.5575778175354003
1789315805098987300,5.0309873046875,-0.7012018112182616,-8.908674739837647,1.3804068946838377
1789315805109021400,5.041021484375,-0.8363245674133301,-8.57393542022705,1.5804723709106445
1789315805119055400,5.051055419921875,-1.0289081634521484,-8.272565286254883,1.686116519165039
1789315805129089300,5.06108935546875,-0.9693523971557617,-7.915978876495361,1.7726070541381835
1789315805139123200,5.071123291015625,-0.975487538909912,-7.716511950683593,1.824680940246582
1789315805149157400,5.081157470703125,-1.29601128616333,-7.67401487121582,2.0383634384155274
1789315805159191300,5.09119140625,-1.4139257179260254,-7.33553461151123,2.5845406921386718
1789315805169225200,5.10122509765625,-1.7316063507080077,-7.132925296020507,2.7883471084594724
1789315805179259400,5.11125927734375,-2.0880431228637693,-7.260266896820068,2.9180829109191895
1789315805189293300,5.121293212890625,-2.326266188049316,-7.5971011428833,2.8483517875671387
1789315805199327200,5.1313271484375,-2.3536498695373536,-8.418611587524413,2.650231600189209
1789315805209361400,5.141361328125,-2.222268053436279,-9.382577030944823,2.0395605392456053
1789315805219395300,5.151395263671875,-2.1710919929504393,-9.867402867126465,1.3380594528198242
1789315805229429200,5.16142919921875,-2.002151138305664,-9.661052611541747,1.4867992309570313
1789315805239463400,5.17146337890625,-1.7197849800109861,-9.464877713012696,1.399410870361328
1789315805249497300,5.181497314453125,-1.3667898727416992,-9.97244846496582,0.6931213806152343
1789315805259531300,5.19153125,-1.1150994232177733,-10.758345159912109,0.5235819755554199
1789315805269565400,5.2015654296875,-1.1686696853637695,-10.63683942565918,1.064970825958252
1789315805279598300,5.211598388671875,-1.4143746307373046,-9.758167416381836,1.1517606361389159
1789315805289632300,5.22163232421875,-2.044797855377197,-9.044096771240234,0.7104793426513671
1789315805299666400,5.23166650390625,-2.216581824493408,-8.834155213165282,0.3564367721557617
1789315805309700400,5.241700439453125,-2.0274398933410644,-9.45560018157959,-0.09726444244384765
1789315805319734300,5.251734375,-1.8605939651489256,-10.28593924484253,0.222810391998291
1789315805329768400,5.2617685546875,-1.6992846282958984,-10.82762737045288,0.6964134078979491
1789315805339802400,5.27180224609375,-1.6499042190551756,-11.153687709045409,0.42871173477172847
1789315805349836300,5.281836181640625,-1.7738041549682617,-11.29359886856079,0.07616554031372069
1789315805359870200,5.2918701171875,-1.4215572357177733,-11.484835726165771,0.3708019821166992
1789315805369904400,5.301904296875,-0.9359832115173339,-11.904419567108153,0.9600748657226562
1789315805379938300,5.311938232421875,-0.5392939239501953,-12.307543271636963,0.9777321029663085
1789315805389972200,5.32197216796875,-0.5446808776855468,-12.517933742523192,0.509516040802002
1789315805400006400,5.33200634765625,-1.108365731048584,-12.595595658874512,-0.19228432083129882
1789315805410040300,5.342040283203125,-1.8418892646789549,-12.14922668685913,-0.8071452346801757
1789315805420074200,5.35207421875,-2.0772692153930663,-11.303923863220215,-1.1993453941345213
1789315805430108400,5.3621083984375,-1.833509558868408,-10.754155307006835,-1.1902175003051758
1789315805440142300,5.372142333984375,-1.0534487304687499,-10.449642783355712,-1.1481693336486816
1789315805450176300,5.38217626953125,-0.39369653549194333,-10.575637645721434,-1.1487678840637205
1789315805460210400,5.39221044921875,0.16609774017333984,-11.259182219696044,-0.8693944778442382
1789315805470243300,5.402243408203125,0.5198410354614258,-11.85608662109375,-0.5310638557434082
1789315805480277200,5.41227734375,0.426467170715332,-11.920730065917969,-0.3389291725158691
1789315805490311400,5.4223115234375,0.429011009979248,-11.804162372589111,-0.46582186050415036
1789315805500345300,5.432345458984375,0.7369651985168456,-11.307964078521728,-0.2998737579345703
1789315805510379300,5.442379150390625,0.9130886581420898,-10.389189191436767,-0.19617489852905273
1789315805520413400,5.452413330078125,1.3979144943237305,-9.622146834564209,-0.2952349922180176
1789315805530447400,5.462447265625,3.255366069793701,-7.255179218292236,-0.4664204109191894
1789315805540481300,5.472481201171875,-1.753004528045654,-6.4831988204956055,-0.44592005920410155
1789315805550515500,5.482515380859375,-2.925864066314697,-9.602544308471678,-0.6943184814453125
1789315805560549400,5.49254931640625,-0.7650970680236816,-11.15338843383789,-0.5395931991577149
1789315805570583300,5.502583251953125,4.379144474029541,-12.325050871276854,-0.3887584945678711
1789315805580617200,5.5126171875,5.147533569335937,-14.175170204162598,-0.852335791015625
1789315805590651400,5.5226513671875,3.4024598342895507,-15.059079529571532,-1.1041758781433104
1789315805600685300,5.532685302734375,2.082656169128418,-14.375534955596923,-1.204732347869873
1789315805610719200,5.54271923828125,1.211765315246582,-11.592574800872802,-1.748665037536621
1789315805620753400,5.55275341796875,0.7149684707641601,-7.923161481475829,-2.195482922363281
1789315805630787300,5.562787353515625,-0.0613514175415039,-7.088333290100097,-1.384746385192871
1789315805640821200,5.5728212890625,0.00029927520751953123,-9.259126007843017,-0.8078934226989746
1789315805650855400,5.58285546875,3.2320226036071777,-7.8158713195800775,-1.3762170417785644
1789315805660888300,5.592888427734375,4.180425736236572,-7.0835448867797846,-2.4111107093811035
1789315805670922200,5.602922119140625,6.270563785552978,-11.302427487182616,-1.5185224029541016
1789315805680956400,5.612956298828125,6.798185976409911,-10.129567948913573,-2.0699369728088377
1789315805690990300,5.622990234375,6.406584367370605,-8.566752815246582,-2.953397385406494
1789315805701024300,5.633024169921875,4.727949728393554,-9.740959091949462,-2.343624150085449
1789315805711058400,5.643058349609375,3.574393441009521,-9.266009337615966,-2.6131214744567868
1789315805721092400,5.65309228515625,1.4622586639404296,-10.02302597503662,-1.6361375595092773
1789315805731126300,5.663126220703125,0.8197147933959961,-9.171588009643553,-0.6865373260498047
1789315805741160400,5.673160400390625,1.4845546669006346,-8.629301333618164,-0.17956512451171874
1789315805751194000,5.683194091796875,1.3093290328979492,-7.742997806549072,-0.19797054977416992
1789315805761228300,5.693228271484375,0.7766191635131835,-7.749132948303222,0.05027823486328125
1789315805771262500,5.703262451171875,0.8880991783142089,-7.506121479797363,-0.15397709426879883
1789315805781296000,5.713296142578125,1.7133505630493162,-7.4034700836181635,-0.7695861961364746
1789315805791330300,5.723330322265625,2.0298340950012204,-7.063044535064697,-1.3744213905334473
1789315805801364500,5.733364501953125,1.619677423095703,-6.810755535125732,-1.7057190452575683
1789315805811398100,5.743398193359375,1.5918448287963867,-7.254879943084716,-2.20251588973999
1789315805821432300,5.753432373046875,1.2318167541503906,-7.550414210510254,-2.392256371307373
1789315805831466200,5.76346630859375,1.3410522048950195,-8.071452346801758,-2.070385885620117
1789315805841500200,5.773500244140625,1.4867992309570313,-8.473977500915527,-1.281945351409912
1789315805851533300,5.783533203125,1.5851111366271973,-8.251167108917237,-0.5521627578735351
1789315805861567200,5.793567138671875,2.2662615089416502,-7.547720733642578,-0.3842693664550781
1789315805871601400,5.803601318359375,3.122637515258789,-7.381622993469238,-0.9313444458007812
1789315805881635000,5.813635009765625,3.4268507637023924,-6.9527616210937495,-1.7758990814208984
1789315805891669200,5.823669189453125,3.4931402221679684,-6.934356195831298,-2.2183774757385253
1789315805901703400,5.833703369140625,3.435529744720459,-8.044517578125,-2.085948196411133
1789315805911737000,5.843737060546875,3.012204963684082,-8.75993496170044,-1.6849194183349607
1789315805921771300,5.853771240234375,2.5002947212219238,-8.687360723876953,-1.0733505317687988
1789315805931805400,5.863805419921875,2.5411457870483396,-8.50390502166748,-0.3350385948181152
1789315805941839000,5.873839111328125,2.8763340194702147,-8.339154019927978,-0.05102642288208008
1789315805951873000,5.883873046875,3.073406743621826,-7.646331914520263,-0.5279214660644531
1789315805961907200,5.8939072265625,3.0889690544128414,-7.077559382629394,-1.1643301948547362
1789315805971941000,5.903941162109375,2.5962124252319336,-7.449259190368652,-1.6469114669799805
1789315805981975000,5.91397509765625,2.3701100059509277,-7.775768441772461,-2.100911956787109
1789315805992009200,5.92400927734375,2.4232313552856444,-7.922712568664551,-2.0944775398254394
1789315806002043100,5.934043212890625,2.5665841796874997,-8.118588191986083,-1.34718734664917
1789315806012077000,5.9440771484375,2.873790180206299,-8.200290323638916,-0.6500257507324219
1789315806022111000,5.954111083984375,3.021183219909668,-8.664915083312987,-0.6884826148986816
1789315806032145000,5.964144775390625,3.0487165390014646,-9.917830739593505,-0.8729857803344726
1789315806042179000,5.974178955078125,3.093009269714355,-10.858303079223631,-0.867598826599121
1789315806052212000,5.9842119140625,3.278410260772705,-10.220248336791991,-0.7341220840454101
1789315806062246100,5.99424609375,3.67120897064209,-8.933813857269287,-0.8533832542419433
1789315806072280000,6.004280029296875,3.7777509445190427,-8.630648072052,-1.0940005210876464
1789315806082314000,6.01431396484375,3.5314474487304683,-9.251644127655029,-1.2783540489196776
1789315806092348200,6.02434814453125,3.4011130958557128,-10.223839639282225,-1.2026374214172362
1789315806102381800,6.0343818359375,3.399018169403076,-10.472836611938476,-0.7628525039672851
1789315806112416000,6.044416015625,3.4931402221679684,-9.768642048645019,-0.22700024490356444
1789315806122450200,6.0544501953125,3.7114614860534667,-8.716240781402588,0.26336218261718747
1789315806132483800,6.06448388671875,4.041562039947509,-8.140435282135009,0.8999205490112304
1789315806142518000,6.07451806640625,4.160523934936523,-8.10781428451538,0.9418190780639648
1789315806152552200,6.08455224609375,3.9661446876525877,-7.932738288116455,0.23253683624267577
1789315806162585900,6.0945859375,3.944297597503662,-7.3855135711669915,-0.5945101997375488
1789315806172620000,6.1046201171875,4.20706122970581,-7.473500482177734,-1.0229226593017577
1789315806182654200,6.114654296875,4.423437204742432,-7.905803519439697,-1.019032081604004
1789315806192687900,6.12468798828125,4.506486074829101,-8.470086923217773,-0.7731774986267089
1789315806202722000,6.13472216796875,4.292354663848877,-8.936806609344481,-0.3520972816467285
1789315806212756200,6.144756103515625,4.703858074188232,-9.10470000076294,0.42706572113037106
1789315806222790000,6.154789794921875,5.84215132598877,-9.337835387420654,1.2874819427490234
1789315806232824000,6.164823974609375,6.253654736328125,-10.075548773956298,1.013196215057373
1789315806242857000,6.17485693359375,6.157737032318115,-10.900351245880126,0.14155717315673827
1789315806252891100,6.18489111328125,5.905896945190429,-10.915165368652342,-0.42601825790405273
1789315806262925000,6.194925048828125,4.613327323913574,-10.244040715789794,-0.9374795875549315
1789315806272959000,6.204958984375,3.233668617248535,-9.918578927612304,-1.3127706977844238
1789315806282993200,6.2149931640625,2.9679122329711913,-9.585934534454346,-0.9271545928955077
1789315806293027000,6.225027099609375,3.2972645988464353,-9.683498252105712,-0.213233585357666
1789315806303061000,6.23506103515625,3.3634044197082518,-10.100837528991699,-0.20126257705688474
1789315806313095200,6.24509521484375,3.240851222229004,-10.410587368774413,-0.5108627792358398
1789315806323128800,6.25512890625,3.0261212608337402,-10.479121391296387,-0.5689221694946289
1789315806333163000,6.2651630859375,2.9640216552734375,-10.165032061004638,-0.22535423126220702
1789315806343197200,6.275197265625,2.849698526000976,-9.711480484008788,0.3485059791564941
1789315806353230800,6.28523095703125,2.812289125061035,-9.631125090789794,0.6148609138488769
1789315806363265000,6.29526513671875,3.0111575004577635,-9.402478832244872,1.0860697280883789
1789315806373299200,6.30529931640625,3.3457471824645992,-8.459761928558349,1.6319477066040038
1789315806383332900,6.315332763671875,4.180874649047851,-7.26505530014038,2.212691246795654
1789315806393367000,6.325366943359375,4.548234966278076,-6.986878994750976,1.5147814628601073
1789315806403401200,6.335401123046875,4.610933122253417,-6.713940005493163,0.907851342010498
1789315806413435000,6.345434814453125,4.261978230285644,-7.234828504180908,0.3742436470031738
1789315806423469000,6.355468994140625,3.4440590881347655,-8.486397422027588,-0.7279869422912597
1789315806433503200,6.365503173828125,3.3705870246887204,-9.252691590881348,-0.5856815811157227
1789315806443536100,6.3755361328125,3.971681278991699,-9.656264208221435,-0.09068038787841796
1789315806453570000,6.385570068359375,4.525340412902832,-9.581445406341553,0.12105682144165038
1789315806463604000,6.39560400390625,4.786607669067383,-9.58952583694458,0.17357962036132812
1789315806473638100,6.40563818359375,4.868459438323974,-9.50677624206543,0.45235447616577146
1789315806483672000,6.415672119140625,4.506785350036621,-9.11741919708252,0.673518854522705
1789315806493706000,6.4257060546875,3.69021294631958,-8.769212493133544,0.3006219459533691
1789315806503740200,6.435740234375,3.465606903076172,-8.665363996124267,-0.20844518203735352
1789315806513774000,6.445774169921875,3.6031238609313965,-8.89939720840454,-0.34446576385498046
1789315806523808000,6.45580810546875,3.775656018066406,-9.222614432525635,-0.5969044013977051
1789315806533842200,6.46584228515625,3.936516442108154,-9.431957440185545,-0.8749310691833495
1789315806543876000,6.4758759765625,4.166958351898193,-9.581445406341553,-1.2795511497497558
1789315806553910000,6.485909912109375,4.442291542816162,-9.398887529754639,-1.4404115737915038
1789315806563944200,6.495944091796875,4.7101428535461425,-9.41594621658325,-1.1399392654418945
1789315806573977900,6.505977783203125,4.751293194580078,-9.546729482269287,-0.3892074073791504
1789315806584012000,6.516011962890625,4.666299035644531,-9.171588009643553,0.0770633659362793
1789315806594046200,6.526046142578125,4.764461303710937,-8.660276317596436,0.35090018081665036
1789315806604079900,6.536079833984375,4.818031565856933,-8.544606449890136,0.41853637771606444
1789315806614114000,6.546114013671875,4.867561612701416,-8.445845631408691,0.340275910949707
1789315806624148200,6.556148193359375,4.9169420219421385,-8.052298733520507,0.28655601119995117
1789315806634182000,6.566181884765625,4.897938046264648,-8.021623024749756,0.2079962692260742
1789315806644215000,6.576215087890625,4.617068264007568,-8.299350417327881,0.388159944152832
1789315806654249000,6.5862490234375,4.069843547058105,-8.425195642089843,0.8536825294494629
1789315806664283100,6.596283203125,3.4415152488708496,-8.525003923797607,1.4021043472290038
1789315806674317000,6.606317138671875,2.980182516479492,-8.42085615158081,1.8516157089233398
1789315806684351000,6.61635107421875,2.6152164009094236,-8.243086678314208,2.2125416091918946
1789315806694385200,6.62638525390625,2.471564301300049,-8.512584002685546,2.208501393890381
1789315806704419000,6.636419189453125,2.6200048042297364,-8.665812908935546,2.0006547622680664
1789315806714453000,6.646452880859375,2.7199627235412596,-8.65159733657837,1.935712042236328
1789315806724487200,6.656487060546875,3.0166940917968748,-8.386289865112305,1.8049287765502928
1789315806734521000,6.66652099609375,3.3276410324096677,-8.185775476074218,1.5578770927429197
1789315806744555000,6.676554931640625,3.5338416503906247,-8.409932606506347,1.323544605255127
1789315806754589200,6.686589111328125,3.8543653976440426,-8.793004872131347,1.205929448699951
1789315806764623000,6.696623046875,4.254945262908936,-9.171288734436034,1.1112088455200195
1789315806774657000,6.706656982421875,4.838083004760742,-9.285162950897217,0.8090905235290526
1789315806784691200,6.716691162109375,5.505616355133056,-9.385420145416258,0.22385785522460935
1789315806794724900,6.726724853515625,5.606771375274658,-9.232640151977538,0.022744915771484374
1789315806804759000,6.736759033203125,5.6311623046875,-8.684517609405518,0.24630349578857422
1789315806814793200,6.746793212890625,5.593902541351318,-8.414272097015381,0.5207388610839844
1789315806824827000,6.756826904296875,5.462969638061523,-8.123526232910155,0.758513013458252
1789315806834861000,6.766861083984375,5.566518859863281,-8.5172227684021,0.8999205490112304
1789315806844894200,6.776894287109375,5.670965907287598,-8.685864347839354,0.8379705810546875
1789315806854928100,6.78692822265625,5.833621982574463,-8.775946185302734,0.5252279891967773
1789315806864962000,6.796962158203125,5.92475128326416,-8.75843858566284,0.2916436897277832
1789315806874996000,6.806995849609375,5.859808563232422,-8.214805171203613,0.3365349708557129
1789315806885030100,6.817030029296875,5.756408979034424,-7.931541187286377,0.5790975265502929
1789315806895064000,6.82706396484375,5.474791008758545,-7.750030773925781,0.847846662902832
1789315806905098000,6.837097900390625,5.185840795898438,-8.068010681915283,1.1710638870239256
1789315806915132200,6.847132080078125,4.866813424682617,-8.524405373382567,1.5873557006835937
1789315806925166000,6.857166015625,4.512321941375732,-8.661174143218993,1.8816928672790527
1789315806935200500,6.867200439453125,4.152144229125977,-8.464400694274902,2.198326036834717
1789315806945234400,6.877234375,3.8899791473388667,-7.879467301177978,2.1245546981811523
1789315806955268600,6.8872685546875,4.281281481170654,-7.887398094177246,1.8785504776000976
1789315806965302500,6.897302490234375,4.7292964668273925,-8.046013954162596,1.7657237243652342
1789315806975336400,6.90733642578125,4.94133295135498,-7.9004165657043455,1.6356886466979979
1789315806985370600,6.91737060546875,5.150975234222412,-7.99947665939331,1.5614683952331543
1789315806995404500,6.927404541015625,5.34984360961914,-7.9004165657043455,2.1486463523864745
1789315807005438500,6.9374384765625,4.913649994659424,-7.823053924560546,1.5795745452880858
1789315807015472600,6.94747265625,4.56514401550293,-7.9664067489624015,1.0108020133972166
1789315807025506600,6.957506591796875,4.296095603942871,-8.217498648071288,0.6973112335205077
1789315807035540500,6.96754052734375,4.129399313354492,-8.737938233947753,0.3800795135498047
1789315807045573400,6.977573486328125,3.9969700340270995,-8.930222554779052,0.42601825790405273
1789315807055607600,6.987607666015625,3.8400001876831054,-8.806023343658447,0.44532150878906246
1789315807065641700,6.997641845703125,3.9133226135253905,-8.93830298538208,0.7185597732543945
1789315807075675400,7.00767529296875,3.946542161560058,-9.064447485351561,1.467645617675781
1789315807085709600,7.01770947265625,4.016871835327148,-9.119514123535156,1.9496283393859861
1789315807095743700,7.02774365234375,3.9929298187255857,-8.953865296173095,2.065298207092285
1789315807105777400,7.03777734375,3.918559929656982,-8.61224264678955,2.1136311531066894
1789315807115811600,7.0478115234375,4.039616751098633,-8.091952698516845,2.244863331604004
1789315807125845800,7.057845703125,4.697274019622802,-8.084919731140136,2.3139959045410157
1789315807135879400,7.06787939453125,5.073612593078613,-8.391976094055176,2.330904953765869
1789315807145913600,7.07791357421875,4.837334816741943,-8.4015529006958,2.1116858642578125
1789315807155947500,7.087947509765625,4.769848257446289,-8.419509413146972,1.8836381561279296
1789315807165981400,7.0979814453125,4.932504332733154,-8.755296195983886,1.9113211128234862
1789315807176015600,7.108015625,5.031564426422118,-9.003993893432616,2.028487356567383
1789315807186049500,7.118049560546875,5.239859970855712,-9.026738809204101,2.0560206756591795
1789315807196083500,7.12808349609375,5.288192916870117,-8.913612780761719,1.9201497314453124
1789315807206117600,7.13811767578125,4.931756144714355,-8.52934341430664,1.673995873260498
1789315807216151600,7.148151611328125,4.611980585479736,-7.958924868774414,1.2861352043151855
1789315807226185500,7.158185546875,4.802169979858398,-7.555052976226806,0.955136824798584
1789315807236219600,7.1682197265625,4.978293439483642,-7.460182735443115,0.6465840858459472
1789315807246253600,7.178253662109375,5.024082546234131,-7.514650823211669,0.4402338302612304
1789315807256286700,7.18828662109375,5.162946242523193,-7.605031935882568,0.44427404556274414
1789315807266320400,7.1983203125,5.718101752471924,-7.986009275054931,0.7413046890258789
1789315807276354600,7.2083544921875,5.872228484344482,-8.685116159820556,1.705868682861328
1789315807286388700,7.218388671875,5.428852264404297,-9.426570486450196,2.588880182647705
1789315807296422400,7.22842236328125,4.677072943115234,-9.773729727172851,2.7163714210510252
1789315807306456600,7.23845654296875,4.1757869705200195,-9.648632690429688,2.4684219116210935
1789315807316490800,7.24849072265625,4.115183740997314,-9.349656758117675,2.307262212371826
1789315807326524400,7.2585244140625,4.295497053527832,-8.927379440307616,2.1775264099121094
1789315807336558600,7.26855859375,4.434211112213134,-8.555829270172119,1.9942203453063965
1789315807346592800,7.2785927734375,4.461594793701171,-8.2107649559021,1.7950526947021483
1789315807356626400,7.28862646484375,4.45022233581543,-7.988553114318847,1.5306430488586424
1789315807366660600,7.29866064453125,4.299686906433105,-7.9289973480224605,1.3239935180664062
1789315807376694500,7.308694580078125,3.931578401184082,-7.876624186706542,1.261444999694824
1789315807386728400,7.318728515625,3.5455133834838866,-7.767688011169433,1.2466308769226073
1789315807396762600,7.3287626953125,3.1103672317504882,-7.607426137542724,0.9687538467407226
1789315807406796500,7.338796630859375,3.1126117958068846,-7.448062089538574,0.6510732139587402
1789315807416830500,7.34883056640625,3.315520386505127,-7.848193041992187,0.6168062026977539
1789315807426864600,7.35886474609375,2.935291235351562,-8.603114752960204,0.3360860580444336
1789315807436898600,7.368898681640625,2.6789620201110838,-9.408165061187743,0.26171616897583005
1789315807446932500,7.378932373046875,2.352452768707275,-10.193612843322754,0.7023989120483398
1789315807456966700,7.388966552734375,1.8840870689392089,-10.493935514068603,1.2559084083557128
1789315807467000600,7.39900048828125,1.5219640678405761,-10.22817912979126,1.6840215927124023
1789315807477033700,7.40903369140625,1.3253402565002441,-9.839270997619629,1.8360533981323242
1789315807487067400,7.4190673828125,1.4435539634704588,-9.625289224243163,1.8555062866210936
1789315807497101600,7.4291015625,1.4296376663208008,-9.686790279388427,2.000205849456787
1789315807507135700,7.4391357421875,1.482459740447998,-9.987711500549317,1.9907786804199217
1789315807517169400,7.44916943359375,1.4163199195861815,-10.366294638061524,1.8300678939819335
1789315807527203600,7.45920361328125,1.392377902984619,-10.503512320709229,1.6940473121643065
1789315807537237800,7.46923779296875,1.2074258247375487,-10.252570059204102,1.6831237670898436
1789315807547271400,7.479271484375,1.094299796295166,-9.85124200592041,1.5665560737609863
1789315807557305600,7.4893056640625,1.1694178733825682,-9.487622628784179,1.2433388496398925
1789315807567339800,7.49933984375,1.5607202072143553,-9.313893370819091,0.8807669357299804
1789315807577373400,7.50937353515625,1.7106570861816406,-9.497648348236083,0.7383119369506835
1789315807587407600,7.51940771484375,1.8562544746398926,-9.948955361175537,0.5903203468322754
1789315807597441800,7.52944189453125,2.0073884544372556,-10.423156927490234,0.30196868438720703
1789315807607475500,7.539475341796875,1.7890671905517577,-10.592397057342529,0.28655601119995117
1789315807617509600,7.549509521484375,1.4264952766418457,-10.460715966033934,0.3203741096496582
1789315807627543600,7.55954345703125,1.1028291397094725,-10.142586420440674,0.4132990615844726
1789315807637577500,7.569577392578125,0.866401725769043,-9.747243871307372,0.7477391059875488
1789315807647611600,7.579611572265625,0.7724293106079101,-9.405022671508789,0.8174702293395996
1789315807657645600,7.5896455078125,1.1938088027954101,-9.292495193481445,0.5521627578735351
1789315807667679500,7.599679443359375,1.6536451591491699,-9.583689970397948,0.2232593048095703
1789315807677712400,7.60971240234375,1.55129303817749,-9.954342314910889,0.10938508834838867
1789315807687746600,7.61974658203125,0.9014169250488281,-10.050708931732178,0.003142389678955078
1789315807697780700,7.62978076171875,0.4607341819763183,-10.073154572296142,-0.044292730712890624
1789315807707814400,7.639814453125,0.6353612655639648,-10.278008451843261,0.039055414581298825
1789315807717848600,7.6498486328125,0.8794201972961425,-10.631302834320067,0.0474351203918457
1789315807727882500,7.659882568359375,0.9500491462707519,-10.934019706726074,0.014065934753417967
1789315807737916400,7.66991650390625,1.045069024658203,-11.16520980453491,-0.0469862075805664
1789315807747950600,7.67995068359375,0.8237550086975097,-11.201122829437255,0.05626373901367187
1789315807757984500,7.689984619140625,0.40776247024536133,-10.825831719207763,-0.015562310791015624
1789315807768018400,7.700018310546875,0.016160861206054686,-10.321403356933594,-0.09247603912353515
1789315807778052600,7.710052490234375,-0.7270891166687011,-10.14483098449707,0.011671733093261718
1789315807788086500,7.72008642578125,-1.3462895210266113,-10.129867224121092,0.26665420989990235
1789315807798120400,7.730120361328125,-1.5857096870422362,-10.136301641082763,0.5629366653442383
1789315807808154600,7.740154541015625,-1.5810709213256835,-10.139593668365478,0.8283937744140625
1789315807818188500,7.7501884765625,-1.3135188858032225,-10.096797313690185,1.1317091972351074
1789315807828222500,7.760222412109375,-0.7758709754943848,-10.134805265045165,1.371428638458252
1789315807838256600,7.770256591796875,-0.07257423782348632,-10.249876582336425,1.5307926864624022
1789315807848290600,7.78029052734375,0.12464812393188476,-10.39412723236084,1.5819687469482422
1789315807858324500,7.790324462890625,0.37978023834228514,-10.691457151031493,1.7106570861816406
1789315807868358700,7.800358642578125,1.1797428680419921,-11.397597003173827,1.7241244705200194
1789315807878392600,7.810392578125,1.95995333404541,-12.306495808410643,1.664419066619873
1789315807888425500,7.820425537109375,2.061407629394531,-12.926893313598631,1.632396619415283
1789315807898459600,7.830459716796875,1.596782869720459,-12.4230635017395,1.4857517677307128
1789315807908493600,7.84049365234375,1.5183727653503416,-11.066149710845947,1.2164040809631347
1789315807918527500,7.850527587890625,1.9967641845703124,-9.59581061630249,0.6980594215393066
1789315807928561400,7.8605615234375,2.2080524810791013,-8.536974932098389,0.591816722869873
1789315807938595300,7.87059521484375,2.243366955566406,-8.100781317138672,0.5804442649841308
1789315807948629200,7.880629150390625,2.009782656097412,-8.1717095413208,0.2850596351623535
1789315807958663200,7.8906630859375,1.7151462142944336,-8.388684066772461,-0.2367266891479492
1789315807968697300,7.900697265625,1.5734394035339354,-8.476970252990721,-0.4583399803161621
1789315807978731300,7.910731201171875,1.7106570861816406,-8.527847038269043,-0.40402153015136716
1789315807988765200,7.92076513671875,1.9343653038024902,-8.929773641967772,-0.13347674255371092
1789315807998799400,7.93079931640625,1.846976943206787,-9.323470177459717,0.3133411422729492
1789315808008833300,7.940833251953125,1.5699977386474608,-9.596409166717528,0.6859387756347656
1789315808018867200,7.9508671875,1.6006734474182127,-10.03559553375244,0.9427169036865234
1789315808028901400,7.9609013671875,1.9475334129333495,-10.606014079284668,0.7344213592529296
1789315808038935300,7.970935302734375,2.024447141265869,-11.07033956375122,0.5781997009277343
1789315808048969200,7.98096923828125,1.5548843406677244,-11.188702908325194,0.6061819328308106
1789315808059003100,7.991003173828125,1.1885714866638184,-10.935216807556152,0.9074024291992187
1789315808069037300,8.001037353515626,1.2882301307678221,-10.477625015258788,1.2466308769226073
1789315808079071200,8.0110712890625,1.624166551208496,-9.976488680267334,1.5221137054443359
1789315808089105200,8.021105224609375,2.191741982269287,-9.660753336334228,1.9149124153137207
1789315808099138300,8.03113818359375,2.874239093017578,-9.569025485229492,2.0860978340148923
1789315808109172200,8.041172119140626,3.1501708343505856,-9.335291548156738,1.8546084609985352
1789315808119206100,8.0512060546875,2.942473840332031,-9.065195673370361,1.6129437309265136
1789315808129240300,8.061240234375,2.4871266120910644,-9.003395343017578,1.415422093963623
1789315808139274200,8.071274169921875,2.3741502212524415,-8.591891932678221,1.2984054878234863
1789315808149308200,8.08130810546875,2.3503578422546387,-8.102876243591307,1.239897184753418
1789315808159342300,8.09134228515625,2.319532495880127,-7.891438309478759,1.3048399047851562
1789315808169376300,8.101376220703125,2.5234885498046875,-7.972392253112792,1.4740800346374512
1789315808179410200,8.11141015625,2.8681039512634277,-8.333617428588866,1.6657658050537107
1789315808189444400,8.1214443359375,3.1043817276000976,-8.694094416046141,1.8402432510375974
1789315808199478300,8.131478271484376,3.384054409027099,-9.124452164459228,2.0171148986816405
1789315808209512200,8.14151220703125,3.7409400939941406,-9.695169985198975,2.0624550926208496
1789315808219546400,8.15154638671875,3.9276878234863277,-10.033650244903564,1.8097171798706053
1789315808229580300,8.161580322265625,3.869628433227539,-10.07390276031494,1.5251064575195312
1789315808239614200,8.1716142578125,4.025401178741455,-9.875184022521973,1.2413935607910156
1789315808249648400,8.1816484375,4.297292704772949,-9.57650736541748,1.0799345863342285
1789315808259682300,8.191682373046875,4.422090466308593,-9.390657461547852,0.9726444244384765
1789315808269716200,8.20171630859375,4.518756358337402,-9.425523023223876,0.8072948722839355
1789315808279750100,8.211750244140624,4.848407999420166,-9.523834928894042,0.6432920585632323
1789315808289784300,8.221784423828124,5.264101262664795,-9.392004199981688,0.3773860366821289
1789315808299818200,8.231818359375,6.100425830078125,-9.204059369659424,0.02633621826171875
1789315808309851100,8.24185107421875,7.02892716140747,-8.883086709594727,-0.6443395217895508
1789315808319885300,8.25188525390625,7.555501889038085,-8.61284119720459,-1.2300211029052734
1789315808329919200,8.261919189453126,7.628674677276611,-8.578574185943603,-1.4541782333374023
1789315808339953200,8.271953125,7.363965756225586,-8.658779941558837,-1.4526818572998046
1789315808349987300,8.2819873046875,6.906523601531982,-8.72716432647705,-1.3070844688415526
1789315808360021000,8.29202099609375,6.255899300384521,-8.825925144958495,-0.8125321884155273
1789315808370055200,8.30205517578125,5.838410385894775,-8.800187477111816,-0.12479776153564452
1789315808380089300,8.31208935546875,5.651213743591308,-8.678382467651367,0.49859249572753905
1789315808390123000,8.322123046875,5.508609107208252,-8.806172981262206,0.7381622993469238
1789315808400157200,8.3321572265625,5.1611505912780755,-8.406790216827392,0.7251438278198242
1789315808410191400,8.34219140625,5.136310749053955,-8.009053466033935,0.5774515129089355
1789315808420225000,8.35222509765625,5.029918412780761,-7.817367695617675,0.5000888717651367
1789315808430259200,8.36225927734375,4.819677579498291,-7.379378429412841,0.5979518646240234
1789315808440293400,8.37229345703125,4.390965844726562,-7.046883673858642,0.7125742691040039
1789315808450327000,8.3823271484375,4.055179061889648,-6.857143192291259,0.7969698776245117
1789315808460361200,8.392361328125,3.8206969367980954,-7.004685869598388,0.6055833824157715
1789315808470395400,8.4023955078125,3.708019821166992,-7.251438278198242,0.37394437179565426
1789315808480429000,8.412428955078125,3.9600095458984375,-7.7608046813964835,0.054468087768554684
1789315808490463200,8.422463134765625,3.7873277511596677,-8.277652964782714,-0.44532150878906246
1789315808500497400,8.432497314453125,3.135955261993408,-7.874229985046386,-0.8774749084472656
1789315808510531000,8.442531005859376,2.8561329429626463,-7.819013709259033,-1.7724574165344238
1789315808520564200,8.452564208984375,3.915716815185547,-9.285911138916015,-2.048987708282471
1789315808530598100,8.46259814453125,5.1888335479736325,-11.647342163848876,-1.252616381072998
1789315808540632300,8.47263232421875,5.447407327270508,-13.026851232910156,-0.5491700057983399
1789315808550666200,8.482666259765624,3.903895444488525,-10.740987197875976,-0.9959878906249999
1789315808560700200,8.4927001953125,1.9942203453063965,-7.531859147644043,-1.4915876342773438
1789315808570734300,8.502734375,2.841618095397949,-6.757933460998535,-1.234061318206787
1789315808580768000,8.51276806640625,4.308066612243652,-8.002319773864746,-0.7462427299499511
1789315808590802200,8.52280224609375,4.509329189300537,-9.242216958618164,-0.63206923828125
1789315808600836400,8.53283642578125,3.932027313995361,-9.725396781158446,-0.7499836700439453
1789315808610870000,8.5428701171875,3.540874617767334,-10.219500148773193,-0.7040449256896972
1789315808620904200,8.552904296875,2.6719290527343746,-9.215581465148926,-0.5312134933471679
1789315808630938400,8.5629384765625,2.2168810997009274,-8.256254787445068,-0.5792471641540528
1789315808640972000,8.572971923828124,2.175880396270752,-8.156147230529784,-0.6992565223693847
1789315808651006200,8.583006103515626,2.4064719436645507,-8.594735047149658,-0.29269115295410153
1789315808661040400,8.593040283203125,3.277213159942627,-8.806023343658447,0.2498947982788086
1789315808671074000,8.603073974609375,3.877409588623047,-8.278401152801512,0.4695628005981445
1789315808681108200,8.613108154296874,4.835090252685546,-7.430105577087402,0.048931496429443354
1789315808691142400,8.623142333984376,5.411195027160645,-7.795969518280029,-0.7282862174987793
1789315808701176000,8.633176025390625,5.6310126670837395,-8.213458432769775,-1.333121411895752
1789315808711210200,8.643210205078125,4.853495677947998,-7.780706482696533,-1.0133458526611328
1789315808721244400,8.653244384765625,4.73049356765747,-6.663362495422363,-1.0414777221679687
1789315808731278000,8.663278076171874,5.278167197418212,-6.036680210876464,-0.9840168823242187
1789315808741311200,8.673311279296875,5.614253255462646,-6.11598814086914,-0.7221510757446289
1789315808751345200,8.68334521484375,5.802497360992431,-6.6777277053833,-0.5316624061584473
1789315808761379300,8.69337939453125,5.962011046600342,-7.36740742111206,-0.3226186737060547
1789315808771413200,8.703413330078124,5.9665001747131345,-7.876025636291503,-0.09112930068969725
1789315808781447200,8.713447265625,5.703736542510986,-7.792677490997314,0.23777415237426758
1789315808791481300,8.7234814453125,5.406855536651611,-7.560290292358398,0.4122515983581543
1789315808801515300,8.733515380859375,5.270236404418945,-7.2435074851989745,0.16684592819213867
1789315808811549200,8.743549072265624,5.294178421020508,-7.205649171447753,0.1862988166809082
1789315808821583400,8.753583251953126,5.0674774513244625,-6.851456963348388,0.5952583877563477
1789315808831617000,8.763616943359375,5.107580329132079,-6.966827555847168,0.8806172981262207
1789315808841651200,8.773651123046875,4.885518125152587,-7.221211482238769,0.9671078330993652
1789315808851685400,8.783685302734375,4.491971227264404,-6.930016705322266,1.1430816551208496
1789315808861719000,8.793718994140624,4.701314234924316,-6.9630866157531734,1.336862351989746
1789315808871753200,8.803753173828126,4.838681555175781,-7.271340079498291,1.6226701751708983
1789315808881787400,8.813787353515625,4.73677834701538,-7.120505374908447,1.3851952980041502
1789315808891821000,8.823821044921875,5.261108510589599,-7.072920616912842,1.0193313568115234
1789315808901855200,8.833855224609374,5.687126768493652,-7.3946414649963375,0.7656956184387207
1789315808911889400,8.843889404296876,6.467636509704589,-7.909095546722412,0.6206967803955078
1789315808921923000,8.853923095703125,6.739378398132324,-8.25460877380371,0.921917276763916
1789315808931957200,8.863957275390625,6.121524732208251,-8.15899034500122,0.8626607856750488
1789315808941991400,8.873991455078125,6.241085177612304,-7.901164753723144,0.6405985816955566
1789315808952024300,8.8840244140625,7.144896304321288,-8.060229526519775,0.54902036819458
1789315808962058200,8.894058349609375,7.620743884277343,-8.581866213226318,0.37140053253173827
1789315808972092400,8.904092529296875,7.447014626312256,-8.833855937957763,0.7836521308898925
1789315808982126300,8.914126220703125,6.381744525146484,-8.49163473815918,1.2786533241271971
1789315808992160300,8.92416015625,6.516119093322754,-8.175450481414794,1.6615759521484375
1789315809002194400,8.9341943359375,6.770951932525635,-8.271218547821045,2.0042460647583007
1789315809012228400,8.944228271484375,6.048800856781005,-8.256404425048828,1.6597803009033203
1789315809022262300,8.95426220703125,5.367201571655273,-8.00635998916626,1.4764742362976073
1789315809032296400,8.96429638671875,5.464466014099121,-7.962067258453368,1.4380173721313476
1789315809042330400,8.974330322265626,5.210531000518799,-8.05738641204834,1.5203180541992187
1789315809052364300,8.9843642578125,4.530128816223145,-7.99334151763916,1.6593313880920408
1789315809062398200,8.994398193359375,4.0903438987731935,-7.889493020629883,1.7193360671997069
1789315809072432400,9.004432373046875,3.501968840789795,-8.03793352355957,1.8655320060729979
1789315809082466300,9.01446630859375,3.2691327293395993,-8.10197841796875,2.097769567108154
1789315809092500200,9.024500244140626,2.892943793487549,-8.183081999206543,2.4233809928894043
1789315809102534400,9.034534423828125,2.8651111991882323,-8.480561555480957,2.292747364807129
1789315809112568300,9.044568359375,2.728492066955566,-8.643666543579101,1.7975965339660644
1789315809122602200,9.054602294921875,2.703801862335205,-8.706215061950683,1.1222820281982422
1789315809132636400,9.064636474609374,2.920177837371826,-8.823979856109618,0.5096656784057617
1789315809142670300,9.07467041015625,2.9242180526733397,-9.095272831726074,0.11731588134765625
1789315809152704300,9.084704345703125,2.836680054473877,-9.340528864288329,-0.2141314109802246
1789315809162738400,9.094738525390625,3.086874127960205,-9.531167171478272,-0.32456396255493164
1789315809172772400,9.1047724609375,3.135955261993408,-9.58294178237915,-0.2668038475036621
1789315809182805200,9.11480517578125,3.216909205627441,-9.610774376678465,0.02259527816772461
1789315809192839400,9.12483935546875,3.1542110496520994,-9.595960253906249,0.557998624420166
1789315809202873300,9.134873291015625,2.729838805389404,-9.656563483428954,0.9277531433105468
1789315809212907300,9.1449072265625,2.247856083679199,-9.438541494750975,0.9747393508911132
1789315809222941400,9.15494140625,1.5243582695007323,-9.294141207122802,0.6453869850158691
1789315809232975400,9.164975341796875,1.1043255157470702,-9.342623790740966,0.2501940734863281
1789315809243009300,9.17500927734375,1.2256816123962402,-9.64728595199585,0.12045827102661132
1789315809253043500,9.18504345703125,1.3437456817626952,-10.118195491027832,0.314089330291748
1789315809263077400,9.195077392578124,1.2003928573608398,-10.547206501007079,0.46896425018310545
1789315809273111300,9.205111328125,0.7158662963867187,-11.137826123046874,0.7697358337402344
1789315809283145200,9.215145263671875,0.1854009910583496,-11.520599113464355,1.4755764106750486
1789315809293179400,9.225179443359375,0.05521627578735351,-11.63776535720825,1.8391957878112792
1789315809303213300,9.23521337890625,-0.15337854385375976,-11.757026527404784,1.4784195251464842
1789315809313247200,9.245247314453126,-0.25363573837280273,-11.675474033355712,0.6838438491821288
1789315809323281400,9.255281494140625,-0.25737667846679685,-11.464335374450682,0.2262520568847656
1789315809333315300,9.2653154296875,-0.24301146850585936,-11.367370207214355,0.09232640151977539
1789315809343349200,9.275349365234375,0.14380173721313474,-11.284171699523926,0.014514847564697266
1789315809353383400,9.285383544921874,-0.14305354919433594,-11.269207939147948,0.06434416961669921
1789315809363417300,9.295417236328126,-0.2328361114501953,-11.265766274261473,-0.23089082260131835
1789315809373451300,9.305451171875,0.5940612869262695,-11.20411558151245,-0.44487259597778317
1789315809383485400,9.3154853515625,1.3685855239868163,-11.052383051300048,-0.5243301635742187
1789315809393519400,9.325519287109374,1.727566135406494,-10.808922669982909,-0.6655880615234374
1789315809403552300,9.33555224609375,1.8037316757202146,-10.528352162933349,-0.5505167442321777
1789315809413586400,9.34558642578125,1.878251202392578,-10.193912118530273,-0.4535515769958496
1789315809423620000,9.3556201171875,2.014870334625244,-9.911695597839355,-0.3113958534240722
1789315809433654300,9.365654296875,1.876305913543701,-9.765200383758545,-0.09427169036865234
1789315809443688400,9.3756884765625,1.0709563301086424,-9.78166052017212,-0.0909796630859375
1789315809453722000,9.38572216796875,0.2109890213012695,-9.840767373657226,0.10714052429199218
1789315809463756300,9.39575634765625,-0.17073650588989256,-9.925911170196533,0.6700771896362304
1789315809473790500,9.40579052734375,-0.17687164764404295,-10.264690705108642,0.7977180656433105
1789315809483824000,9.41582421875,0.0037409400939941405,-10.736198794555664,0.4520552009582519
1789315809493858300,9.4258583984375,0.1913864952087402,-11.06360587158203,0.1140238540649414
1789315809503892500,9.435892578125,0.41539398803710936,-11.01198089828491,0.013617021942138671
1789315809513926100,9.445926025390625,0.7266402038574218,-10.605714804077147,-0.16475100173950194
1789315809523960300,9.455960205078124,1.0103531005859374,-10.053851321411132,-0.4676175117492676
1789315809533994200,9.465994140625,1.2384008087158203,-9.572018237304688,-0.7240963645935058
1789315809544028200,9.476028076171875,1.2030863342285156,-9.197176039886473,-0.9011176498413085
1789315809554062300,9.486062255859375,0.9021651130676269,-8.858546142578124,-0.6124667121887206
1789315809564096300,9.49609619140625,0.5808931777954102,-8.549095578002929,-0.24600422058105467
1789315809574130200,9.506130126953124,0.33054946670532226,-8.437465925598143,0.2786252182006836
1789315809584164400,9.516164306640626,0.37065234451293944,-8.51048907623291,1.0959458099365234
1789315809594198300,9.5261982421875,0.737414111328125,-8.741529536437987,1.247528702545166
1789315809604232200,9.536232177734375,1.3180080139160155,-8.977657675170898,1.1125555839538575
1789315809614265000,9.54626513671875,1.85146607131958,-9.193734375,1.1137526847839354
1789315809624299300,9.55629931640625,2.648286311340332,-9.730783734893798,1.3628992950439451
1789315809634333400,9.56633349609375,2.5643396156311034,-10.43827032546997,1.392976453399658
1789315809644367000,9.5763671875,2.48323603439331,-10.736797344970702,0.7549217109680175
1789315809654401300,9.5864013671875,2.2117934211730956,-10.715399167633056,0.2672527603149414
1789315809664435500,9.596435546875,1.7769465446472168,-10.51503441619873,0.07257423782348632
1789315809674469000,9.60646923828125,1.4502876556396485,-10.318859517669678,0.45893853073120117
1789315809684503300,9.61650341796875,1.2586018852233887,-10.168324088287353,0.9639654434204101
1789315809694537500,9.626537353515625,1.4006079711914061,-10.389189191436767,0.6527192276000976
1789315809704571100,9.636571044921874,1.9505261650085448,-10.830919397735595,0.3456628646850586
1789315809714605300,9.646605224609376,2.0067899040222166,-10.428394243621826,0.39264907226562495
1789315809724639500,9.656639404296875,1.810615005493164,-9.932345587158203,0.15322890625
1789315809734673200,9.666673095703125,1.9716250671386717,-9.811438403320311,0.20171148986816406
1789315809744707300,9.676707275390624,2.318784307861328,-9.702053314971923,0.20051438903808594
1789315809754741200,9.6867412109375,2.323123798370361,-9.892093071746826,0.1470937644958496
1789315809764775200,9.696775146484375,2.3024738090515133,-10.472238061523436,0.15846622238159178
1789315809774809300,9.706809326171875,2.2207716773986816,-10.781688626098632,0.0665887336730957
1789315809784843300,9.71684326171875,1.8754080879211426,-10.991031633758544,0.3528454696655273
1789315809794877200,9.726877197265624,2.1775264099121094,-11.312602844238281,0.5506663818359374
1789315809804911400,9.736911376953126,2.6837504234313965,-11.089343539428711,0.6627449470520019
1789315809814945300,9.7469453125,2.6563667419433594,-10.653449199676514,0.7740753242492675
1789315809824979200,9.756979248046875,2.2149358108520505,-9.969006800079345,0.6863876884460449
1789315809835013400,9.767013427734375,1.9020435813903807,-8.892513878631592,0.7873930709838867
1789315809845046300,9.77704638671875,1.8020856620788572,-8.277353689575195,0.736067372894287
1789315809855080400,9.78708056640625,1.4848539421081541,-8.542511523437499,0.9424176284790039
1789315809865114000,9.797114013671875,1.6439187149047851,-8.514678929138183,0.8566752815246581
1789315809875148300,9.807148193359374,1.7999907356262206,-9.137470635986327,0.6527192276000976
1789315809885182500,9.817182373046874,4.613177686309815,-8.099883491516113,-0.13572130661010742
1789315809895216000,9.827216064453125,6.938396411132812,-7.179911503601073,-0.4739022911071777
1789315809905250300,9.837250244140625,7.160308977508545,-7.784447422790527,-0.6037877311706542
1789315809915284500,9.847284423828125,6.63986939163208,-8.457966277313233,-0.38097733917236326
1789315809925318100,9.857318115234374,5.923853457641601,-8.17829359588623,-0.4387374542236328
1789315809935352300,9.867352294921876,5.376329465484619,-7.082796698760986,-0.6567594429016113
1789315809945386800,9.87738671875,4.823119244384765,-6.19903701095581,-0.8901941047668457
1789315809955420400,9.88742041015625,4.537161783599854,-6.823175456237792,-0.3055599868774414
1789315809965454600,9.89745458984375,4.439897341156006,-7.800309008789062,0.9002198242187499
1789315809975488800,9.90748876953125,3.904643632507324,-9.101707248687744,1.9340660285949707
1789315809985522400,9.9175224609375,4.6347255012512205,-10.225784928131104,2.0950760902404784
1789315809995556600,9.927556640625,5.248090039062499,-9.592967501831055,1.369483349609375
1789315810005590500,9.937590576171875,4.881477909851074,-9.337536112213135,0.8607154968261719
1789315810015624400,9.94762451171875,5.285948352813721,-9.001300416564941,1.0344447547912596
1789315810025658600,9.95765869140625,5.993285305786133,-8.170213165283203,1.1414356414794922
1789315810035692500,9.967692626953125,5.806537576293945,-7.079055758666992,0.9376292251586914
1789315810045726500,9.9777265625,6.067804832458496,-7.78235249633789,0.9403227020263671
1789315810055760600,9.9877607421875,6.255749662780762,-8.918101908874512,0.7493851196289062
1789315810065793500,9.99779345703125,4.910058692169189,-8.410531156921387,0.7697358337402344
1789315810075827700,10.00782763671875,4.257189826965332,-7.79537096786499,0.8423100715637206
1789315810085861400,10.017861328125,4.4473792213439935,-7.968800950622558,0.7796119155883788
1789315810095895600,10.0278955078125,4.296095603942871,-7.952939364624023,0.734870272064209
1789315810105929700,10.0379296875,3.399167807006836,-7.143549565887451,0.48108489608764643
1789315810115963400,10.04796337890625,2.6924294044494625,-6.653636051177978,0.5981015022277831
1789315810125997600,10.05799755859375,3.0234277839660644,-6.160580146789551,0.7121253562927246
1789315810136031700,10.06803173828125,3.005022358703613,-6.006902327728271,0.37933132553100585
1789315810146065400,10.0780654296875,3.20493819732666,-6.5583168975830075,0.25004443588256836
1789315810156099600,10.088099609375,3.247136001586914,-7.293935357666015,0.31229367904663086
1789315810166133800,10.0981337890625,2.784007617950439,-7.920168729400634,-0.04384381790161133
1789315810176167400,10.10816748046875,2.04943662109375,-7.741800705718994,-0.29448680419921874
1789315810186201600,10.11820166015625,2.7670985687255856,-7.683741315460205,0.04967968444824218
1789315810196235800,10.12823583984375,3.9558196929931637,-7.66129567489624,0.22026655273437498
1789315810206269400,10.13826953125,4.7370776222229,-7.4871175041198725,0.34401685104370117
1789315810216303600,10.1483037109375,5.129427419281005,-7.209689386749267,0.21263503494262695
1789315810226337800,10.158337890625,5.273827706909179,-7.30994658126831,-0.4740519287109375
1789315810236371500,10.168371337890624,5.544222856903076,-7.798064444732666,-0.9771335525512694
1789315810246405600,10.178405517578126,5.84185205078125,-9.098564859008789,-0.7305307815551757
1789315810256439600,10.188439453125,5.795763668823242,-10.091410359954834,-0.6187514915466308
1789315810266473500,10.198473388671875,5.658246710968017,-9.27543650665283,-0.601992079925537
1789315810276507600,10.208507568359375,5.578789143371582,-8.974365647888183,0.40072950286865233
1789315810286541600,10.21854150390625,5.22878678817749,-9.105148913574219,1.0534487304687499
1789315810296574700,10.22857470703125,4.595221173858643,-9.062502196502685,1.6940473121643065
1789315810306608400,10.2386083984375,4.160823210144042,-8.831012823486327,2.127697087860107
1789315810316642600,10.248642578125,4.189553630065918,-8.217049735260009,1.511190160369873
1789315810326676500,10.258676513671874,4.806509470367431,-8.085368643951416,0.7513304084777832
1789315810336710400,10.26871044921875,5.100696999359131,-8.169764252471923,0.8062474090576172
1789315810346744600,10.27874462890625,4.061014928436279,-7.895628162384033,0.9048585899353027
1789315810356778500,10.288778564453125,2.2665607841491697,-8.195501920318604,1.0052654220581054
1789315810366812400,10.2988125,1.8918682243347167,-9.053823215484618,1.4050970993041991
1789315810376846600,10.3088466796875,3.0142998901367184,-9.36013139038086,0.7018003616333007
1789315810386880500,10.318880615234375,3.832069394683838,-9.421333170318603,-0.37439328460693355
1789315810396914400,10.32891455078125,3.0832828254699707,-8.9386022605896,-0.7362170104980469
1789315810406948600,10.338948486328125,1.950376527404785,-8.310573237609862,-1.0740987197875975
1789315810416982500,10.348982421875,2.8106431114196777,-8.117540728759765,-1.3678373359680176
1789315810427016400,10.359016357421876,4.557512497711182,-7.740304329681396,-1.2930185340881346
1789315810437050600,10.369050537109375,5.7703252761840815,-7.808239801788329,-1.497872413635254
1789315810447084500,10.37908447265625,6.705111386871337,-8.845826946258544,-1.5174749397277831
1789315810457118500,10.389118408203124,8.001272310638427,-9.929203197479248,-0.013467384338378905
1789315810467152600,10.399152587890624,8.761431337738037,-10.339659144592284,1.9627964485168456
1789315810477186600,10.4091865234375,8.725817588043212,-10.050708931732178,3.0400375579833985
1789315810487220500,10.419220458984375,8.314314177703857,-9.345616542816161,2.9652187561035155
1789315810497254700,10.429254638671875,7.649175028991698,-8.627655319976807,2.524236737823486
1789315810507288600,10.43928857421875,6.894402955627441,-8.430732233428955,1.5732897659301757
1789315810517322500,10.449322509765626,6.377255397033691,-9.39739115371704,1.1745055519104004
1789315810527355600,10.459355712890625,5.869983920288085,-10.931326229858398,1.969530140686035
1789315810537389600,10.4693896484375,5.323956304168701,-12.39762510910034,2.3726538452148436
1789315810547423500,10.479423583984374,4.770147532653809,-13.271807990264891,1.6711527587890624
1789315810557457400,10.48945751953125,4.448426684570312,-12.97956575012207,0.7534253349304199
1789315810567491600,10.49949169921875,4.36642527770996,-11.89409457244873,-0.22206220397949217
1789315810577525500,10.509525390625,4.434211112213134,-10.708964750671386,-0.8527847038269043
1789315810587559400,10.519559326171875,4.866514149475098,-9.184905756378173,-1.0500070655822753
1789315810597593600,10.529593505859374,5.172074136352538,-7.594856578826904,-1.2000935821533203
1789315810607627500,10.53962744140625,4.9729064857482905,-6.668599811553955,-1.0709563301086424
1789315810617661400,10.549661376953125,4.648641798400878,-6.252607273101806,-0.22909517135620117
1789315810627695600,10.559695556640625,4.280982205963134,-5.7249850822448725,0.943614729309082
1789315810637729500,10.5697294921875,4.180126461029053,-4.80755693359375,2.1465514259338376
1789315810647763500,10.579763427734376,4.24536845626831,-3.2050878349304197,2.5776573623657226
1789315810657797600,10.589797607421875,1.3066355560302734,-3.446453289794922,-0.06823474731445311
1789315810667831600,10.59983154296875,-5.154865811920166,-2.8356325912475584,-0.7023989120483398
1789315810677865500,10.609865478515625,-7.557596815490722,-1.0362404060363768,-0.14559738845825196
1789315810687899600,10.619899658203124,-6.432621310424804,-1.4398130233764648,-0.3093009269714355
1789315810697933600,10.62993359375,-2.2656629585266113,-1.612045905303955,-0.2650081962585449
1789315810707967500,10.639967529296875,1.8719664230346678,-2.134879692840576,-0.7122749938964843
1789315810718001700,10.650001708984375,5.063437236022949,-4.161122485351562,-1.8748095375061034
1789315810728035300,10.660035400390624,6.985532256317138,-8.247575806427001,-3.0068180099487303
1789315810738069500,10.670069580078126,5.807585039520263,-13.989170662689208,0.3673603172302246
1789315810748102700,10.6801025390625,1.9373580558776855,-17.686715851593018,5.940762506866455
1789315810758136600,10.690136474609375,6.312462314605712,-22.072743655395506,5.793818379974365
1789315810768170500,10.70017041015625,8.76607010345459,-24.57962243118286,4.292653939056396
1789315810778204400,10.710204345703126,0.00014963760375976562,-19.33871499710083,2.4281693962097166
1789315810788238600,10.720238525390625,0.8233060958862304,-15.192406634521484,1.0230722969055175
1789315810798272500,10.7302724609375,0.6310217750549316,-11.570278797912597,0.8496423141479492
1789315810808306400,10.740306396484375,-0.14484920043945312,-10.32948378753662,0.8435071723937988
1789315810818340600,10.750340576171874,0.04234744186401367,-10.279654465484619,0.6940192062377929
1789315810828374500,10.76037451171875,-0.1500865165710449,-10.679935055541991,0.6202478675842285
1789315810838408400,10.770408447265625,0.22251111679077148,-11.279383296203612,0.1897404815673828
1789315810848442600,10.780442626953125,1.1097124694824219,-11.31993508682251,0.22131401596069333
1789315810858476500,10.7904765625,1.3280337333679197,-11.182118853759764,-0.012868833923339843
1789315810868510500,10.800510498046876,1.1731588134765625,-10.882993283843993,-0.12120645904541015
1789315810878544600,10.810544677734375,1.0772411094665526,-9.948356810760497,0.09861118087768554
1789315810888578600,10.82057861328125,1.5529390518188475,-9.236530729675293,0.08933364944458007
1789315810898612500,10.830612548828125,2.006490628814697,-9.54463455581665,0.05596446380615234
1789315810908646700,10.840646728515624,2.1595698974609374,-10.026168364715575,0.026186580657958983
1789315810918680600,10.8506806640625,2.2809259941101074,-10.111611436462402,0.18031331253051758
1789315810928714500,10.860714599609375,2.188749230194092,-10.33666639251709,0.6102221481323242
1789315810938748400,10.87074853515625,1.9211971946716306,-10.513089127349852,0.8249521095275878
1789315810948782300,10.8807822265625,1.525256095123291,-10.725125611877441,0.7740753242492675
1789315810958816500,10.89081640625,1.1592425163269042,-10.992827285003662,1.2184990074157713
1789315810968850400,10.900850341796875,1.5937901176452636,-10.535385130310058,2.0727800872802735
1789315810978884400,10.91088427734375,2.7877485580444334,-10.13196215057373,2.7670985687255856
1789315810988917200,10.920917236328124,3.399018169403076,-10.682628532409668,3.8515222831726073
1789315810998951400,10.930951416015626,3.5640684463500976,-12.387000839233398,4.980986916351318
1789315811008985600,10.940985595703125,3.031358576965332,-12.41184068145752,4.878784432983398
1789315811019019300,10.951019287109375,2.8296470870971677,-10.71914010772705,3.9151182647705074
1789315811029053400,10.961053466796875,2.742258726501465,-10.247931293487548,2.583942141723633
1789315811039087600,10.971087646484374,2.982726355743408,-10.052504582977294,2.1390695457458495
1789315811049121300,10.981121337890626,2.4308628730773925,-9.694870709991454,2.159719535064697
1789315811059155500,10.991155517578125,1.9406500831604003,-9.53191535949707,2.0184616371154784
1789315811069189600,11.001189697265625,2.1589713470458984,-8.816348338317871,1.8216881881713867
1789315811079223300,11.011223388671874,2.337937921142578,-7.960271607208251,1.6916531105041503
1789315811089257500,11.021257568359376,2.3677158042907713,-7.13756406173706,1.8011878364562988
1789315811099291400,11.03129150390625,2.906560815429687,-6.742371150207519,1.7386393180847166
1789315811109325300,11.0413251953125,3.515885137939453,-6.568791529846191,1.405695649719238
1789315811119359500,11.051359375,3.6815339653015133,-6.388478217315673,1.1519102737426756
1789315811129393400,11.061393310546874,3.7228339439392086,-5.506214905548095,0.6795043586730957
1789315811139427300,11.07142724609375,5.767482161712646,-5.185541520690918,-0.07466916427612304
1789315811149461500,11.08146142578125,8.291718899536132,-5.335328762054443,-0.6605003829956054
1789315811159495400,11.091495361328125,9.578751929473876,-6.3426891105651855,-0.751480046081543
1789315811169529300,11.101529296875,8.956259497833251,-7.82679486465454,-0.790385823059082
1789315811179563500,11.1115634765625,6.807014595031738,-9.56348889389038,-0.5898714340209961
1789315811189597400,11.121597412109375,4.665401210021972,-10.410587368774413,-0.5909188972473144
1789315811199631400,11.13163134765625,3.293074745941162,-10.389488466644286,-0.9994295555114745
1789315811209665500,11.14166552734375,3.1144074470520016,-10.015693732452393,-1.5484499237060545
1789315811219699500,11.151699462890624,3.382408395385742,-9.415048390960694,-1.6698060203552245
1789315811229732600,11.161732666015626,3.552695988464355,-8.693495865631103,-1.571194839477539
1789315811239766300,11.171766357421875,3.584269522857666,-9.547627307891846,-0.8532336166381835
1789315811249800400,11.181800537109375,3.739892630767822,-9.491513206481933,-0.3320458427429199
1789315811259834600,11.191834716796874,3.943100496673584,-9.868001417541503,-0.24495675735473632
1789315811269868300,11.201868408203126,3.6094086402893066,-10.686668747711181,-0.1349731185913086
1789315811279902500,11.21190234375,2.401084989929199,-10.705822360992432,-0.510114591217041
1789315811289936600,11.2219365234375,1.1510124481201172,-9.696067810821532,-1.0184335311889647
1789315811299970300,11.23197021484375,1.5994763465881348,-9.156175336456299,-0.5699696327209473
1789315811310004500,11.24200439453125,2.7346272087097168,-9.656264208221435,0.4688146125793457
1789315811320038400,11.252038330078125,3.7063738075256345,-10.309881261444092,1.159392153930664
1789315811330072300,11.262072265625,5.114463658905029,-10.61738653717041,1.1423334671020506
1789315811340106500,11.2721064453125,5.202600207519531,-10.371232678985596,0.9440636421203613
1789315811350140400,11.282140380859374,3.6893151206970214,-8.94533595275879,0.7471405555725097
1789315811360174300,11.29217431640625,2.7156232330322263,-7.634360906219482,1.1577461402893066
1789315811370208500,11.30220849609375,1.7568951057434081,-6.6057520179748535,2.1651064888000486
1789315811380242400,11.312242431640625,1.8760066383361815,-6.667402710723876,1.3141174362182617
1789315811390276400,11.3222763671875,2.4959552307128905,-7.845050652313232,-0.41539398803710936
1789315811400310500,11.332310546875,3.772663265991211,-7.35483786239624,-0.8393173194885254
1789315811410344400,11.342344482421876,5.13945313873291,-6.408529656219482,-1.0103531005859374
1789315811420378400,11.35237841796875,5.594800366973876,-6.341342372131347,-1.7135002006530762
1789315811430412500,11.36241259765625,5.093215119171142,-6.6346320755004875,-1.6817770286560059
1789315811440446500,11.372446533203124,4.324377111053466,-6.278045665740966,-0.850989052581787
1789315811450480400,11.38248046875,4.144213436126709,-6.007351240539551,-0.3525461944580078
1789315811460514600,11.3925146484375,4.506336437225341,-5.624877525329589,-0.16086042404174802
1789315811470547500,11.40254736328125,4.495113616943359,-5.644480051422119,0.20844518203735352
1789315811480581600,11.41258154296875,4.04739790649414,-6.219088449859619,0.41464580001831053
1789315811490615300,11.422615234375,3.825485340118408,-6.714987468719482,0.5958569381713866
1789315811500649500,11.4326494140625,3.818302735137939,-7.705588405609131,0.9446621925354003
1789315811510683600,11.44268359375,3.772663265991211,-8.221688500976562,1.2572551467895507
1789315811520717300,11.45271728515625,3.7300165489196777,-7.722647092437744,1.372027188873291
1789315811530751500,11.46275146484375,3.5627217079162596,-7.216871991729736,1.3811550827026366
1789315811540785400,11.472785400390626,3.4075475128173824,-7.304858902740478,1.7751508934020994
1789315811550819300,11.4828193359375,3.1811458183288575,-7.423820797729491,1.848174044036865
1789315811560853500,11.492853515625,3.111713970184326,-7.217620179748534,1.4648025032043457
1789315811570887400,11.502887451171874,3.209427325439453,-7.219266193389892,1.2657844902038573
1789315811580921300,11.51292138671875,3.5084032577514646,-7.595904042053222,1.4124293418884277
1789315811590955500,11.52295556640625,3.9332244148254394,-8.10152950515747,1.2994529510498045
1789315811600989400,11.532989501953125,3.949834188842773,-8.52335791015625,0.8776245460510254
1789315811611023400,11.5430234375,3.884741831207275,-8.952668195343017,0.4697124382019043
1789315811621057500,11.5530576171875,4.116979392242431,-9.375244788360595,0.5482721801757812
1789315811631091500,11.563091552734376,4.080168541717529,-9.486575165557861,0.7353191848754882
1789315811641125400,11.57312548828125,4.001608799743652,-9.610325463867188,0.5057751007080078
1789315811651159600,11.58315966796875,4.121169245147705,-9.632322191619872,0.2989759323120117
1789315811661193500,11.593193359375,4.281880031585693,-9.565134907531737,0.16998831787109375
1789315811671227400,11.603227294921876,4.343829999542236,-9.682001876068115,0.18210896377563476
1789315811681261600,11.613261474609375,4.267365184020996,-10.056245523071288,0.2855085479736328
1789315811691295500,11.62329541015625,3.9173628288269042,-10.470143135070801,0.6811503723144531
1789315811701329400,11.633329345703125,4.158429008483886,-10.473135887145995,0.7570166374206543
1789315811711362300,11.6433623046875,3.9369653549194332,-10.271424397277832,0.9141361213684082
1789315811721396500,11.653396484375,2.7398645248413085,-9.929203197479248,1.2428899368286133
1789315811731430700,11.6634306640625,2.0911855125427246,-8.89266351623535,1.1646294700622557
1789315811741464300,11.67346435546875,2.868403226470947,-7.912686849212646,1.0758943710327147
1789315811751498500,11.68349853515625,3.520224628448486,-7.407659936523437,1.0242693977355957
1789315811761532700,11.69353271484375,4.264073156738281,-7.223306408691406,1.0770914718627929
1789315811771566300,11.70356640625,4.51995345916748,-7.835473845672607,1.4000094207763671
1789315811781600500,11.7136005859375,3.039439007568359,-8.160037808227539,1.4809633644104003
1789315811791634400,11.723634521484374,2.356642621612549,-8.521113346099852,1.1780968544006347
1789315811801668400,11.73366845703125,2.517951958465576,-8.980500789642333,0.6293757614135742
1789315811811702500,11.74370263671875,2.715473595428467,-9.615413142395019,-0.04279635467529297
1789315811821736400,11.753736328125,2.8145336891174315,-10.423456202697754,-0.5864297691345215
1789315811831770400,11.763770263671875,3.2418986854553222,-11.455656393432616,-0.840215145111084
1789315811841804500,11.773804443359374,3.3213562530517575,-12.498780129241943,-0.6702268272399902
1789315811851838500,11.78383837890625,3.433584455871582,-13.180379414367675,-0.7056909393310546
1789315811861872400,11.793872314453125,3.4925416717529294,-13.189058395385741,-0.6916250045776366
1789315811871906600,11.803906494140625,3.353079425048828,-12.616395285797118,-0.26710312271118164
1789315811881940500,11.8139404296875,3.100191874694824,-12.016647769927978,0.17657237243652343
1789315811891974400,11.823974365234376,2.849249613189697,-11.25618946762085,0.7612064903259277
1789315811902008600,11.834008544921875,1.772307778930664,-10.368988114929198,1.3226467796325683
1789315811912042500,11.84404248046875,0.8798691101074219,-9.617807344055175,1.6702549331665038
1789315811922076400,11.854076416015625,0.8882488159179687,-9.159617001342772,1.6410756004333495
1789315811932110600,11.864110595703124,1.7488146751403808,-9.315539384460449,1.3729250144958496
1789315811942144300,11.874144287109376,2.3437737876892086,-10.328137049102782,0.792929662322998
1789315811952177400,11.884177490234375,2.044947492980957,-11.26845975112915,0.2700958747863769
1789315811962211000,11.894211181640625,1.8504186080932616,-11.947964109802246,-0.6341641647338867
1789315811972245200,11.904245361328124,2.498349432373047,-12.888735724639892,-1.5690999130249021
1789315811982279200,11.914279052734376,3.568258299255371,-13.872004418945311,-2.0370166999816894
1789315811992313000,11.92431298828125,4.07343484954834,-14.531756613922118,-2.0849007331848144
1789315812002347300,11.93434716796875,3.3616087684631344,-14.789282929992675,-2.2150854484558105
1789315812012381200,11.944381103515624,2.721010186767578,-15.152303756713867,-2.2073042930603024
1789315812022415000,11.9544150390625,1.6105495292663574,-14.982165801239013,-2.1785738731384274
1789315812032449300,11.96444921875,0.9141361213684082,-14.417433484649658,-1.4062942001342773
1789315812042483200,11.974483154296875,1.159392153930664,-13.693486757659912,-0.3398269981384277
1789315812052517000,11.98451708984375,1.0043675964355467,-12.8199024269104,0.3550900337219238
1789315812062551300,11.99455126953125,0.06988076095581054,-12.171073777008056,0.8022071937561035
1789315812072585200,12.004585205078126,-0.33623569564819333,-11.295843432617186,0.7538742477416992
1789315812082619100,12.014619140625,-0.5811924530029297,-10.169820464324951,0.14125789794921875
1789315812092653300,12.0246533203125,-0.9781810157775879,-8.916006982421875,-0.03202244720458984
1789315812102687200,12.034687255859374,-1.0657190139770507,-7.691522470855713,-0.002992752075195312
1789315812112721200,12.04472119140625,-0.9346364730834961,-6.437260076141357,0.10354922180175781
1789315812122755300,12.05475537109375,-0.8276455863952636,-5.194669414520264,0.37828386230468747
1789315812132789200,12.064789306640625,-0.41419688720703124,-4.376450997161865,0.873434693145752
1789315812142823200,12.0748232421875,0.03486556167602539,-3.7017350418090817,0.9931447761535644
1789315812152857000,12.084857177734374,0.24331074371337888,-3.1145570846557615,0.8288426872253417
1789315812162891300,12.094891357421876,0.23597850112915036,-2.5330653564453125,0.5207388610839844
1789315812172925200,12.10492529296875,0.11432312927246092,-1.9508254402160643,0.1822586013793945
1789315812182959000,12.114958984375,0.088735099029541,-1.4854524925231933,-0.21308394775390624
1789315812192993300,12.1249931640625,0.19662381134033202,-1.0404302589416503,-0.5358522590637207
1789315812203026200,12.135026123046876,-0.06284779357910156,-0.7468412803649902,-0.8789712844848633
1789315812213060000,12.14506005859375,-0.8508394149780273,-0.7158662963867187,-1.153705924987793
1789315812223094300,12.15509423828125,-1.783829874420166,-1.1367968757629394,-1.215655892944336
1789315812233128200,12.165128173828125,-2.6071359703063965,-2.1645079383850097,-0.7573159126281738
1789315812243162000,12.175162109375,-2.452261050415039,-4.550030617523193,0.6783072578430175
1789315812253196300,12.1851962890625,1.205330898284912,-9.070582627105713,0.28640637359619137
1789315812263230200,12.195230224609375,0.3446154014587402,-9.777321029663085,-0.7803601036071777
1789315812273264000,12.20526416015625,1.1008838508605956,-7.866448829650879,-1.8775030143737792
1789315812283298300,12.21529833984375,-0.0005985504150390625,-8.552686880493164,-1.1469722328186034
1789315812293332200,12.225332275390626,-2.760514514160156,-9.87638112335205,-0.5683236190795898
1789315812303366100,12.2353662109375,-0.9937433265686034,-13.340491650390625,-1.4790180755615234
1789315812313400300,12.245400390625,3.6715082458496093,-17.509245653533934,-1.350329736328125
1789315812323434200,12.255434326171875,7.969249863433838,-20.28128226318359,-1.3492822731018066
1789315812333468200,12.26546826171875,9.14824454345703,-22.041020483398437,0.16549918975830077
1789315812343502300,12.27550244140625,7.313388246154784,-24.224981310272216,4.000561336517333
1789315812353536300,12.285536376953125,2.656516379547119,-23.16824055252075,3.122338240051269
1789315812363570200,12.295570068359375,0.32710780181884763,-17.79221036224365,2.1794716987609863
1789315812373604400,12.305604248046874,2.353051319122314,-14.795118796539306,1.6531962463378904
1789315812383638000,12.315637939453126,4.164564150238037,-14.232780681610107,1.4244003501892089
1789315812393672200,12.325672119140625,5.428702626800537,-14.159009342956542,2.356492984008789
1789315812403706000,12.3357060546875,6.185569626617431,-14.056058671569824,0.9246107536315917
1789315812413740000,12.345739990234375,5.600336958312988,-12.9348241065979,-0.37274727096557614
1789315812423774200,12.355774169921874,5.012859725952148,-11.717073287200927,-0.3372831588745117
1789315812433808100,12.36580810546875,4.311957189941406,-10.190769728851318,-0.24555530776977538
1789315812443841300,12.37584130859375,3.608959727478027,-8.436867375183105,-0.40357261734008787
1789315812453875000,12.385875,2.881272060394287,-6.8439750831604,-0.5633855781555176
1789315812463909000,12.3959091796875,2.63676421585083,-5.352387448883056,-0.8126818260192871
1789315812473943300,12.405943359375,2.3077111251831055,-4.1943420333862305,-0.9382277755737304
1789315812483977000,12.41597705078125,1.4480430915832518,-3.903895444488525,-1.1213842025756835
1789315812494011100,12.42601123046875,0.2738368148803711,-4.147954376220703,-1.293467446899414
1789315812504045300,12.43604541015625,-0.6603507453918457,-4.218732962799072,-1.416020644378662
1789315812514079000,12.446078857421876,-1.6329951698303222,-4.049792108154296,-1.661276676940918
1789315812524113200,12.456113037109375,-2.696768894958496,-3.6323031936645505,-1.7378911300659179
1789315812534147300,12.466147216796875,-3.7816415222167965,-3.3475428337097166,-1.7277157730102537
1789315812544181000,12.476180908203125,-4.345775288391113,-3.3367689262390137,-1.7158944023132323
1789315812554215200,12.486215087890624,-4.29639487915039,-3.5839702476501465,-1.604414387512207
1789315812564249300,12.496249267578126,-4.210652532196045,-3.946691799163818,-1.2912228828430174
1789315812574283000,12.506282958984375,-3.9639001235961913,-4.153790242767334,-1.3124714225769043
1789315812584317200,12.516317138671875,-3.4106899024963377,-4.326621675109863,-1.0951976219177246
1789315812594351400,12.526351318359374,-2.489371176147461,-4.652831651306152,-0.1479915901184082
1789315812604385000,12.536385009765626,-0.9828197814941406,-5.111620544433594,1.1985972061157226
1789315812614419200,12.546419189453125,0.21083938369750976,-5.77750788116455,2.4631845954895017
1789315812624453000,12.556453125,3.0199861190795896,-7.707982607269287,3.860650177001953
1789315812634487000,12.566487060546875,8.942343200683593,-13.236643153381348,5.201103831481933
1789315812644521200,12.576521240234374,7.7316253486633295,-17.707814753723145,5.375132364654541
1789315812654555100,12.58655517578125,4.361187961578369,-17.975516426849364,5.456834496307373
1789315812664589000,12.596589111328125,4.189254354858398,-19.161992987060547,4.706401913452148
1789315812674623200,12.606623291015625,4.685153373718261,-20.7119392868042,3.143137866973877
1789315812684656000,12.61665625,6.394613359069824,-22.699126664733885,0.9413701652526855
1789315812694690300,12.626690185546876,6.003311025238037,-22.972215291595457,1.287182667541504
1789315812704724000,12.636723876953125,5.054010066986084,-21.19706439819336,1.8529624473571775
1789315812714758100,12.646758056640625,3.1030349891662596,-16.194080754089356,0.9009680122375487
1789315812724792300,12.656792236328124,2.6810569465637206,-11.4278237991333,0.7131728195190429
1789315812734826000,12.666825927734376,3.7879263015747067,-10.260949765014647,0.3769371238708496
1789315812744860200,12.676860107421875,4.304924222564697,-11.90711304397583,0.04773439559936523
1789315812754894300,12.686894287109375,2.793734062194824,-13.120524372863768,0.282815071105957
1789315812764928000,12.696927978515625,0.3506009056091308,-12.237063960266113,0.000748188018798828
1789315812774962200,12.706962158203124,-0.8454524612426757,-10.30449430770874,0.07167641220092773
1789315812784996400,12.716996337890626,-0.6144120010375976,-7.720103253173828,0.2814683326721191
1789315812795030000,12.727030029296875,-0.2437596565246582,-5.703886180114746,0.08529343414306641
1789315812805064200,12.737064208984375,-0.30780455093383785,-4.538807797241211,-0.11088146438598633
1789315812815098400,12.747098388671875,-0.46836569976806636,-3.7693712387084957,-0.20545242996215818
1789315812825132000,12.757132080078126,-0.45280338897705075,-4.04126276473999,-0.3694552436828613
1789315812835166200,12.767166259765625,-0.05132569808959961,-4.538807797241211,-1.1372457885742187
1789315812845200400,12.777200439453125,0.17732056045532227,-4.817433015441894,-2.111386589050293
1789315812855234000,12.787234130859375,0.423923331451416,-4.905868839263916,-2.858078231811523
1789315812865268200,12.797268310546874,0.5128080680847168,-4.739621461486816,-3.0234277839660644
1789315812875302100,12.80730224609375,0.05327098693847656,-4.664653022003174,-2.8407202697753906
1789315812885336000,12.817336181640625,-0.6278793853759765,-4.757577973937988,-2.216132911682129
1789315812895370200,12.827370361328125,-1.0778396598815918,-4.978592714691162,-1.567304261779785
