time,seconds_elapsed,z,y,x
1789315800122152400,0.05415234375,-0.24237667773365973,0.07253945877104997,-0.3140294898632914
1789315800132186000,0.06418603515625,-0.29390345135331153,0.017424889792501924,-0.17267865293361245
1789315800142220300,0.07422021484375,-0.20067454803586005,0.06351093366295099,-0.04578194635733962
1789315800152253200,0.084253173828125,-0.12512275570631026,0.1389502055287361,0.09321838192343711
1789315800162287400,0.094287353515625,-0.02359656416475773,0.07558043390214443,0.1221255466517061
1789315800172321300,0.1043212890625,0.18997721293270586,-0.037026246841251845,-0.00838197083286941
1789315800182355200,0.114355224609375,0.28064240324199197,-0.03902560396492481,0.052016602963209146
1789315800192389400,0.124389404296875,0.2233253557831049,0.08976239625066518,0.2095759396329522
1789315800202423300,0.13442333984375,0.07710545151233672,-0.018518530248105524,0.07082191426344216
1789315800212457200,0.144457275390625,-0.04265431585609913,-0.05755845499932766,0.05760689725093543
1789315800222491400,0.154491455078125,-0.18699439772963522,-0.04107259962260723,0.045377018818259236
1789315800232525000,0.164525146484375,-0.20783844831585882,-0.02119359467625618,-0.03129150258153677
1789315800242559200,0.174559326171875,-0.0718733960777521,-0.019391221429407596,-0.05115275267548859
1789315800252593200,0.18459326171875,0.07535714654028415,-0.01704874995648861,-0.043289106628298754
1789315800262627000,0.194626953125,0.29504268451631066,-0.10146364769935608,-0.1726478924691677
1789315800272661200,0.2046611328125,0.4207803572505712,-0.1523249431475997,-0.24146394680291414
1789315800282695200,0.214695068359375,0.2850631422936916,-0.1909805447563529,-0.2168541870076209
1789315800292729000,0.22472900390625,-0.20328560731709003,-0.24427052865624427,-0.25376031460054216
1789315800302763300,0.23476318359375,-0.597991612112522,-0.07280366266518831,-0.12931173182874917
1789315800312797200,0.244797119140625,-0.673194444873929,-0.047053719858825206,-0.07552775386683643
1789315800322831000,0.2548310546875,-0.7067243740320205,-0.07049684702754021,-0.31894897221736607
1789315800332865300,0.264865234375,-0.5671054754614829,-0.1925251438498497,-0.2468057462222874
1789315800342898200,0.274898193359375,-0.3787549869477749,-0.14576953015476465,0.10072283926941454
1789315800352932000,0.28493212890625,-0.4126987576037645,0.08239683591872453,-0.04898658761754632
1789315800362966300,0.29496630859375,-0.4397469235271215,0.13053688970953226,-0.0840816472005099
1789315800373000200,0.305000244140625,0.14955693973898887,0.03955664210170507,0.16223865359239278
1789315800383034000,0.3150341796875,1.2310188817709684,0.15709347272366284,0.48862500926889474
1789315800393068300,0.325068359375,1.3402712836503983,0.11848580190986394,-0.21271796398572623
1789315800403102200,0.335102294921875,1.0676222172498702,-0.11872574814558029,0.34691286474615335
1789315800413136100,0.34513623046875,0.5734685807526111,0.061902913944423196,0.32971776512153445
1789315800423170300,0.35517041015625,0.0034901802033185957,0.36653964849710463,0.44210934180952605
1789315800433204200,0.365204345703125,-0.3810866447657347,0.36962884668409823,0.4475519712548703
1789315800443238100,0.375238037109375,-0.6188736566215753,0.17804741342514752,0.0858759832713753
1789315800453272000,0.38527197265625,-0.8352461245268583,0.03142038965821266,-0.2654177269075066
1789315800463306200,0.39530615234375,-0.9115782535791397,-0.1374345402687788,-0.3289148512408137
1789315800473340200,0.405340087890625,-0.639974896839261,-0.09293196619749068,0.06977532781995832
1789315800483374000,0.4153740234375,-0.6438257270485163,0.20298136367350816,0.10734795649759471
1789315800493408300,0.425408203125,-0.832175046518445,0.21788462603390216,-0.10229702978357672
1789315800503442200,0.435442138671875,-0.5818757590919733,-0.07458733121156692,-0.30325645917542277
1789315800513475000,0.44547509765625,0.01717676025032997,-0.36330139722824095,-0.45964185669496654
1789315800523509200,0.45550927734375,0.5262538251131773,-0.3843938696175813,-0.5239079926393926
1789315800533543200,0.465543212890625,0.6721802993953228,-0.25054595566391946,-0.46418592986539003
1789315800543577000,0.4755771484375,0.6286410173982382,-0.2091365253023803,-0.4791797200534492
1789315800553611300,0.485611328125,0.46846623753309247,-0.19168693946003912,-0.5560153416484594
1789315800563645200,0.495645263671875,0.32446167122423647,-0.09583470190167427,-0.5881547662962228
1789315800573679000,0.50567919921875,0.18571254122555256,-0.11385901889204979,-0.5538776720326394
1789315800583713300,0.51571337890625,0.0571644872456789,-0.3027459523700177,-0.5269282172434032
1789315800593747200,0.525747314453125,0.10119885928332804,-0.42126463363617656,-0.5856808504633605
1789315800603781000,0.535781005859375,0.3105751846909523,-0.14565847099572418,-0.576474703766033
1789315800613815300,0.545815185546875,0.4144786267578602,0.16643384025990962,-0.5855620463892817
1789315800623849200,0.55584912109375,0.21352350821495056,-0.11705416167154907,0.015813582138344644
1789315800633883100,0.565883056640625,-0.5571650962054729,-0.5922035302303731,0.6601223434634507
1789315800643917300,0.575917236328125,-0.3251759569734335,-0.41933585753068325,-1.39012413270846
1789315800653951200,0.585951171875,0.07381634683907032,-0.8371158639214933,-1.0751861496981232
1789315800663985200,0.595985107421875,-0.0512736756414175,-0.6210466167464852,-0.3062047145217657
1789315800674019300,0.606019287109375,-0.41758886773288245,0.19714871199727058,-0.3792311530921608
1789315800684052200,0.61605224609375,-0.9976759898424148,0.24906682302206753,-0.09421776822432876
1789315800694086400,0.62608642578125,-0.694569241335988,0.02434256022647023,-0.28182606006860733
1789315800704120000,0.6361201171875,0.2723053675293922,-0.03805485923662782,-0.4649400361683219
1789315800714154200,0.646154296875,0.49396191331744194,-0.08413885728046297,-0.4427037275061011
1789315800724188400,0.6561884765625,0.19795301411747931,-0.04455415812805295,-0.5776091146234422
1789315800734222000,0.66622216796875,-0.032059272083640095,0.3395515421979129,-0.09147877171449363
1789315800744256300,0.67625634765625,-0.1249427229642868,0.307117007061094,0.9285112682014703
1789315800754290200,0.686290283203125,-1.3526152169167995,0.04823123920559883,0.8818064348455518
1789315800764324000,0.696323974609375,-1.501667129743099,0.08471431908085941,-0.3033524668958038
1789315800774358300,0.706358154296875,-0.4968336693614721,-0.12004764439910649,-0.06507175323888659
1789315800784392200,0.71639208984375,-0.3163432466983795,-0.1412435771629214,0.612363544075191
1789315800794426000,0.726426025390625,0.020277064353227615,0.1663676431559026,0.6331842868510633
1789315800804460300,0.736460205078125,-0.14305880989134312,0.23469153005853294,0.25828327191770073
1789315800814494200,0.746494140625,-0.5950520515292883,0.17342063040733335,-0.12732019268535077
1789315800824528100,0.756528076171875,-0.6004477730929851,0.06713160837814211,-0.18318923329301176
1789315800834562300,0.766562255859375,-0.4680465508162975,0.028895255094766616,-0.3078745474301278
1789315800844596200,0.77659619140625,0.14578092833161352,-0.1330687462747097,-0.6571687543548643
1789315800854630100,0.786630126953125,1.1672487126499413,-0.07185133037641644,-0.7298843003451824
1789315800864663000,0.7966630859375,1.3453478562623262,-0.041162615993618965,-0.662052873134613
1789315800874697200,0.806697265625,1.2442308300435543,-0.4061453904375434,-1.0985754277877509
1789315800884731400,0.8167314453125,0.9571323825299739,-0.9848128550074994,-1.007352019073814
1789315800894765000,0.82676513671875,0.5900099657088518,-0.9296172566819936,-0.9548368189387023
1789315800904799200,0.83679931640625,0.42465339929163454,-0.4087964894682169,-0.7665871604509651
1789315800914833400,0.84683349609375,0.6578045680403709,-0.165261873871088,-0.5496121966078877
1789315800924867000,0.8568671875,0.5835533369153738,0.36450697362571954,-0.2849750256188214
1789315800934900500,0.866900390625,-0.924237244144082,1.2658517102211713,0.8623686708606779
1789315800944934700,0.8769345703125,-4.1814790446817875,0.7300448977343738,1.3012481639035045
1789315800954968600,0.886968505859375,-1.3604179996222256,0.9034375441562383,-0.2200451650686562
1789315800965002500,0.89700244140625,1.3938549897998571,0.732652230688557,-0.4244949938595295
1789315800975036700,0.90703662109375,1.1287883413523434,1.0939486447699367,0.6211917243055999
1789315800985070600,0.917070556640625,-0.11379062983095645,0.8483618458833545,1.0026352196849881
1789315800995104500,0.9271044921875,0.29221593665778633,-1.3472862769789993,0.6996246250294148
1789315801005138700,0.937138671875,1.1368401303827762,-2.1921417952418327,-0.7370657362818718
1789315801015172600,0.947172607421875,1.8861673823446035,-1.1657030175779015,-1.2130860424563288
1789315801025206500,0.95720654296875,1.9370985281586646,-0.371518277159892,-0.5465494480364025
1789315801035240700,0.96724072265625,0.8388380115389823,-0.0967766589269042,0.01935980337783694
1789315801045273600,0.977273681640625,-0.4273562285095453,-0.24927827381566164,-0.05715455037355423
1789315801055307500,0.9873076171875,-0.36079204475581644,0.24796054228059947,-0.17925050560459493
1789315801065341700,0.997341796875,1.5469032787859438,0.8602665840148925,-0.12190554722547531
1789315801075375600,1.007375732421875,2.597751471367478,0.5773708488881588,0.5959184591002762
1789315801085409500,1.017409423828125,2.695030526858568,0.13985084416288882,0.7976477768860757
1789315801095443500,1.027443359375,2.031397691056132,0.2115289368642494,0.29059534971863027
1789315801105477600,1.0374775390625,0.5853554179012775,0.33259931190721687,0.3042582566291094
1789315801115511600,1.047511474609375,0.02706979323327541,0.8855690753147005,0.6488828643076121
1789315801125545500,1.05754541015625,0.32523324011862276,1.3782260435134173,0.40287908211797474
1789315801135579600,1.06757958984375,1.085513847771287,0.9419757299304008,0.33598040571287274
1789315801145613600,1.077613525390625,1.6374281838417053,1.4407801148429513,1.1072812968127428
1789315801155647500,1.0876474609375,1.4550129305958748,1.6636894371710718,1.285033965075016
1789315801165681700,1.097681640625,1.7547072403103112,1.1342537671513855,0.5554419256746769
1789315801175715600,1.107715576171875,1.963228410193324,0.2752740994081832,0.7606964949771762
1789315801185749500,1.11774951171875,1.703078759881854,-0.19814084657346828,0.9723727678902446
1789315801195783700,1.12778369140625,0.4190940115988254,-1.5673419634416699,1.4276932542547582
1789315801205817600,1.137817626953125,0.0010246668726205826,-1.6738858370147645,1.6100591154009103
1789315801215850500,1.1478505859375,-0.4929331547915935,-1.5004948710933326,1.4858350620999932
1789315801225884700,1.157884765625,-0.7113093637347221,-1.5960760366253555,0.8540300277128815
1789315801235918600,1.167918701171875,-0.9022147974282503,-0.8428275195665657,0.40957273453772064
1789315801245952500,1.177952392578125,-0.9727835406482219,-0.6717663848321884,0.778925394628942
1789315801255986700,1.187986572265625,-1.2345990783452987,-0.9409918334595858,0.631048955322802
1789315801266020600,1.1980205078125,-1.9370207867473364,-1.0469532309696077,1.0304334733232856
1789315801276054500,1.208054443359375,-1.9759902766108512,-0.9650329265214502,1.161497601777315
1789315801286088700,1.218088623046875,-1.4424065470010041,-0.5557525259938091,0.8643383634984493
1789315801296122600,1.22812255859375,-0.9378969361841678,0.04986972712762654,0.11811404598802328
1789315801306156500,1.238156494140625,-0.4577256478101015,0.8211325512394309,-0.48770752909779547
1789315801316190500,1.2481904296875,-0.5106149419546127,1.2111089702297002,-2.271194289168715
1789315801326224600,1.258224609375,-0.8561807760059833,2.4451418660596014,-3.9561593002110715
1789315801336258600,1.268258544921875,-1.5983704311728477,2.0413713880598543,-2.0572332663193342
1789315801346292500,1.27829248046875,-1.1997568975448607,0.8375508943378925,-0.3757686646133661
1789315801356326700,1.28832666015625,-0.13964227944612503,0.6389555637288838,-0.3876373815834522
1789315801366360600,1.298360595703125,1.5484487546622752,1.300565588466823,0.13273469201475382
1789315801376394500,1.30839453125,0.8035276287049055,1.5740414610803126,-0.7204185528635978
1789315801386427600,1.318427734375,0.00001695113480091095,0.9734743724565953,-0.30213001242876053
1789315801396461600,1.328461669921875,0.07741875524520873,0.258361670916155,-0.6120858961775899
1789315801406495500,1.33849560546875,-0.25454174730181695,0.7594165381692349,-0.8297872745990753
1789315801416529700,1.34852978515625,-1.231224633476138,0.02045358996391296,0.14631781168729066
1789315801426563600,1.3585634765625,-1.4740455478459595,-1.6607384784109889,1.292050273577869
1789315801436597500,1.368597412109375,-0.5101777195811271,-1.7178090037629008,1.540060573284328
1789315801446631700,1.378631591796875,0.08155833926796913,-0.22684783082082866,0.3383767993301153
1789315801456665600,1.38866552734375,-0.5962813010632991,0.34993389306776224,-0.3005564795017242
1789315801466699500,1.398699462890625,-1.334212129741907,0.12060425536856055,-0.701201226696372
1789315801476733700,1.408733642578125,-1.3945587541550397,0.17686397579424082,-0.8626099322706461
1789315801486767600,1.418767578125,-0.8216916464269161,0.29705855438336726,-0.5754743676170706
1789315801496801500,1.428801513671875,-0.29270459695756434,0.30431473605670034,-0.15611293725371359
1789315801506835700,1.438835693359375,-0.2292535767883062,-0.09032236822098492,0.20799568470418453
1789315801516869600,1.44886962890625,-0.2571972302466631,-0.34329737766273316,0.19929829124659298
1789315801526903600,1.458903564453125,-0.18095745565295218,-0.17442388916574417,-0.07144990996867417
1789315801536937700,1.468937744140625,-0.6009615678340197,-0.30645671652145684,0.11059271057248114
1789315801546971600,1.4789716796875,-0.6239736101090908,-0.5365099192548543,-0.04932283383458853
1789315801557005600,1.489005615234375,-0.29771511859595773,-0.49505650362111625,0.0245867442458868
1789315801567038500,1.49903857421875,-0.12294015097022055,-0.38719497157819566,0.2609130358994007
1789315801577072600,1.50907275390625,0.045748190218210215,-0.156440927099064,0.3498158927112818
1789315801587106800,1.51910693359375,0.11884089895784854,0.22550781438872217,0.09413988068252802
1789315801597140500,1.529140380859375,-0.0030839374899864196,0.3086527652610093,-0.29975685355663295
1789315801607174700,1.539174560546875,0.12147709268033503,0.17198252389561383,-0.3810454359725117
1789315801617208600,1.54920849609375,0.4425841927796602,0.24392208054475484,-0.20662585765570401
1789315801627242500,1.559242431640625,0.7909750211238861,0.0808128546629101,0.40012802984416485
1789315801637276700,1.569276611328125,1.0612526822179555,0.06031864042766392,0.44371582715809343
1789315801647310600,1.579310546875,0.6258610312908888,0.6878226896852254,0.3429991984337568
1789315801657344500,1.589344482421875,0.08933774109780789,0.987194343316555,-0.17045388955622912
1789315801667378700,1.599378662109375,-0.4952887780070305,0.9890963775455951,-0.6279486512199044
1789315801677412600,1.60941259765625,-0.6245148773789405,0.8536107793875038,-0.7301794838994741
1789315801687446500,1.619446533203125,-0.5369821398764848,0.5374714942960068,-0.5702794293224811
1789315801697480700,1.629480712890625,-0.31361469851732254,0.3088160295313224,-0.12634236062914134
1789315801707514600,1.6395146484375,0.1519394509613514,0.07480966872535645,0.2209349535152316
1789315801717548500,1.649548583984375,0.5855605850845575,-0.20272351645492015,0.4316913351044059
1789315801727581400,1.65958154296875,0.6237164204776287,-0.3233106745582074,0.4812953239679336
1789315801737615600,1.66961572265625,0.5808686278760433,-0.1489734224963002,0.16480711584091184
1789315801747649800,1.67964990234375,0.16507248877882957,-0.04951283998135477,-0.17853227433264254
1789315801757683500,1.689683349609375,-0.025241408762335774,-0.21487271260051055,-0.29957594403177495
1789315801767717600,1.699717529296875,0.010389292067289353,-0.5846760573349893,-0.19157909517139196
1789315801777751800,1.709751708984375,0.2196341000497341,-0.6480398376122116,0.18421061223000287
1789315801787785500,1.719785400390625,0.3262105607181787,-0.311601970455423,0.36539310881048437
1789315801797819600,1.729819580078125,0.26901626285612584,-0.11098384704822674,0.17556202635020016
1789315801807853800,1.739853759765625,0.19776888972222803,-0.1976206403579563,-0.15116583624035118
1789315801817887500,1.749887451171875,-0.14569558813571928,-0.25092633328363295,-0.14192249933779238
1789315801827921700,1.759921630859375,-0.3832365162760019,-0.21338472079876808,-0.07285860772281885
1789315801837955800,1.769955810546875,-0.4032821099609136,-0.23335012538693845,-0.15864274799227712
1789315801847989500,1.779989501953125,-0.38500937116742134,-0.15022570584602654,-0.47339521836787457
1789315801858023700,1.790023681640625,-0.5392541764616966,-0.21456165562365204,-0.5414972792133689
1789315801868057600,1.8000576171875,-0.5529617992967367,-0.6958557740151882,-0.34605683243870733
1789315801878091500,1.810091552734375,0.045457682839035986,-0.8183043420761823,0.16181845541894435
1789315801888125700,1.820125732421875,0.3767582601726055,-0.5620532335732132,0.40891134801954027
1789315801898159600,1.83015966796875,0.5187772056221962,-0.13249847210608423,0.21247019976973533
1789315801908192500,1.840192626953125,0.19201894789338111,0.19638518027886748,-0.2975079055860638
1789315801918226400,1.850226318359375,-0.3158119163006544,0.41026626975983377,-0.5776356373041868
1789315801928260600,1.860260498046875,-0.4700701655983925,0.34810251292213795,-0.4033966762512922
1789315801938295600,1.870295654296875,-0.4520522783488035,-0.3768886816192418,-0.11047376036792993
1789315801948329700,1.880329833984375,0.2675824306607246,-0.579640620451048,0.3049395168915391
1789315801958363600,1.89036376953125,1.0363070415318012,-0.10679003035388886,0.8312012330502271
1789315801968397600,1.9003974609375,0.48588557436764235,0.1159040417883545,0.462842260171473
1789315801978431700,1.910431640625,-0.5569564218908548,-0.026397081603482364,-0.20117957494854927
1789315801988465700,1.920465576171875,-0.5292553450167179,0.6263818402945995,-0.2188224914059043
1789315801998499600,1.93049951171875,-0.40677579729557034,1.0492071473762392,-0.1048041902989149
1789315802008533800,1.94053369140625,-0.34232232208549973,0.815701831427589,-0.12945932360589504
1789315802018567700,1.950567626953125,-0.25971359698176383,0.7186282353807241,-0.07036153021007775
1789315802028601600,1.9606015625,-0.36024727035462856,0.6925851548466831,-0.17783114032596348
1789315802038635800,1.9706357421875,-0.45805531815588474,0.9246821383673697,-0.34363077433556316
1789315802048669700,1.980669677734375,-0.47011342021822927,0.9252999780047685,-0.4239487581536174
1789315802058703600,1.99070361328125,-0.13253858492076395,0.5860850473500788,-0.0892798734307289
1789315802068737800,2.00073779296875,0.2233031439512968,0.1779494329433888,-0.017056933262944222
1789315802078770700,2.010770751953125,0.5995896949589252,-0.01693871371075511,-0.24421587585955856
1789315802088804600,2.0208046875,0.6295014336198568,0.06163892924599349,-0.8884969454601407
1789315802098838500,2.030838623046875,-0.19698855299949644,0.10528773603215813,-1.5687205583184956
1789315802108872700,2.040872802734375,-0.6021960780650377,0.009379822763800621,-1.7688681598708031
1789315802118906600,2.05090673828125,-0.21647651280164718,0.20990239510834216,-2.0231988947704433
1789315802128940500,2.0609404296875,0.09384089773595332,0.2845947941295802,-2.7444740644633767
1789315802138974700,2.070974609375,0.11970073065757751,-0.42951121458634733,-3.094538963499665
1789315802149008600,2.081008544921875,0.4910515788286924,-0.39051615189015865,-1.8454004876703023
1789315802159042600,2.09104248046875,0.18139526254832744,-0.2255113215200603,-0.940804055802524
1789315802169076700,2.10107666015625,-0.6964128233760595,-1.8956167632132768,-1.5983546490818261
1789315802179110700,2.111110595703125,-1.2585609686911106,-3.3757050983548162,-3.017834786264598
1789315802189144600,2.12114453125,-0.4253174161583185,-2.648758020505309,-2.887894401143491
1789315802199178800,2.1311787109375,-0.3141448598712683,-2.334813943903148,-3.0248984410405155
1789315802209212700,2.141212646484375,-0.8656582139253616,-3.102978582803905,-2.2277724960714576
1789315802219246600,2.15124658203125,-1.1662298909962177,-4.030138728657365,-1.1405059594139455
1789315802229280800,2.16128076171875,-0.9716998370647429,-4.888094697642326,-2.1911726579487323
1789315802239314700,2.171314697265625,-1.2675836485803127,-5.901345857757329,-3.5751670557305215
1789315802249348600,2.1813486328125,-1.404015733808279,-5.585742615771293,-3.687262279820442
1789315802259381800,2.1913818359375,0.012969371688365936,-5.912406180953979,-3.4650603751093145
1789315802269415700,2.201415771484375,4.93972902328968,-4.494698021879792,-0.46523178565651174
1789315802279449600,2.21144970703125,7.165902267470956,-1.3694184676796197,1.0588596496015787
1789315802289483800,2.22148388671875,5.398120441532135,0.7092296348512173,-0.5534978058695793
1789315802299517700,2.231517578125,1.9977523188248276,1.0653133557856083,-3.0487559942290186
1789315802309551600,2.241551513671875,-0.9858248085290193,1.186208849185705,-4.081011422282457
1789315802319585800,2.251585693359375,-1.8174357914239168,1.6018004056215285,-3.9757179871618744
1789315802329619700,2.26161962890625,-1.1855099071361124,0.9190572111576795,-3.716162503351271
1789315802339653600,2.271653564453125,0.3024433161616325,-0.1604261242777109,-3.0189845408216116
1789315802349687600,2.2816875,2.334224453577399,0.3527466854661703,0.4871738606125116
1789315802359721700,2.2917216796875,2.1764456289380787,1.2181050396621227,2.930089867316186
1789315802369755600,2.301755615234375,0.7317454180419445,0.8626999486416578,3.023293928453326
1789315802379789600,2.31178955078125,-1.1944938624501227,0.48594285751283167,2.9017651055857536
1789315802389823700,2.32182373046875,-2.0414370006419715,-0.20053367826044557,2.415655951595306
1789315802399857700,2.331857666015625,-1.1196855819642544,-0.7705389668166637,2.8009567069247363
1789315802409891600,2.3418916015625,1.4115199719585478,0.5763666402816772,5.592753371316194
1789315802419925800,2.35192578125,3.8368753336608408,2.1569366263478993,7.425740367615223
1789315802429959700,2.361959716796875,4.941093297380209,2.571520467045903,7.072133265927434
1789315802439992600,2.37199267578125,4.704094513292611,2.888925790017843,5.484034053400158
1789315802450026800,2.38202685546875,4.227515696452558,3.3021909493327137,3.580492634667456
1789315802460060700,2.392060791015625,3.570508708530664,2.3541595726251603,0.9180144241064786
1789315802470094600,2.402094482421875,2.114785145447403,1.0861094755768774,-1.693053917212784
1789315802480128800,2.412128662109375,1.1836921901896595,0.5148784446179866,-3.6113872468858954
1789315802490162700,2.42216259765625,0.6985337610527873,0.37026422197818754,-4.223297494235634
1789315802500196600,2.432196533203125,1.151693708382547,0.18914193115234373,-3.0537042642861603
1789315802510230800,2.442230712890625,5.157632938545942,0.27524785072207447,0.5394885697394609
1789315802520264700,2.4522646484375,7.3685425626218315,1.0593453872919083,1.7675211291760204
1789315802530298600,2.462298583984375,7.771206248423456,1.9615771358549594,2.1361248705960807
1789315802540332800,2.472332763671875,7.587567590862512,2.3532430423021315,2.8661472642377017
1789315802550366700,2.48236669921875,6.302035613137483,1.376295952233672,4.2703515063554045
1789315802560400600,2.492400634765625,4.161231206423044,0.1441962894886732,2.490008305007219
1789315802570434600,2.5024345703125,1.175930908538401,-0.1505927125275135,1.0887453770384192
1789315802580468700,2.51246875,-0.2818281058952212,0.21580548167228697,0.7040044475488364
1789315802590502700,2.522502685546875,0.09666969142109155,0.6854957080423831,-0.05153466466516256
1789315802600536600,2.53253662109375,-0.5803662313118577,-0.3721528122037649,0.40198330232203006
1789315802610569700,2.54256982421875,0.03695361999645829,-0.25660627861618995,1.827837212320417
1789315802620604000,2.55260400390625,2.2419113499306143,0.7161708322912455,3.2090526469081637
1789315802630637600,2.562637451171875,4.134330340015888,1.5480869356125593,4.188496814489365
1789315802640671700,2.572671630859375,4.447164117288589,1.583719974529743,3.7722277971833944
1789315802650705700,2.58270556640625,1.7145394805729388,0.9402543129652738,2.5944670428693293
1789315802660739600,2.592739501953125,-0.2777483623009175,0.3117863140463829,1.732788984621316
1789315802670773800,2.602773681640625,-5.713916575741767,-1.550536082330346,-0.21377149162665007
1789315802680807700,2.6128076171875,-6.453671112716197,-0.24823066445887088,-2.2475835503481325
1789315802690841600,2.622841552734375,-6.611935090523958,1.5819751766890287,-2.787040409775078
1789315802700875800,2.632875732421875,-6.426103891354799,2.139491570550203,-1.18509942663908
1789315802710909700,2.64290966796875,-4.017750371727347,-0.09264028977453709,-1.8599783174686133
1789315802720943600,2.652943603515625,-2.82852422054708,-1.4255050965607166,-0.9235239813081919
1789315802730977800,2.662977783203125,-0.7855956661731004,-2.4424048423111437,0.49773646342009303
1789315802741011700,2.67301171875,-0.9757575880229472,-4.063306254243851,1.7135832027614115
1789315802751045600,2.683045654296875,-0.5613496153485029,-5.545006116235256,1.1643182121559976
1789315802761079800,2.693079833984375,1.7610703456014394,-4.5467993805170055,0.8445826926708221
1789315802771113700,2.70311376953125,2.8095038782566784,-2.2184593088030815,0.010434884774684905
1789315802781147000,2.71314697265625,4.440775877556205,0.0618266338378191,-1.6364301127150653
1789315802791180500,2.7231806640625,3.8068788393259045,0.2707376798212528,-3.3780475698277352
1789315802801214700,2.733214599609375,3.7073084580272435,0.2551438048481941,-3.481710481137037
1789315802811249000,2.743248779296875,3.476292547741532,-0.07776245411634444,-1.7186451623260974
1789315802821282600,2.753282470703125,2.337533431994915,-1.0174842676401137,0.07410276256501674
1789315802831316700,2.763316650390625,1.7102765624314546,-1.4107248760581015,1.2519006340190768
1789315802841351000,2.773350830078125,2.401606967976689,-0.19681904165148734,1.9021368126317857
1789315802851384600,2.783384521484375,1.6640969950586557,-1.2673638683497905,1.158705632971227
1789315802861418800,2.793418701171875,-0.6664660134017467,-1.2714444156616926,0.7229755438700318
1789315802871452700,2.80345263671875,-0.15125965200364588,-1.50655197917521,0.6048740651026367
1789315802881486600,2.813486572265625,0.12172383398301899,-0.7599597051352263,0.3818921159297228
1789315802891520800,2.823520751953125,0.03772212015092373,0.47139819933176036,0.67767802002877
1789315802901554700,2.8335546875,-0.09961297833137214,1.3619921170711518,1.0305123837783932
1789315802911588600,2.843588623046875,-0.922346315830946,2.3287007217198608,1.5857228387847542
1789315802921622800,2.853622802734375,-0.7185533435136079,0.47444589646458624,0.6689172059461475
1789315802931655700,2.86365576171875,0.14489537766873836,-3.6507407676309347,-1.1765084161654114
1789315802941689600,2.873689697265625,-0.6947171253740787,-5.280108979135751,-0.6596098638966679
1789315802951723500,2.8837236328125,-2.7553572775274513,-2.7207272781729697,0.8382672259137034
1789315802961756700,2.893756591796875,-3.440921374630928,-0.9564338788717984,1.7673621392220258
1789315802971790600,2.90379052734375,-3.086599987193942,0.22575404423475265,1.910523532705009
1789315802981824500,2.913824462890625,-2.012652658575773,-0.6745557963550091,0.8991986644774674
1789315802991858400,2.9238583984375,-0.6009159751266241,-3.397834512576461,1.5084294634848832
1789315803001892600,2.933892578125,0.4704430905640125,-5.583741797342896,2.9482044929385185
1789315803011926500,2.943926513671875,-0.6046808806180953,-6.367749902063608,5.694864669269323
1789315803021960400,2.95396044921875,-1.6031810463249683,-6.246008020967245,7.2506895056575535
1789315803031994600,2.96399462890625,-0.6066401979923248,-4.632874320426583,5.432579175972938
1789315803042028500,2.974028564453125,-2.1087429426737128,-2.2868407711118457,4.5196264191702005
1789315803052062500,2.9840625,-2.388350596040487,1.4368354688704013,6.52291532933414
1789315803062096600,2.9940966796875,-0.14183715914189815,9.288078546082973,9.688205991405248
1789315803072130600,3.004130615234375,4.87187947590053,2.113544643867016,5.56286501353085
1789315803082164500,3.01416455078125,8.128409328776598,-2.0916554681420325,-5.863162549835443
1789315803092198700,3.02419873046875,10.095289247214794,-0.9911942266076803,-13.238050682091712
1789315803102232600,3.034232666015625,6.328614992505312,-0.9658049338072537,-15.106170951092242
1789315803112266500,3.0442666015625,2.690323956602812,0.8613684077769518,-11.924290973269938
1789315803122300700,3.05430078125,1.6895535078763961,3.7625235647708175,-7.151499063587188
1789315803132333600,3.06433349609375,1.1660811301752925,4.328004653900861,-4.3403211146384475
1789315803142367500,3.074367431640625,-0.07315174545049667,4.202960808649659,-1.6767685528442262
1789315803152401700,3.084401611328125,-2.5802593615576623,4.669608598583936,-2.3381349050194022
1789315803162435600,3.094435546875,-0.039593466980755325,1.6345587658852339,-2.8186548607006667
1789315803172469500,3.104469482421875,2.701649652737379,0.6224187818825244,0.07500935601592064
1789315803182503700,3.114503662109375,3.670377780514955,0.6589958236515522,1.7020432793542741
1789315803192537600,3.12453759765625,2.972683392895758,-0.8378273731917142,2.400003332172334
1789315803202571500,3.134571533203125,5.589615657812357,2.0728338632941243,0.8974111965388059
1789315803212605700,3.144605712890625,3.1200618195518848,2.3954133740335704,-0.6721756232202053
1789315803222639600,3.1546396484375,3.1543542575150725,0.5605336958557366,-2.2463725671231747
1789315803232673500,3.164673583984375,7.789138795477151,2.277629290652275,-2.1909569693714377
1789315803242707500,3.17470751953125,5.6169362109363075,10.191674568736552,-4.677245961594581
1789315803252741600,3.18474169921875,-3.415512208086252,13.09280868294239,-6.5909700439065695
1789315803262775600,3.194775634765625,-3.356688263195753,11.945739419490097,-1.2915256651818752
1789315803272809500,3.2048095703125,-1.1101974765203892,7.741427780753374,-1.1261544857174157
1789315803282843600,3.21484375,1.5586743806004524,1.769745234966278,-3.244077198538184
1789315803292877600,3.224877685546875,8.55040023086071,-4.908540688821673,-4.181649140551686
1789315803302910500,3.234910400390625,11.89981937983632,-11.91917757577896,2.0952660598546267
1789315803312944600,3.244944580078125,-0.19342399238571523,-8.52576497129798,6.222110428029298
1789315803322978600,3.254978515625,-11.781488768488169,-5.121562677255272,2.6088436510071156
1789315803333012500,3.265012451171875,-13.776197774094342,-7.303408703932166,2.591173846542835
1789315803343046700,3.275046630859375,-6.772583917641639,-10.081581039857864,6.206454593735933
1789315803353080600,3.28508056640625,-0.000051291795819997785,-5.198514984032512,7.104393613541125
1789315803363114500,3.295114501953125,-5.816914008879661,4.361772483468055,2.637807295162976
1789315803373148700,3.305148681640625,-10.655568676048517,8.099090295311807,-1.2061372462317346
1789315803383182600,3.3151826171875,-4.335101918685436,2.128658041846752,-1.0827765317618847
1789315803393216500,3.325216552734375,1.1551252902664244,-3.5789316689610478,-1.9956372263669966
1789315803403250700,3.335250732421875,2.6392285601377488,-6.067935765361786,-0.3673927581951022
1789315803413284600,3.34528466796875,3.017997575610876,-7.353978030696511,4.518917101857066
1789315803423318500,3.355318603515625,1.3282710492551326,-6.6942883795619,6.213226864349842
1789315803433352700,3.365352783203125,0.2804477574527263,-6.634221156612038,3.059157853516936
1789315803443386600,3.37538671875,-0.17755438747750593,-5.443590983852744,-0.33988545032739637
1789315803453420500,3.385420654296875,-0.2372936753809452,-3.46182387740612,-0.9808972889989613
1789315803463454500,3.395454345703125,-0.1826958237528801,-1.7744687563568353,-0.6331234235092997
1789315803473488600,3.405488525390625,-0.23582946631358936,1.6939613874465227,0.310767784653604
1789315803483521800,3.415521728515625,-1.5496879410684108,2.5456407603800297,1.091351175622642
1789315803493555500,3.425555419921875,-2.252019048577547,1.089885486984253,0.020163374845683573
1789315803503589600,3.435589599609375,-0.5371651317605749,-1.7462001087278127,0.5771015304274857
1789315803513623800,3.445623779296875,-1.3205413317859171,-1.5652701256036758,0.04188698474541306
1789315803523657500,3.455657470703125,-2.269550613614917,-0.9270721753090619,-1.798913315653056
1789315803533691600,3.465691650390625,-1.3040946393758057,1.0618161613196133,-4.717141918653249
1789315803543725600,3.4757255859375,-1.9646505519509314,2.751772989299893,-6.033627837568521
1789315803553759500,3.485759521484375,-1.7174831328094005,3.3499791209459304,-5.229553680896759
1789315803563793700,3.495793701171875,2.700851195836067,4.5724207285076375,-1.5131214206933974
1789315803573827600,3.50582763671875,5.352329581215978,2.9674048679709433,2.2024422399818895
1789315803583861500,3.515861572265625,3.502863159281015,-0.5587526576578616,2.4146973356962205
1789315803593895700,3.525895751953125,0.8292799095988274,-2.771960621803999,1.1903595391243695
1789315803603929600,3.5359296875,-1.1567489459455012,-2.7315742508798837,0.08089052300900221
1789315803613963500,3.545963623046875,-1.8155185596257448,-2.6239678626418113,-0.4889454003296792
1789315803623997700,3.555997802734375,-1.582674264869094,-1.345911335363984,-1.272541855509579
1789315803634031600,3.566031494140625,-1.1287416526664047,0.6349789882481098,-1.5313811538748443
1789315803644065500,3.5760654296875,-0.5827421666629612,1.3611451448529959,-0.43652620791494845
1789315803654098400,3.586098388671875,-0.05862345388233661,1.420882697457075,1.2935615549236534
1789315803664132600,3.596132568359375,-0.13118760870322585,0.9429793540149927,1.5771502407506108
1789315803674166800,3.606166748046875,0.4906405138097703,0.384482132422924,1.047389284299314
1789315803684200400,3.616200439453125,0.803320561825484,0.07177870353162288,0.51293257124722
1789315803694234600,3.626234619140625,0.8264613450467586,0.28708441898822784,0.1624284040108323
1789315803704268800,3.636268798828125,0.24979250694811342,0.7212585108190774,-0.23725977311134336
1789315803714302500,3.646302490234375,-0.09725538235455751,0.8935884233802557,-0.25233839203864333
1789315803724336600,3.656336669921875,0.04887596684992313,0.9942185428649186,-0.09945552274733781
1789315803734370800,3.666370849609375,0.4572410791635513,0.7485112594038248,-0.01274608432650566
1789315803744404500,3.676404541015625,0.7444258897863328,-0.1309673900812864,0.1990472390949726
1789315803754438700,3.686438720703125,0.7720821046054362,-0.5656511849999427,0.465024280385673
1789315803764472600,3.69647265625,0.682647186743468,-0.526412815067172,0.4625380165278911
1789315803774506500,3.706506591796875,0.5110235227555037,-0.3752554543942213,0.37757425273060796
1789315803784540700,3.716540771484375,0.49156639648303385,-0.10132511601150035,0.25327742645442486
1789315803794574600,3.72657470703125,0.43445787720829243,0.2724579277426004,0.22931115219444034
1789315803804608500,3.7366083984375,0.3194454504974186,0.5482634123474359,0.1344046710535884
1789315803814642700,3.746642578125,0.24825755246579645,0.7001800669550895,0.1202867138519883
1789315803824676600,3.756676513671875,0.1679896913997829,0.7230424716264009,0.10333470226824283
1789315803834709800,3.766709716796875,0.14790551927015186,0.6520259846389294,0.07527560573667287
1789315803844743400,3.776743408203125,0.1630729855246842,0.6687514939904212,0.062280222824215886
1789315803854777600,3.786777587890625,0.15374796168804167,0.530823617246747,-0.04096884698718786
1789315803864811800,3.796811767578125,0.1438243874363601,0.4161544510155916,-0.039541736793518065
1789315803874845400,3.806845458984375,0.2777840912014246,0.5418184739917516,0.040158115126192565
1789315803884879600,3.816879638671875,0.3042586950205266,0.6119809744983911,0.07041881335526705
1789315803894913800,3.826913818359375,0.24500761075913904,0.5126701209187507,-0.0017857143729925154
1789315803904947500,3.836947509765625,0.38046982804164287,0.2028425397247076,0.14347206686735153
1789315803914981600,3.846981689453125,0.39245895652100443,-0.16297639328241348,0.30219898601174355
1789315803925015800,3.857015869140625,0.4327973966501653,-0.29812837557196614,0.44127983218282457
1789315803935049700,3.8670498046875,0.37393560396730896,-0.4434831874459982,0.41357203330695624
1789315803945084000,3.877083984375,0.20864377334937453,-0.5969371346235275,0.4521116073206067
1789315803955117800,3.887117919921875,0.17818667576536534,-0.7410434077411889,0.474205657967925
1789315803965151700,3.89715185546875,0.20288404077887534,-0.8688818521469831,0.3235091928049922
1789315803975186000,3.90718603515625,0.11067848915979266,-0.8885293864250182,0.22086510314941404
1789315803985219800,3.9172197265625,0.08694982304796577,-0.6964888112217188,0.08717384106218815
1789315803995253800,3.927253662109375,0.16597046053186057,-0.32779987573623653,-0.0549117398828268
1789315804005288000,3.937287841796875,0.3558341300874948,0.0713946726500988,-0.1724380491107702
1789315804015320800,3.94732080078125,0.4052835129112005,0.28508009342849255,-0.23472353263199328
1789315804025354800,3.957354736328125,0.26978943918570875,0.3285030555695295,-0.21585896542519328
1789315804035388700,3.967388671875,0.24818667918667195,0.30497721855342386,-0.12823533476889132
1789315804045422800,3.9774228515625,0.36171895034238694,0.2688116801947355,0.028990532162785528
1789315804055456800,3.987456787109375,0.4383573688648641,0.1503355228960514,0.14160948786586522
1789315804065490700,3.99749072265625,0.39257995255216954,0.026100655940175056,0.21056845780164002
1789315804075524900,4.00752490234375,0.2286762152917683,-0.01400046830177307,0.24748306096196174
1789315804085558800,4.017558837890625,0.026759558240324256,-0.04600830245912075,0.21450725855529307
1789315804095592700,4.0275927734375,-0.08692381182387471,-0.03300502850115299,0.1827601211607456
1789315804105627000,4.037626953125,-0.17590148743763565,-0.00291267257630825,0.13103519462049007
1789315804115660800,4.047660888671875,-0.22180574500039218,0.03226093213558197,0.06577478694170713
1789315804125694700,4.05769482421875,-0.19106033199429512,0.09524316574931144,0.01803863777667284
1789315804135729000,4.06772900390625,-0.08741802508160472,0.15753040283620356,-0.005579845958948135
1789315804145762800,4.0777626953125,0.06790273888111115,0.17091244697868824,-0.062378714762628074
1789315804155796700,4.087796630859375,0.14842106757685541,0.16957447637319564,-0.09430442359447479
1789315804165831000,4.097830810546875,0.08391206278726458,0.15580080256462095,-0.11891951715201139
1789315804175864600,4.107864501953125,0.01841053982898593,0.0847358002603054,-0.08598989197462796
1789315804185897700,4.117897705078125,-0.009538228195905685,0.03915010712742805,-0.04857406129390001
1789315804195932000,4.127931884765625,0.013774112199991941,0.035218612897396084,-0.030553543695807456
1789315804205965800,4.1379658203125,0.11538389037176966,0.035219781941175456,0.02426087329238653
1789315804215999700,4.147999755859375,0.222264886944741,0.004825228199362755,0.0995303415492177
1789315804226033700,4.15803369140625,0.23779636420607567,-0.007672434324026108,0.15369623150080441
1789315804236067800,4.16806787109375,0.19037410329580307,-0.03958499141335487,0.1924292822599411
1789315804246101800,4.178101806640625,0.09586202830001711,-0.06009937165379524,0.20738748967796564
1789315804256135700,4.1881357421875,-0.07674538602828979,-0.01415302851498127,0.17086276261806488
1789315804266169900,4.198169921875,-0.0932641207613051,0.05245265629291534,0.06153846454620361
1789315804276203800,4.208203857421875,0.03687280984520912,0.006944120049476623,-0.16985592366307972
1789315804286237700,4.21823779296875,0.13169921148717403,-0.03415770566761493,-0.3379460066974163
1789315804296272000,4.22827197265625,0.0773470051832497,-0.06353752940893173,-0.38068303240090606
1789315804306305800,4.238305908203125,0.034019612371176476,-0.09592822540402411,-0.27069793233275413
1789315804316339700,4.248339599609375,0.1085226263001561,-0.11061901405751705,-0.19071254146993158
1789315804326374000,4.258373779296875,0.25677637448608875,-0.19915829825401304,-0.21376608479917047
1789315804336407800,4.26840771484375,0.28350188432633877,-0.213360426607728,-0.20427257252782582
1789315804346441700,4.278441650390625,0.30085224757790563,-0.1419832896143198,-0.14436024787873028
1789315804356476000,4.288475830078125,0.3031878509186208,-0.010461188259720802,-0.027391280272603034
1789315804366508800,4.2985087890625,0.07124079726263881,0.09689911626279353,0.08425532326698303
1789315804376542700,4.308542724609375,-0.14151391853690146,0.1705038661777973,0.2463385671019554
1789315804386577000,4.318576904296875,-0.1475164468873292,0.21861995457112787,0.38714492189139127
1789315804396610800,4.32861083984375,-0.0864396815687418,0.25621464895009993,0.4460109523579478
1789315804406644700,4.338644775390625,-0.04323123896121978,0.2556967625558376,0.4434180132552981
1789315804416679000,4.348678955078125,0.12967325861752033,0.18095394852161406,0.3986883524298668
1789315804426712800,4.358712890625,0.3752998780578375,0.18374796315431594,0.2671492999404669
1789315804436746800,4.368746826171875,0.6682715284537524,0.18794190771281719,0.18154782276153564
1789315804446781000,4.378781005859375,0.8323128475539385,0.29382278733253475,0.25856384242475033
1789315804456814800,4.38881494140625,0.7747709052979945,0.43521687888205046,0.2730029944047332
1789315804466848800,4.398848876953125,0.6457060609024018,0.4555670084714889,0.3330252091690898
1789315804476882700,4.408882568359375,0.43708376873247323,0.34887364342510696,0.3439952237337828
1789315804486916900,4.418916748046875,0.28934892985410987,0.2811889312088489,0.2497039518818259
1789315804496950800,4.42895068359375,0.34681028115451334,0.12320260129868983,-0.02492752050757408
1789315804506984700,4.438984619140625,0.471309352004528,-0.0651116468578577,-0.3424070777595043
1789315804517019000,4.449018798828125,0.6391038861583918,-0.28033026855289933,-0.4862251815855503
1789315804527052800,4.459052734375,0.8008879278510809,-0.32541327286064625,-0.4908212772041559
1789315804537086700,4.469086669921875,0.8019483236242085,-0.12413842084407806,-0.42681642254441976
1789315804547119900,4.479119873046875,0.8342249647855758,0.08955167610943317,-0.23191782756149767
1789315804557153800,4.48915380859375,0.7547855173677206,0.22900924663841724,0.08583674723953008
1789315804567187700,4.499187744140625,0.5225532900948077,0.27730244516432284,0.3517246489420533
1789315804577222000,4.509221923828125,0.240372900163196,0.2740747152894735,0.4653177103742957
1789315804587255800,4.519255859375,0.12212825006544589,0.3032289135813713,0.4887859719842672
1789315804597289700,4.529289794921875,0.29732524249553677,0.37489188177883626,0.4005652522176504
1789315804607324000,4.539323974609375,0.6035007309228182,0.3931763110101223,0.2999354249939322
1789315804617357800,4.54935791015625,0.8836977284848689,0.2818441802471876,0.1738692509576678
1789315804627391700,4.559391845703125,1.0478396584153176,0.2404915946394205,0.24162615162730217
1789315804637426000,4.569426025390625,1.0617676460027694,0.30668752960264684,0.3681175653383136
1789315804647459800,4.5794599609375,0.8668646671056747,0.2590986799538135,0.4400952985733747
1789315804657493800,4.58949365234375,0.6099123515307903,0.08102116365134715,0.4502186331808567
1789315804667528000,4.59952783203125,0.42263621425032616,-0.05502747521698475,0.3605921382695436
1789315804677561900,4.609561767578125,0.42731940363049503,-0.14889000026285648,0.23647242212593553
1789315804687595800,4.619595703125,0.5011527381369844,-0.2673345933794975,0.20391104573905466
1789315804697629700,4.629629638671875,0.7056815869808196,-0.22245149555802343,0.1565638958916068
1789315804707664000,4.639663818359375,0.8771499142765998,0.05002513688504696,0.19241203886419533
1789315804717697800,4.64969775390625,0.8570423612713813,0.14447335286438465,-0.023290859216451642
1789315804727730700,4.659730712890625,0.9740788411557674,0.1724783811211586,-0.22424773132503031
1789315804737764900,4.669764892578125,1.0736896275300531,0.1743330690771341,-0.18942279392033815
1789315804747799000,4.679799072265625,0.9999393316645174,0.11568506527543067,-0.06483575252592563
1789315804757832700,4.689832763671875,0.9606886137068271,0.1355950498819351,0.15368015714883804
1789315804767867000,4.699866943359375,0.8689198460698128,0.182311792871356,0.30252865635752674
1789315804777900800,4.70990087890625,0.8053039176624268,0.12657938425540924,0.395424089936912
1789315804787934700,4.719934814453125,1.0283657271385191,-0.11686638401448726,0.4858241995692253
1789315804797969000,4.729968994140625,1.2698913410007953,-0.44452480545341966,0.6129758307546377
1789315804808002800,4.7400029296875,1.2273040990315378,-0.5425953035831451,0.679843089108169
1789315804818036700,4.75003662109375,1.1693253727935253,-0.39746085646152496,0.6965387878432869
1789315804828071000,4.76007080078125,1.062989150621742,-0.20835165853500365,0.7398588741317391
1789315804838104800,4.770104736328125,1.0330886640071868,-0.11312719748616218,0.6695676326788962
1789315804848138800,4.780138671875,1.2396316656850277,0.01990823104083538,0.5528317431762814
1789315804858173000,4.7901728515625,1.3192637130655347,0.055772156104445456,0.5060375510364771
1789315804868206800,4.800206787109375,1.268728142440319,-0.0516962849676609,0.6159283969499171
1789315804878240800,4.81024072265625,1.1210882883690296,-0.059516018807888024,0.7211673254042863
1789315804888275000,4.82027490234375,1.0258708415828646,0.036869302713871,0.6466412228606641
1789315804898308900,4.830308837890625,1.110295822328329,0.0341331557482481,0.48869317913427945
1789315804908342800,4.8403427734375,1.0976913384295999,-0.1533031405299902,0.41381899380534887
1789315804918375700,4.850375732421875,1.0484032836474477,-0.39152620571553703,0.24033947281762957
1789315804928409900,4.860409912109375,1.1472037034869194,-0.5833879172205925,-0.03456818616464734
1789315804938444300,4.8704443359375,1.1385841975711286,-0.6423463021457195,-0.19573343837186694
1789315804948478200,4.880478271484375,1.170793691780418,-0.5641290899991989,-0.24217633285596965
1789315804958512400,4.890512451171875,1.244699616599083,-0.515435493978858,-0.27303996541425585
1789315804968546300,4.90054638671875,1.2935586323142052,-0.6083920100957155,-0.23436712040975688
1789315804978580200,4.910580322265625,1.2467374060370027,-0.7729857754468917,-0.1679006979420781
1789315804988614400,4.920614501953125,1.1303145280063152,-0.8431763330042362,0.07246770870909094
1789315804998648300,4.9306484375,0.9518424594283104,-0.6627461160957813,0.44631665730625386
1789315805008682200,4.94068212890625,0.806612296847254,-0.5623159030973911,0.7475593655064702
1789315805018716400,4.95071630859375,0.584759497834742,-0.828439367121458,0.9780977214083075
1789315805028750300,4.960750244140625,0.5645723037220537,-1.2465204022854566,1.0355161834150552
1789315805038784300,4.9707841796875,0.6611012714982032,-1.7138988445818424,0.9967097751587629
1789315805048818400,4.980818359375,0.6317023046649992,-1.8796786048471927,0.9865539995864033
1789315805058852000,4.99085205078125,0.5448934975229204,-1.4591297182649374,0.8849997509941459
1789315805068886300,5.00088623046875,0.6071241821169853,-0.45280864967405793,0.7876802173621952
1789315805078920400,5.01092041015625,0.7348727562822401,0.47479777864217754,0.5586109110996127
1789315805088953300,5.020953369140625,0.948320130521059,0.6588216361284256,0.1233826340407133
1789315805098987300,5.0309873046875,1.1853706447958945,0.5156400766402482,-0.26153452879860994
1789315805109021400,5.041021484375,1.2012196635738015,0.7197966215729713,-0.156722009062767
1789315805119055400,5.051055419921875,1.0032033749617635,1.0599299091815948,0.05763341993167996
1789315805129089300,5.06108935546875,0.978303765374422,1.363647483062744,0.1692028665818274
1789315805139123200,5.071123291015625,1.1062288651503622,1.7012737562865017,0.27577611237987876
1789315805149157400,5.081157470703125,0.9396905416026711,1.7479706255316734,0.3597580255329609
1789315805159191300,5.09119140625,0.7592725996538996,1.9272791449338196,0.8666231134347617
1789315805169225200,5.10122509765625,0.6439443849921226,2.272513555073738,1.287373660068959
1789315805179259400,5.11125927734375,0.3121557318806648,2.268651618948579,1.468959769014269
1789315805189293300,5.121293212890625,0.09455489122420549,2.052567904856801,1.5736675132013855
1789315805199327200,5.1313271484375,0.019054390690475702,1.4792530533611774,1.5113416976697742
1789315805209361400,5.141361328125,0.16480243966579436,0.48104164146780964,1.2224437995187938
1789315805219395300,5.151395263671875,0.34020927545428276,-0.28017770833969113,0.5573157567225396
1789315805229429200,5.16142919921875,0.4561559142753482,-0.4325678256779909,0.353911053070426
1789315805239463400,5.17146337890625,0.7554606401503086,-0.07079027701616286,0.7527971200294792
1789315805249497300,5.181497314453125,1.0856383509337901,-0.20671967341899872,0.3797838916040957
1789315805259531300,5.19153125,1.415183024510741,-0.979182301774621,-0.05465988401360809
1789315805269565400,5.2015654296875,1.4636346284687518,-1.39731828199625,0.41245782498735933
1789315805279598300,5.211598388671875,1.3220584583505988,-0.7449398306578398,1.0123125640906392
1789315805289632300,5.22163232421875,0.7102054941460489,0.13455167830884457,0.8374787789497524
1789315805299666400,5.23166650390625,0.1559454717323184,0.6741191585034132,0.5463006974397226
1789315805309700400,5.241700439453125,0.1098585510790348,0.48400399840474123,0.16381341036213562
1789315805319734300,5.251734375,0.23202567185014486,-0.33093642019629477,0.08016894900249316
1789315805329768400,5.2617685546875,0.2687055894717574,-1.0015905329376458,0.7007271063785999
1789315805339802400,5.27180224609375,0.35236499267220495,-1.4159540088832379,0.7916118577226996
1789315805349836300,5.281836181640625,0.18108502755537628,-1.618336529880762,0.4018773942621425
1789315805359870200,5.2918701171875,0.2163248293712735,-1.742145280379057,0.30369406514139846
1789315805369904400,5.301904296875,0.667067048034817,-2.0353093115419147,0.8845367365922778
1789315805379938300,5.311938232421875,1.0872937169253825,-2.501470194742083,1.2594066257350145
1789315805389972200,5.32197216796875,1.2930831237569451,-2.772747388267517,0.9925728945497423
1789315805400006400,5.33200634765625,0.9804828629791736,-2.956265634319186,0.43745519586075093
1789315805410040300,5.342040283203125,0.17902765663415193,-2.790281875914335,-0.22946531984284518
1789315805420074200,5.35207421875,-0.36470424976348875,-2.076191941550374,-0.6609883126430213
1789315805430108400,5.3621083984375,-0.4478897518418729,-1.3039566922098398,-0.8103295638047158
1789315805440142300,5.372142333984375,0.03508782612457871,-0.9044283818244934,-0.6572621317267417
1789315805450176300,5.38217626953125,0.6931485608831047,-0.7326391520112753,-0.6476813795633614
1789315805460210400,5.39221044921875,1.1598692699231206,-1.1670511442512272,-0.4479362943973392
1789315805470243300,5.402243408203125,1.4938777910411356,-1.8885294353008268,-0.11312946250848471
1789315805480277200,5.41227734375,1.4541548524618149,-2.2053853076964613,0.23466946435719727
1789315805490311400,5.4223115234375,1.1087315686862915,-2.0922703851699826,0.24860052068457006
1789315805500345300,5.432345458984375,1.1926864477019756,-1.9331003984332082,0.19044643787965176
1789315805510379300,5.442379150390625,1.1843138292193411,-0.9748895730167627,0.4922250795874744
1789315805520413400,5.452413330078125,1.1111644218564032,-0.2850648958593607,0.3873990427829325
1789315805530447400,5.462447265625,2.7869091846108436,0.9566028056979179,0.27483985444307324
1789315805540481300,5.472481201171875,0.6667138506829738,3.7589293396711345,0.2535106506884098
1789315805550515500,5.482515380859375,-3.275553117775917,1.6937188108623027,0.06699833738729358
1789315805560549400,5.49254931640625,-3.0306565661758182,-0.8191735261261462,0.08043079654276371
1789315805570583300,5.502583251953125,1.1319138529617339,-1.9074065697282552,0.39658889593258495
1789315805580617200,5.5126171875,4.507873145273328,-3.506116023597121,0.307636500890553
1789315805590651400,5.5226513671875,3.156024236553907,-5.1515094872295855,-0.05951251167654991
1789315805600685300,5.532685302734375,1.3280499538503587,-5.235747274839878,-0.10849566522799432
1789315805610719200,5.54271923828125,0.10047405214011669,-3.650516311225295,-0.30659254479557274
1789315805620753400,5.55275341796875,-0.7981471047103404,-0.07169920855462551,-0.982517364481464
1789315805630787300,5.562787353515625,-1.3570689814552663,2.6962270431667563,-0.7578245928026736
1789315805640821200,5.5728212890625,-2.4289574778474865,1.24552554602921,0.14881072448156774
1789315805650855400,5.58285546875,-0.6846867297470569,0.491910241484642,0.20616445068903266
1789315805660888300,5.592888427734375,1.9684344544038175,2.7066023067086933,-0.7751940260808915
1789315805670922200,5.602922119140625,2.689049698883295,0.22493512906730173,-1.0258263448540121
1789315805680956400,5.612956298828125,4.6198581869870425,-1.8981407287329435,-0.27955102780871094
1789315805690990300,5.622990234375,4.541106721833348,0.5324000727832318,-1.581126597035676
1789315805701024300,5.633024169921875,3.2326340135037896,0.357991600382328,-1.4394674248091877
1789315805711058400,5.643058349609375,1.924171534307301,-0.27402561545073983,-1.201779927805066
1789315805721092400,5.65309228515625,0.025707711099833247,-0.08339724513292313,-1.060719159863144
1789315805731126300,5.663126220703125,-1.4671411752849817,-0.32921500323116776,0.21273893370851873
1789315805741160400,5.673160400390625,-1.2887879107810556,0.5035334592610597,0.9583293372295796
1789315805751194000,5.683194091796875,-0.887328778463602,1.2752233496785164,1.0713546817764639
1789315805761228300,5.693228271484375,-1.4286967322088777,1.746791060358286,1.1876271915510297
1789315805771262500,5.703262451171875,-1.727416059411317,1.738920473113656,1.3181881927885115
1789315805781296000,5.713296142578125,-1.1461872199207543,2.0106413187533616,0.7296292296055704
1789315805791330300,5.723330322265625,-0.3977764982819557,2.1232880392462015,0.10651990817561745
1789315805801364500,5.733364501953125,-0.6070362115725875,2.594571672287583,-0.3842580413434654
1789315805811398100,5.743398193359375,-0.7898211749136448,2.438398529279232,-0.7783013444464654
1789315805821432300,5.753432373046875,-0.9416001746162772,2.0245412492901087,-1.204078048679605
1789315805831466200,5.76346630859375,-1.1564406106486915,1.6660475446045397,-1.1266396388858555
1789315805841500200,5.773500244140625,-0.8940596941538155,1.1134767904520033,-0.5312175119351595
1789315805851533300,5.783533203125,-0.9090589642345904,0.9731441906541586,0.31143443186879155
1789315805861567200,5.793567138671875,-0.5902466970741749,1.552436362993717,0.7756293487582355
1789315805871601400,5.803601318359375,0.2174927041068673,1.9944611683249471,0.5750178560212255
1789315805881635000,5.813635009765625,0.7689756630226969,2.1603233461767433,-0.24541115005873143
1789315805891669200,5.823669189453125,0.8249936105817556,2.5985885067135093,-0.9807333306089043
1789315805901703400,5.833703369140625,0.7863081983566284,1.9513252064317463,-1.1217491634305565
1789315805911737000,5.843737060546875,0.5261036029875278,0.8081552885055542,-0.8555315913822501
1789315805921771300,5.853771240234375,-0.13159458206892014,0.5583429078131914,-0.36509770606048403
1789315805931805400,5.863805419921875,-0.47244332447052,0.7319587685316801,0.3254934984900057
1789315805941839000,5.873839111328125,-0.29285832621455193,0.8235118475914001,0.9068868078272789
1789315805951873000,5.883873046875,-0.11444675565212964,1.1927689383536577,0.757599478809908
1789315805961907200,5.8939072265625,-0.07625643346756696,1.9685329463422296,0.07271342709846794
1789315805971941000,5.903941162109375,-0.3904860490128398,1.9977502729982137,-0.49941411430872973
1789315805981975000,5.91397509765625,-0.9296244901403784,1.5222808787047861,-1.0079981349576264
1789315805992009200,5.92400927734375,-0.9890706585824489,1.3253881872951985,-1.351707016030699
1789315806002043100,5.934043212890625,-0.9743915603667497,1.113414246609807,-0.972521236450225
1789315806012077000,5.9440771484375,-0.7678115876793861,0.9762292971879243,-0.1591846728492528
1789315806022111000,5.954111083984375,-0.5686892375215887,0.7806850977778435,0.11878405420407652
1789315806032145000,5.964144775390625,-0.5638420897513627,-0.12942425229251384,-0.13807488399893045
1789315806042179000,5.974178955078125,-0.5862251864731312,-1.4526917941719293,-0.2745565805222839
1789315806052212000,5.9842119140625,-0.5255199578806757,-1.6814952891051769,-0.22223387075196951
1789315806062246100,5.99424609375,-0.22537439726740122,-0.44230362227261066,-0.22576025477983055
1789315806072280000,6.004280029296875,0.10583148752003907,0.4262719404041767,-0.4621954501679167
1789315806082314000,6.01431396484375,0.00341156200915575,0.24163550397753714,-0.7488065890885889
1789315806092348200,6.02434814453125,-0.20873159776329994,-0.6705161655753851,-0.8402933249138295
1789315806102381800,6.0343818359375,-0.2333262330546975,-1.370177177092433,-0.5874638248899952
1789315806112416000,6.044416015625,-0.19043810844272374,-1.1226765804737806,-0.07757968142796308
1789315806122450200,6.0544501953125,-0.05219049822539091,-0.11548983496427535,0.3922116306964308
1789315806132483800,6.06448388671875,0.2006499981164932,0.7295867787033319,0.951293739504367
1789315806142518000,6.07451806640625,0.417794911698997,0.9986860436677932,1.3697045911446213
1789315806152552200,6.08455224609375,0.3007242372840643,0.9198112443953752,0.908991232760623
1789315806162585900,6.0945859375,0.06555003827512264,1.4056991568505763,0.05473298578243702
1789315806172620000,6.1046201171875,0.18654051648229358,1.655811981794238,-0.6625778468567878
1789315806182654200,6.114654296875,0.41223055557012556,1.31650754622519,-0.8784440457403659
1789315806192687900,6.12468798828125,0.5698088892012835,0.8069681245476007,-0.7370757462192327
1789315806202722000,6.13472216796875,0.4326666098773479,0.22669921613037586,-0.4348376703061163
1789315806212756200,6.144756103515625,0.3715393564805388,-0.07402385210990906,0.11815297149261458
1789315806222790000,6.154789794921875,1.2662670130237936,-0.25095512098670003,1.0242461629904807
1789315806232824000,6.164823974609375,2.077836201626062,-0.7116478019088506,1.4379703181192278
1789315806242857000,6.17485693359375,2.1042273649454115,-1.641595240393281,0.6464448235057294
1789315806252891100,6.18489111328125,1.975235074329376,-2.1594816346555947,-0.10765358838066458
1789315806262925000,6.194925048828125,1.2423100911140441,-1.6745494154900311,-0.6074290102824569
1789315806272959000,6.204958984375,-0.28986382057368754,-1.163495497596264,-1.1210306398976593
1789315806282993200,6.2149931640625,-1.1444576196491718,-0.8215478540420532,-1.1653027662139386
1789315806293027000,6.225027099609375,-0.9034703504472971,-0.6384551399260759,-0.47097811075616625
1789315806303061000,6.23506103515625,-0.6522194613844156,-0.9373363796919584,-0.07598329734830185
1789315806313095200,6.24509521484375,-0.6487485704034567,-1.32006962262094,-0.32984150109905747
1789315806323128800,6.25512890625,-0.8171580946505069,-1.4989999563604592,-0.5669890094749629
1789315806333163000,6.2651630859375,-0.9420826974362134,-1.3877794692784546,-0.4573546225406229
1789315806343197200,6.275197265625,-0.9713578917592763,-0.9203864139348268,0.04295210235943086
1789315806353230800,6.28523095703125,-1.0877385380834341,-0.6115408295154571,0.43062651888448744
1789315806363265000,6.29526513671875,-0.9539633971050381,-0.5829857661604881,0.680980495640263
1789315806373299200,6.30529931640625,-0.7094827328294515,0.009324293184280396,1.2306738677255809
1789315806383332900,6.315332763671875,-0.083071081918478,1.2238900528043508,1.7993305181518195
1789315806393367000,6.325366943359375,0.6542249559879303,1.9865005647093057,1.7107127618916331
1789315806403401200,6.335401123046875,0.7268152681633829,2.135931832242012,0.863051100166887
1789315806413435000,6.345434814453125,0.6743038674205541,2.2445599647432566,0.527322915649414
1789315806423469000,6.355468994140625,-0.03490764725208282,1.1011001239597797,-0.4949875665707513
1789315806433503200,6.365503173828125,-0.630866292232275,0.08727788595855236,-1.0250466657184063
1789315806443536100,6.3755361328125,-0.23410569299459455,-0.5257137268871068,-0.6003457740232349
1789315806453570000,6.385570068359375,0.3910635566398501,-0.6509481262743473,-0.19239364469097925
1789315806463604000,6.39560400390625,0.7781763298273086,-0.5681687207788229,-0.12437184600746258
1789315806473638100,6.40563818359375,0.9661965634733438,-0.5925093813091517,-0.02875473237922415
1789315806483672000,6.415672119140625,0.8542448395073413,-0.3481137649685144,0.3061312108941376
1789315806493706000,6.4257060546875,0.1701075603365898,0.06225391933917999,0.24356621631179004
1789315806503740200,6.435740234375,-0.4707838668256998,0.2896867104411125,-0.34716881226859986
1789315806513774000,6.445774169921875,-0.42338907844424245,0.23061901992261408,-0.6182496795043348
1789315806523808000,6.45580810546875,-0.2942278610020876,-0.1376432145833969,-0.8051021845452487
1789315806533842200,6.46584228515625,-0.12513327710032462,-0.3539385255992412,-1.0610011916749178
1789315806543876000,6.4758759765625,0.04817804771363735,-0.6023422085374593,-1.4117305459693072
1789315806553910000,6.485909912109375,0.3286661371767521,-0.5379653056949377,-1.7236976234100758
1789315806563944200,6.495944091796875,0.6105331137776374,-0.40843642398416996,-1.6824904376223682
1789315806573977900,6.505977783203125,0.8480708270475268,-0.5316588990271092,-1.0647136363267897
1789315806584012000,6.516011962890625,0.7704790533229708,-0.4427595493465662,-0.3989670232407748
1789315806594046200,6.526046142578125,0.8573653096154331,0.13533259955346583,-0.04388084371006116
1789315806604079900,6.536079833984375,0.9667132808238267,0.45033319947123523,0.14130191975403578
1789315806614114000,6.546114013671875,1.0397183112800121,0.5208242012798786,0.12996939201988278
1789315806624148200,6.556148193359375,1.14052612541914,0.7734276739954948,0.040326512229349465
1789315806634182000,6.566181884765625,1.1703303120523691,1.1164192736446856,-0.02664453529221937
1789315806644215000,6.576215087890625,1.0793488954007624,0.903735138863325,-0.030489684679359197
1789315806654249000,6.5862490234375,0.65923284727782,0.6692769791692494,0.29077974810851737
1789315806664283100,6.596283203125,0.023574060072004795,0.6194815593868493,0.8010038093157112
1789315806674317000,6.606317138671875,-0.518775744317472,0.5216501307100058,1.274393182464689
1789315806684351000,6.61635107421875,-0.9503186108618974,0.7877993136972189,1.6504063233584165
1789315806694385200,6.62638525390625,-1.2242428117647766,0.6966811189234257,1.8085332307830453
1789315806704419000,6.636419189453125,-1.207604688435793,0.43734512308239937,1.6013731201201677
1789315806714453000,6.646452880859375,-1.0558663130044936,0.37269641756117344,1.3953802996709943
1789315806724487200,6.656487060546875,-0.8702364816263317,0.5103542451918125,1.3037735907278953
1789315806734521000,6.66652099609375,-0.5124602775603533,0.8233201244115829,1.043566291945055
1789315806744555000,6.676554931640625,-0.24129209736734628,0.8008499339282512,0.74905164989084
1789315806754589200,6.686589111328125,0.002878770306706428,0.4872708912461996,0.5912693911854178
1789315806764623000,6.696623046875,0.412727691437304,0.07145663197040557,0.44022645067237315
1789315806774657000,6.706656982421875,0.8714715763792396,-0.18781857359409332,0.25621611025482416
1789315806784691200,6.716691162109375,1.570051222400367,-0.24057985744476318,-0.18593195612989366
1789315806794724900,6.726724853515625,1.9694979919821023,-0.3176525757312774,-0.7074545880027114
1789315806804759000,6.736759033203125,1.9410645091801881,0.11768179205060005,-0.6510154193568974
1789315806814793200,6.746793212890625,1.955773710273206,0.5174088398784399,-0.34660423718839883
1789315806824827000,6.756826904296875,1.7973165479809046,0.824918207257986,-0.12015592707917093
1789315806834861000,6.766861083984375,1.7720497125163672,0.7745645690709352,0.10305449708737432
1789315806844894200,6.776894287109375,1.8645120153754948,0.35919162382185454,0.1630797805916518
1789315806854928100,6.78692822265625,1.9806836951240896,0.3367880688339472,-0.035587592340260744
1789315806864962000,6.796962158203125,2.125226898354292,0.16041501836180685,-0.31408487331233914
1789315806874996000,6.806995849609375,2.1117025231316684,0.5494149204701185,-0.40489692474640904
1789315806885030100,6.817030029296875,2.030176624828577,0.9568161561876535,-0.19035349889919162
1789315806895064000,6.82706396484375,1.8285867155134676,1.220148528188467,0.10164422843065113
1789315806905098000,6.837097900390625,1.5134136816382406,1.1591612677842378,0.4117260766467079
1789315806915132200,6.847132080078125,1.1926198852717875,0.6974579485148191,0.8485038116373121
1789315806925166000,6.857166015625,0.8292775715112686,0.3616027766168117,1.2073185649707914
1789315806935200500,6.867200439453125,0.45577392922043797,0.3671604107439518,1.5846595934674144
1789315806945234400,6.877234375,0.04092734593302011,0.809890149474144,1.7461079003997146
1789315806955268600,6.8872685546875,0.08578560157418251,1.1912310612618922,1.5657123164132236
1789315806965302500,6.897302490234375,0.5816887120872736,0.9329548036068678,1.4093401437014341
1789315806975336400,6.90733642578125,0.8780757969498634,1.0031266564637422,1.3400596867263317
1789315806985370600,6.91737060546875,1.05108930786103,1.0085586183845996,1.1928352815881371
1789315806995404500,6.927404541015625,1.2728466836750507,0.9631512044280767,1.503373933660984
1789315807005438500,6.9374384765625,1.1657193111255764,1.0935410868823527,1.6270795160457492
1789315807015472600,6.94747265625,0.6519795151486992,1.054360584616661,0.8683362009629607
1789315807025506600,6.957506591796875,0.36224165904223915,0.8456360011160373,0.47490397896301
1789315807035540500,6.96754052734375,0.10198825609534978,0.44648587639331816,0.11822039243932812
1789315807045573400,6.977573486328125,-0.027493863864243028,-0.023326515051722525,-0.05044723475463688
1789315807055607600,6.987607666015625,-0.22975685013532637,0.04246668432950973,0.015848799582198262
1789315807065641700,6.997641845703125,-0.25664544158279895,0.02094166574180126,0.006478767560049891
1789315807075675400,7.00767529296875,-0.204214412599802,-0.12119418408572673,0.5642169874783605
1789315807085709600,7.01770947265625,-0.13772475538700818,-0.24015023385584353,1.1949676174417136
1789315807095743700,7.02774365234375,-0.10671148522496222,-0.17668518516123294,1.4255894138433038
1789315807105777400,7.03777734375,-0.13571838400065897,0.05923486377894878,1.4169240229591726
1789315807115811600,7.0478115234375,-0.19862579881250858,0.5562579182326793,1.4886341912992298
1789315807125845800,7.057845703125,0.271447873917222,0.8761533044546842,1.5542837444260715
1789315807135879400,7.06787939453125,0.9147264884769916,0.6546802985399961,1.6006163104034958
1789315807145913600,7.07791357421875,0.9411410326719284,0.4575970529943704,1.4769646501630544
1789315807155947500,7.087947509765625,0.7151940962135791,0.5373591564953327,1.193813332840055
1789315807165981400,7.0979814453125,0.8448927815333008,0.3514478778272867,1.0860592797596007
1789315807176015600,7.108015625,1.017168625819683,0.009750994163751601,1.184347731488943
1789315807186049500,7.118049560546875,1.1712924350827931,-0.077446227774024,1.2703218413725494
1789315807196083500,7.12808349609375,1.4011182588011026,-0.0486070867806673,1.231912177348882
1789315807206117600,7.13811767578125,1.272588909521699,0.2226402961283922,1.0400023158531635
1789315807216151600,7.148151611328125,0.8854349275410175,0.7406973707824945,0.7060325193103403
1789315807226185500,7.158185546875,0.8820607749328017,1.302782972255349,0.3482943822324276
1789315807236219600,7.1682197265625,1.1852847200781107,1.5603098728477953,0.05399243308082222
1789315807246253600,7.178253662109375,1.3526947118937969,1.582314199385047,-0.2421873657066375
1789315807256286700,7.18828662109375,1.416813256061077,1.537221842727065,-0.3200069568376988
1789315807266320400,7.1983203125,1.832260143329203,1.3579115697592496,-0.22401056156829
1789315807276354600,7.2083544921875,2.3582529794186353,0.7956669783324003,0.4074584457974881
1789315807286388700,7.218388671875,2.169664005973935,0.05008183550834656,1.4457549806460737
1789315807296422400,7.22842236328125,1.594761300764978,-0.5352285742074251,1.9667158139176666
1789315807306456600,7.23845654296875,0.9454492512598633,-0.5971043078839778,1.7932216798827052
1789315807316490800,7.24849072265625,0.7405161689966917,-0.32423487673103807,1.5786654676191507
1789315807326524400,7.2585244140625,0.9480296231418848,0.06756780783832073,1.4633777310982345
1789315807336558600,7.26855859375,1.1797799851819872,0.5078729497700929,1.2958290614642203
1789315807346592800,7.2785927734375,1.4118328373000024,0.9048100746184587,1.1377570990972221
1789315807356626400,7.28862646484375,1.4686962957724927,1.2386299412965773,0.8992023908045143
1789315807366660600,7.29866064453125,1.515108502857387,1.3922580759972334,0.6779592481229454
1789315807376694500,7.308694580078125,1.3349500886276364,1.4584709620952605,0.5363190728578716
1789315807386728400,7.318728515625,1.0115803042933345,1.5693395669996737,0.5445622928071767
1789315807396762600,7.3287626953125,0.6646911126837134,1.715136277422309,0.4367209998346865
1789315807406796500,7.338796630859375,0.49203065299391746,1.9419588276714086,0.03227415694333613
1789315807416830500,7.34883056640625,0.7606079399108886,1.8982208082318306,-0.0728751935314387
1789315807426864600,7.35886474609375,0.7808037557214498,1.262332888445258,-0.2136339097868651
1789315807436898600,7.368898681640625,0.443487279099226,0.5140764805853366,-0.46927214708849785
1789315807446932500,7.378932373046875,0.3730173200786113,-0.3039870384722948,-0.2921337382670492
1789315807456966700,7.388966552734375,-0.006639584144949913,-0.8735019131630659,0.2686961640562862
1789315807467000600,7.39900048828125,-0.26661986923888326,-0.8327467089265584,0.7532840998288244
1789315807477033700,7.40903369140625,-0.47475452402234075,-0.4220627982765436,1.0178190525524318
1789315807487067400,7.4190673828125,-0.33591011695563794,-0.0761310535222292,1.062874145939946
1789315807497101600,7.4291015625,-0.1361930157750845,0.022186112844943998,1.1223258673399685
1789315807507135700,7.4391357421875,-0.023715222108364103,-0.149472768586874,1.2195564805794508
1789315807517169400,7.44916943359375,0.09582198855057358,-0.5091606514930724,1.1055413943428545
1789315807527203600,7.45920361328125,0.10894684306159615,-0.7991741096705198,0.9484515748810023
1789315807537237800,7.46923779296875,0.11502039082162081,-0.7139379586726426,0.8944774081092327
1789315807547271400,7.479271484375,-0.04846453650481999,-0.349587929174304,0.8793653253037482
1789315807557305600,7.4893056640625,-0.03157126937098801,0.05472586192190647,0.6599643033575266
1789315807567339800,7.49933984375,0.22964345288872717,0.3487304355621338,0.3121063397809863
1789315807577373400,7.50937353515625,0.5386842676192521,0.3559101179331541,0.06298501009270549
1789315807587407600,7.51940771484375,0.6165028358370065,0.009380407285690307,-0.02171732628941536
1789315807597441800,7.52944189453125,0.7694931840907782,-0.49508244177997107,-0.2521017337385565
1789315807607475500,7.539475341796875,0.7215355741947889,-0.8470189799070358,-0.4248248103357851
1789315807617509600,7.549509521484375,0.341928354331851,-0.8577981480747461,-0.34560192827805875
1789315807627543600,7.55954345703125,-0.004279869276285171,-0.6120014327645301,-0.3206570182442665
1789315807637577500,7.569577392578125,-0.30694355019032954,-0.2521919693052769,-0.06808489051498472
1789315807647611600,7.579611572265625,-0.4804939444571733,0.14656068053245544,0.2020391874525696
1789315807657645600,7.5896455078125,-0.3199637752830982,0.4051835596680641,0.09797434427887201
1789315807667679500,7.599679443359375,0.2685053907245397,0.3191150494992733,-0.2194652097562328
1789315807677712400,7.60971240234375,0.5060020413316786,-0.07001812359988689,-0.4259641896292567
1789315807687746600,7.61974658203125,0.13001359648779034,-0.3099649438381195,-0.4616818015573546
1789315807697780700,7.62978076171875,-0.49479383409693833,-0.3156862440943718,-0.5161232205146923
1789315807707814400,7.639814453125,-0.5010433960109949,-0.4005927247464657,-0.4577093177298084
1789315807717848600,7.6498486328125,-0.17881708262339233,-0.7007850471109152,-0.3350349780889228
1789315807727882500,7.659882568359375,0.08285648931972682,-1.0271236181229353,-0.3053375762984156
1789315807737916400,7.66991650390625,0.22278635353557763,-1.2971429205417633,-0.393456260462664
1789315807747950600,7.67995068359375,0.31656711858212944,-1.4343267009198666,-0.3044460342861712
1789315807757984500,7.689984619140625,-0.004542904126644134,-1.2883435280144213,-0.3063208882473409
1789315807768018400,7.700018310546875,-0.2614800586650148,-0.7624503529071808,-0.4140653332492336
1789315807778052600,7.710052490234375,-0.7811059535384177,-0.3983703725218773,-0.4240660643903538
1789315807788086500,7.72008642578125,-1.4612462720274924,-0.34716333237588404,-0.24480660829432307
1789315807798120400,7.730120361328125,-1.837337008202076,-0.32606033859252925,0.041425870039686556
1789315807808154600,7.740154541015625,-1.8690385528892277,-0.3590647825717926,0.30268267787545916
1789315807818188500,7.7501884765625,-1.7100953606456517,-0.3132172236323356,0.6117221774317324
1789315807828222500,7.760222412109375,-1.2725871559560298,-0.30530513533353804,0.8939207240745425
1789315807838256600,7.770256591796875,-0.5727665699630975,-0.38162265133857726,1.1216657229308038
1789315807848290600,7.78029052734375,-0.10487318214820697,-0.5287000492215156,1.2382102545797824
1789315807858324500,7.790324462890625,-0.0037070378243923186,-0.6939636766582727,1.3229302727490664
1789315807868358700,7.800358642578125,0.47316926412489263,-1.204939268618822,1.4694623117089272
1789315807878392600,7.810392578125,1.3459142579734324,-2.0459628075033427,1.3825626114130019
1789315807888425500,7.820425537109375,1.7154010658383367,-2.9163813676983117,1.3950528212822972
1789315807898459600,7.830459716796875,1.3947072227150201,-3.0427737049490213,1.2753854083724319
1789315807908493600,7.84049365234375,0.8634498902261256,-2.012245831340551,1.1314229276396333
1789315807918527500,7.850527587890625,1.0828524465423077,-0.529816486030817,0.649566608788073
1789315807928561400,7.8605615234375,1.3307237031042576,0.7833604544669389,0.33395474510416384
1789315807938595300,7.87059521484375,1.3375563256032763,1.5144412711203097,0.33547406362593174
1789315807948629200,7.880629150390625,1.1042559576421975,1.6540934874385593,0.21152142941122873
1789315807958663200,7.8906630859375,0.7130213552843779,1.4502613521546124,-0.23357394247176125
1789315807968697300,7.900697265625,0.38615547246262427,1.2751228119134903,-0.6532952008571475
1789315807978731300,7.910731201171875,0.30271687240600587,1.2333335884541272,-0.697072894719988
1789315807988765200,7.92076513671875,0.4640091119937598,1.0206032764434814,-0.5383027940209955
1789315807998799400,7.93079931640625,0.5361123713046312,0.5452022712111473,-0.12677547308309003
1789315808008833300,7.940833251953125,0.2363338904380798,0.23859891276061534,0.2992609415321611
1789315808018867200,7.9508671875,0.07241174073815346,-0.08739069868326187,0.6688285778146237
1789315808028901400,7.9609013671875,0.2404971475973725,-0.6361509546369314,0.6819162421204149
1789315808038935300,7.970935302734375,0.5300169770389795,-1.1771049207538367,0.4566286828862503
1789315808048969200,7.98096923828125,0.23833178625702856,-1.5100544343382118,0.3954515624657273
1789315808059003100,7.991003173828125,-0.30153628431931134,-1.4301532146275042,0.5522298682929948
1789315808069037300,8.001037353515626,-0.4891228027231991,-1.057187916997075,0.9163348735217004
1789315808079071200,8.0110712890625,-0.2810862014867365,-0.57222121104002,1.2068008247070015
1789315808089105200,8.021105224609375,0.08115750338211655,-0.13589023343622683,1.5029212214574217
1789315808099138300,8.03113818359375,0.709992728178203,0.020242577561736107,1.864049074038863
1789315808109172200,8.041172119140626,1.1355004062116145,0.12303835064768791,1.7619617414832114
1789315808119206100,8.0512060546875,1.107662843476236,0.4319669371753931,1.5223609582036732
1789315808129240300,8.061240234375,0.5866587555848062,0.5333294625878334,1.2723274821065365
1789315808139274200,8.071274169921875,0.22339491388797758,0.7108288867413998,1.1728308966964482
1789315808149308200,8.08130810546875,0.11175240200161933,1.2231576468765735,1.0468366188526153
1789315808159342300,8.09134228515625,-0.012502338698506355,1.562300754404068,1.0803140141058714
1789315808169376300,8.101376220703125,-0.02595627903342247,1.6124515634953975,1.187841199627891
1789315808179410200,8.11141015625,0.2121837840437889,1.349395085826516,1.413200180130452
1789315808189444400,8.1214443359375,0.41561815218180415,0.9335387409746646,1.5929465064279733
1789315808199478300,8.131478271484376,0.5571852622106671,0.5598311005443334,1.8017451780781149
1789315808209512200,8.14151220703125,0.8058154473811387,-0.010051438415050505,1.959038411157578
1789315808219546400,8.15154638671875,0.9747592246353626,-0.5452116235613823,1.8912702584415673
1789315808229580300,8.161580322265625,0.8926862138435244,-0.7428770529091357,1.6365043469950555
1789315808239614200,8.1716142578125,0.7548653046056628,-0.724053109973669,1.4129038275323806
1789315808249648400,8.1816484375,0.8477847035825252,-0.48572658441364763,1.2205766174074262
1789315808259682300,8.191682373046875,0.9241445974245667,-0.2955693387389183,1.1916320432782173
1789315808269716200,8.20171630859375,0.7979939599752426,-0.2678939808279276,1.113780595704168
1789315808279750100,8.211750244140624,0.8702525559782981,-0.4600169736176729,1.0104447243921457
1789315808289784300,8.221784423828124,1.0706278288066386,-0.5324602785378694,0.8770604824274778
1789315808299818200,8.231818359375,1.5170830178007482,-0.3814239138960838,0.6533896742075681
1789315808309851100,8.24185107421875,2.433845688280463,-0.21786182968020437,0.210350102343224
1789315808319885300,8.25188525390625,3.0955601232409475,0.11773673710823059,-0.4400952255081385
1789315808329919200,8.261919189453126,3.3958754874631762,0.22067747162282467,-0.7707578702643513
1789315808339953200,8.271953125,3.221896930912137,0.1964817725211382,-0.8203252534445374
1789315808349987300,8.2819873046875,2.8857676182478667,0.07858429189324379,-0.7107178275823592
1789315808360021000,8.29202099609375,2.2373887579396365,-0.00005903671085834503,-0.35072321681454777
1789315808370055200,8.30205517578125,1.6486013197630642,-0.10432195973992348,0.306167743512243
1789315808380089300,8.31208935546875,1.3419561679974197,0.019933365482091903,1.059110336427018
1789315808390123000,8.322123046875,1.1304624120444058,-0.07021627652049064,1.5307941477671265
1789315808400157200,8.3321572265625,0.8396230244368315,0.007265022566914558,1.6514716145023702
1789315808410191400,8.34219140625,0.5619675280511379,0.448839746043086,1.5785069160565732
1789315808420225000,8.35222509765625,0.4852288640245795,0.7109872921735048,1.4607600959457456
1789315808430259200,8.36225927734375,0.314475406999886,0.9480278695762157,1.4773630018308759
1789315808440293400,8.37229345703125,-0.06685352208912372,1.3873895931780338,1.620359852401912
1789315808450327000,8.3823271484375,-0.46424657401144503,1.6456073986440896,1.7494246237322688
1789315808460361200,8.392361328125,-0.7918374831721187,1.6331524062186478,1.6984864636555312
1789315808470395400,8.4023955078125,-0.9874448109462857,1.4294436050534247,1.4968676205068825
1789315808480429000,8.412428955078125,-0.9261667509019375,1.0509235959053038,1.2462567829132079
1789315808490463200,8.422463134765625,-0.8045686621904373,0.422856579002738,0.8381072861116379
1789315808500497400,8.432497314453125,-1.2636463091313839,0.33836043271720406,0.4705317186955362
1789315808510531000,8.442531005859376,-1.931411130172014,0.7928747172653675,-0.2469982000544667
1789315808520564200,8.452564208984375,-1.5540169101834296,0.13750994359254837,-0.9191252348925918
1789315808530598100,8.46259814453125,-0.16227438249289988,-1.9827227997362613,-0.5921120525546372
1789315808540632300,8.47263232421875,0.6198340260863304,-4.20105760537684,0.3483434820711612
1789315808550666200,8.482666259765624,0.08878536791205406,-3.916454481810331,0.4823443946294486
1789315808560700200,8.4927001953125,-2.2281512662559746,-0.5112333661139011,-0.1504928323496133
1789315808570734300,8.502734375,-2.735035204988718,1.6284645406633615,-0.2937635314259678
1789315808580768000,8.51276806640625,-1.2419424268454313,1.1596750625252723,0.21667744220122695
1789315808590802200,8.52280224609375,-0.32356910629868507,-0.3423755135774612,0.5271822650697082
1789315808600836400,8.53283642578125,-0.7861527155339717,-1.1475199298292398,0.4696477754678577
1789315808610870000,8.5428701171875,-1.3241232819259166,-1.6897230192244053,0.3813300981327891
1789315808620904200,8.552904296875,-1.8009867609262464,-1.6027292109042406,0.46702597559690473
1789315808630938400,8.5629384765625,-2.8679911385387182,-0.2513929278820753,0.5988575812920928
1789315808640972000,8.572971923828124,-2.7822973069012162,0.21574001522064207,0.3801920340135693
1789315808651006200,8.583006103515626,-2.946045269078016,-0.052832010999321936,0.49279783797413107
1789315808661040400,8.593040283203125,-2.1554168694347142,-0.361962257578969,0.9683679892282933
1789315808671074000,8.603073974609375,-1.5113900668561457,-0.3483814759939909,1.3960067610062659
1789315808681108200,8.613108154296874,-0.625496874153614,0.6459072094976902,1.2088893944840877
1789315808691142400,8.623142333984376,0.15303016880750656,0.9044593614846468,0.5762723861269653
1789315808701176000,8.633176025390625,0.6674211221694946,0.3180851219296455,-0.32069574281945823
1789315808711210200,8.643210205078125,0.33307635483443737,0.30868191829025743,-0.39069231217466294
1789315808721244400,8.653244384765625,-0.2941173863649368,1.1959943301409481,-0.21130444392599165
1789315808731278000,8.663278076171874,0.0507160417586565,2.1910843951433896,-0.31043796817734837
1789315808741311200,8.673311279296875,0.4984709151744842,2.4273083954662082,-0.14684892288930712
1789315808751345200,8.68334521484375,0.7089326977312564,2.0269874733984468,0.015969211091473697
1789315808761379300,8.69337939453125,0.8109685923606157,1.367732122027874,0.1916063485044986
1789315808771413200,8.703413330078124,0.868231279283762,0.6461702443480491,0.3596624927366152
1789315808781447200,8.713447265625,0.6702373486340045,0.43314357973933215,0.6113248486772179
1789315808791481300,8.7234814453125,0.32434944302141666,0.5730769510865211,0.8931842264935373
1789315808801515300,8.733515380859375,0.025536007794737813,0.8836363536864519,0.8451515785999596
1789315808811549200,8.743549072265624,0.004015665382146835,1.0047469511419533,0.5850292546868324
1789315808821583400,8.753583251953126,-0.14592296715080738,1.1689099238604306,0.857372177747637
1789315808831617000,8.763616943359375,-0.28230595254004,1.3926403533130884,1.2570815437883138
1789315808841651200,8.773651123046875,-0.2914560582011938,1.044528341910243,1.373005970777571
1789315808851685400,8.783685302734375,-0.7418763514339923,1.0864081662625074,1.4830978922210634
1789315808861719000,8.793718994140624,-0.8150953169018029,1.3330880941480396,1.6485421369217335
1789315808871753200,8.803753173828126,-0.5425958881050348,1.0420540607511997,1.9319991591930388
1789315808881787400,8.813787353515625,-0.6360346347808837,0.9524047694861888,1.9473715003699064
1789315808891821000,8.823821044921875,-0.4484311652421951,1.136513967168331,1.5599845864161848
1789315808901855200,8.833855224609374,0.11695932299494742,0.985051486068964,1.2552398614443838
1789315808911889400,8.843889404296876,0.5728858124285936,0.5212865580946207,0.9702821522865444
1789315808921923000,8.853923095703125,1.3610855236202477,0.036623803520202634,1.105603938185051
1789315808931957200,8.863957275390625,1.0221674570202828,-0.1089782611131668,1.2627315323740242
1789315808941991400,8.873991455078125,0.548891773378849,0.16037234826385974,1.0329701521940529
1789315808952024300,8.8840244140625,1.3193541678279637,0.23078268605172633,0.8490816845905035
1789315808962058200,8.894058349609375,1.9750807605504987,-0.11176058530807495,0.7074727081812918
1789315808972092400,8.904092529296875,2.2955378723084925,-0.66017480430305,0.6838888573676347
1789315808982126300,8.914126220703125,1.4486387193888426,-0.5142454074114561,1.2445865116134285
1789315808992160300,8.92416015625,0.8974953676909208,-0.09678396545052528,1.5717952895887195
1789315809002194400,8.9341943359375,1.4048013312280176,0.023721651849150656,1.9898913761913775
1789315809012228400,8.944228271484375,1.2334949164956808,-0.03127309014201164,1.9427309810876845
1789315809022262300,8.95426220703125,0.41887656945586205,0.1805897913843393,1.5401941365361214
1789315809032296400,8.96429638671875,0.29285715717077254,0.4465145179659128,1.4622826293379068
1789315809042330400,8.974330322265626,0.47954292734265325,0.4437655115187168,1.440601251144707
1789315809052364300,8.9843642578125,0.05699497589766979,0.5101210209578275,1.5274337314233184
1789315809062398200,8.994398193359375,-0.34455753379166126,0.7003624377846718,1.6201963324032722
1789315809072432400,9.004432373046875,-0.7163263151139021,0.8008364899247884,1.6667768817923962
1789315809082466300,9.01446630859375,-0.9099629273369908,0.690606182923913,1.8514777617573737
1789315809092500200,9.024500244140626,-1.0645555231556296,0.7997592160820961,2.158243178901821
1789315809102534400,9.034534423828125,-1.090793541739881,0.6499503474086523,2.3113297540716826
1789315809112568300,9.044568359375,-0.9016337826699018,0.47661973337233066,1.9546620957694947
1789315809122602200,9.054602294921875,-0.8638885739043355,0.47430619573295113,1.362390468738973
1789315809132636400,9.064636474609374,-0.5194269017025828,0.47846623802185057,0.68500734000355
1789315809142670300,9.07467041015625,-0.1575049761340022,0.35235154866874213,0.23069983007386324
1789315809152704300,9.084704345703125,-0.08349339898377657,0.12681728466451167,-0.13904550086306408
1789315809162738400,9.094738525390625,0.2030316325560212,-0.02431143443584442,-0.30968375227656214
1789315809172772400,9.1047724609375,0.5601020264402031,-0.11680267112851142,-0.33447500611860304
1789315809182805200,9.11480517578125,0.7787509148448705,-0.08391337796151638,-0.14243486930672078
1789315809192839400,9.12483935546875,0.9596505028307437,-0.06541384467482567,0.3006036796443164
1789315809202873300,9.134873291015625,0.9084002080649137,-0.03463584457337856,0.8240171667650341
1789315809212907300,9.1449072265625,0.5419147739730775,0.025869185271859167,1.0187862901493907
1789315809222941400,9.15494140625,0.13671265573501587,0.3085498163431883,0.8512979724004864
1789315809232975400,9.164975341796875,-0.38380598672702904,0.37418870194554327,0.4543875528959557
1789315809243009300,9.17500927734375,-0.36330271240249273,0.24705343737304208,0.11828378566489554
1789315809253043500,9.18504345703125,-0.01643091031908989,-0.1860416270494461,0.18288246889878063
1789315809263077400,9.195077392578124,0.0935747941456735,-0.5836632270306349,0.37085521014127876
1789315809273111300,9.205111328125,-0.12237725639045238,-1.0973632755190132,0.5005535301348194
1789315809283145200,9.215145263671875,-0.5899111815094947,-1.6140940700054167,1.0295632663600147
1789315809293179400,9.225179443359375,-0.8645996447831392,-1.8348481139957904,1.6105124121263623
1789315809303213300,9.23521337890625,-0.8853232107948511,-1.9344594118267298,1.608808969209343
1789315809313247200,9.245247314453126,-1.0695037932127713,-1.9834651425361631,0.9076165103413164
1789315809323281400,9.255281494140625,-1.0295189888268708,-1.7853344337642192,0.20926272723162545
1789315809333315300,9.2653154296875,-1.0807833851832895,-1.6321160489082336,-0.030305505485180764
1789315809343349200,9.275349365234375,-0.8345979628164321,-1.5582827509343624,-0.17002399197267368
1789315809353383400,9.285383544921874,-0.7232225774336606,-1.4856377859622238,-0.12457297633644193
1789315809363417300,9.295417236328126,-1.1555348939806223,-1.5099737703174352,-0.2812170978574082
1789315809373451300,9.305451171875,-0.7287299426782876,-1.4676239903658628,-0.5869376455914229
1789315809383485400,9.3154853515625,0.13442549464590847,-1.39021283390522,-0.7083246488355099
1789315809393519400,9.325519287109374,0.7196860738705844,-1.1707365547657012,-0.82968980557397
1789315809403552300,9.33555224609375,0.8477082042802124,-0.915374723252654,-0.8522775580223649
1789315809413586400,9.34558642578125,0.9232312089066952,-0.6003852292507886,-0.7090595389813185
1789315809423620000,9.3556201171875,0.9857057121939956,-0.283508898589015,-0.6155952194727957
1789315809433654300,9.365654296875,1.0646411556124686,-0.059896542558073994,-0.4152892490210011
1789315809443688400,9.3756884765625,0.5496675800569355,-0.005218026909232139,-0.2843534596543759
1789315809453722000,9.38572216796875,-0.39553134970366954,-0.06420388436317444,-0.2980527347861789
1789315809463756300,9.39575634765625,-1.0293712509192525,-0.11066519128680229,0.15448266917075962
1789315809473790500,9.40579052734375,-1.2221626444898546,-0.31089024198949333,0.5474610464559868
1789315809483824000,9.41582421875,-1.0768389584064484,-0.7476298003941774,0.38713867481369524
1789315809493858300,9.4258583984375,-0.9235785610396414,-1.186660684606433,-0.04195594006208703
1789315809503892500,9.435892578125,-0.7398631119154393,-1.3441869957894086,-0.22568941803332418
1789315809513926100,9.445926025390625,-0.4964111331004649,-1.0964970140784978,-0.30844383521806445
1789315809523960300,9.455960205078124,-0.22909524442143736,-0.5905769519418478,-0.5534355177557095
1789315809533994200,9.465994140625,-0.007644523403793573,-0.06009761808812618,-0.7917171447280794
1789315809544028200,9.476028076171875,0.0791683753915131,0.35815059033632274,-0.9905407311350106
1789315809554062300,9.486062255859375,-0.16531930314674972,0.698646281516552,-0.9352938410136848
1789315809564096300,9.49609619140625,-0.5061470027603209,1.0385305628001689,-0.4725291030578315
1789315809574130200,9.506130126953124,-0.8430554831035435,1.2571218757987022,-0.11161907621184364
1789315809584164400,9.516164306640626,-0.9533965570025146,1.2681997346520424,0.6718953449741005
1789315809594198300,9.5261982421875,-0.7582341965168714,1.117934938904643,1.2166251763679086
1789315809604232200,9.536232177734375,-0.23531696848049757,0.8542360716789961,1.1049459126677363
1789315809614265000,9.54626513671875,0.26771277904212476,0.6526274576634168,1.0546167513348161
1789315809624299300,9.55629931640625,0.9934959276787936,0.31343934195041656,1.1515586838260292
1789315809634333400,9.56633349609375,1.3262157241605221,-0.39971827999949455,1.4272753211036324
1789315809644367000,9.5763671875,1.1143126567542552,-0.9350865549385547,1.0816428515568375
1789315809654401300,9.5864013671875,0.9333144306994974,-1.0585060138583182,0.43749099782649425
1789315809664435500,9.596435546875,0.5047276374816895,-0.9333674760609865,0.14997500075427814
1789315809674469000,9.60646923828125,0.0492814789108932,-0.7219768882215023,0.19078432806450873
1789315809684503300,9.61650341796875,-0.2239782667338848,-0.5555599990963935,0.8036975053790957
1789315809694537500,9.626537353515625,-0.36395021652579307,-0.5215478393793106,0.9063268358569592
1789315809704571100,9.636571044921874,0.06516878387257456,-1.000096494987607,0.40598588902689514
1789315809714605300,9.646605224609376,0.3283019800394773,-1.0726274781912564,0.34568978922460225
1789315809724639500,9.656639404296875,0.1375648886501789,-0.4779594575434923,0.2128629619469866
1789315809734673200,9.666673095703125,-0.016768179449439046,-0.22155893063247203,0.036350439072074366
1789315809744707300,9.676707275390624,0.23048896380215883,-0.14486030635535715,0.12117588124405591
1789315809754741200,9.6867412109375,0.31039807455837726,-0.13049451187252997,0.005707929318025708
1789315809764775200,9.696775146484375,0.15204451877102254,-0.6140034202367067,0.01818493264587596
1789315809774809300,9.706809326171875,0.0340197585016489,-1.1338374414354562,-0.10240083721792324
1789315809784843300,9.71684326171875,-0.36606866998448967,-1.3575930053293703,-0.02898886992866173
1789315809794877200,9.726877197265624,-0.6287278188988566,-1.7116531114816664,0.2163079147690907
1789315809804911400,9.736911376953126,-0.19830606533885,-1.839738808646798,0.3359182271968573
1789315809814945300,9.7469453125,-0.11090601430535316,-1.4959686258405447,0.45618298494536424
1789315809824979200,9.756979248046875,-0.5780941947266459,-1.060806107494235,0.422938046741113
1789315809835013400,9.767013427734375,-1.1923159338891505,-0.1607750838458538,0.4532912090266123
1789315809845046300,9.77704638671875,-1.5769251998230813,0.6938356663644314,0.4507526669923216
1789315809855080400,9.78708056640625,-1.8904457903161644,0.7763923690199852,0.6501378328047692
1789315809865114000,9.797114013671875,-2.293721762797236,0.5333727172076702,0.37790008715149015
1789315809875148300,9.807148193359374,-2.353499939672649,0.11372925503253936,0.5687153583435341
1789315809885182500,9.817182373046874,-1.203223404611647,0.02971241669654846,-0.32685331560112535
1789315809895216000,9.827216064453125,1.785894405734539,1.3825667030662296,-0.7984237296946346
1789315809905250300,9.837250244140625,2.734039179688692,1.3396031751304864,-1.1969672668263316
1789315809915284500,9.847284423828125,2.386364682920277,0.4181114303022623,-1.0442636996246875
1789315809925318100,9.857318115234374,1.4261395950719713,0.12056991470754146,-0.9305456966385245
1789315809935352300,9.867352294921876,0.933599531251192,0.8444874156028032,-1.0442017403043806
1789315809945386800,9.87738671875,0.2355757655471563,1.9829495942294597,-1.317128600732982
1789315809955420400,9.88742041015625,-0.2423737551242113,2.2433283771216868,-1.1421519730553031
1789315809965454600,9.89745458984375,-0.29216245290488,1.1068167480409146,-0.08909015954490751
1789315809975488800,9.90748876953125,-0.7836328416675329,0.22906302265226838,1.108248242148757
1789315809985522400,9.9175224609375,-0.801702751365304,-1.5044664050728083,1.8839875540874897
1789315809995556600,9.927556640625,0.031054478955268857,-1.5302899976372717,1.4834588344879447
1789315810005590500,9.937590576171875,0.016788637715578078,-1.049213284856081,0.7589786582086235
1789315810015624400,9.94762451171875,-0.24298867215216158,-0.8664525791734456,0.6654718877978623
1789315810025658600,9.95765869140625,0.5763087726145982,-0.3731809862077236,0.9350878701128065
1789315810035692500,9.967692626953125,0.699634708032012,0.8064969999045133,0.8773129958838224
1789315810045726500,9.9777265625,0.6869663651168346,1.1276081916570664,0.7460822786912321
1789315810055760600,9.9877607421875,1.123627013066411,-0.18303718453645706,0.7352412973336875
1789315810065793500,9.99779345703125,0.5353776272892952,-0.48370823032855986,0.5650619869351386
1789315810075827700,10.00782763671875,-0.754018040126562,0.35801673482358454,0.713213736051321
1789315810085861400,10.017861328125,-0.7188982114285231,0.5846154131889343,0.6566591243322938
1789315810095895600,10.0278955078125,-0.5734358475267887,0.3292810542047024,0.6196823426559567
1789315810105929700,10.0379296875,-1.08811906183362,0.8494716337561606,0.45081703746542334
1789315810115963400,10.04796337890625,-2.057105548286438,1.624530123823881,0.2971507809777744
1789315810125997600,10.05799755859375,-2.030870452311635,2.075294700449705,0.4976425015263259
1789315810136031700,10.06803173828125,-1.768816429683566,2.5700936491131783,0.3179364341739565
1789315810146065400,10.0780654296875,-1.6964163793832063,2.3178864822387695,0.005515932143572717
1789315810156099600,10.088099609375,-1.4213631744503974,1.7108996627658604,0.0030916276060976087
1789315810166133800,10.0981337890625,-1.550881242506206,0.928198548990488,-0.11290001940047367
1789315810176167400,10.10816748046875,-2.3089041343599557,0.7637859854251146,-0.5991107888681814
1789315810186201600,10.11820166015625,-2.3438442225769163,0.9886199922055006,-0.5399336466258391
1789315810196235800,10.12823583984375,-1.1480652887523173,0.9782231013536453,-0.2924579287201166
1789315810206269400,10.13826953125,-0.14569792622327804,1.0992781692296265,-0.23304792756997048
1789315810216303600,10.1483037109375,0.4764905540347099,1.3287562024235724,-0.22019356056340036
1789315810226337800,10.158337890625,0.6856830473080276,1.5162755008101463,-0.7034690254978835
1789315810236371500,10.168371337890624,0.873574393877387,1.1523995185643434,-1.4795584660485386
1789315810246405600,10.178405517578126,1.1875050264760851,0.34371114609539505,-1.6348147864729166
1789315810256439600,10.188439453125,1.3224457041025162,-1.1568155814409256,-1.4010171365141868
1789315810266473500,10.198473388671875,1.146490002259612,-1.1619991215586662,-1.506268193797767
1789315810276507600,10.208507568359375,1.114756893390417,-0.31421441797614097,-1.0433503841720522
1789315810286541600,10.21854150390625,0.8728697527393698,-0.4281675448924303,-0.11350326425693928
1789315810296574700,10.22857470703125,0.40194823100864885,-0.4450877000331878,0.3818557294420898
1789315810306608400,10.2386083984375,-0.1783651010721922,-0.3383206852287054,1.0090262358963489
1789315810316642600,10.248642578125,-0.40465602866262196,0.09181377582252025,0.9367498850408941
1789315810326676500,10.258676513671874,-0.01134177048653364,0.6538105299681425,0.013633096294105052
1789315810336710400,10.26871044921875,0.5892156004607677,0.46809681969881056,-0.2573296975199133
1789315810346744600,10.27874462890625,0.3473851584330201,0.673927435323596,-0.04219071693234146
1789315810356778500,10.288778564453125,-1.2918009749919175,0.7935802351862191,0.0401380952514708
1789315810366812400,10.2988125,-2.5353432382494208,0.10246610274016857,0.42046325412541624
1789315810376846600,10.3088466796875,-1.9304317637458444,-0.4864981533080339,0.5153475234344601
1789315810386880500,10.318880615234375,-0.6991060079827904,-0.6208475870430469,-0.6277662803903221
1789315810396914400,10.32891455078125,-0.5404819646909833,-0.43304011936485765,-1.2406570632100105
1789315810406948600,10.338948486328125,-1.869306848436594,0.2660802094042301,-1.491105988240242
1789315810416982500,10.348982421875,-1.9760212562710047,0.6863087779909371,-1.885155574953556
1789315810427016400,10.359016357421876,-0.4094616753786802,0.9328209480941295,-1.9738995879419148
1789315810437050600,10.369050537109375,1.241845980733633,1.2855273015499113,-1.931124422185123
1789315810447084500,10.37908447265625,2.210212581722438,0.6863192993849515,-2.2414124604977665
1789315810457118500,10.389118408203124,3.396718952549994,-0.479116226363182,-1.492739434660971
1789315810467152600,10.399152587890624,4.571413597291707,-1.2576906155973673,0.5240899250775576
1789315810477186600,10.4091865234375,4.906697691303491,-1.2837760739684103,2.1880079103074968
1789315810487220500,10.419220458984375,4.645397994174063,-0.7542348977476357,2.638343886257708
1789315810497254700,10.429254638671875,4.088647908510268,0.025033903491497037,2.3361335020691154
1789315810507288600,10.43928857421875,3.3533909752160307,0.5682254194021225,1.6900079736456275
1789315810517322500,10.449322509765626,2.6987229516357183,0.2035311065107584,0.7862242464002221
1789315810527355600,10.459355712890625,2.261235789734125,-1.140143263581395,1.1341632393237202
1789315810537389600,10.4693896484375,1.7354282470837235,-2.6999890260487796,1.9181185178786515
1789315810547423500,10.479423583984374,1.2712427556097508,-3.9074312173992394,1.7244801520898938
1789315810557457400,10.48945751953125,0.8235024952411651,-4.2296553388297555,0.7805738194230943
1789315810567491600,10.49949169921875,0.7556795435979962,-3.365468366500735,-0.18695735365487634
1789315810577525500,10.509525390625,0.7605600091159344,-2.2247978641748425,-1.1139397317886353
1789315810587559400,10.519559326171875,1.049341879671812,-0.8618272574603557,-1.5079004711747168
1789315810597593600,10.529593505859374,1.512782982519269,0.7483721431940794,-1.7126280939936638
1789315810607627500,10.53962744140625,1.5199717249795794,2.0969278555870057,-1.7609446733951568
1789315810617661400,10.549661376953125,1.1822370229452848,2.6248347086042165,-1.337155197456479
1789315810627695600,10.559695556640625,0.7629527494713664,3.0573768153190612,-0.21282270300183445
1789315810637729500,10.5697294921875,0.46658115443885323,3.7048634029626846,0.9162290019944309
1789315810647763500,10.579763427734376,0.4536544528484344,5.002127904057502,1.9266177584156392
1789315810657797600,10.589797607421875,-0.18320874171108006,6.0393567366093395,0.8574841867547481
1789315810667831600,10.59983154296875,-5.8783881760179995,5.429687546184659,-1.7986238311871885
1789315810677865500,10.609865478515625,-10.39718545088768,7.43169313853979,-1.3018342932283877
1789315810687899600,10.619899658203124,-10.656341413986683,8.058826673984527,-1.5362321010373532
1789315810697933600,10.62993359375,-7.38292413919568,7.6635250413835045,-1.7295055790364742
1789315810707967500,10.639967529296875,-2.6578786078110337,7.61709588316381,-2.01753122439757
1789315810718001700,10.650001708984375,1.3294967916578053,6.437100501665473,-2.8420424582898614
1789315810728035300,10.660035400390624,4.165858281701803,3.5585260097920894,-4.317120271793008
1789315810738069500,10.670069580078126,4.783042085540294,-1.624224418875575,-3.797644562512636
1789315810748102700,10.6801025390625,2.1559036300383507,-6.755103206008672,2.0375977147400377
1789315810758136600,10.690136474609375,0.19485724005922675,-9.749185653024911,4.658855149379372
1789315810768170500,10.70017041015625,8.976130903995037,-15.24558526700139,3.321643837821483
1789315810778204400,10.710204345703126,2.0220745669156313,-12.44281800352335,1.6986559750035404
1789315810788238600,10.720238525390625,-1.4509228848032651,-7.684462030950188,-0.07885141839683056
1789315810798272500,10.7302724609375,0.13704868275634943,-3.504269518947601,-0.7648547837004065
1789315810808306400,10.740306396484375,-0.8158336411137134,-1.0630804821670055,-0.6586160305537283
1789315810818340600,10.750340576171874,-0.9218447960495948,-0.551014172360301,-0.6906085210114717
1789315810828374500,10.76037451171875,-0.7780882131524384,-0.7608171987473964,-0.6938266062751411
1789315810838408400,10.770408447265625,-1.0162965191602706,-1.3369178815692662,-0.9314910146646201
1789315810848442600,10.780442626953125,-0.25257600018680093,-1.6892039637863634,-1.1105303617365658
1789315810858476500,10.7904765625,0.21539690087139604,-1.5715198336482048,-1.0532944166898728
1789315810868510500,10.800510498046876,0.06164426300823688,-1.430897895514965,-1.291938045375049
1789315810878544600,10.810544677734375,-0.20228388292863964,-0.8225438793420791,-1.0792452888958155
1789315810888578600,10.82057861328125,-0.11019757377505301,0.18763094206750391,-0.9217622323326766
1789315810898612500,10.830612548828125,0.3949620253831148,0.3536433420449495,-0.8752083517547696
1789315810908646700,10.840646728515624,0.6401327177494764,-0.16884499305486678,-0.8805294737122953
1789315810918680600,10.8506806640625,0.7399813314676285,-0.43631461099088187,-0.762335348225385
1789315810928714500,10.860714599609375,0.7459894858412445,-0.5439613312393426,-0.3859395646896213
1789315810938748400,10.87074853515625,0.5374367517761885,-0.7924076842755079,0.039136955384910105
1789315810948782300,10.8807822265625,0.184500388956815,-0.9176999513298273,0.12648447251357137
1789315810958816500,10.89081640625,-0.3152501907646656,-1.2670593324452637,0.2688844531700015
1789315810968850400,10.900850341796875,-0.3831581903427839,-1.1822037051975727,1.0563420407574624
1789315810978884400,10.91088427734375,0.501780916505307,-0.6211041921526194,1.9142888765878974
1789315810988917200,10.920917236328124,1.4164865083247422,-0.5865764841288328,2.6858891890257595
1789315810998951400,10.930951416015626,1.692983774586022,-1.8937416169911623,4.053228220082819
1789315811008985600,10.940985595703125,1.3470550985716283,-3.196910958215594,4.562175813347101
1789315811019019300,10.951019287109375,0.7859548548743128,-1.9778589930921793,3.890274330893159
1789315811029053400,10.961053466796875,0.5068691795550286,-0.7705150014191865,2.632444599086046
1789315811039087600,10.971087646484374,0.5154498147651553,-0.7343506321042775,1.5943210096515714
1789315811049121300,10.981121337890626,0.222888717931509,-0.3854401638001203,1.5391168626934288
1789315811059155500,10.991155517578125,-0.6426251190871,-0.2492752050757408,1.4649541866347193
1789315811069189600,11.001189697265625,-0.9532759993627666,0.08941840511858462,1.2875412717208266
1789315811079223300,11.011223388671874,-0.8236305055350065,0.9000812925308942,1.1327112138845026
1789315811089257500,11.021257568359376,-1.0424874837324023,1.67089615367949,1.1727093161433935
1789315811099291400,11.03129150390625,-0.9673518709883093,2.2370172942787407,1.3188291210405527
1789315811109325300,11.0413251953125,-0.5501081634312868,2.403048983478546,1.1620669260978698
1789315811119359500,11.051359375,-0.31493571798801423,2.413638766553998,0.9346127999469638
1789315811129393400,11.061393310546874,-0.6060042381763457,2.8610119471758604,0.7437054665572941
1789315811139427300,11.07142724609375,0.09561433714926243,3.56089332344532,0.2111280279131606
1789315811149461500,11.08146142578125,2.789370021766424,3.5838767241477965,-0.4906157081620767
1789315811159495400,11.091495361328125,4.729926873685419,2.998357055595517,-0.6661234105091541
1789315811169529300,11.101529296875,5.107812968844175,1.748970742484927,-0.6092049339137972
1789315811179563500,11.1115634765625,3.6213796485900875,0.051343233746290205,-0.48280927219484
1789315811189597400,11.121597412109375,1.3197504736691712,-1.3695020543098448,-0.21792283915244043
1789315811199631400,11.13163134765625,-0.5487129096806049,-1.67688282687366,-0.3903195333395153
1789315811209665500,11.14166552734375,-1.253546939921379,-1.4844827707082033,-0.9245542011387645
1789315811219699500,11.151699462890624,-1.2025345455646514,-0.9666495679378508,-1.255133916851878
1789315811229732600,11.161732666015626,-0.8160302596643566,-0.22354513601362705,-1.2600143823698162
1789315811239766300,11.171766357421875,-0.9058476009726524,-0.27225159151554107,-0.9000992665790021
1789315811249800400,11.181800537109375,-0.7628799764961004,-0.9145032011151313,-0.15469232986606657
1789315811259834600,11.191834716796874,-0.6453168423891067,-0.8254530447870493,0.07590878907367586
1789315811269868300,11.201868408203126,-0.535698529806733,-1.520944077143073,0.10850238722972572
1789315811279902500,11.21190234375,-1.387730369439721,-2.224974974307418,0.07103024151818826
1789315811289936600,11.2219365234375,-2.8224457774162293,-1.4683698402971028,-0.579245191392675
1789315811299970300,11.23197021484375,-3.2580805894494054,-0.5533750562727451,-0.6771108876653015
1789315811310004500,11.24200439453125,-2.165081062097847,-0.5135772988915444,0.1723933697188273
1789315811320038400,11.252038330078125,-1.0693109009891748,-1.2396832497417927,1.0935727971948683
1789315811330072300,11.262072265625,0.044507542507350444,-1.627706415772438,1.3714797841235995
1789315811340106500,11.2721064453125,1.4705188350245355,-1.7497136698067188,1.158973490127176
1789315811350140400,11.282140380859374,0.2556225282758474,-0.8718675899595022,0.9508773407232016
1789315811360174300,11.29217431640625,-0.6617413229674101,0.8333616259545087,0.8956017359640449
1789315811370208500,11.30220849609375,-1.6231620503410695,1.9074638528734444,1.8388940283857285
1789315811380242400,11.312242431640625,-1.9669874704658985,2.752976519870758,2.138986982028931
1789315811390276400,11.3222763671875,-1.367314481137693,1.809803689110279,0.48158378552049397
1789315811400310500,11.332310546875,-0.4416705850660801,1.3432757261633872,-0.6036509530484676
1789315811410344400,11.342344482421876,1.1112649596214295,2.3930343699425456,-0.6854998727608471
1789315811420378400,11.35237841796875,2.0643816767692567,2.9251433508247136,-1.162213275766
1789315811430412500,11.36241259765625,1.9912156105324625,2.6243735208332537,-1.6258274701580404
1789315811440446500,11.372446533203124,1.1658043590605258,2.665430922886729,-1.0956151897426694
1789315811450480400,11.38248046875,0.5574854142010212,2.9947458793610333,-0.30036055507082493
1789315811460514600,11.3925146484375,0.6578162584781646,3.278115077218413,-0.061346723100077355
1789315811470547500,11.40254736328125,0.8382438450381159,3.52219388269484,0.186897275764402
1789315811480581600,11.41258154296875,0.45432519171684976,3.1162825932741165,0.5013523158296942
1789315811490615300,11.422615234375,-0.03618424305915832,2.534588035967946,0.5975109524561092
1789315811500649500,11.4326494140625,-0.17609920196682213,1.789596182861924,0.8326181141108274
1789315811510683600,11.44268359375,-0.29903906067609787,0.7978864079475403,1.1520114690948278
1789315811520717300,11.45271728515625,-0.41398967419713734,0.8322194701820611,1.3226029404908417
1789315811530751500,11.46275146484375,-0.6057680913329124,1.423907598236203,1.2474743420094252
1789315811540785400,11.472785400390626,-0.8434379065498709,1.5944734237343072,1.398929808846116
1789315811550819300,11.4828193359375,-1.1145809523016215,1.347554426395893,1.680171785416454
1789315811560853500,11.492853515625,-1.3543576766699552,1.3933517164528368,1.3836565441295503
1789315811570887400,11.502887451171874,-1.362879421299696,1.5307026700913906,0.9768480136081575
1789315811580921300,11.51292138671875,-1.249582127943635,1.2840104672461747,0.9318117710515856
1789315811590955500,11.52295556640625,-0.8617565303117036,0.8213865260004997,0.9220273130096495
1789315811600989400,11.532989501953125,-0.6413116984009742,0.2670388253033161,0.6078469434335827
1789315811611023400,11.5430234375,-0.7915501906633376,-0.09580196867585182,0.04112736201714724
1789315811621057500,11.5530576171875,-0.6965645068064331,-0.6116606565028428,-0.1611781116887927
1789315811631091500,11.563091552734376,-0.5505699357241391,-0.8728203606396913,0.014980053923651575
1789315811641125400,11.57312548828125,-0.685246117195487,-0.9575935703009366,-0.04016498325839638
1789315811651159600,11.58315966796875,-0.6186655668288469,-1.0602163249075411,-0.35350071870386596
1789315811661193500,11.593193359375,-0.47959085813760755,-0.9907096579611301,-0.5201947442699223
1789315811671227400,11.603227294921876,-0.2473667411059141,-0.9680863227427006,-0.629421792512387
1789315811681261600,11.613261474609375,-0.24656711516082286,-1.2053560327261685,-0.6205923701729625
1789315811691295500,11.62329541015625,-0.39216508814096446,-1.607297833994031,-0.349634033338353
1789315811701329400,11.633329345703125,-0.4467494957655668,-1.8192974936425685,-0.11414221974760293
1789315811711362300,11.6433623046875,-0.10451777457296847,-1.606169122225046,-0.08848083200752735
1789315811721396500,11.653396484375,-0.8398089023977517,-1.3482804025828838,0.20535759128555653
1789315811731430700,11.6634306640625,-1.782835602685809,-0.6026981823682784,0.3238994342315942
1789315811741464300,11.67346435546875,-1.5405609240218996,0.6335252823084593,0.18046192722097038
1789315811751498500,11.68349853515625,-0.36820670492649077,1.3922428784281013,0.13950732795484364
1789315811761532700,11.69353271484375,0.14417758478820322,1.8720850809782743,0.09488405011333524
1789315811771566300,11.70356640625,1.275468264350295,1.6505027694702148,0.34089528495706617
1789315811781600500,11.7136005859375,0.4460924931615591,1.1306740089684724,0.6231001882754266
1789315811791634400,11.723634521484374,-0.6640715194806456,0.9182038091987371,0.5204809408001602
1789315811801668400,11.73366845703125,-0.727186439563334,0.5141062912017107,0.12089841600954532
1789315811811702500,11.74370263671875,-0.3451727430805564,0.04229015871882438,-0.45603243402615184
1789315811821736400,11.753736328125,-0.16633008762449025,-0.6495131250351667,-1.003307127597183
1789315811831770400,11.763770263671875,0.2373267008677125,-1.531813261681795,-1.3504730903215705
1789315811841804500,11.773804443359374,0.6433741838887334,-2.582643334084749,-1.2767469059839844
1789315811851838500,11.78383837890625,0.7122627189368009,-3.4720874972671267,-1.0696221588954329
1789315811861872400,11.793872314453125,0.9468199550911783,-3.8140854097038503,-1.1367540595345198
1789315811871906600,11.803906494140625,0.9344994027003646,-3.4715298633843656,-0.8730183674298226
1789315811881940500,11.8139404296875,0.7538593424335122,-2.8322768510788676,-0.40768447310570627
1789315811891974400,11.823974365234376,0.590184737753868,-2.1696552381455896,0.06893701383229345
1789315811902008600,11.834008544921875,-0.012412030066549777,-1.3136901507169008,0.6591114859204739
1789315811912042500,11.84404248046875,-1.1024039000347257,-0.4507593159288168,1.1384971768748013
1789315811922076400,11.854076416015625,-1.507021934774518,0.19500527022778988,1.2557730915382503
1789315811932110600,11.864110595703124,-0.9486690900892019,0.41623745312392707,1.128907729948312
1789315811942144300,11.874144287109376,0.047818420621007676,-0.18250059344172476,0.6477956535927951
1789315811952177400,11.884177490234375,0.18628595719933508,-1.29724228926301,0.13006280592437833
1789315811962211000,11.894211181640625,-0.11499489105418324,-1.9865040718406437,-0.5213664183977991
1789315811972245200,11.904245361328124,0.18252222075164318,-2.7816590089976785,-1.5071630968108773
1789315811982279200,11.914279052734376,1.247421004386991,-3.7488930988252163,-2.1452752685181795
1789315811992313000,11.92431298828125,2.2592530914843083,-4.629376541438699,-2.291968927780539
1789315812002347300,11.93434716796875,2.224102721517533,-4.972064189705252,-2.2681696806505323
1789315812012381200,11.944381103515624,1.583686656782031,-5.293983190709352,-2.2398286984376607
1789315812022415000,11.9544150390625,0.9742563896797597,-5.420346301865577,-2.1527615326203406
1789315812032449300,11.96444921875,0.06204517195932567,-4.970366738137603,-1.7321105008378623
1789315812042483200,11.974483154296875,0.1978355252176523,-4.312369862395525,-0.6141206168755888
1789315812052517000,11.98451708984375,0.6107137310415506,-3.4684552782446145,0.3860231878524646
1789315812062551300,11.99455126953125,0.29565877058804035,-2.6614953370034695,0.9030833969563246
1789315812072585200,12.004585205078126,-0.3918161285728216,-2.0132599768191577,1.2868883607700465
1789315812082619100,12.014619140625,-0.3335691067874431,-0.926779329842329,0.8374521832037717
1789315812092653300,12.0246533203125,-0.6535761366903782,0.22781565293967723,0.4250281143555417
1789315812102687200,12.034687255859374,-0.883494314867258,1.5140426271915435,0.41888665245845913
1789315812112721200,12.04472119140625,-0.8222071947336197,2.699851663404703,0.486960510122776
1789315812122755300,12.05475537109375,-0.799445912349224,4.030938354602456,0.6279981894500554
1789315812132789200,12.064789306640625,-0.6141080496549606,5.048501532697677,1.048434920894727
1789315812142823200,12.0748232421875,-0.2141974619537592,5.77045913169682,1.382223004195094
1789315812152857000,12.084857177734374,0.03282791836857796,6.400165732499957,1.2849084389992058
1789315812162891300,12.094891357421876,0.03235915007935837,6.967527228549122,1.0101920648053289
1789315812172925200,12.10492529296875,-0.13121051465477793,7.570742712789773,0.6558694352593273
1789315812182959000,12.114958984375,-0.34233105338122694,8.08226249462962,0.2355919129643589
1789315812192993300,12.1249931640625,-0.36102285783700644,8.539377317065,-0.14878138878922909
1789315812203026200,12.135026123046876,-0.4983715464532375,8.914312453463673,-0.5017063168991357
1789315812213060000,12.14506005859375,-1.1377988193470985,9.087051531347631,-0.867668823095411
1789315812223094300,12.15509423828125,-2.1805565713882444,8.915204433867334,-1.0550437445752323
1789315812233128200,12.165128173828125,-3.145272540915012,8.19214910275936,-1.008898079472035
1789315812243162000,12.175162109375,-3.726367963284254,6.670334672522545,0.12174884969326667
1789315812253196300,12.1851962890625,-2.058389596747607,3.1349539759963747,0.7463111190110444
1789315812263230200,12.195230224609375,0.5769273429043591,-0.7216857963204384,-0.21538714666236192
1789315812273264000,12.20526416015625,-1.2718079882770776,1.334436001625657,-1.4577217511631548
1789315812283298300,12.21529833984375,0.14124518459811805,1.5611469081938265,-1.8055875327199697
1789315812293332200,12.225332275390626,-3.318260040602088,0.7218705052375793,-0.6886512494638561
1789315812303366100,12.2353662109375,-3.747208506739139,-1.687752011412382,-1.23862044281587
1789315812313400300,12.245400390625,-0.45924774281084535,-5.797738768288493,-1.709228368552774
1789315812323434200,12.255434326171875,4.468089416417479,-9.475393846330046,-1.6440158916689454
1789315812333468200,12.26546826171875,7.042385777917504,-11.53231877735257,-1.2722040018573402
1789315812343502300,12.27550244140625,6.329872299090027,-13.609126220452785,1.9356752173572778
1789315812353536300,12.285536376953125,2.7606910397708413,-15.004779784107207,3.5449005122825503
1789315812363570200,12.295570068359375,-1.910638683517277,-11.126689812004566,2.0193549326933917
1789315812373604400,12.305604248046874,-1.7759721466571092,-6.459737865409255,1.547616541621834
1789315812383638000,12.315637939453126,0.6568620264932513,-5.020939572033286,0.7263693510267883
1789315812393672200,12.325672119140625,1.7069053324326873,-4.806617022395134,1.6389013251341877
1789315812403706000,12.3357060546875,3.2554227684170005,-4.829878655517101,1.4408935120895505
1789315812413740000,12.345739990234375,3.2153201828703284,-4.162842733272909,-0.322108276498504
1789315812423774200,12.355774169921874,2.8356270382896063,-2.8294606246143577,-0.7461672535609454
1789315812433808100,12.36580810546875,2.4424187247060236,-1.486385389459133,-0.5210641475155949
1789315812443841300,12.37584130859375,2.0159327031597494,0.3197247058302164,-0.552317290848121
1789315812453875000,12.385875,1.5484170443497598,2.034243728137016,-0.6715116063535214
1789315812463909000,12.3959091796875,1.2812263894855975,3.6111405786484476,-0.8783550522826612
1789315812473943300,12.405943359375,1.371364925572276,5.0463691968441005,-1.090397382029146
1789315812483977000,12.41597705078125,0.9517496665783226,5.818868065556884,-1.2286299408078194
1789315812494011100,12.42601123046875,0.033082112325355406,5.750317676421999,-1.5000091334030032
1789315812504045300,12.43604541015625,-0.9213362620055675,5.5572430819958445,-1.610873500523716
1789315812514079000,12.446078857421876,-1.7407769146353005,5.618145586726069,-1.8805761382088064
1789315812524113200,12.456113037109375,-2.710701558721065,5.931061197063326,-2.071809342551976
1789315812534147300,12.466147216796875,-3.775133455497026,6.329484761077166,-2.1240296513937413
1789315812544181000,12.476180908203125,-4.652971936559677,6.479027672290802,-2.1260981282308697
1789315812554215200,12.486215087890624,-4.850512278223038,6.354015975743532,-2.129604382786155
1789315812564249300,12.496249267578126,-4.756122514432668,6.01268675634861,-1.8784243670023977
1789315812574283000,12.506282958984375,-4.660217669904232,5.705653774309158,-1.7208245521917938
1789315812584317200,12.516317138671875,-4.274607410234212,5.558535459893942,-1.751155100786686
1789315812594351400,12.526351318359374,-3.6113685421854256,5.308471734789014,-1.1810947941076009
1789315812604385000,12.536385009765626,-2.38851309312582,4.898564653730392,0.027958960625343022
1789315812614419200,12.546419189453125,-0.9882277780175208,4.381418264180422,1.2940566449642181
1789315812624453000,12.556453125,0.4143902908872813,3.334337315177917,2.527646254006028
1789315812634487000,12.566487060546875,4.953882051804661,-0.23359248277544975,3.929586058323085
1789315812644521200,12.576521240234374,8.614581903392075,-6.589519260576367,4.554154419454932
1789315812654555100,12.58655517578125,3.8783074142456053,-8.19380856040418,4.4843855944409965
1789315812664589000,12.596589111328125,2.590461898881197,-8.90611278039515,4.103267677754164
