time,seconds_elapsed,z,y,x
1789315800117135400,0.04913525390625,0.0429605171084404,-0.1665935069322586,0.008883772417902946
1789315800127169000,0.0591689453125,0.05365470424294472,-0.14859986305236816,-0.013392504304647446
1789315800137203200,0.069203125,0.055269647389650345,-0.10859651863574982,-0.01853480190038681
1789315800147237400,0.0792373046875,0.05132337659597397,-0.07780931144952774,-0.027826305478811264
1789315800157270300,0.089270263671875,0.04688255488872528,-0.03694283589720726,-0.012747487053275108
1789315800167304200,0.09930419921875,0.05649123713374138,0.014346981421113014,0.013018596917390823
1789315800177338000,0.109338134765625,0.02424248866736889,0.08213428407907486,0.03507862612605095
1789315800187372300,0.119372314453125,0.023844346404075623,0.11237847059965134,0.03760942816734314
1789315800197406200,0.12940625,0.057493384927511215,0.13921062648296356,0.023844080045819283
1789315800207440100,0.139440185546875,0.08655060082674026,0.14354172348976135,-0.007392668630927801
1789315800217474300,0.149474365234375,0.1118817925453186,0.1137811616063118,-0.03271932899951935
1789315800227508200,0.15950830078125,0.12084119766950607,0.1035357117652893,-0.027415379881858826
1789315800237542100,0.169542236328125,0.11566641181707382,0.0923437774181366,-0.011787950061261654
1789315800247576300,0.179576416015625,0.10347392410039902,0.07228591293096542,0.014502775855362415
1789315800257610200,0.1896103515625,0.10011887550354004,0.06738276779651642,0.04868444800376892
1789315800267644200,0.19964404296875,0.11754420399665833,0.08655646443367004,0.08485683053731918
1789315800277678300,0.20967822265625,0.1655130684375763,0.06181436404585838,0.09550255537033081
1789315800287712300,0.219712158203125,0.20162765681743622,-0.00006897587445564568,0.06100449711084366
1789315800297746200,0.22974609375,0.2012002170085907,-0.04771053045988083,-0.008153267204761505
1789315800307780400,0.2397802734375,0.20375871658325195,-0.10922741889953613,-0.08941030502319336
1789315800317814000,0.24981396484375,0.22534629702568054,-0.1306173950433731,-0.1908317357301712
1789315800327848200,0.25984814453125,0.1988566368818283,-0.09436991065740585,-0.2398727834224701
1789315800337882400,0.26988232421875,0.19066129624843597,-0.06437632441520691,-0.26990312337875366
1789315800347915300,0.279915283203125,0.21024778485298157,-0.09581440687179565,-0.3083932399749756
1789315800357949200,0.28994921875,0.21188881993293762,-0.14370949566364288,-0.3302711248397827
1789315800367983400,0.2999833984375,0.09922858327627182,-0.04357970133423805,-0.2427993267774582
1789315800378017300,0.310017333984375,0.09369293600320816,0.0886550322175026,-0.09390252828598022
1789315800388051200,0.32005126953125,0.09349452704191208,0.2146928608417511,0.03911624476313591
1789315800398085000,0.330085205078125,0.08941057324409485,0.2869793176651001,0.1449103206396103
1789315800408119300,0.340119384765625,0.08806461095809937,0.2603679299354553,0.1809878945350647
1789315800418153200,0.3501533203125,0.04085741937160492,0.1662779301404953,0.13591495156288147
1789315800428187100,0.360187255859375,0.02034894749522209,0.03833114355802536,0.03970187157392502
1789315800438221300,0.37022119140625,0.05853068828582764,-0.06979133188724518,-0.07499514520168304
1789315800448255200,0.380255126953125,0.13321930170059204,-0.1212204322218895,-0.20474648475646973
1789315800458289200,0.3902890625,0.154531791806221,-0.09810419380664825,-0.285347580909729
1789315800468323300,0.4003232421875,0.10892568528652191,-0.023363379761576653,-0.3337545394897461
1789315800478357200,0.410357177734375,0.09552332758903503,0.03256326913833618,-0.44891440868377686
1789315800488391200,0.42039111328125,0.14077815413475037,0.02418709546327591,-0.5946841239929199
1789315800498425300,0.43042529296875,0.21050690114498138,0.06254300475120544,-0.6793340444564819
1789315800508458200,0.440458251953125,0.2694037854671478,0.08142402023077011,-0.6351593732833862
1789315800518492200,0.4504921875,0.28051820397377014,0.08588907867670059,-0.5078458786010742
1789315800528526300,0.4605263671875,0.23839792609214783,0.07039719820022583,-0.38644570112228394
1789315800538560300,0.470560302734375,0.19114865362644196,0.04954678192734718,-0.3079250752925873
1789315800548594200,0.48059423828125,0.15943625569343567,0.02473144605755806,-0.28355368971824646
1789315800558628400,0.49062841796875,0.15886181592941284,0.04351578652858734,-0.32598477602005005
1789315800568662300,0.500662353515625,0.2008974254131317,0.09114455431699753,-0.40762075781822205
1789315800578696200,0.5106962890625,0.26163214445114136,0.08563128113746643,-0.46182647347450256
1789315800588730400,0.52073046875,0.21917974948883057,-0.046901460736989975,-0.35713255405426025
1789315800598764300,0.530764404296875,0.11600063741207123,-0.11531567573547363,-0.17662429809570312
1789315800608798200,0.540798095703125,0.037265345454216,-0.10274768620729446,-0.016745690256357193
1789315800618832100,0.55083203125,-0.1474701464176178,-0.13861912488937378,0.0397290363907814
1789315800628866300,0.5608662109375,-0.1405286192893982,-0.16298998892307281,0.04328302666544914
1789315800638900200,0.570900146484375,0.0835510864853859,-0.1628701388835907,0.1184997484087944
1789315800648934100,0.58093408203125,0.16323499381542206,-0.11313720792531967,0.19579720497131348
1789315800658968300,0.59096826171875,0.18611447513103485,-0.0172684695571661,0.2010691910982132
1789315800669002200,0.601002197265625,0.16099314391613007,-0.03928961604833603,0.11248792707920074
1789315800679036200,0.6110361328125,0.1423872411251068,-0.08783158659934998,-0.015002385713160038
1789315800689069300,0.6210693359375,0.1879992038011551,0.009712282568216324,-0.014989602379500866
1789315800699103200,0.631103271484375,0.24752990901470184,0.06307563930749893,0.07058042287826538
1789315800709137200,0.64113720703125,0.30243363976478577,0.06010967493057251,0.1574399620294571
1789315800719171300,0.65117138671875,0.3064430058002472,-0.011149323545396328,0.2017594873905182
1789315800729205200,0.661205322265625,0.19653142988681793,-0.06609486043453217,0.362005352973938
1789315800739239200,0.6712392578125,0.03475691378116608,-0.2154148370027542,0.40783941745758057
1789315800749273300,0.6812734375,0.05554741621017456,-0.3983641564846039,0.19953495264053345
1789315800759307300,0.691307373046875,0.21029065549373627,-0.3594963848590851,-0.0006700513185933232
1789315800769341200,0.701341064453125,0.26721304655075073,-0.27556899189949036,-0.22470848262310028
1789315800779375400,0.711375244140625,0.19284215569496155,-0.14533136785030365,-0.43631526827812195
1789315800789409300,0.7214091796875,0.09401331096887589,-0.03720462694764137,-0.6196826696395874
1789315800799443200,0.731443115234375,0.09090887010097504,-0.07767881453037262,-0.7794521450996399
1789315800809477400,0.741477294921875,0.13567739725112915,-0.17888958752155304,-0.8803536891937256
1789315800819511300,0.75151123046875,0.17760461568832397,-0.21142277121543884,-0.9859970211982727
1789315800829545200,0.761545166015625,0.20158877968788147,-0.2950311005115509,-1.0840282440185547
1789315800839579100,0.7715791015625,0.216062530875206,-0.3314644694328308,-1.1598484516143799
1789315800849613300,0.78161328125,0.1907166838645935,-0.22950349748134613,-1.3310377597808838
1789315800859646200,0.791646240234375,0.22490555047988892,-0.16486431658267975,-1.4384377002716064
1789315800869680000,0.80168017578125,0.291321337223053,-0.17994792759418488,-1.4822670221328735
1789315800879714300,0.81171435546875,0.35084855556488037,-0.23064492642879486,-1.4798976182937622
1789315800889748200,0.821748291015625,0.46522200107574463,-0.24316711723804474,-1.5867055654525757
1789315800899782100,0.8317822265625,0.5840043425559998,-0.25601819157600403,-1.7043520212173462
1789315800909816300,0.84181640625,0.6690595746040344,-0.3584950268268585,-1.6290825605392456
1789315800919850000,0.85185009765625,0.5664160251617432,-0.9778555035591125,-0.7277274131774902
1789315800929884200,0.86188427734375,0.2763325273990631,-1.3118786811828613,-0.14691168069839478
1789315800939917600,0.87191748046875,0.22100429236888885,-1.1072230339050293,-0.007174556143581867
1789315800949951700,0.88195166015625,0.3032679855823517,-0.770706832408905,0.291923463344574
1789315800959985400,0.8919853515625,0.24401958286762238,-0.46341532468795776,0.5584654211997986
1789315800970019600,0.90201953125,0.15530329942703247,-0.07178710401058197,0.4567102789878845
1789315800980053800,0.9120537109375,0.15855368971824646,0.23209822177886963,0.10432800650596619
1789315800990087400,0.92208740234375,0.288146048784256,0.3509071469306946,-0.07146060466766357
1789315801000121600,0.93212158203125,0.4924051761627197,0.5710027813911438,-0.2932739555835724
1789315801010155800,0.94215576171875,0.7199863791465759,0.6160072684288025,-0.5433671474456787
1789315801020189400,0.952189453125,0.8207111358642578,0.3888010084629059,-0.7506295442581177
1789315801030223600,0.9622236328125,0.8309206366539001,0.12521784007549286,-0.9409075975418091
1789315801040256500,0.972256591796875,0.7863014936447144,-0.09138850122690201,-1.079942226409912
1789315801050290700,0.982290771484375,0.7017053961753845,-0.08723663538694382,-0.8642295598983765
1789315801060324600,0.99232470703125,0.5572826862335205,0.08817486464977264,-0.38919463753700256
1789315801070358500,1.002358642578125,0.36216381192207336,0.3117845356464386,0.09191633760929108
1789315801080392700,1.012392822265625,0.31518298387527466,0.4062894582748413,0.3988930583000183
1789315801090426600,1.022426513671875,0.3188632130622864,0.2213750034570694,0.4733947217464447
1789315801100460500,1.03246044921875,0.3428806662559509,0.1461542844772339,0.35115402936935425
1789315801110494700,1.04249462890625,0.43208351731300354,0.18329311907291412,0.1773657351732254
1789315801120528600,1.052528564453125,0.5632410049438477,0.09229104965925217,-0.02394448034465313
1789315801130562600,1.0625625,0.7025333642959595,-0.0067513794638216496,-0.19268742203712463
1789315801140596700,1.0725966796875,0.7531257271766663,-0.2616156339645386,-0.2472478747367859
1789315801150630700,1.082630615234375,0.7744688391685486,-0.6797164678573608,-0.24004802107810974
1789315801160664600,1.09266455078125,0.7321631908416748,-1.215044617652893,-0.1357029676437378
1789315801170698800,1.10269873046875,0.5950593948364258,-2.2093045711517334,0.03736867755651474
1789315801180732400,1.112732421875,0.4634566009044647,-2.5401597023010254,0.1359090954065323
1789315801190766600,1.1227666015625,0.2507699131965637,-2.101911783218384,0.14269962906837463
1789315801200800800,1.13280078125,0.09800858795642853,-1.609704613685608,0.18422043323516846
1789315801210833700,1.142833740234375,-0.034206174314022064,-1.4842462539672852,0.21989907324314117
1789315801220867600,1.15286767578125,-0.050822168588638306,-1.4812158346176147,0.2519185245037079
1789315801230901500,1.162901611328125,-0.06173553690314293,-1.4051899909973145,0.2905538082122803
1789315801240935700,1.172935791015625,-0.09280690550804138,-1.2377573251724243,0.3570159077644348
1789315801250969600,1.182969482421875,-0.19981138408184052,-1.0257534980773926,0.40342628955841064
1789315801261003500,1.19300341796875,-0.3625209331512451,-0.7317567467689514,0.41007912158966064
1789315801271037700,1.20303759765625,-0.5314362049102783,-0.37947434186935425,0.41171884536743164
1789315801281071600,1.213071533203125,-0.5951206088066101,-0.19529733061790466,0.4313338100910187
1789315801291105500,1.22310546875,-0.561642050743103,-0.16456657648086548,0.44993093609809875
1789315801301139700,1.2331396484375,-0.417294442653656,-0.2612965703010559,0.4283670485019684
1789315801311173600,1.243173583984375,-0.11314759403467178,-0.6075860857963562,0.3702707290649414
1789315801321207600,1.25320751953125,0.12953828275203705,-0.9037727117538452,0.29824209213256836
1789315801331241700,1.26324169921875,0.15084783732891083,-0.7361664175987244,0.15038657188415527
1789315801341275600,1.273275634765625,0.10896670073270798,-0.7845576405525208,0.005527923349291086
1789315801351309600,1.2833095703125,0.11337529122829437,-0.8249122500419617,-0.07361296564340591
1789315801361343700,1.29334375,0.1520257443189621,-0.36811357736587524,0.08282724022865295
1789315801371377700,1.303377685546875,0.13447125256061554,-0.3559733033180237,0.17323383688926697
1789315801381411600,1.31341162109375,0.07903463393449783,-0.5330023765563965,0.41554954648017883
1789315801391444700,1.32344482421875,0.09342288970947266,-0.11334200203418732,0.6393749117851257
1789315801401478700,1.333478759765625,0.10114259272813797,0.44028815627098083,0.7752594947814941
1789315801411512600,1.3435126953125,0.04327476769685745,0.9924136400222778,0.6230359077453613
1789315801421546800,1.353546630859375,-0.03496117889881134,0.953170120716095,0.3580348491668701
1789315801431580400,1.363580322265625,0.03093527816236019,0.44108232855796814,0.14618170261383057
1789315801441614600,1.373614501953125,0.2175656110048294,-0.09786663949489594,-0.029835393652319908
1789315801451648800,1.383648681640625,0.39622244238853455,-0.3310066759586334,-0.219705730676651
1789315801461682400,1.393682373046875,0.5030998587608337,-0.27582812309265137,-0.3697468936443329
1789315801471716600,1.403716552734375,0.5191062688827515,-0.14254862070083618,-0.36594921350479126
1789315801481750500,1.41375048828125,0.4362417757511139,-0.13927294313907623,-0.23104360699653625
1789315801491784400,1.423784423828125,0.30070045590400696,-0.11270231008529663,-0.09580349177122116
1789315801501818600,1.433818603515625,0.16942578554153442,0.08979246765375137,-0.031099064275622368
1789315801511852500,1.4438525390625,0.12776222825050354,0.3514072895050049,-0.00005379585491027683
1789315801521886500,1.453886474609375,0.12474033236503601,0.5287951231002808,-0.027242539450526237
1789315801531920600,1.463920654296875,0.15397891402244568,0.4003332853317261,-0.08772106468677521
1789315801541954600,1.47395458984375,0.18200841546058655,0.2903625965118408,-0.15033118426799774
1789315801551988500,1.483988525390625,0.22860868275165558,0.2225332111120224,-0.202449768781662
1789315801562021400,1.494021484375,0.2773604989051819,0.21336448192596436,-0.24029488861560822
1789315801572055600,1.5040556640625,0.3314133584499359,0.2663384675979614,-0.18873369693756104
1789315801582089700,1.51408984375,0.38075345754623413,0.3236915171146393,-0.11829734593629837
1789315801592123400,1.524123291015625,0.42012885212898254,0.13882100582122803,-0.06534571945667267
1789315801602157600,1.534157470703125,0.44076061248779297,-0.06279893219470978,-0.011026019230484962
1789315801612191700,1.544191650390625,0.39063912630081177,-0.20716862380504608,0.02822098508477211
1789315801622225400,1.554225341796875,0.29209551215171814,-0.31651854515075684,0.01606099121272564
1789315801632259600,1.564259521484375,0.20292861759662628,-0.2969030439853668,-0.014749917201697826
1789315801642293800,1.574293701171875,0.1412239670753479,-0.2825707197189331,-0.05065092816948891
1789315801652327400,1.584327392578125,0.13122965395450592,-0.2734861373901367,-0.11640597134828568
1789315801662361600,1.594361572265625,0.1839088499546051,-0.31111660599708557,-0.1832909882068634
1789315801672395800,1.604395751953125,0.24472160637378693,-0.32021263241767883,-0.24997521936893463
1789315801682429400,1.614429443359375,0.29566359519958496,-0.2748701870441437,-0.3072667419910431
1789315801692463600,1.624463623046875,0.31834736466407776,-0.22416040301322937,-0.32124701142311096
1789315801702497500,1.63449755859375,0.32170745730400085,-0.11428049951791763,-0.30558520555496216
1789315801712531500,1.644531494140625,0.2825890779495239,-0.03857455775141716,-0.28037306666374207
1789315801722565600,1.654565673828125,0.26800480484962463,0.009071791544556618,-0.2305610328912735
1789315801732598500,1.6645986328125,0.28034085035324097,0.052380383014678955,-0.19645313918590546
1789315801742632700,1.6746328125,0.2838631570339203,0.09936360269784927,-0.1723664402961731
1789315801752666600,1.68466650390625,0.2499600350856781,0.06929891556501389,-0.16507896780967712
1789315801762700500,1.694700439453125,0.17823950946331024,0.01996784843504429,-0.14227938652038574
1789315801772734700,1.704734619140625,0.09333314001560211,0.015592807903885841,-0.11668134480714798
1789315801782768400,1.714768310546875,0.042755186557769775,0.028056135401129723,-0.1282258778810501
1789315801792802600,1.724802490234375,0.02544836886227131,0.09507032483816147,-0.15525563061237335
1789315801802836700,1.734836669921875,0.020180368795990944,0.17401014268398285,-0.19282057881355286
1789315801812870400,1.744870361328125,0.06259999424219131,0.16335509717464447,-0.30023014545440674
1789315801822904600,1.754904541015625,0.11494176834821701,0.0819782242178917,-0.4268440008163452
1789315801832938800,1.764938720703125,0.16735170781612396,-0.013728062622249126,-0.5301477313041687
1789315801842972400,1.774972412109375,0.1947937160730362,-0.058875299990177155,-0.5812098979949951
1789315801853006600,1.785006591796875,0.16377028822898865,-0.08384696394205093,-0.6103941202163696
1789315801863040800,1.795040771484375,0.09059088677167892,-0.1595529019832611,-0.6242542862892151
1789315801873074400,1.805074462890625,0.034449052065610886,-0.25997060537338257,-0.6464381217956543
1789315801883108600,1.815108642578125,0.04694913327693939,-0.3963148593902588,-0.6959692239761353
1789315801893142800,1.825142822265625,0.12101457267999649,-0.5386938452720642,-0.7974113821983337
1789315801903176400,1.835176513671875,0.23059752583503723,-0.4609740078449249,-0.8982839584350586
1789315801913209600,1.845209716796875,0.31993886828422546,-0.26263853907585144,-0.8805582523345947
1789315801923243500,1.855243408203125,0.3009372055530548,-0.14380963146686554,-0.768614649772644
1789315801933278700,1.86527880859375,0.20847438275814056,-0.14312386512756348,-0.5808694958686829
1789315801943312600,1.875312744140625,0.1295662522315979,-0.3963010013103485,-0.34940993785858154
1789315801953346800,1.885346923828125,0.039388950914144516,-0.563444972038269,-0.11071932315826416
1789315801963380500,1.89538037109375,0.0021401161793619394,-0.11227833479642868,0.028074245899915695
1789315801973414700,1.90541455078125,0.06204712390899658,0.39785894751548767,0.06513266265392303
1789315801983448800,1.91544873046875,0.13871820271015167,0.5731537938117981,0.14147217571735382
1789315801993482500,1.925482421875,0.17579233646392822,0.6068952679634094,0.18182839453220367
1789315802003516700,1.9355166015625,0.16720470786094666,0.5335035920143127,0.18231894075870514
1789315802013550800,1.94555078125,0.17384423315525055,0.6730790734291077,0.12309157103300095
1789315802023584500,1.95558447265625,0.21208615601062775,0.7261841297149658,0.03609515354037285
1789315802033618700,1.96561865234375,0.24094630777835846,0.6663489937782288,-0.06264926493167877
1789315802043652900,1.97565283203125,0.23692145943641663,0.5086443424224854,-0.1319580376148224
1789315802053686500,1.9856865234375,0.2261258065700531,0.37152987718582153,-0.17986217141151428
1789315802063720700,1.995720703125,0.20947705209255219,0.22887764871120453,-0.24260304868221283
1789315802073755000,2.0057548828125,0.18445293605327606,-0.10475943237543106,-0.2817414104938507
1789315802083787800,2.015787841796875,0.19125384092330933,-0.5072677135467529,-0.30961084365844727
1789315802093821700,2.02582177734375,0.21504919230937958,-0.7200388312339783,-0.37658241391181946
1789315802103855600,2.035855712890625,0.2726466953754425,-0.909169614315033,-0.6450088024139404
1789315802113889800,2.045889892578125,0.3437075614929199,-1.215118646621704,-1.0124539136886597
1789315802123923700,2.055923828125,0.42788395285606384,-1.2800347805023193,-1.4652560949325562
1789315802133957600,2.06595751953125,0.5130518674850464,-0.9897193312644958,-1.9750151634216309
1789315802143991800,2.07599169921875,0.6201428771018982,-0.3142958879470825,-2.512091636657715
1789315802154025700,2.086025634765625,0.6937319040298462,0.11174703389406204,-3.153416156768799
1789315802164059600,2.0960595703125,0.6704185605049133,0.5968924164772034,-4.003452301025391
1789315802174093800,2.10609375,0.6351045370101929,0.11053716391324997,-4.736059188842773
1789315802184127500,2.11612744140625,0.6841117739677429,-0.6541022062301636,-5.304664134979248
1789315802194161700,2.12616162109375,0.6825684309005737,-0.8857758641242981,-5.940948486328125
1789315802204195800,2.13619580078125,0.5219422578811646,-0.9347532987594604,-6.533177375793457
1789315802214229500,2.1462294921875,0.2677512764930725,-0.8860943913459778,-7.091424942016602
1789315802224263700,2.156263671875,0.10219907015562057,-0.6542731523513794,-7.712808609008789
1789315802234297900,2.1662978515625,-0.008874718099832535,-0.23870418965816498,-8.23502254486084
1789315802244331500,2.17633154296875,-0.1224185898900032,0.21068958938121796,-8.599239349365234
1789315802254365700,2.18636572265625,-0.5525462627410889,0.7978934645652771,-8.262856483459473
1789315802264398600,2.196398681640625,-0.8860187530517578,1.385489583015442,-7.503279685974121
1789315802274432800,2.206432861328125,-1.0332354307174683,1.3595815896987915,-6.839865684509277
1789315802284466700,2.216466796875,-0.9362329244613647,0.49250608682632446,-6.4056782722473145
1789315802294500600,2.22650048828125,-0.4052630662918091,-0.4261060357093811,-6.490466594696045
1789315802304534800,2.23653466796875,0.3587251305580139,-0.8917129039764404,-6.895605087280273
1789315802314568700,2.246568603515625,1.1435538530349731,-1.0355159044265747,-7.1828789710998535
1789315802324602600,2.2566025390625,1.7249536514282227,-1.055005431175232,-7.132607936859131
1789315802334636800,2.26663671875,1.9114651679992676,-0.751664400100708,-6.496927261352539
1789315802344670700,2.276670654296875,1.7384873628616333,-0.10902741551399231,-5.621140956878662
1789315802354704600,2.28670458984375,1.4199186563491821,0.5876078605651855,-4.8766560554504395
1789315802364738800,2.29673876953125,1.24350106716156,1.0076661109924316,-4.376850128173828
1789315802374772700,2.306772705078125,1.1969388723373413,1.2906222343444824,-4.183365345001221
1789315802384806700,2.316806640625,1.2239861488342285,1.4243378639221191,-4.070399761199951
1789315802394840800,2.3268408203125,1.1380072832107544,1.6403447389602661,-3.7937326431274414
1789315802404874500,2.33687451171875,0.9811668395996094,1.834847092628479,-3.3010661602020264
1789315802414908700,2.34690869140625,0.7483410835266113,1.7642251253128052,-2.6764540672302246
1789315802424942800,2.35694287109375,0.55776047706604,1.3866519927978516,-2.1271955966949463
1789315802434975700,2.366975830078125,0.47179150581359863,0.8995543122291565,-1.748166561126709
1789315802445009700,2.377009765625,0.5000218152999878,0.4840497672557831,-1.481124997138977
1789315802455043800,2.3870439453125,0.7253063321113586,0.03912636265158653,-1.2860623598098755
1789315802465077800,2.397077880859375,0.9810382127761841,-0.13165682554244995,-1.1835840940475464
1789315802475111700,2.407111572265625,1.2262442111968994,0.18300417065620422,-1.1631672382354736
1789315802485145600,2.4171455078125,1.4067072868347168,0.833389401435852,-1.1045875549316406
1789315802495179800,2.4271796875,1.3165531158447266,1.3731693029403687,-0.7761980295181274
1789315802505213700,2.437213623046875,1.0967803001403809,1.4842760562896729,-0.271148145198822
1789315802515247600,2.44724755859375,0.9493018984794617,1.4169620275497437,0.20131154358386993
1789315802525281800,2.45728173828125,0.8121531009674072,0.8751839399337769,0.602902889251709
1789315802535315700,2.467315673828125,0.5802348852157593,0.21101050078868866,0.9657029509544373
1789315802545349600,2.477349609375,0.38283926248550415,-0.22699613869190216,1.2506928443908691
1789315802555383800,2.4873837890625,0.28951117396354675,-0.7169091105461121,1.2746796607971191
1789315802565417700,2.497417724609375,0.24223287403583527,-1.0401591062545776,1.1340117454528809
1789315802575451600,2.50745166015625,0.2999667525291443,-1.2435976266860962,1.0578643083572388
1789315802585485800,2.51748583984375,0.34446045756340027,-1.454894781112671,0.9970451593399048
1789315802595519700,2.527519775390625,0.18688413500785828,-1.2055189609527588,0.9058478474617004
1789315802605553700,2.5375537109375,-0.0537460520863533,-0.5465120673179626,1.08864164352417
1789315802615586800,2.5475869140625,-0.2731385827064514,-0.4425625205039978,1.4250718355178833
1789315802625620500,2.557620361328125,-0.639290988445282,0.04891028627753258,2.140887975692749
1789315802635654700,2.567654541015625,-0.5886430144309998,-0.35702523589134216,2.4616122245788574
1789315802645688800,2.577688720703125,-0.6725190281867981,-0.7268991470336914,2.5904042720794678
1789315802655722500,2.587722412109375,-0.5415082573890686,-1.2675755023956299,2.2094497680664062
1789315802665756700,2.597756591796875,-0.42210569977760315,-1.2986481189727783,1.769824743270874
1789315802675790800,2.607790771484375,-0.334471195936203,-0.699213981628418,1.5175533294677734
1789315802685824500,2.617824462890625,-0.23785996437072754,0.6030818819999695,1.5119447708129883
1789315802695858700,2.627858642578125,-0.24563080072402954,2.011545181274414,1.717212438583374
1789315802705892600,2.637892578125,-0.1229642704129219,3.2506959438323975,1.7116490602493286
1789315802715926500,2.647926513671875,0.006941529456526041,2.639709711074829,1.626752257347107
1789315802725960700,2.657960693359375,-0.17788104712963104,1.4481185674667358,1.3513678312301636
1789315802735994600,2.66799462890625,-0.3372113108634949,0.4808635711669922,0.8670192360877991
1789315802746028500,2.678028564453125,-0.46358522772789,-0.6970136761665344,0.5781461596488953
1789315802756062700,2.688062744140625,-0.5650937557220459,-1.8445535898208618,0.40438637137413025
1789315802766096600,2.6980966796875,-0.597070038318634,-2.5774691104888916,0.4327532947063446
1789315802776130600,2.708130615234375,-0.45410117506980896,-2.362543821334839,0.6453899145126343
1789315802786163500,2.71816357421875,-0.22888457775115967,-1.9304677248001099,0.8372434973716736
1789315802796197600,2.72819775390625,-0.09470546990633011,-1.4412572383880615,0.9570229053497314
1789315802806231800,2.738231689453125,-0.06736838817596436,-1.1709601879119873,0.7591697573661804
1789315802816265500,2.748265380859375,0.0007555388147011399,-1.0950154066085815,0.5095791220664978
1789315802826299600,2.758299560546875,0.02863723784685135,-0.9665091037750244,0.30287784337997437
1789315802836333800,2.768333740234375,0.09029607474803925,-0.16800950467586517,0.24489682912826538
1789315802846367500,2.778367431640625,0.17357417941093445,0.10197616368532181,-0.0810418576002121
1789315802856401700,2.788401611328125,0.16966520249843597,0.01817554235458374,-0.47215980291366577
1789315802866435800,2.798435791015625,0.193033367395401,-0.0906396210193634,-0.7195549607276917
1789315802876469500,2.808469482421875,0.18446464836597443,-0.413747102022171,-0.6032800078392029
1789315802886503700,2.818503662109375,0.2216876596212387,-0.6572297811508179,-0.2264121025800705
1789315802896537900,2.828537841796875,0.13242249190807343,-0.6421195864677429,-0.07869454473257065
1789315802906571500,2.838571533203125,-0.0540885366499424,-0.5691508054733276,-0.23945599794387817
1789315802916605700,2.848605712890625,0.0466119758784771,-0.7653879523277283,-0.2469530552625656
1789315802926639900,2.858639892578125,0.16723878681659698,-0.8374658823013306,-0.022517826408147812
1789315802936672800,2.8686728515625,-0.018035193905234337,-0.9395160675048828,0.19483846426010132
1789315802946706400,2.87870654296875,-0.2691017687320709,-1.0590201616287231,0.39167001843452454
1789315802956739600,2.888739501953125,-0.46909424662590027,-0.8506743907928467,0.2560879588127136
1789315802966773500,2.8987734375,-0.49100273847579956,-0.43231627345085144,-0.2925439774990082
1789315802976807700,2.9088076171875,-0.3590790629386902,-0.05978876352310181,-0.9861783981323242
1789315802986841600,2.918841552734375,-0.09529722481966019,0.009380452334880829,-1.5741513967514038
1789315802996875500,2.92887548828125,-0.03274303302168846,-0.47767043113708496,-2.2208669185638428
1789315803006909700,2.93890966796875,-0.22065700590610504,-1.759217381477356,-2.8499321937561035
1789315803016943600,2.948943603515625,-0.3199891746044159,-2.623547077178955,-2.910588502883911
1789315803026977500,2.9589775390625,-0.8247191905975342,-3.619924783706665,-3.044948101043701
1789315803037011700,2.96901171875,-1.5848159790039062,-4.373057842254639,-3.209538459777832
1789315803047045600,2.979045654296875,-3.051244020462036,-5.50555944442749,-3.4828293323516846
1789315803057079600,2.98907958984375,-4.264584064483643,-5.313073635101318,-3.189985752105713
1789315803067113700,2.99911376953125,-4.065082550048828,-1.3528724908828735,-2.7123820781707764
1789315803077147400,3.0091474609375,-2.7652132511138916,1.0401183366775513,-1.4744393825531006
1789315803087181600,3.019181640625,-1.0478883981704712,0.6022392511367798,-0.34378719329833984
1789315803097215700,3.0292158203125,0.24985484778881073,-0.774816632270813,0.39256006479263306
1789315803107249400,3.03924951171875,0.40072956681251526,-1.86756432056427,0.8584688901901245
1789315803117283600,3.04928369140625,-0.22858816385269165,-1.931505560874939,1.2290374040603638
1789315803127317800,3.05931787109375,-1.203250765800476,-1.189294457435608,1.180679440498352
1789315803137350700,3.0693505859375,-1.6983246803283691,0.15268941223621368,0.5902475714683533
1789315803147384600,3.079384521484375,-1.2603609561920166,2.298126459121704,-0.325320839881897
1789315803157418500,3.08941845703125,-1.1165063381195068,3.0113115310668945,-0.5490894913673401
1789315803167452700,3.09945263671875,-1.1291509866714478,2.8183631896972656,-0.24050314724445343
1789315803177486600,3.109486572265625,-0.8721349239349365,1.928303837776184,0.004790227860212326
1789315803187520500,3.1195205078125,-0.346534788608551,1.549727201461792,0.46831607818603516
1789315803197554700,3.1295546875,0.07198737561702728,1.8220889568328857,0.8289975523948669
1789315803207588600,3.139588623046875,0.3743506968021393,1.7013436555862427,0.6895366311073303
1789315803217622500,3.14962255859375,0.5897913575172424,1.887069582939148,1.3908108472824097
1789315803227656700,3.15965673828125,0.3792724907398224,2.9464526176452637,2.482050657272339
1789315803237690600,3.169690673828125,0.372395396232605,1.841874361038208,1.907239556312561
1789315803247724500,3.179724609375,0.44834503531455994,-0.6996366381645203,1.0465400218963623
1789315803257758700,3.1897587890625,0.1872793436050415,-3.0875771045684814,0.3017449378967285
1789315803267792600,3.199792724609375,-0.028569858521223068,-3.879290819168091,-0.2676394283771515
1789315803277826600,3.20982666015625,0.11125488579273224,-3.0656731128692627,-0.08919272571802139
1789315803287860700,3.21986083984375,0.48346173763275146,-1.2918353080749512,0.5857841372489929
1789315803297894700,3.229894775390625,0.34006914496421814,-0.6251690983772278,1.0209150314331055
1789315803307927600,3.239927490234375,-0.03978656232357025,-0.690838098526001,0.8593443036079407
1789315803317961700,3.249961669921875,0.030117155984044075,-0.703312337398529,0.03329723700881004
1789315803327995600,3.25999560546875,0.36767467856407166,0.49368932843208313,-0.4234655201435089
1789315803338029600,3.270029541015625,0.4067328870296478,2.331514596939087,0.6704827547073364
1789315803348063700,3.280063720703125,0.24371758103370667,2.427525758743286,1.3155614137649536
1789315803358097700,3.29009765625,0.07554429024457932,1.2866863012313843,0.26634860038757324
1789315803368131600,3.300131591796875,0.19352099299430847,1.664054036140442,-0.7407686114311218
1789315803378165500,3.31016552734375,0.8445179462432861,1.8746919631958008,-0.7007362842559814
1789315803388199700,3.32019970703125,1.6929512023925781,1.848275899887085,-0.33026978373527527
1789315803398233600,3.330233642578125,2.2231247425079346,2.0870516300201416,0.28497394919395447
1789315803408267500,3.340267578125,2.7068941593170166,1.8783756494522095,1.0688437223434448
1789315803418301700,3.3503017578125,3.0718889236450195,1.5647906064987183,1.6562060117721558
1789315803428335600,3.360335693359375,2.878253221511841,1.0094338655471802,1.919100284576416
1789315803438369500,3.37036962890625,2.083390951156616,-0.08046022057533264,1.8992072343826294
1789315803448403700,3.38040380859375,1.7941529750823975,-0.7326233386993408,1.771625280380249
1789315803458437600,3.390437744140625,1.6952884197235107,-0.35349494218826294,1.417171597480774
1789315803468471600,3.400471435546875,1.771195411682129,0.682925820350647,0.9510294795036316
1789315803478504700,3.410504638671875,1.9092915058135986,1.1780858039855957,0.24317297339439392
1789315803488538600,3.42053857421875,2.2538206577301025,2.069580078125,-0.16402782499790192
1789315803498572500,3.430572509765625,1.9321353435516357,2.7586519718170166,-0.2639722526073456
1789315803508606700,3.440606689453125,1.4023913145065308,2.4723453521728516,-0.6805540323257446
1789315803518640600,3.450640625,0.9828031063079834,2.358266592025757,-1.0055129528045654
1789315803528674600,3.460674560546875,0.6512800455093384,2.9566829204559326,-1.533280611038208
1789315803538708700,3.470708740234375,0.06986589729785919,1.742783784866333,-1.4175913333892822
1789315803548742700,3.48074267578125,-0.2849861979484558,-0.24496927857398987,-0.7422552108764648
1789315803558776600,3.490776611328125,0.08430769294500351,-0.9329497814178467,0.084588922560215
1789315803568810800,3.500810791015625,0.12811003625392914,-1.3614979982376099,0.870459258556366
1789315803578844700,3.5108447265625,-0.23231393098831177,-1.3788681030273438,1.4801350831985474
1789315803588878600,3.520878662109375,-0.593178927898407,-1.4405688047409058,1.7566967010498047
1789315803598912800,3.530912841796875,-0.9498938918113708,-1.2404810190200806,1.7039064168930054
1789315803608946700,3.54094677734375,-1.265956997871399,-0.628217339515686,1.4317265748977661
1789315803618980600,3.550980712890625,-1.2550644874572754,-0.07270589470863342,1.3075278997421265
1789315803629014500,3.5610146484375,-0.9913617372512817,0.1169348731637001,1.3840093612670898
1789315803639048700,3.571048583984375,-0.990679144859314,-0.25083354115486145,1.7927473783493042
1789315803649081600,3.58108154296875,-1.1914186477661133,-0.906315267086029,1.9934372901916504
1789315803659115500,3.591115478515625,-1.3643789291381836,-1.2972798347473145,2.0482733249664307
1789315803669149700,3.601149658203125,-1.4382833242416382,-1.351621389389038,2.0574538707733154
1789315803679183400,3.611183349609375,-1.4500139951705933,-1.0786579847335815,1.9194799661636353
1789315803689217500,3.621217529296875,-1.3989624977111816,-0.63099604845047,1.6741293668746948
1789315803699251700,3.631251708984375,-1.3160103559494019,-0.2199411541223526,1.293793797492981
1789315803709285400,3.641285400390625,-1.203749656677246,0.03633430600166321,0.8600484132766724
1789315803719319600,3.651319580078125,-1.0714514255523682,0.16073215007781982,0.45989301800727844
1789315803729353700,3.661353759765625,-0.916191577911377,0.2538687586784363,0.11616548895835876
1789315803739387400,3.671387451171875,-0.7702703475952148,0.3554411828517914,-0.15888738632202148
1789315803749421600,3.681421630859375,-0.628826916217804,0.4102011024951935,-0.3614937663078308
1789315803759455700,3.691455810546875,-0.49394553899765015,0.38399213552474976,-0.5124049782752991
1789315803769489400,3.701489501953125,-0.36862650513648987,0.30398252606391907,-0.5819078683853149
1789315803779523600,3.711523681640625,-0.28581711649894714,0.22984758019447327,-0.5779861211776733
1789315803789557800,3.721557861328125,-0.23928582668304443,0.16794879734516144,-0.5185057520866394
1789315803799591400,3.73159130859375,-0.19480836391448975,0.11544057726860046,-0.433175653219223
1789315803809625600,3.74162548828125,-0.16204668581485748,0.10350348800420761,-0.3444167673587799
1789315803819659800,3.75165966796875,-0.13053324818611145,0.11396624892950058,-0.273200124502182
1789315803829692700,3.761692626953125,-0.11483950167894363,0.143495112657547,-0.2214016318321228
1789315803839726600,3.7717265625,-0.08897621184587479,0.18028561770915985,-0.19777965545654297
1789315803849760500,3.781760498046875,-0.05311727896332741,0.1803806871175766,-0.19251592457294464
1789315803859794700,3.791794677734375,-0.03430284559726715,0.18396371603012085,-0.18750518560409546
1789315803869828600,3.80182861328125,-0.02190769650042057,0.21371042728424072,-0.17004922032356262
1789315803879862500,3.811862548828125,-0.0179947130382061,0.20868663489818573,-0.16861671209335327
1789315803889896700,3.821896728515625,-0.012250540778040886,0.21061156690120697,-0.15992948412895203
1789315803899930600,3.8319306640625,-0.013806359842419624,0.2182614952325821,-0.1489037275314331
1789315803909964500,3.841964599609375,-0.02491600252687931,0.22624485194683075,-0.14512203633785248
1789315803919998700,3.851998779296875,-0.030976291745901108,0.24325525760650635,-0.14613990485668182
1789315803930032400,3.862032470703125,-0.02268214337527752,0.24602840840816498,-0.16584382951259613
1789315803940066800,3.87206689453125,-0.01432381197810173,0.24372370541095734,-0.18820852041244507
1789315803950101000,3.88210107421875,0.00595456175506115,0.26220232248306274,-0.19655673205852509
1789315803960134700,3.892134765625,0.03136537969112396,0.2767868638038635,-0.20378108322620392
1789315803970168800,3.9021689453125,0.05693598836660385,0.27552318572998047,-0.21764017641544342
1789315803980203000,3.912203125,0.0612788051366806,0.25313133001327515,-0.2225143015384674
1789315803990236700,3.922236572265625,0.047626640647649765,0.23571692407131195,-0.20886878669261932
1789315804000270800,3.932270751953125,0.03780170902609825,0.2362583428621292,-0.1877983957529068
1789315804010303700,3.9423037109375,0.029529396444559097,0.21041609346866608,-0.18005259335041046
1789315804020338000,3.952337890625,0.02990436926484108,0.17422452569007874,-0.1833202838897705
1789315804030371800,3.962371826171875,0.03446849435567856,0.15682050585746765,-0.17218667268753052
1789315804040405800,3.97240576171875,0.034699391573667526,0.16662387549877167,-0.14864113926887512
1789315804050440000,3.98243994140625,0.03326474502682686,0.16501665115356445,-0.11867338418960571
1789315804060473900,3.992473876953125,0.03322852775454521,0.1467401683330536,-0.09795346111059189
1789315804070507800,4.0025078125,0.029812756925821304,0.10946603864431381,-0.10229308158159256
1789315804080542000,4.0125419921875,0.02557646669447422,0.09130913764238358,-0.12134027481079102
1789315804090575600,4.02257568359375,0.023806795477867126,0.10133887082338333,-0.15066327154636383
1789315804100609800,4.03260986328125,0.02906281128525734,0.13142220675945282,-0.1906583607196808
1789315804110644000,4.04264404296875,0.037575870752334595,0.1643865406513214,-0.2345762848854065
1789315804120677600,4.052677734375,0.04135516285896301,0.20995722711086273,-0.26310354471206665
1789315804130711800,4.0627119140625,0.04861041158437729,0.24584385752677917,-0.2705438733100891
1789315804140746000,4.07274609375,0.05945400521159172,0.2766345143318176,-0.25706028938293457
1789315804150779600,4.082779541015625,0.07199376821517944,0.2853052318096161,-0.23822136223316193
1789315804160813800,4.092813720703125,0.07151173055171967,0.2756938934326172,-0.22587308287620544
1789315804170848000,4.102847900390625,0.06894684582948685,0.2543923258781433,-0.21395596861839294
1789315804180881700,4.112881591796875,0.06354249268770218,0.2337041050195694,-0.2011842429637909
1789315804190914800,4.122914794921875,0.058935754001140594,0.23729191720485687,-0.18089334666728973
1789315804200948700,4.13294873046875,0.04898085817694664,0.25162744522094727,-0.14957644045352936
1789315804210983000,4.14298291015625,0.03201838582754135,0.2658527195453644,-0.11658520251512527
1789315804221016800,4.153016845703125,0.018077271059155464,0.2584209144115448,-0.09588631242513657
1789315804231050800,4.16305078125,0.012370916083455086,0.23047928512096405,-0.09527352452278137
1789315804241085000,4.1730849609375,0.008745288476347923,0.1848984807729721,-0.12569934129714966
1789315804251118800,4.183118896484375,0.013460415415465832,0.14831463992595673,-0.17349322140216827
1789315804261152800,4.19315283203125,0.044437773525714874,0.15323109924793243,-0.21263210475444794
1789315804271187000,4.20318701171875,0.09235922247171402,0.1914173662662506,-0.2360474169254303
1789315804281220900,4.213220947265625,0.14421789348125458,0.22302135825157166,-0.25167936086654663
1789315804291254800,4.2232548828125,0.17195019125938416,0.23462767899036407,-0.2748957574367523
1789315804301289000,4.2332890625,0.17279574275016785,0.23266227543354034,-0.2938753068447113
1789315804311322600,4.243322509765625,0.17713163793087006,0.2266342043876648,-0.2979762852191925
1789315804321356800,4.253356689453125,0.17972955107688904,0.22176487743854523,-0.290052592754364
1789315804331391000,4.263390869140625,0.18521752953529358,0.21138174831867218,-0.27934563159942627
1789315804341424600,4.273424560546875,0.18394586443901062,0.21034817397594452,-0.26201537251472473
1789315804351458800,4.283458740234375,0.17619074881076813,0.1919603794813156,-0.2625746428966522
1789315804361493000,4.293492919921875,0.1737251877784729,0.16886144876480103,-0.2889479100704193
1789315804371526000,4.30352587890625,0.1687687784433365,0.18336689472198486,-0.3275088965892792
1789315804381559800,4.313559814453125,0.16759832203388214,0.24565397202968597,-0.3674464523792267
1789315804391593700,4.32359375,0.182233989238739,0.304699182510376,-0.40638744831085205
1789315804401628000,4.3336279296875,0.21322758495807648,0.3545495569705963,-0.4526292681694031
1789315804411661800,4.343661865234375,0.2557675838470459,0.41092443466186523,-0.47814473509788513
1789315804421695700,4.35369580078125,0.29281696677207947,0.4160832166671753,-0.48194533586502075
1789315804431730000,4.36372998046875,0.3107259273529053,0.3721005916595459,-0.46893206238746643
1789315804441763800,4.373763916015625,0.3010469377040863,0.28280001878738403,-0.4566604793071747
1789315804451797800,4.3837978515625,0.2691803276538849,0.1936541497707367,-0.4601020812988281
1789315804461832000,4.39383203125,0.23452062904834747,0.14303012192249298,-0.4807354509830475
1789315804471865900,4.403865966796875,0.20901447534561157,0.13481268286705017,-0.5183837413787842
1789315804481899800,4.413899658203125,0.20545142889022827,0.16324883699417114,-0.5543915629386902
1789315804491933700,4.42393359375,0.2303442507982254,0.2141844630241394,-0.5748321413993835
1789315804501968000,4.4339677734375,0.2777431905269623,0.2433423548936844,-0.5786194205284119
1789315804512001800,4.444001708984375,0.3078792691230774,0.25727707147598267,-0.5720512866973877
1789315804522035700,4.45403564453125,0.3268201947212219,0.2384684979915619,-0.5739639401435852
1789315804532070000,4.46406982421875,0.3124319314956665,0.18315917253494263,-0.5918452143669128
1789315804542103800,4.474103759765625,0.2716139256954193,0.12230034917593002,-0.6012123227119446
1789315804552137000,4.484136962890625,0.21696746349334717,0.08033584803342819,-0.6244018077850342
1789315804562170600,4.494170654296875,0.1893978863954544,0.07378287613391876,-0.660062313079834
1789315804572204800,4.504204833984375,0.1848987489938736,0.08609307557344437,-0.7118554711341858
1789315804582239000,4.514239013671875,0.19882547855377197,0.11878950148820877,-0.7785636782646179
1789315804592272600,4.524272705078125,0.20798169076442719,0.1550969034433365,-0.8121781349182129
1789315804602306800,4.534306884765625,0.23079006373882294,0.16874480247497559,-0.8091367483139038
1789315804612340700,4.5443408203125,0.2568967640399933,0.14999616146087646,-0.7783426642417908
1789315804622374700,4.554374755859375,0.24918000400066376,0.1096561923623085,-0.7295618057250977
1789315804632408800,4.564408935546875,0.23253124952316284,0.06661844253540039,-0.6848641037940979
1789315804642442800,4.57444287109375,0.22578120231628418,0.05143336206674576,-0.6750357151031494
1789315804652476700,4.5844765625,0.23807328939437866,0.049618951976299286,-0.6999666094779968
1789315804662510800,4.5945107421875,0.27542465925216675,0.06600698083639145,-0.7306787371635437
1789315804672544800,4.604544677734375,0.3202238082885742,0.09393715113401413,-0.7548934817314148
1789315804682578700,4.61457861328125,0.3577221930027008,0.13257375359535217,-0.7754866480827332
1789315804692612900,4.62461279296875,0.3615313172340393,0.19260700047016144,-0.7742522954940796
1789315804702646800,4.634646728515625,0.35455623269081116,0.217073455452919,-0.7773615121841431
1789315804712680700,4.6446806640625,0.3582654595375061,0.23244228959083557,-0.7743585705757141
1789315804722715000,4.65471484375,0.348483681678772,0.28342291712760925,-0.7500545382499695
1789315804732747800,4.664747802734375,0.31731483340263367,0.31105321645736694,-0.7161679267883301
1789315804742782000,4.674781982421875,0.2596116065979004,0.2841659486293793,-0.6838608980178833
1789315804752815600,4.684815673828125,0.18038389086723328,0.23861843347549438,-0.651841938495636
1789315804762849800,4.694849853515625,0.1054566502571106,0.1965106576681137,-0.6298996210098267
1789315804772884000,4.704884033203125,0.04243587329983711,0.1481790840625763,-0.600059449672699
1789315804782917600,4.714917724609375,0.0062698801048099995,0.07084594666957855,-0.5380847454071045
1789315804792951800,4.724951904296875,-0.006846454460173845,-0.057129863649606705,-0.4858679175376892
1789315804802986000,4.734986083984375,-0.006036320701241493,-0.18231122195720673,-0.4591611921787262
1789315804813019600,4.74501953125,-0.0008439557277597487,-0.24809075891971588,-0.46032074093818665
1789315804823053800,4.7550537109375,0.016037289053201675,-0.22584883868694305,-0.4997709393501282
1789315804833088000,4.765087890625,0.05886145308613777,-0.12702372670173645,-0.5201529264450073
1789315804843121700,4.77512158203125,0.11165888607501984,-0.009613744914531708,-0.5049561262130737
1789315804853155800,4.78515576171875,0.15637362003326416,0.0825103223323822,-0.48138099908828735
1789315804863189800,4.795189697265625,0.18937206268310547,0.07539861649274826,-0.42454302310943604
1789315804873223700,4.8052236328125,0.19284747540950775,0.07193118333816528,-0.3753083646297455
1789315804883257900,4.8152578125,0.21819119155406952,0.0863221064209938,-0.32938987016677856
1789315804893291800,4.825291748046875,0.23014478385448456,0.11281123757362366,-0.2922273278236389
1789315804903325700,4.83532568359375,0.23448334634304047,0.11761478334665298,-0.2760497033596039
1789315804913358600,4.845358642578125,0.2454313337802887,0.11491646617650986,-0.25703153014183044
1789315804923392800,4.855392822265625,0.26221057772636414,0.101344995200634,-0.24878637492656708
1789315804933427000,4.865427001953125,0.27388694882392883,0.058516040444374084,-0.2462071031332016
1789315804943461400,4.87546142578125,0.2731332778930664,-0.013545103371143341,-0.24005360901355743
1789315804953495300,4.885495361328125,0.2626960575580597,-0.09581254422664642,-0.22512046992778778
1789315804963529500,4.895529541015625,0.2741042673587799,-0.15475362539291382,-0.20551720261573792
1789315804973563100,4.905563232421875,0.29257461428642273,-0.1795862764120102,-0.18795259296894073
1789315804983597300,4.915597412109375,0.31439176201820374,-0.17197655141353607,-0.1951596438884735
1789315804993631500,4.925631591796875,0.34735503792762756,-0.1604410707950592,-0.20553052425384521
1789315805003665200,4.9356650390625,0.36461231112480164,-0.1808968186378479,-0.2449761927127838
1789315805013699300,4.94569921875,0.37850335240364075,-0.1658313125371933,-0.2958071529865265
1789315805023733500,4.9557333984375,0.4007444977760315,-0.13729846477508545,-0.32096150517463684
1789315805033767200,4.96576708984375,0.4214481711387634,-0.14397980272769928,-0.32104194164276123
1789315805043801300,4.97580126953125,0.43377113342285156,-0.1989908665418625,-0.3115064799785614
1789315805053835300,4.985835205078125,0.422379732131958,-0.2527025640010834,-0.28815776109695435
1789315805063869200,4.995869140625,0.387971967458725,-0.32545000314712524,-0.26145318150520325
1789315805073903400,5.0059033203125,0.36808907985687256,-0.40895020961761475,-0.229212686419487
1789315805083937300,5.015937255859375,0.38144296407699585,-0.4476203918457031,-0.20391690731048584
1789315805093970200,5.02597021484375,0.3651454746723175,-0.4799647331237793,-0.19101975858211517
1789315805104004400,5.03600439453125,0.29724180698394775,-0.5142156481742859,-0.2008119374513626
1789315805114038300,5.046038330078125,0.23081190884113312,-0.5120763182640076,-0.23218530416488647
1789315805124072200,5.056072265625,0.1841631829738617,-0.5099537968635559,-0.2614251971244812
1789315805134106400,5.0661064453125,0.18156740069389343,-0.5617669224739075,-0.2900054454803467
1789315805144140300,5.076140380859375,0.18169362843036652,-0.7001141309738159,-0.3336046040058136
1789315805154174200,5.08617431640625,0.135109081864357,-0.9267086982727051,-0.36926618218421936
1789315805164208400,5.09620849609375,0.10427500307559967,-1.2214045524597168,-0.4139931797981262
1789315805174242300,5.1062421875,0.09473689645528793,-1.5162872076034546,-0.46547767519950867
1789315805184276200,5.116276123046875,0.130625918507576,-1.7799338102340698,-0.5011853575706482
1789315805194310100,5.12631005859375,0.21772167086601257,-2.01283597946167,-0.5037451982498169
1789315805204344300,5.13634423828125,0.3450508713722229,-2.232343912124634,-0.46065762639045715
1789315805214378200,5.146378173828125,0.5051332116127014,-2.4645891189575195,-0.39647385478019714
1789315805224412200,5.156412109375,0.5695542693138123,-2.637885570526123,-0.2896302044391632
1789315805234446300,5.1664462890625,0.6191599369049072,-2.7292604446411133,-0.15021853148937225
1789315805244480300,5.176480224609375,0.7650516033172607,-2.723996162414551,0.014454573392868042
1789315805254514200,5.18651416015625,0.9156402945518494,-2.694420337677002,0.20270384848117828
1789315805264548400,5.19654833984375,0.9243488311767578,-2.72036075592041,0.46420443058013916
1789315805274581200,5.206581298828125,0.8089836239814758,-2.6909339427948,0.729832112789154
1789315805284615200,5.216615234375,0.6375247836112976,-2.500339984893799,0.886669397354126
1789315805294649300,5.2266494140625,0.4417704939842224,-2.2247681617736816,0.9993653297424316
1789315805304683300,5.236683349609375,0.35065335035324097,-1.8032255172729492,1.0597455501556396
1789315805314717200,5.24671728515625,0.26023104786872864,-1.265795111656189,1.0341038703918457
1789315805324751400,5.25675146484375,0.15495389699935913,-0.6856982111930847,0.9542044997215271
1789315805334785300,5.266785400390625,0.10193568468093872,-0.17579126358032227,0.8227159976959229
1789315805344819200,5.276819091796875,0.11318541318178177,0.11342748999595642,0.6362430453300476
1789315805354853400,5.286853271484375,0.12127875536680222,0.2970729470252991,0.4866274297237396
1789315805364887300,5.29688720703125,0.12051203101873398,0.45556405186653137,0.3803289532661438
1789315805374921200,5.306921142578125,0.1930256485939026,0.562019944190979,0.34081536531448364
1789315805384955400,5.316955322265625,0.3191295266151428,0.5527257919311523,0.34193524718284607
1789315805394989300,5.3269892578125,0.45136213302612305,0.3896052837371826,0.36043062806129456
1789315805405023200,5.337023193359375,0.5322463512420654,-0.030597589910030365,0.3841868042945862
1789315805415057400,5.347057373046875,0.5484873652458191,-0.5269085764884949,0.4610328674316406
1789315805425091300,5.35709130859375,0.4941844344139099,-0.9347676634788513,0.5876701474189758
1789315805435125200,5.367125244140625,0.39094990491867065,-1.1777476072311401,0.817406952381134
1789315805445159200,5.3771591796875,0.30931204557418823,-1.2042784690856934,1.0772340297698975
1789315805455193300,5.387193359375,0.24878105521202087,-0.9852604269981384,1.3146138191223145
1789315805465227300,5.397227294921875,0.19388771057128906,-0.6435914635658264,1.539322018623352
1789315805475260200,5.40726025390625,0.15036579966545105,-0.35588592290878296,1.7245895862579346
1789315805485294300,5.41729443359375,0.17143087089061737,-0.026092587038874626,1.8578333854675293
1789315805495328300,5.427328369140625,0.16630135476589203,0.49262115359306335,1.9049897193908691
1789315805505362200,5.437362060546875,0.11710105836391449,1.0374021530151367,1.9829602241516113
1789315805515396400,5.447396240234375,0.0889410600066185,1.5754622220993042,2.125023126602173
1789315805525430300,5.45743017578125,-0.013192234560847282,1.9875719547271729,2.536949872970581
1789315805535464200,5.467464111328125,-0.008641159161925316,0.924856960773468,2.2635321617126465
1789315805545498400,5.477498291015625,0.25814366340637207,-0.1709515005350113,1.80463707447052
1789315805555532300,5.4875322265625,0.5694831609725952,-0.6182126402854919,1.5045325756072998
1789315805565566200,5.497566162109375,0.7169362902641296,-0.2266155630350113,1.746432900428772
1789315805575600400,5.507600341796875,0.7882916927337646,0.6851884722709656,1.9098105430603027
1789315805585634300,5.51763427734375,0.7338569164276123,1.3036417961120605,1.9314589500427246
1789315805595668200,5.527668212890625,0.500974178314209,1.2862098217010498,2.0101237297058105
1789315805605702400,5.537702392578125,0.275108277797699,1.2199482917785645,2.0676560401916504
1789315805615736300,5.547736328125,0.17492467164993286,1.4988949298858643,2.0393381118774414
1789315805625770200,5.557770263671875,0.060137905180454254,0.9896149635314941,1.8781213760375977
1789315805635804400,5.567804443359375,-0.033553965389728546,0.23472942411899567,1.6443555355072021
1789315805645838300,5.57783837890625,-0.058523230254650116,0.20076799392700195,1.369353175163269
1789315805655872300,5.587872314453125,0.07715257257223129,0.5363268256187439,0.7431479096412659
1789315805665905200,5.5979052734375,-0.08227942883968353,0.6871961951255798,0.27824893593788147
1789315805675939300,5.607939208984375,-0.10303424298763275,0.3873370587825775,0.07787961512804031
1789315805685973500,5.617973388671875,0.2008872926235199,-0.5171504616737366,0.14861291646957397
1789315805696007200,5.628007080078125,0.5249851942062378,-1.3157474994659424,0.274102121591568
1789315805706041300,5.638041259765625,0.7889598608016968,-1.5844013690948486,0.36823713779449463
1789315805716075500,5.648075439453125,0.728202223777771,-1.4367048740386963,0.2580784261226654
1789315805726109200,5.658109130859375,0.49131566286087036,-1.0283279418945312,0.07980774343013763
1789315805736143400,5.668143310546875,0.17340001463890076,-0.5837132334709167,0.033484190702438354
1789315805746177300,5.67817724609375,-0.029947245493531227,-0.37218767404556274,0.00478543434292078
1789315805756211200,5.688211181640625,-0.1329047828912735,-0.2629397511482239,-0.03671273961663246
1789315805766245400,5.698245361328125,-0.20753881335258484,-0.14935007691383362,-0.013020993210375309
1789315805776279300,5.708279296875,-0.2265617698431015,-0.11155688762664795,-0.0008317052270285785
1789315805786313200,5.718313232421875,-0.1845373511314392,-0.23469533026218414,-0.06386979669332504
1789315805796347400,5.728347412109375,-0.12293870747089386,-0.36504748463630676,-0.1421225219964981
1789315805806381300,5.73838134765625,0.014247911982238293,-0.4735603630542755,-0.22716045379638672
1789315805816415200,5.748415283203125,0.153467059135437,-0.5664895176887512,-0.3338562548160553
1789315805826449400,5.758449462890625,0.257174551486969,-0.653471827507019,-0.27442222833633423
1789315805836483300,5.7684833984375,0.28341707587242126,-0.7584331035614014,-0.04157247766852379
1789315805846517200,5.778517333984375,0.22102612257003784,-0.8874446153640747,0.20093870162963867
1789315805856550100,5.788550048828125,0.11781638115644455,-0.9840180277824402,0.4397086799144745
1789315805866584300,5.798584228515625,0.05254336819052696,-1.0098803043365479,0.5957656502723694
1789315805876618500,5.808618408203125,0.024535169824957848,-1.0040775537490845,0.5773035287857056
1789315805886652200,5.818652099609375,0.039563655853271484,-1.0442438125610352,0.49771976470947266
1789315805896686300,5.828686279296875,0.08119871467351913,-1.0986607074737549,0.5111303925514221
1789315805906720500,5.838720458984375,0.12721680104732513,-1.101101040840149,0.5599123239517212
1789315805916754200,5.848754150390625,0.14573509991168976,-1.0797195434570312,0.634350597858429
1789315805926788400,5.858788330078125,0.10172982513904572,-0.9989352226257324,0.7702383995056152
1789315805936822000,5.868822021484375,0.02666649781167507,-0.8609469532966614,0.912905752658844
1789315805946856000,5.87885595703125,-0.03539980202913284,-0.7405193448066711,0.9477982521057129
1789315805956890000,5.88889013671875,-0.07446757704019547,-0.6976839900016785,0.916483998298645
1789315805966924000,5.898924072265625,-0.10551870614290237,-0.645787239074707,0.7834782600402832
1789315805976958000,5.9089580078125,-0.1315351277589798,-0.5688741207122803,0.5843476057052612
1789315805986992000,5.9189921875,-0.14348286390304565,-0.5768766403198242,0.4681682586669922
1789315805997026000,5.929026123046875,-0.16445446014404297,-0.6647942662239075,0.44663262367248535
1789315806007060000,5.93906005859375,-0.20576247572898865,-0.778705358505249,0.5029821991920471
1789315806017094100,5.94909423828125,-0.2160729169845581,-0.8329288959503174,0.5537058115005493
1789315806027128000,5.959128173828125,-0.18642659485340118,-0.8342921733856201,0.5487648248672485
1789315806037162000,5.969161865234375,-0.1489657759666443,-0.8420995473861694,0.46727609634399414
1789315806047195000,5.97919482421875,-0.13113564252853394,-0.8488237261772156,0.30083680152893066
1789315806057229000,5.98922900390625,-0.11176647990942001,-0.8373769521713257,0.06710047274827957
1789315806067263200,5.99926318359375,-0.08205731958150864,-0.8049140572547913,-0.15071547031402588
1789315806077297000,6.009296875,-0.02466380037367344,-0.7849856615066528,-0.29234185814857483
1789315806087331000,6.0193310546875,0.05422089248895645,-0.7758475542068481,-0.3026501536369324
1789315806097365200,6.029365234375,0.10405955463647842,-0.7305160164833069,-0.232502743601799
1789315806107399000,6.03939892578125,0.1022278368473053,-0.6665780544281006,-0.08966170996427536
1789315806117433000,6.04943310546875,0.04332084208726883,-0.6406934261322021,0.1366683691740036
1789315806127467300,6.05946728515625,-0.07421324402093887,-0.6567584276199341,0.37892040610313416
1789315806137501000,6.0695009765625,-0.15419036149978638,-0.6659892201423645,0.5581548810005188
1789315806147535000,6.07953515625,-0.14388659596443176,-0.6800150275230408,0.5905376076698303
1789315806157569300,6.0895693359375,-0.0797443613409996,-0.6994425058364868,0.548420786857605
1789315806167603000,6.09960302734375,-0.029575735330581665,-0.6818070411682129,0.45127609372138977
1789315806177637000,6.10963720703125,-0.005121524911373854,-0.6230457425117493,0.33930402994155884
1789315806187671000,6.119671142578125,0.020921526476740837,-0.5548474788665771,0.2598060071468353
1789315806197705000,6.129705078125,0.055986303836107254,-0.5630971789360046,0.22254678606987
1789315806207739100,6.1397392578125,0.04455015808343887,-0.5478814840316772,0.2888352572917938
1789315806217773000,6.14977294921875,-0.027221234515309334,-0.4122503995895386,0.44358834624290466
1789315806227807000,6.159806884765625,-0.07100679725408554,-0.2707151174545288,0.5256097316741943
1789315806237841200,6.169841064453125,-0.09667380899190903,-0.16298039257526398,0.45809298753738403
1789315806247874000,6.1798740234375,-0.11202666908502579,-0.03874766081571579,0.26660504937171936
1789315806257908200,6.189908203125,-0.08582649379968643,0.021574001759290695,0.006359096150845289
1789315806267942000,6.19994189453125,-0.041550107300281525,0.026681678369641304,-0.23920166492462158
1789315806277976000,6.20997607421875,-0.04550623148679733,0.038656581193208694,-0.3698132038116455
1789315806288010200,6.22001025390625,-0.08870057761669159,0.07593630999326706,-0.421520859003067
1789315806298044000,6.2300439453125,-0.12987038493156433,0.06996603310108185,-0.4441628158092499
1789315806308078000,6.240078125,-0.14760543406009674,0.02936081774532795,-0.4135388433933258
1789315806318112300,6.2501123046875,-0.18885593116283417,0.02714267186820507,-0.3551490306854248
1789315806328146000,6.26014599609375,-0.2603982985019684,0.03813140466809273,-0.27879247069358826
1789315806338180000,6.27018017578125,-0.3729267120361328,0.035529233515262604,-0.2364375740289688
1789315806348214300,6.28021435546875,-0.44320058822631836,0.048234108835458755,-0.22323867678642273
1789315806358248000,6.290248046875,-0.4950408935546875,0.07362069189548492,-0.24232502281665802
1789315806368282000,6.3002822265625,-0.5097636580467224,0.07865992188453674,-0.25463786721229553
1789315806378316300,6.31031640625,-0.4966864585876465,0.15303055942058563,-0.1456453502178192
1789315806388350000,6.320349853515625,-0.3998163640499115,0.2759980261325836,0.005495166406035423
1789315806398384000,6.330384033203125,-0.309626042842865,0.3204523026943207,0.16473275423049927
1789315806408418000,6.34041796875,-0.21570725739002228,0.37012720108032227,0.2290150672197342
1789315806418452000,6.350451904296875,-0.12810470163822174,0.3313390612602234,0.17959453165531158
1789315806428486100,6.360486083984375,-0.12391076236963272,0.310375452041626,0.08389303833246231
1789315806438519000,6.37051904296875,-0.1811615377664566,0.2717417776584625,0.013576262630522251
1789315806448553000,6.380552978515625,-0.22792237997055054,0.2459205538034439,-0.008477373979985714
1789315806458587100,6.390587158203125,-0.25738707184791565,0.21501696109771729,0.002865028567612171
1789315806468621000,6.40062109375,-0.28868186473846436,0.20446498692035675,0.0580313466489315
1789315806478655000,6.410655029296875,-0.2933836877346039,0.24799275398254395,0.13170424103736877
1789315806488689000,6.42068896484375,-0.23978303372859955,0.27258971333503723,0.15665538609027863
1789315806498723000,6.43072314453125,-0.17598754167556763,0.21576239168643951,0.17178267240524292
1789315806508757000,6.440757080078125,-0.14367488026618958,0.16577725112438202,0.16997972130775452
1789315806518791000,6.450791015625,-0.10703297704458237,0.1589675396680832,0.1588037610054016
1789315806528825000,6.4608251953125,-0.05398200824856758,0.16776156425476074,0.09781897068023682
1789315806538859000,6.47085888671875,0.006493585649877787,0.15490275621414185,0.01059112511575222
1789315806548893000,6.480892822265625,0.06695453077554703,0.12388492375612259,-0.0890214815735817
1789315806558927000,6.490927001953125,0.09168757498264313,0.09311848878860474,-0.18185847997665405
1789315806568961000,6.5009609375,0.08673862367868423,0.10587690025568008,-0.29997900128364563
1789315806578995000,6.510994873046875,0.07974329590797424,0.11344107240438461,-0.39200344681739807
1789315806589029000,6.521029052734375,0.07092184573411942,0.11296383291482925,-0.44083625078201294
1789315806599063000,6.53106298828125,0.04193200543522835,0.12711560726165771,-0.4258943200111389
1789315806609097000,6.541096923828125,-0.009667274542152882,0.1437648981809616,-0.3739781081676483
1789315806619131100,6.551131103515625,-0.0699647068977356,0.15452246367931366,-0.3108942210674286
1789315806629165000,6.5611650390625,-0.12446309626102448,0.14835432171821594,-0.2639767825603485
1789315806639199000,6.571198974609375,-0.1908988505601883,0.10157562792301178,-0.2072189599275589
1789315806649232100,6.581232177734375,-0.24352450668811798,0.04018789902329445,-0.11628000438213348
1789315806659266000,6.59126611328125,-0.29092690348625183,-0.03347007557749748,-0.01732386276125908
1789315806669300000,6.601300048828125,-0.33108872175216675,-0.0837220624089241,0.06665652245283127
1789315806679334100,6.611334228515625,-0.38687580823898315,-0.15820375084877014,0.09099035710096359
1789315806689368000,6.6213681640625,-0.415917307138443,-0.21322040259838104,0.05878289043903351
1789315806699402000,6.631402099609375,-0.4257875084877014,-0.27015557885169983,-0.0001597896625753492
1789315806709436000,6.641435791015625,-0.428093284368515,-0.32879120111465454,-0.06681684404611588
1789315806719470000,6.651469970703125,-0.3847077190876007,-0.3644815683364868,-0.1252969354391098
1789315806729504000,6.66150390625,-0.30450451374053955,-0.40206700563430786,-0.15870629251003265
1789315806739538000,6.671537841796875,-0.1901473104953766,-0.42445966601371765,-0.1823282688856125
1789315806749572000,6.681572021484375,-0.08196970075368881,-0.4186957776546478,-0.17293423414230347
1789315806759606000,6.69160595703125,-0.012926717288792133,-0.4017106890678406,-0.14144954085350037
1789315806769640000,6.701639892578125,0.034631479531526566,-0.38564038276672363,-0.07109175622463226
1789315806779674000,6.711674072265625,0.08123999834060669,-0.3778860569000244,0.04150589928030968
1789315806789708000,6.7217080078125,0.1009063720703125,-0.3631070852279663,0.134847030043602
1789315806799742000,6.731741943359375,0.09176640212535858,-0.35476741194725037,0.20999690890312195
1789315806809776000,6.741776123046875,0.0796801820397377,-0.33707231283187866,0.252166211605072
1789315806819810000,6.75181005859375,0.08540970832109451,-0.3115925192832947,0.26492834091186523
1789315806829844000,6.761843994140625,0.1145087331533432,-0.2626201808452606,0.26043638586997986
1789315806839878100,6.771878173828125,0.17765147984027863,-0.22094862163066864,0.23080205917358398
1789315806849911000,6.7819111328125,0.269578218460083,-0.18643246591091156,0.19086022675037384
1789315806859945000,6.791945068359375,0.3518509864807129,-0.14171744883060455,0.13631975650787354
1789315806869979100,6.801979248046875,0.38336309790611267,-0.09812070429325104,0.08625739067792892
1789315806880013000,6.812012939453125,0.37889564037323,-0.061292387545108795,0.07031996548175812
1789315806890047000,6.822046875,0.36431884765625,-0.032467927783727646,0.09127797931432724
1789315806900081200,6.8320810546875,0.35752058029174805,-0.0099623529240489,0.14440858364105225
1789315806910115000,6.842114990234375,0.3388845920562744,0.0149813462048769,0.2146017849445343
1789315806920149000,6.85214892578125,0.3011063039302826,0.07002409547567368,0.2747498154640198
1789315806930183200,6.86218310546875,0.2461778223514557,0.15699253976345062,0.3025534749031067
1789315806940217600,6.872217529296875,0.2322835773229599,0.2394956797361374,0.265918493270874
1789315806950251500,6.88225146484375,0.22424854338169098,0.28125831484794617,0.22788429260253906
1789315806960285700,6.89228564453125,0.1921374797821045,0.2985377013683319,0.19069431722164154
1789315806970319600,6.902319580078125,0.1387363076210022,0.2831166684627533,0.1607864797115326
1789315806980353500,6.912353515625,0.07665003836154938,0.2674524784088135,0.1470664143562317
1789315806990387500,6.922387451171875,-0.07094208151102066,0.2554858326911926,0.1867901235818863
1789315807000421600,6.932421630859375,-0.14971119165420532,0.25954103469848633,0.2003014087677002
1789315807010455600,6.94245556640625,-0.20345671474933624,0.2368365079164505,0.2144603729248047
1789315807020489500,6.952489501953125,-0.2366596758365631,0.21083766222000122,0.21844099462032318
1789315807030523600,6.962523681640625,-0.2505214214324951,0.18448249995708466,0.21218016743659973
1789315807040557600,6.9725576171875,-0.2969411313533783,0.12090697884559631,0.18791823089122772
1789315807050590500,6.982590576171875,-0.3398587703704834,0.06204952299594879,0.13272929191589355
1789315807060624600,6.992624755859375,-0.39076322317123413,-0.0007672567153349519,0.07620901614427567
1789315807070658600,7.002658447265625,-0.4800558090209961,0.013742444105446339,0.013258547522127628
1789315807080692500,7.0126923828125,-0.5590334534645081,0.08553487807512283,-0.04146169126033783
1789315807090726700,7.0227265625,-0.579293429851532,0.1452338844537735,-0.09483889490365982
1789315807100760600,7.032760498046875,-0.5392948985099792,0.15107765793800354,-0.15084277093410492
1789315807110794500,7.04279443359375,-0.46514424681663513,0.1466190069913864,-0.20325592160224915
1789315807120828700,7.05282861328125,-0.37314295768737793,0.09941021353006363,-0.18941865861415863
1789315807130862600,7.062862548828125,-0.28690260648727417,0.019034944474697113,-0.1540401726961136
1789315807140896500,7.072896484375,-0.20307642221450806,-0.05011403188109398,-0.16741375625133514
1789315807150930700,7.0829306640625,-0.10555918514728546,-0.08307917416095734,-0.2117213010787964
1789315807160964600,7.092964599609375,-0.01552356593310833,-0.1020832285284996,-0.26039910316467285
1789315807170998500,7.10299853515625,0.02202620543539524,-0.0772327333688736,-0.3176461458206177
1789315807181032700,7.11303271484375,0.01991138979792595,0.03682299703359604,-0.3480597138404846
1789315807191066600,7.123066650390625,0.009767143055796623,0.1182643249630928,-0.37635019421577454
1789315807201100500,7.1331005859375,0.0005619269795715809,0.13281583786010742,-0.439861536026001
1789315807211134700,7.143134765625,0.003907123580574989,0.13260304927825928,-0.5302532315254211
1789315807221168600,7.153168701171875,0.024954086169600487,0.13500602543354034,-0.5837598443031311
1789315807231202600,7.16320263671875,0.0683034211397171,0.07640928775072098,-0.5997646450996399
1789315807241236500,7.173236572265625,0.10181025415658951,-0.06879691034555435,-0.5981417298316956
1789315807251270700,7.183270751953125,0.11534976214170456,-0.23052161931991577,-0.559483528137207
1789315807261303600,7.193303466796875,0.10907269269227982,-0.3089003264904022,-0.4383517801761627
1789315807271337500,7.20333740234375,0.039321038872003555,-0.3296990692615509,-0.31565117835998535
1789315807281371600,7.21337158203125,-0.05164534971117973,-0.28804031014442444,-0.29550328850746155
1789315807291405300,7.2234052734375,-0.09192778915166855,-0.15748628973960876,-0.4164249002933502
1789315807301439500,7.233439453125,-0.08467866480350494,-0.019788086414337158,-0.615601658821106
1789315807311473700,7.2434736328125,-0.06064444035291672,0.1075592190027237,-0.8222368359565735
1789315807321507300,7.25350732421875,-0.02588566020131111,0.20550654828548431,-0.9761196374893188
1789315807331541500,7.26354150390625,0.01581518165767193,0.2728627026081085,-1.0554530620574951
1789315807341575700,7.27357568359375,0.05699191242456436,0.2377057671546936,-1.0814878940582275
1789315807351609300,7.283609375,0.09577526152133942,0.15987195074558258,-1.0383566617965698
1789315807361643500,7.2936435546875,0.12375523149967194,0.08369383215904236,-0.9609718322753906
1789315807371677700,7.303677734375,0.11110202223062515,0.02016305923461914,-0.8985270857810974
1789315807381711400,7.31371142578125,0.08120111376047134,0.0008343683439306915,-0.8619632124900818
1789315807391745500,7.32374560546875,0.05469733476638794,-0.058879829943180084,-0.8733085989952087
1789315807401779700,7.33377978515625,0.04019508883357048,-0.11021971702575684,-0.8684035539627075
1789315807411813400,7.3438134765625,0.02538391947746277,0.02485688030719757,-0.8302985429763794
1789315807421847600,7.35384765625,0.027151193469762802,0.12191098928451538,-0.8653585314750671
1789315807431881700,7.3638818359375,0.013482519425451756,0.13658660650253296,-0.9448442459106445
1789315807441915400,7.373915283203125,-0.053641390055418015,0.09369027614593506,-1.0655126571655273
1789315807451949600,7.383949462890625,-0.14863048493862152,0.05002322047948837,-1.1902457475662231
1789315807461983500,7.3939833984375,-0.2224823385477066,0.06966269761323929,-1.3054128885269165
1789315807472016600,7.4040166015625,-0.2542048394680023,0.15331551432609558,-1.3793938159942627
1789315807482050600,7.414050537109375,-0.23622025549411774,0.24427232146263123,-1.3759232759475708
1789315807492084500,7.42408447265625,-0.21275408565998077,0.3383602201938629,-1.3218944072723389
1789315807502118700,7.43411865234375,-0.1565786898136139,0.40285611152648926,-1.2155532836914062
1789315807512152600,7.444152587890625,-0.05537750571966171,0.34166625142097473,-1.0794426202774048
1789315807522186500,7.4541865234375,0.05128742381930351,0.22949178516864777,-0.9066039323806763
1789315807532220700,7.464220703125,0.11771731078624725,0.12341807782649994,-0.7261785268783569
1789315807542254300,7.47425439453125,0.15001000463962555,0.07115407288074493,-0.545210063457489
1789315807552288500,7.48428857421875,0.1638011783361435,0.08326612412929535,-0.3548177480697632
1789315807562322700,7.49432275390625,0.16376549005508423,0.19173720479011536,-0.13241183757781982
1789315807572356400,7.5043564453125,0.13889023661613464,0.295394629240036,0.06197149306535721
1789315807582390500,7.514390625,0.12034478783607483,0.33747363090515137,0.21284808218479156
1789315807592424700,7.5244248046875,0.12440770864486694,0.3121381998062134,0.33143651485443115
1789315807602458400,7.534458251953125,0.12350888550281525,0.20807597041130066,0.3640780746936798
1789315807612492500,7.544492431640625,0.1258697807788849,0.07516532391309738,0.3192988932132721
1789315807622526700,7.554526611328125,0.12250035256147385,-0.024995364248752594,0.19217263162136078
1789315807632560400,7.564560302734375,0.09348388016223907,-0.022778017446398735,0.011506986804306507
1789315807642594600,7.574594482421875,0.08748430758714676,0.0707964077591896,-0.17760275304317474
1789315807652628700,7.584628662109375,0.1315004974603653,0.23156584799289703,-0.28423011302948
1789315807662662400,7.594662353515625,0.229343444108963,0.29416584968566895,-0.3075093626976013
1789315807672696600,7.604696533203125,0.3168511986732483,0.17432333528995514,-0.3315108120441437
1789315807682729500,7.6147294921875,0.3833886682987213,0.001770203118212521,-0.42509084939956665
1789315807692763600,7.624763671875,0.4263790249824524,-0.0018136126454919577,-0.5687007308006287
1789315807702797600,7.634797607421875,0.43078628182411194,0.18009120225906372,-0.6978845596313477
1789315807712831500,7.64483154296875,0.4116099178791046,0.3890784978866577,-0.7938337326049805
1789315807722865700,7.65486572265625,0.3329068422317505,0.4605281949043274,-0.872474193572998
1789315807732899600,7.664899658203125,0.21088454127311707,0.43483853340148926,-0.9053512215614319
1789315807742933500,7.67493359375,0.043490219861269,0.36409059166908264,-0.9197424054145813
1789315807752967700,7.6849677734375,-0.08120590448379517,0.3594742715358734,-0.909313440322876
1789315807763001300,7.69500146484375,-0.14976713061332703,0.42424023151397705,-0.8325520753860474
1789315807773035500,7.705035400390625,-0.16733147203922272,0.47128018736839294,-0.7488287091255188
1789315807783069700,7.715069580078125,-0.14682139456272125,0.4776962697505951,-0.6860979199409485
1789315807793103400,7.725103271484375,-0.09663413465023041,0.4407925605773926,-0.617917001247406
1789315807803137500,7.735137451171875,-0.02317562699317932,0.408927321434021,-0.5650588870048523
1789315807813171700,7.745171630859375,0.054130613803863525,0.39655932784080505,-0.498287558555603
1789315807823205400,7.755205322265625,0.12594301998615265,0.3605310320854187,-0.3583666682243347
1789315807833239600,7.765239501953125,0.18009653687477112,0.2693651616573334,-0.14960946142673492
1789315807843273700,7.775273681640625,0.20953404903411865,0.1593603640794754,0.04062572494149208
1789315807853307400,7.785307373046875,0.19870351254940033,0.08962442725896835,0.1926080584526062
1789315807863341600,7.795341552734375,0.15477998554706573,0.042203377932310104,0.3845873475074768
1789315807873375700,7.805375732421875,0.09087610989809036,0.022584937512874603,0.6106223464012146
1789315807883409400,7.815409423828125,0.03663710504770279,-0.022164957597851753,0.8131959438323975
1789315807893442600,7.825442626953125,-0.0014468954177573323,-0.08837806433439255,0.9299278855323792
1789315807903476500,7.8354765625,-0.004685831721872091,-0.10042300820350647,1.0288515090942383
1789315807913510700,7.8455107421875,0.03332067281007767,-0.08506456017494202,1.1333606243133545
1789315807923544600,7.855544677734375,0.0646386444568634,-0.1010962575674057,1.2116451263427734
1789315807933578500,7.86557861328125,0.0662677064538002,-0.23242418467998505,1.2367792129516602
1789315807943612400,7.8756123046875,0.08099444955587387,-0.4345008432865143,1.1898388862609863
1789315807953646000,7.88564599609375,0.11852238327264786,-0.62770015001297,1.0821059942245483
1789315807963680300,7.89568017578125,0.1308557540178299,-0.6749171614646912,0.9330880045890808
1789315807973714200,7.905714111328125,0.15813717246055603,-0.5417783260345459,0.7669834494590759
1789315807983748000,7.915748046875,0.18882504105567932,-0.37830230593681335,0.6151018142700195
1789315807993782300,7.9257822265625,0.19316813349723816,-0.3066667318344116,0.47889333963394165
1789315808003816200,7.935816162109375,0.17467167973518372,-0.27765557169914246,0.3516850769519806
1789315808013850000,7.94585009765625,0.13675199449062347,-0.29012903571128845,0.27915892004966736
1789315808023884300,7.95588427734375,0.14322267472743988,-0.3626612722873688,0.30409279465675354
1789315808033918200,7.965918212890625,0.16731388866901398,-0.4646393060684204,0.3805087208747864
1789315808043952000,7.9759521484375,0.16781829297542572,-0.581303060054779,0.4355320334434509
1789315808053986300,7.985986328125,0.12124387174844742,-0.636884331703186,0.46306726336479187
1789315808064020200,7.996020263671875,0.05455858260393143,-0.5766108632087708,0.4927785396575928
1789315808074054100,8.00605419921875,-0.00869122613221407,-0.438815176486969,0.5370107293128967
1789315808084088300,8.01608837890625,-0.06766240298748016,-0.30837541818618774,0.6070518493652344
1789315808094122200,8.026122314453126,-0.09350358694791794,-0.24255724251270294,0.712729811668396
1789315808104155400,8.0361552734375,-0.06232356280088425,-0.15812811255455017,0.8119682669639587
1789315808114189000,8.04618896484375,0.004342816770076752,-0.047931838780641556,0.8583935499191284
1789315808124223200,8.05622314453125,0.06076694279909134,-0.0091745899990201,0.8494352102279663
1789315808134257400,8.06625732421875,0.08796048164367676,0.005931658670306206,0.8333555459976196
1789315808144291000,8.076291015625,0.10033272951841354,-0.0018106831703335047,0.8208568096160889
1789315808154325200,8.0863251953125,0.09794973582029343,-0.012952283956110477,0.805755615234375
1789315808164359400,8.096359375,0.0877455621957779,-0.01852361671626568,0.8117714524269104
1789315808174393000,8.10639306640625,0.09265244007110596,0.0025806031189858913,0.8411207795143127
1789315808184427300,8.11642724609375,0.11151880770921707,0.07761596143245697,0.8843013048171997
1789315808194461200,8.126461181640625,0.14584402740001678,0.20119649171829224,0.9585382342338562
1789315808204495000,8.1364951171875,0.19080750644207,0.31100741028785706,1.0785365104675293
1789315808214529300,8.146529296875,0.2712472081184387,0.40167394280433655,1.2306294441223145
1789315808224563200,8.156563232421876,0.35139745473861694,0.4691334068775177,1.3695238828659058
1789315808234597000,8.16659716796875,0.42176589369773865,0.5043257474899292,1.506811261177063
1789315808244631300,8.17663134765625,0.4735073745250702,0.5106403827667236,1.6457598209381104
1789315808254665200,8.186665283203125,0.49651575088500977,0.5154894590377808,1.7515681982040405
1789315808264699100,8.19669921875,0.5144345760345459,0.5331405997276306,1.8252456188201904
1789315808274733300,8.2067333984375,0.5199318528175354,0.5246384739875793,1.8511427640914917
1789315808284767200,8.216767333984375,0.5210016369819641,0.5788772106170654,1.772606372833252
1789315808294801200,8.22680126953125,0.4467910826206207,0.7467676997184753,1.4755686521530151
1789315808304835300,8.23683544921875,0.2784028649330139,0.9744221568107605,1.0671254396438599
1789315808314868200,8.2468681640625,0.11770053207874298,1.137365460395813,0.6724013090133667
1789315808324902400,8.25690234375,0.06719847768545151,1.122385025024414,0.3845418095588684
1789315808334936000,8.26693603515625,0.13206349313259125,0.9061400294303894,0.2523542046546936
1789315808344970200,8.27697021484375,0.2562195360660553,0.6097011566162109,0.24103444814682007
1789315808355004400,8.28700439453125,0.3780474364757538,0.3427214026451111,0.2998911142349243
1789315808365038000,8.2970380859375,0.43515917658805847,0.12612225115299225,0.3826717436313629
1789315808375072300,8.307072265625,0.43700075149536133,0.05090659111738205,0.4648771286010742
1789315808385106400,8.3171064453125,0.3970285654067993,0.04363482818007469,0.5541377663612366
1789315808395140000,8.32714013671875,0.34405723214149475,-0.02027997188270092,0.6107826828956604
1789315808405174300,8.33717431640625,0.29417890310287476,-0.06609566509723663,0.6178019642829895
1789315808415208400,8.34720849609375,0.22611676156520844,-0.09098663181066513,0.5451011061668396
1789315808425242000,8.3572421875,0.1431041657924652,-0.02275511436164379,0.4348132312297821
1789315808435276300,8.3672763671875,0.076772540807724,0.06959372758865356,0.320165753364563
1789315808445310200,8.377310302734376,0.03985953330993652,0.1591193526983261,0.2320774495601654
1789315808455344000,8.38734423828125,0.036489568650722504,0.21465185284614563,0.19580918550491333
1789315808465378300,8.39737841796875,0.04676111415028572,0.28858518600463867,0.2002449482679367
1789315808475412200,8.407412109375,0.048524923622608185,0.35136789083480835,0.2642260491847992
1789315808485446100,8.417446044921874,0.04887832701206207,0.3880433440208435,0.2906067967414856
1789315808495480300,8.427480224609376,0.027396470308303833,0.462724506855011,0.21002700924873352
1789315808505514200,8.43751416015625,0.05018061399459839,0.5176208019256592,0.10216791182756424
1789315808515548200,8.447548095703125,0.05786702781915665,0.5057409405708313,0.15075701475143433
1789315808525581000,8.4575810546875,-0.023678164929151535,0.4009450376033783,0.3441792130470276
1789315808535615200,8.467615234375,-0.14513002336025238,0.2846114933490753,0.5184074640274048
1789315808545649400,8.4776494140625,-0.1891893595457077,0.38321104645729065,0.40618693828582764
1789315808555683000,8.48768310546875,-0.1613076627254486,0.5395604372024536,0.1099075898528099
1789315808565717200,8.49771728515625,-0.12646286189556122,0.5487105250358582,0.07391683757305145
1789315808575751400,8.50775146484375,-0.12174534052610397,0.3717581033706665,0.2861763536930084
1789315808585785000,8.51778515625,-0.15683861076831818,0.11381231993436813,0.46644148230552673
1789315808595819300,8.5278193359375,-0.20263992249965668,-0.03375529870390892,0.5150902271270752
1789315808605853400,8.537853515625,-0.2705622613430023,-0.02941993996500969,0.49550536274909973
1789315808615887000,8.54788720703125,-0.326322466135025,0.10285527259111404,0.3559677004814148
1789315808625921300,8.55792138671875,-0.36881184577941895,0.26934465765953064,0.19409410655498505
1789315808635955500,8.56795556640625,-0.44637376070022583,0.23810070753097534,0.03067588619887829
1789315808645989000,8.577989013671875,-0.5263418555259705,0.22963958978652954,-0.07560580968856812
1789315808656023300,8.588023193359374,-0.6128162741661072,0.2300497144460678,-0.13509097695350647
1789315808666057200,8.59805712890625,-0.6472727656364441,0.1622416377067566,-0.20673826336860657
1789315808676091100,8.608091064453125,-0.6008583903312683,0.14897403120994568,-0.24244752526283264
1789315808686125300,8.618125244140625,-0.48272112011909485,0.05215694382786751,-0.26262709498405457
1789315808696159200,8.6281591796875,-0.3457488715648651,-0.07532298564910889,-0.2529504895210266
1789315808706193200,8.638193115234374,-0.273128479719162,-0.12895478308200836,-0.2543955445289612
1789315808716227300,8.648227294921876,-0.2473469376564026,-0.087017722427845,-0.1519533097743988
1789315808726261200,8.65826123046875,-0.3003387749195099,-0.14163222908973694,0.06569086015224457
1789315808736294100,8.668294189453125,-0.38077372312545776,-0.21911929547786713,0.28926882147789
1789315808746328000,8.678328125,-0.43777787685394287,-0.21844898164272308,0.49200674891471863
1789315808756362200,8.6883623046875,-0.42644771933555603,-0.14481285214424133,0.6323673129081726
1789315808766396200,8.698396240234375,-0.36323174834251404,-0.056283511221408844,0.6854981780052185
1789315808776430000,8.70843017578125,-0.28962063789367676,-0.025430258363485336,0.6483641266822815
1789315808786464300,8.71846435546875,-0.22256489098072052,-0.028322450816631317,0.5484634041786194
1789315808796498200,8.728498291015624,-0.15494990348815918,-0.041363153606653214,0.4564405083656311
1789315808806532000,8.738531982421875,-0.11772610247135162,-0.04765007644891739,0.3717495799064636
1789315808816566300,8.748566162109375,-0.13567261397838593,-0.040347423404455185,0.2798585593700409
1789315808826600200,8.75860009765625,-0.1684151142835617,-0.026068884879350662,0.21988895535469055
1789315808836634000,8.768634033203124,-0.19959352910518646,0.021696506068110466,0.14987312257289886
1789315808846668300,8.778668212890626,-0.2351914793252945,0.12548469007015228,0.07016044855117798
1789315808856702200,8.7887021484375,-0.2829912304878235,0.21061715483665466,0.052796900272369385
1789315808866736000,8.798736083984375,-0.37100735306739807,0.2998064160346985,0.062187738716602325
1789315808876770300,8.808770263671875,-0.47723233699798584,0.3793526589870453,0.07375092059373856
1789315808886804200,8.81880419921875,-0.5422800183296204,0.4443388283252716,0.1253691017627716
1789315808896838100,8.828838134765626,-0.52010178565979,0.5001714825630188,0.14349138736724854
1789315808906872300,8.838872314453125,-0.4767604172229767,0.5461248755455017,0.19986943900585175
1789315808916906200,8.84890625,-0.4953967034816742,0.4920687973499298,0.20272594690322876
1789315808926940200,8.858940185546874,-0.5271794199943542,0.4260975122451782,0.07961200177669525
1789315808936974300,8.868974365234376,-0.5349521040916443,0.4231927990913391,-0.02094336412847042
1789315808947008300,8.87900830078125,-0.5512865781784058,0.37176182866096497,-0.007370298262685537
1789315808957041200,8.889041259765625,-0.5216544270515442,0.2948036789894104,0.013383449986577034
1789315808967075300,8.899075439453124,-0.5429839491844177,0.17156323790550232,-0.007232612930238247
1789315808977109200,8.909109130859376,-0.5721591114997864,0.13481134176254272,-0.1801186352968216
1789315808987143200,8.91914306640625,-0.5927171111106873,0.19860443472862244,-0.3492083251476288
1789315808997177300,8.92917724609375,-0.6282692551612854,0.29524123668670654,-0.5174367427825928
1789315809007211300,8.939211181640625,-0.6078923344612122,0.3501790463924408,-0.7843206524848938
1789315809017245200,8.9492451171875,-0.5688086152076721,0.3585381805896759,-1.1098777055740356
1789315809027279400,8.959279296875,-0.5014582872390747,0.3278985023498535,-1.345131516456604
1789315809037313300,8.969313232421875,-0.43379566073417664,0.22672981023788452,-1.5328785181045532
1789315809047347200,8.97934716796875,-0.36579182744026184,0.007559649180620909,-1.6948599815368652
1789315809057381400,8.98938134765625,-0.2673315703868866,-0.14000743627548218,-1.8105788230895996
1789315809067415300,8.999415283203126,-0.1629931777715683,-0.09960488975048065,-1.9159518480300903
1789315809077449200,9.00944921875,-0.08064770698547363,-0.0604657419025898,-1.9991838932037354
1789315809087483400,9.0194833984375,-0.06999186426401138,-0.0012322446564212441,-2.089235544204712
1789315809097517300,9.029517333984375,-0.059428174048662186,0.06966403126716614,-2.1501946449279785
1789315809107551200,9.03955126953125,-0.02382676862180233,0.12967783212661743,-2.2089412212371826
1789315809117585400,9.04958544921875,0.05104081332683563,0.12446603178977966,-2.240642547607422
1789315809127619300,9.059619384765625,0.14211799204349518,0.034630414098501205,-2.213460683822632
1789315809137653200,9.0696533203125,0.21438100934028625,-0.04988686740398407,-2.1553401947021484
1789315809147687200,9.079687255859374,0.26748815178871155,-0.09689538925886154,-2.092015266418457
1789315809157721300,9.089721435546876,0.2918742001056671,-0.09645490348339081,-1.9762862920761108
1789315809167755300,9.09975537109375,0.28205859661102295,-0.05139661207795143,-1.8549058437347412
1789315809177788200,9.1097880859375,0.2295362502336502,0.0038123151753097773,-1.7376984357833862
1789315809187822300,9.119822265625,0.12028966099023819,0.06603947281837463,-1.6331297159194946
1789315809197856300,9.129856201171876,-0.0019947076216340065,0.17769302427768707,-1.6008319854736328
1789315809207890200,9.13989013671875,-0.12612411379814148,0.33477213978767395,-1.6273882389068604
1789315809217924400,9.14992431640625,-0.19212231040000916,0.46375301480293274,-1.653131365776062
1789315809227958300,9.159958251953125,-0.2045115977525711,0.543344259262085,-1.6278287172317505
1789315809237992200,9.1699921875,-0.2039022594690323,0.6100910305976868,-1.532696008682251
1789315809248026400,9.1800263671875,-0.21647052466869354,0.6046331524848938,-1.3952289819717407
1789315809258060300,9.190060302734375,-0.2316547930240631,0.4550202488899231,-1.231488823890686
1789315809268094200,9.20009423828125,-0.24935071170330048,0.23742561042308807,-1.089451789855957
1789315809278128400,9.21012841796875,-0.31215789914131165,0.10358285158872604,-0.9769548177719116
1789315809288162300,9.220162353515626,-0.3531535267829895,0.11227434128522873,-0.848646342754364
1789315809298196200,9.2301962890625,-0.3216105103492737,0.1814241260290146,-0.7089039087295532
1789315809308230400,9.24023046875,-0.22394388914108276,0.2330114096403122,-0.5229350924491882
1789315809318264300,9.250264404296875,-0.11971095204353333,0.2485608160495758,-0.30231112241744995
1789315809328298200,9.26029833984375,-0.05850405618548393,0.2703119218349457,-0.0872478187084198
1789315809338332400,9.27033251953125,-0.06185484677553177,0.3673495054244995,0.12327799201011658
1789315809348366300,9.280366455078125,-0.11439555138349533,0.42395126819610596,0.20438909530639648
1789315809358400300,9.290400146484375,-0.15336719155311584,0.46343398094177246,0.1818789839744568
1789315809368434200,9.30043408203125,-0.15981443226337433,0.560153067111969,0.1815309077501297
1789315809378468400,9.31046826171875,-0.1285177618265152,0.6786088347434998,0.1991458535194397
1789315809388502300,9.320502197265625,-0.06507007777690887,0.7332292199134827,0.18502578139305115
1789315809398535200,9.33053515625,-0.013679859228432178,0.682772696018219,0.1466512233018875
1789315809408569300,9.3405693359375,0.010875284671783447,0.5261902809143066,0.12101484090089798
1789315809418603500,9.350603515625,-0.0027917916886508465,0.2922387719154358,0.15838991105556488
1789315809428637200,9.36063720703125,-0.03555133566260338,0.08971124142408371,0.2058897763490677
1789315809438671400,9.37067138671875,-0.048049017786979675,-0.03111557476222515,0.18250510096549988
1789315809448705300,9.380705322265625,-0.07472909986972809,-0.029341377317905426,0.10013299435377121
1789315809458739200,9.3907392578125,-0.15406839549541473,0.038974564522504807,0.02298307977616787
1789315809468773400,9.4007734375,-0.19500304758548737,0.07587345689535141,-0.012345083057880402
1789315809478807300,9.410807373046875,-0.14945180714130402,0.02911367639899254,0.02045467495918274
1789315809488841200,9.42084130859375,-0.04524790495634079,-0.10710887610912323,0.11441686004400253
1789315809498875400,9.43087548828125,0.0787281021475792,-0.27011802792549133,0.2347744256258011
1789315809508909300,9.440909423828124,0.21202144026756287,-0.3748692274093628,0.3332842290401459
1789315809518943200,9.450943115234375,0.339554101228714,-0.40785646438598633,0.4050667881965637
1789315809528977400,9.460977294921875,0.4382750988006592,-0.4054044783115387,0.4516476094722748
1789315809539011300,9.47101123046875,0.5028889775276184,-0.38000673055648804,0.45603036880493164
1789315809549045200,9.481045166015624,0.47930908203125,-0.3457680642604828,0.3911754786968231
1789315809559079400,9.491079345703126,0.39312705397605896,-0.2912241220474243,0.2597021460533142
1789315809569113300,9.50111328125,0.2336556315422058,-0.2198956161737442,0.12644129991531372
1789315809579147300,9.511147216796875,0.05429146811366081,-0.11016511917114258,0.01745302602648735
1789315809589181400,9.521181396484375,-0.012496616691350937,-0.03700781986117363,-0.032103873789310455
1789315809599215400,9.53121533203125,-0.0010610034223645926,-0.03916444629430771,0.008228369057178497
1789315809609249300,9.541249267578126,0.04668867588043213,-0.12780696153640747,0.10831102728843689
1789315809619282200,9.5512822265625,0.06505490094423294,-0.3304767310619354,0.298944354057312
1789315809629316400,9.56131640625,0.08379023522138596,-0.45606499910354614,0.42696383595466614
1789315809639350500,9.5713505859375,0.16743773221969604,-0.4568391740322113,0.4995834529399872
1789315809649384200,9.58138427734375,0.2600257098674774,-0.41317373514175415,0.5148236751556396
1789315809659418400,9.59141845703125,0.3125954568386078,-0.4755617380142212,0.4708956182003021
1789315809669452300,9.601452392578125,0.2512631118297577,-0.6207681894302368,0.4086277186870575
1789315809679486200,9.611486328125,0.1104801744222641,-0.7844088077545166,0.35594773292541504
1789315809689520400,9.621520263671876,0.0025691515766084194,-0.8341489434242249,0.34168222546577454
1789315809699554300,9.63155419921875,-0.08818445354700089,-0.7332239151000977,0.43406274914741516
1789315809709588200,9.641588134765625,-0.18441379070281982,-0.5126563906669617,0.5615477561950684
1789315809719622400,9.651622314453125,-0.21595919132232666,-0.40592512488365173,0.6740471124649048
1789315809729656300,9.66165625,-0.2070101797580719,-0.40948498249053955,0.8052011728286743
1789315809739690200,9.671690185546876,-0.16901671886444092,-0.35304754972457886,0.9547749161720276
1789315809749724400,9.681724365234375,-0.14643923938274384,-0.2945259213447571,1.0677517652511597
1789315809759758300,9.69175830078125,-0.1672574281692505,-0.26085954904556274,1.1573195457458496
1789315809769792300,9.701792236328124,-0.21479272842407227,-0.16573597490787506,1.252469778060913
1789315809779826400,9.711826416015626,-0.32118573784828186,0.0007036071619950235,1.3218989372253418
1789315809789860400,9.7218603515625,-0.3911435306072235,0.15857073664665222,1.4204260110855103
1789315809799894300,9.731894287109375,-0.385320246219635,0.39855244755744934,1.584362506866455
1789315809809928400,9.741928466796875,-0.3391234576702118,0.6307097673416138,1.739039659500122
1789315809819962400,9.75196240234375,-0.26317650079727173,0.7105748057365417,1.8477171659469604
1789315809829996300,9.761996337890626,-0.22545069456100464,0.7058418393135071,1.9505380392074585
1789315809840029200,9.772029296875,-0.22234438359737396,0.5976106524467468,2.059149980545044
1789315809850063400,9.7820634765625,-0.2672479450702667,0.3195851743221283,2.074183940887451
1789315809860097500,9.79209765625,-0.3307235836982727,-0.10488992929458618,2.0450704097747803
1789315809870131200,9.802131103515626,-0.36202558875083923,-0.7944318652153015,1.8810689449310303
1789315809880165400,9.812165283203125,-0.3090555667877197,-1.1093429327011108,1.9236621856689453
1789315809890199300,9.82219921875,-0.12605300545692444,-1.0192993879318237,2.071697473526001
1789315809900233200,9.832233154296874,0.09168358147144318,-0.8510482907295227,2.0854110717773438
1789315809910267400,9.842267333984376,0.23744158446788788,-0.6594556570053101,1.825197458267212
1789315809920301300,9.85230126953125,0.343363493680954,-0.3303976356983185,1.2891262769699097
1789315809930335200,9.862335205078125,0.4100269377231598,-0.06358643621206284,0.6937862038612366
1789315809940369700,9.87236962890625,0.4901715815067291,0.11664006114006042,0.2840135991573334
1789315809950403300,9.8824033203125,0.5367542505264282,0.14922916889190674,0.14263170957565308
1789315809960437500,9.8924375,0.5045987367630005,0.06954978406429291,0.22174730896949768
1789315809970471700,9.9024716796875,0.43406328558921814,-0.07988204807043076,0.39248523116111755
1789315809980505300,9.91250537109375,0.38597431778907776,-0.027404192835092545,0.669245183467865
1789315809990539500,9.92253955078125,0.3441661596298218,-0.0092347776517272,0.8733077645301819
1789315810000573700,9.93257373046875,0.2833113372325897,0.02191142365336418,0.8753016591072083
1789315810010607400,9.942607421875,0.16881617903709412,0.29376745223999023,0.7140837907791138
1789315810020641500,9.9526416015625,0.039802007377147675,0.5392690896987915,0.42197680473327637
1789315810030675700,9.96267578125,-0.05251620337367058,0.5779647827148438,0.07153170555830002
1789315810040709400,9.97270947265625,-0.1167236864566803,0.4928091764450073,-0.13692162930965424
1789315810050743600,9.98274365234375,-0.1329846829175949,0.4160131812095642,-0.19155478477478027
1789315810060777700,9.99277783203125,-0.1671312004327774,0.4344920516014099,-0.3257983326911926
1789315810070810600,10.002810546875,-0.21539859473705292,0.4411481022834778,-0.4201946258544922
1789315810080844500,10.012844482421874,-0.28109079599380493,0.38955575227737427,-0.4349818229675293
1789315810090878500,10.02287841796875,-0.35528913140296936,0.3880811631679535,-0.4404660761356354
1789315810100912600,10.03291259765625,-0.38790273666381836,0.3694339692592621,-0.5482639074325562
1789315810110946600,10.042946533203125,-0.44026100635528564,0.2976902723312378,-0.6962568163871765
1789315810120980500,10.05298046875,-0.49342063069343567,0.2969096899032593,-0.7641440033912659
1789315810131014700,10.0630146484375,-0.5035065412521362,0.32634907960891724,-0.7814260721206665
1789315810141048600,10.073048583984376,-0.4963349401950836,0.4355562627315521,-0.7132818698883057
1789315810151082500,10.08308251953125,-0.4917074143886566,0.516971230506897,-0.6212614178657532
1789315810161116700,10.09311669921875,-0.43705323338508606,0.36417156457901,-0.5532343983650208
1789315810171150300,10.103150390625,-0.36407968401908875,-0.18336236476898193,-0.46913260221481323
1789315810181184500,10.1131845703125,-0.34994763135910034,-0.49192553758621216,-0.3806954026222229
1789315810191218700,10.12321875,-0.3834640383720398,-0.46679726243019104,-0.32416796684265137
1789315810201252400,10.13325244140625,-0.4715486168861389,-0.31435129046440125,-0.23973456025123596
1789315810211286500,10.14328662109375,-0.5875180959701538,-0.044015396386384964,-0.13993260264396667
1789315810221320700,10.15332080078125,-0.6801990270614624,0.16400384902954102,-0.052082374691963196
1789315810231354400,10.163354248046875,-0.7307511568069458,0.20130515098571777,0.02978665754199028
1789315810241388500,10.173388427734375,-0.744257390499115,0.21064884960651398,0.0938468649983406
1789315810251422700,10.183422607421875,-0.7207070589065552,0.1827344000339508,0.1138613224029541
1789315810261456400,10.193456298828124,-0.611336886882782,0.17471401393413544,0.06456035375595093
1789315810271490600,10.203490478515626,-0.5299791693687439,0.12065557390451431,-0.00512844929471612
1789315810281524700,10.213524658203125,-0.4321436882019043,-0.13656184077262878,-0.05670136213302612
1789315810291557600,10.2235576171875,-0.3303518295288086,-0.37164464592933655,-0.09745678305625916
1789315810301591600,10.233591552734374,-0.21031302213668823,-0.48309528827667236,-0.14805418252944946
1789315810311625500,10.24362548828125,-0.010774617083370686,-0.43239590525627136,-0.18639783561229706
1789315810321659600,10.25365966796875,0.21836908161640167,-0.28234246373176575,-0.17057573795318604
1789315810331693600,10.263693603515625,0.38041311502456665,-0.027597272768616676,-0.14454706013202667
1789315810341727500,10.2737275390625,0.4912956953048706,0.21407261490821838,-0.2508886754512787
1789315810351761700,10.28376171875,0.5199768543243408,0.42730897665023804,-0.507631242275238
1789315810361795600,10.293795654296876,0.4464011788368225,0.5608705282211304,-0.6950357556343079
1789315810371829500,10.30382958984375,0.42931434512138367,0.5630897283554077,-0.6380137801170349
1789315810381863700,10.31386376953125,0.454881489276886,0.4460885226726532,-0.4415616989135742
1789315810391897300,10.3238974609375,0.38731950521469116,0.16782335937023163,-0.3767094612121582
1789315810401931500,10.333931640625,0.2728365957736969,-0.14412708580493927,-0.48563727736473083
1789315810411965700,10.343965576171875,0.17519551515579224,-0.22750426828861237,-0.5873708128929138
1789315810421999400,10.353999267578125,0.0843399167060852,-0.17903339862823486,-0.6017846465110779
1789315810432033500,10.364033447265625,0.0950506180524826,-0.07973957061767578,-0.5793403387069702
1789315810442067700,10.374067626953124,0.17211423814296722,0.18960854411125183,-0.5524842143058777
1789315810452101400,10.384101318359376,0.1513245403766632,0.6104327440261841,-0.45781469345092773
1789315810462135600,10.394135498046875,0.02592294290661812,0.9432418346405029,-0.31709378957748413
1789315810472169700,10.404169677734375,-0.10952356457710266,1.0808188915252686,-0.18370431661605835
1789315810482203400,10.414203369140624,-0.16687260568141937,1.0214532613754272,-0.07262706756591797
1789315810492237600,10.424237548828126,-0.17740993201732635,0.8543745875358582,-0.0323246493935585
1789315810502271700,10.434271728515625,-0.12681840360164642,0.7536130547523499,-0.054539140313863754
1789315810512305400,10.444305419921875,-0.09902724623680115,0.8093050718307495,-0.12340475618839264
1789315810522338600,10.454338623046874,-0.21047307550907135,0.9142922163009644,-0.2623240351676941
1789315810532372500,10.46437255859375,-0.38194844126701355,0.9423020482063293,-0.4634230434894562
1789315810542406700,10.47440673828125,-0.45937877893447876,0.7800827622413635,-0.6683983206748962
1789315810552440600,10.484440673828125,-0.4485487639904022,0.3490069806575775,-0.7848476767539978
1789315810562474500,10.494474609375,-0.33248525857925415,-0.24495941400527954,-0.7574642896652222
1789315810572508700,10.5045087890625,-0.15511608123779297,-0.7876008749008179,-0.573820948600769
1789315810582542600,10.51454248046875,0.00939083844423294,-1.0800950527191162,-0.2691856622695923
1789315810592576500,10.524576416015625,0.13170982897281647,-1.0612678527832031,0.0731825977563858
1789315810602610700,10.534610595703125,0.18432296812534332,-0.7964750528335571,0.33867207169532776
1789315810612644600,10.54464453125,0.10334663093090057,-0.3185710608959198,0.48992255330085754
1789315810622678500,10.554678466796876,-0.12238077074289322,0.2334875911474228,0.50911545753479
1789315810632712700,10.564712646484375,-0.48942720890045166,0.5812588930130005,0.47421765327453613
1789315810642746400,10.574746337890625,-0.8943613767623901,0.6828113198280334,0.4811863303184509
1789315810652780500,10.584780517578125,-0.8446356654167175,0.08043172210454941,0.15106754004955292
1789315810662814700,10.594814697265624,-0.8345297574996948,-1.5048558712005615,-0.7926393151283264
1789315810672848400,10.604848388671876,-0.8384600281715393,-3.256115198135376,-1.8852916955947876
1789315810682882600,10.614882568359375,-0.7711694240570068,-4.172946453094482,-2.774850845336914
1789315810692916700,10.624916748046875,-0.6916769742965698,-4.151176452636719,-3.1081175804138184
1789315810702950400,10.634950439453124,-0.5198690295219421,-3.3951070308685303,-2.9394216537475586
1789315810712984600,10.644984619140626,-0.14196273684501648,-2.4264910221099854,-2.300635814666748
1789315810723018800,10.655018798828126,0.5142313838005066,-1.7784658670425415,-1.4115999937057495
1789315810733052400,10.665052490234375,0.7844559550285339,-1.7573387622833252,-0.8187529444694519
1789315810743086600,10.675086669921875,0.20887331664562225,-2.037189245223999,-1.225144863128662
1789315810753120800,10.685120849609374,-0.26604101061820984,-1.3021923303604126,-1.1929779052734375
1789315810763153700,10.695153564453125,-0.21411308646202087,-0.043361589312553406,-1.2749673128128052
1789315810773187600,10.7051875,0.10411041975021362,0.14922809600830078,-2.011606216430664
1789315810783221500,10.715221435546875,0.47584375739097595,0.12019218504428864,-2.154008388519287
1789315810793255700,10.725255615234374,0.678511381149292,-0.08455589413642883,-1.9501372575759888
1789315810803289600,10.73528955078125,0.770481526851654,-0.2109476625919342,-1.491584300994873
1789315810813323500,10.745323486328125,0.8038615584373474,-0.5699591040611267,-0.6368046998977661
1789315810823357700,10.755357666015625,0.7210428714752197,-1.0356330871582031,0.2638058066368103
1789315810833391600,10.7653916015625,0.647942304611206,-0.7476316094398499,0.750005304813385
1789315810843425500,10.775425537109374,0.62171471118927,-0.31127214431762695,1.063913106918335
1789315810853459700,10.785459716796876,0.6468504071235657,-0.0670623928308487,1.19691801071167
1789315810863493400,10.795493408203125,0.659602165222168,0.09100713580846786,1.1117820739746094
1789315810873527600,10.805527587890625,0.6475135087966919,0.15203240513801575,0.9228135347366333
1789315810883561700,10.815561767578124,0.6067623496055603,0.08911922574043274,0.7485818266868591
1789315810893595400,10.825595458984376,0.5753575563430786,0.2119665890932083,0.5790811777114868
1789315810903629600,10.835629638671875,0.619026780128479,0.29822397232055664,0.38924363255500793
1789315810913663700,10.845663818359375,0.6683533191680908,0.3317616879940033,0.2506774961948395
1789315810923697400,10.855697509765625,0.6100817322731018,0.24046745896339417,0.1985889971256256
1789315810933731600,10.865731689453124,0.48641732335090637,0.044925130903720856,0.2132720649242401
1789315810943765500,10.875765625,0.4414043128490448,-0.012775716371834278,0.286428302526474
1789315810953799400,10.88579931640625,0.5098824501037598,-0.004977980628609657,0.2922752797603607
1789315810963833300,10.895833251953125,0.5363518595695496,0.011869442649185658,0.3604274392127991
1789315810973867500,10.905867431640624,0.47584962844848633,0.14803393185138702,0.5570454001426697
1789315810983901400,10.9159013671875,0.26422926783561707,0.3097352087497711,0.8118036389350891
1789315810993934300,10.925934326171875,-0.06940677016973495,0.3344419002532959,1.0262349843978882
1789315811003968500,10.935968505859375,-0.38461771607398987,0.3675724267959595,1.1255637407302856
1789315811014002400,10.94600244140625,-0.5402001142501831,0.5359720587730408,1.2463977336883545
1789315811024036400,10.956036376953126,-0.46944180130958557,0.6670571565628052,1.387284755706787
1789315811034070500,10.966070556640625,-0.3337593376636505,0.5983723402023315,1.5911314487457275
1789315811044104400,10.9761044921875,-0.20556966960430145,0.2757636606693268,1.7713136672973633
1789315811054138400,10.986138427734375,-0.08563873916864395,0.036186765879392624,1.9032496213912964
1789315811064172500,10.996172607421874,0.03460458293557167,0.17738942801952362,2.03580904006958
1789315811074206500,11.00620654296875,0.14173050224781036,0.47861477732658386,2.142284870147705
1789315811084240400,11.016240478515625,0.21043339371681213,0.7733705043792725,2.1980397701263428
1789315811094274600,11.026274658203125,0.2730078399181366,1.0194740295410156,2.267625093460083
1789315811104308500,11.03630859375,0.3852701783180237,1.170670747756958,2.3548495769500732
1789315811114342400,11.04634228515625,0.4982428252696991,1.2306339740753174,2.4145212173461914
1789315811124376600,11.05637646484375,0.6443179845809937,1.1175204515457153,2.204472064971924
1789315811134410500,11.066410400390625,0.6926554441452026,0.8303174376487732,1.5628737211227417
1789315811144444400,11.0764443359375,0.5930271148681641,0.9054675698280334,0.6322288513183594
1789315811154478600,11.086478515625,0.4957306683063507,1.2499098777770996,-0.021408086642622948
1789315811164512500,11.096512451171876,0.506289005279541,1.1909281015396118,-0.17841660976409912
1789315811174546400,11.10654638671875,0.5622172951698303,0.823917031288147,-0.14185966551303864
1789315811184580400,11.116580322265625,0.5726637840270996,0.3037388324737549,-0.07206273823976517
1789315811194614500,11.126614501953124,0.5395635962486267,-0.06162794306874275,0.0031523837242275476
1789315811204648400,11.1366484375,0.43841010332107544,-0.16659218072891235,0.07218018919229507
1789315811214682400,11.146682373046875,0.24325180053710938,-0.18666602671146393,0.14641180634498596
1789315811224716500,11.156716552734375,0.04825887456536293,-0.1552516371011734,0.18415066599845886
1789315811234749400,11.16674951171875,-0.13500255346298218,-0.041548773646354675,0.16752295196056366
1789315811244783400,11.176783447265626,-0.23278558254241943,-0.04740400239825249,0.1443326771259308
1789315811254817500,11.186817626953125,-0.18608970940113068,-0.20821446180343628,0.1982523649930954
1789315811264851500,11.1968515625,-0.08242669701576233,-0.4144611060619354,0.21530058979988098
1789315811274885400,11.206885498046875,0.03313931077718735,-0.5656178593635559,0.06551828980445862
1789315811284919600,11.21691943359375,0.13620631396770477,-0.6473822593688965,-0.24541348218917847
1789315811294953500,11.226953369140626,0.14358672499656677,-0.6374398469924927,-0.5053552985191345
1789315811304987400,11.2369873046875,0.0640261173248291,-0.6928895115852356,-0.6399645209312439
1789315811315021600,11.247021484375,-0.01636352762579918,-0.795218825340271,-0.691874623298645
1789315811325055500,11.257055419921874,-0.02828064002096653,-0.7690684795379639,-0.6880963444709778
1789315811335089400,11.26708935546875,0.023608390241861343,-0.7539480924606323,-0.8870896100997925
1789315811345123600,11.27712353515625,0.1563669741153717,-0.8349856734275818,-1.249274492263794
1789315811355157200,11.2871572265625,0.28366315364837646,-0.9079485535621643,-1.546209692955017
1789315811365191400,11.29719140625,0.2683078944683075,-0.7120043635368347,-1.6305675506591797
1789315811375225600,11.3072255859375,0.2421894669532776,-0.2338593602180481,-1.4621713161468506
1789315811385259300,11.31725927734375,0.20631322264671326,0.2583146393299103,-1.1379042863845825
1789315811395293400,11.32729345703125,0.09763627499341965,0.5285658240318298,-0.7528197169303894
1789315811405327400,11.337327392578125,0.006387858185917139,0.5504370331764221,-0.3805612027645111
1789315811415361300,11.347361328125,0.004874916281551123,0.5090770721435547,-0.030480943620204926
1789315811425395500,11.3573955078125,-0.019167568534612656,0.470310777425766,0.3076302707195282
1789315811435429400,11.367429443359375,-0.1161244735121727,0.45887917280197144,0.5735479593276978
1789315811445463300,11.37746337890625,-0.20939557254314423,0.46483612060546875,0.7622771263122559
1789315811455497500,11.38749755859375,-0.28537288308143616,0.4384543299674988,0.885092556476593
1789315811465531400,11.397531494140624,-0.3769717812538147,0.41168075799942017,0.9529868960380554
1789315811475564500,11.407564453125,-0.46298763155937195,0.40111279487609863,0.9632291197776794
1789315811485598200,11.41759814453125,-0.5492218136787415,0.3998720347881317,0.958702027797699
1789315811495632400,11.42763232421875,-0.6523863077163696,0.3931907117366791,0.9568583369255066
1789315811505666600,11.43766650390625,-0.7338641285896301,0.3933608829975128,0.9561904072761536
1789315811515700200,11.4477001953125,-0.7861846089363098,0.3694712519645691,0.9520733952522278
1789315811525734400,11.457734375,-0.8194277882575989,0.33448052406311035,0.9195879101753235
1789315811535768600,11.4677685546875,-0.8823827505111694,0.28252196311950684,0.8653315901756287
1789315811545802200,11.47780224609375,-0.9133979082107544,0.28620752692222595,0.790516197681427
1789315811555836400,11.48783642578125,-0.8873751163482666,0.3418617248535156,0.6962725520133972
1789315811565870600,11.49787060546875,-0.8694246411323547,0.35277244448661804,0.5804135799407959
1789315811575904300,11.507904296875,-0.8886329531669617,0.3511311411857605,0.4929492473602295
1789315811585938400,11.5179384765625,-0.8891043066978455,0.3324064314365387,0.46021634340286255
1789315811595972600,11.52797265625,-0.8267096281051636,0.2945205867290497,0.3948540985584259
1789315811606006300,11.53800634765625,-0.7205044031143188,0.26069602370262146,0.2951134145259857
1789315811616040400,11.54804052734375,-0.6477779746055603,0.265921413898468,0.18620768189430237
1789315811626074400,11.558074462890625,-0.6340658664703369,0.2624971270561218,0.08327890932559967
1789315811636108300,11.5681083984375,-0.6056555509567261,0.3337923586368561,-0.06240372359752655
1789315811646142500,11.578142578125,-0.572333812713623,0.387749582529068,-0.21419991552829742
1789315811656176400,11.58817626953125,-0.5335129499435425,0.3717309534549713,-0.35133326053619385
1789315811666210300,11.598210205078125,-0.46785402297973633,0.21457648277282715,-0.4662443995475769
1789315811676244500,11.608244384765625,-0.3236047029495239,0.039030756801366806,-0.5892707109451294
1789315811686278400,11.6182783203125,-0.1972275823354721,-0.1755174994468689,-0.7760493755340576
1789315811696312300,11.628312255859376,-0.10361294448375702,-0.30651360750198364,-0.887569785118103
1789315811706346500,11.638346435546875,-0.007001450285315514,-0.4178238809108734,-1.0324108600616455
1789315811716379400,11.64837939453125,0.06438058614730835,-0.5896220207214355,-1.3207435607910156
1789315811726413600,11.65841357421875,0.13898424804210663,-0.6558457612991333,-1.660134196281433
1789315811736447200,11.668447265625,0.20586395263671875,-0.6105185151100159,-1.8181253671646118
1789315811746481400,11.6784814453125,0.27240702509880066,-0.6188517808914185,-1.8037797212600708
1789315811756515600,11.688515625,0.3398105502128601,-0.5474934577941895,-1.5623456239700317
1789315811766549200,11.69854931640625,0.36960095167160034,-0.42691004276275635,-1.2675338983535767
1789315811776583400,11.70858349609375,0.35817065834999084,-0.35121262073516846,-1.1756199598312378
1789315811786617600,11.71861767578125,0.3764039874076843,-0.2731604278087616,-1.1887764930725098
1789315811796651300,11.7286513671875,0.45055145025253296,-0.08587788790464401,-1.1936814785003662
1789315811806685400,11.738685546875,0.583465576171875,0.15441380441188812,-1.1915291547775269
1789315811816719600,11.7487197265625,0.7421497702598572,0.308205246925354,-1.196900486946106
1789315811826753300,11.758753173828126,0.873222827911377,0.29782208800315857,-1.1192879676818848
1789315811836787500,11.768787353515625,0.8897418975830078,0.01432487741112709,-0.9882827997207642
1789315811846821600,11.778821533203125,0.8053076863288879,-0.34224948287010193,-0.8382440805435181
1789315811856855300,11.788855224609375,0.6361908316612244,-0.641749382019043,-0.6511223912239075
1789315811866889500,11.798889404296874,0.4089305102825165,-0.7535355687141418,-0.47126632928848267
1789315811876923400,11.80892333984375,0.1957271546125412,-0.6609845757484436,-0.3597443103790283
1789315811886957300,11.818957275390625,-0.007327421568334103,-0.4647085666656494,-0.3177787661552429
1789315811896991500,11.828991455078125,-0.15888552367687225,-0.16213883459568024,-0.43285155296325684
1789315811907025400,11.839025390625,-0.23720748722553253,0.22527307271957397,-0.63770592212677
1789315811917059300,11.849059326171876,-0.23227718472480774,0.5077052712440491,-0.7903739809989929
1789315811927093500,11.859093505859375,-0.16358333826065063,0.4833453595638275,-0.7786004543304443
1789315811937127400,11.86912744140625,-0.04477093368768692,0.12915505468845367,-0.6864073872566223
1789315811947161000,11.8791611328125,0.0786181092262268,-0.0004271710349712521,-0.7165117859840393
1789315811957195300,11.8891953125,0.2543523907661438,0.12791748344898224,-0.8477180004119873
1789315811967228200,11.899228271484375,0.47292360663414,0.17417019605636597,-0.9640040993690491
1789315811977262300,11.909262451171875,0.6788932681083679,0.043891292065382004,-0.9825021624565125
1789315811987296000,11.9192958984375,0.8361234068870544,-0.19592823088169098,-1.0001344680786133
1789315811997330200,11.929330078125,0.9803266525268555,-0.5049782395362854,-1.175244688987732
1789315812007364400,11.9393642578125,1.09259033203125,-0.84153813123703,-1.447282314300537
1789315812017398000,11.94939794921875,1.1749125719070435,-1.0415740013122559,-1.8634910583496094
1789315812027432200,11.95943212890625,1.112324833869934,-1.0895471572875977,-2.260850429534912
1789315812037466400,11.96946630859375,0.8982277512550354,-1.0732147693634033,-2.4391322135925293
1789315812047500000,11.9795,0.6540467739105225,-0.933371901512146,-2.5049057006835938
1789315812057534200,11.9895341796875,0.44009268283843994,-0.8200767636299133,-2.4922468662261963
1789315812067568000,11.999568115234375,0.32596105337142944,-0.8379614949226379,-2.212806463241577
1789315812077602000,12.00960205078125,0.29231441020965576,-0.8421250581741333,-1.7040965557098389
1789315812087636200,12.01963623046875,0.2465626448392868,-0.549028217792511,-1.0634047985076904
1789315812097670100,12.029670166015626,0.14700782299041748,-0.043659329414367676,-0.36570581793785095
1789315812107704000,12.0397041015625,0.00276116537861526,0.27995574474334717,0.24484783411026
1789315812117738200,12.04973828125,-0.09853003174066544,0.37982428073883057,0.6019633412361145
1789315812127772200,12.059772216796874,-0.19050896167755127,0.4101411998271942,0.779593825340271
1789315812137806000,12.06980615234375,-0.2634449601173401,0.40305718779563904,0.8666144609451294
1789315812147840300,12.07984033203125,-0.3134966790676117,0.3433198034763336,0.9027284979820251
1789315812157874200,12.089874267578125,-0.33334335684776306,0.2946433424949646,0.9086761474609375
1789315812167908000,12.099908203125,-0.3397112190723419,0.25717613101005554,0.925603985786438
1789315812177942300,12.1099423828125,-0.3328181803226471,0.20513904094696045,0.9705517888069153
1789315812187976200,12.11997607421875,-0.32432588934898376,0.11907792091369629,1.0737417936325073
1789315812198010000,12.130010009765625,-0.2959251403808594,0.05838235095143318,1.1632397174835205
1789315812208043000,12.14004296875,-0.25986620783805847,0.05528669059276581,1.1509827375411987
1789315812218077200,12.1500771484375,-0.22303734719753265,0.08110257238149643,1.0192312002182007
1789315812228111400,12.160111328125,-0.2356303632259369,-0.015957128256559372,0.7653024792671204
1789315812238145000,12.17014501953125,-0.35532400012016296,-0.6278692483901978,0.5265120267868042
1789315812248179200,12.18017919921875,-0.35678982734680176,-1.4615252017974854,0.8180932402610779
1789315812258213400,12.19021337890625,-0.27857890725135803,-1.0411667823791504,0.8055819869041443
1789315812268247000,12.2002470703125,-0.18635283410549164,0.023303991183638573,1.031166434288025
1789315812278281200,12.21028125,-0.39326953887939453,0.5983728766441345,0.9826523661613464
1789315812288315400,12.2203154296875,-0.6634637117385864,0.4234330356121063,0.637643039226532
1789315812298349000,12.23034912109375,-0.7035754919052124,0.10199054330587387,0.4683064818382263
1789315812308383200,12.24038330078125,-0.6238479018211365,0.07510140538215637,0.8596095442771912
1789315812318417200,12.250417236328126,-0.4121878147125244,0.4590890109539032,1.6910947561264038
1789315812328451000,12.260451171875,-0.36770424246788025,0.583612859249115,2.526033878326416
1789315812338485200,12.2704853515625,-0.7005823254585266,0.07239590585231781,3.0273208618164062
1789315812348519200,12.280519287109374,-0.6666848063468933,-0.5367745161056519,2.76349139213562
1789315812358553000,12.290552978515626,-0.4606003761291504,-0.338880330324173,2.102094888687134
1789315812368587300,12.300587158203125,-0.20290011167526245,0.21087601780891418,1.4854137897491455
1789315812378621200,12.31062109375,0.004815794061869383,0.5676797032356262,0.8434454798698425
1789315812388655000,12.320655029296875,0.08311352878808975,0.48331472277641296,0.0781339481472969
1789315812398689300,12.330689208984374,0.32466861605644226,0.13141022622585297,-0.7334387898445129
1789315812408723200,12.34072314453125,0.5613411068916321,-0.1720077097415924,-1.5955111980438232
1789315812418757000,12.350757080078125,0.6656951904296875,-0.2876181900501251,-2.3014135360717773
1789315812428791300,12.360791259765625,0.6094793081283569,-0.24708221852779388,-2.697568416595459
1789315812438825200,12.3708251953125,0.4549107849597931,-0.09631002694368362,-2.8467652797698975
1789315812448858400,12.3808583984375,0.2535449266433716,0.12203057110309601,-2.8790950775146484
1789315812458892000,12.39089208984375,0.06824962794780731,0.2645171284675598,-2.731144905090332
1789315812468926200,12.40092626953125,-0.10658050328493118,0.1765422821044922,-2.4185397624969482
1789315812478960400,12.41096044921875,-0.22501687705516815,-0.2825898826122284,-1.9798929691314697
1789315812488994000,12.420994140625,-0.29137566685676575,-0.5942639112472534,-1.5913159847259521
1789315812499028200,12.4310283203125,-0.30141204595565796,-0.6853564977645874,-1.2383613586425781
1789315812509062400,12.4410625,-0.2889583110809326,-0.7493898272514343,-0.8806522488594055
1789315812519096000,12.451095947265625,-0.27460306882858276,-0.6915422081947327,-0.5954647064208984
1789315812529130200,12.461130126953124,-0.25384771823883057,-0.6187703013420105,-0.392232745885849
1789315812539164200,12.4711640625,-0.2223110944032669,-0.6386723518371582,-0.1972334384918213
