time,seconds_elapsed,z,y,x
1789223982370280700,0.04028076171875,0.78076171875,0.936248779296875,0.6590728759765625
1789223982380274400,0.0502744140625,-0.8434600830078125,0.099609375,-0.3962554931640625
1789223982390267600,0.060267578125,-2.9803009033203125,-2.9058380126953125,-0.5206298828125
1789223982400261600,0.07026171875,-1.1133270263671875,-0.123992919921875,-0.173309326171875
1789223982410255600,0.080255615234375,0.7231597900390625,1.8765716552734375,0.11962890625
1789223982420248800,0.090248779296875,-1.363433837890625,-1.5972442626953125,0.1109466552734375
1789223982430242600,0.10024267578125,-1.8621673583984375,-3.3626251220703125,0.0500335693359375
1789223982440236500,0.110236572265625,1.0544891357421875,1.25103759765625,0.553070068359375
1789223982450229800,0.120229736328125,0.9274139404296875,1.2551727294921875,0.4948577880859375
1789223982460223700,0.1302236328125,-1.0435791015625,-4.5349884033203125,-0.0093536376953125
1789223982470217700,0.1402177734375,-1.3598175048828125,-0.898193359375,0.5868682861328125
1789223982480210400,0.15021044921875,-1.73736572265625,2.9571075439453125,-0.009368896484375
1789223982490204700,0.16020458984375,-1.92413330078125,-4.6072235107421875,-0.89508056640625
1789223982500198700,0.17019873046875,-0.7711639404296875,-2.2124176025390625,0.3885955810546875
1789223982510191600,0.180191650390625,0.6363983154296875,3.9252777099609375,0.3424835205078125
1789223982520185600,0.190185546875,-0.8932342529296875,-1.746246337890625,-0.8967742919921875
1789223982530178600,0.200178466796875,-1.9310455322265625,-4.0401153564453125,-0.3023681640625
1789223982540172500,0.210172607421875,-1.600555419921875,3.044921875,0.381378173828125
1789223982550166500,0.22016650390625,-0.6380462646484375,-0.2274932861328125,-0.4911651611328125
1789223982560159700,0.23015966796875,-0.3220367431640625,-4.648223876953125,0.1294403076171875
1789223982570153700,0.24015380859375,0.5218963623046875,1.876617431640625,0.573333740234375
1789223982580147700,0.250147705078125,-0.4592437744140625,1.540435791015625,-0.408233642578125
1789223982590140700,0.260140625,-1.9860687255859375,-4.2177886962890625,-0.4276885986328125
1789223982600134700,0.270134765625,-1.1214447021484375,-0.7896881103515625,-0.07611083984375
1789223982610128600,0.280128662109375,-0.327301025390625,2.266632080078125,-0.5166015625
1789223982620121600,0.29012158203125,-1.2810211181640625,-1.8251800537109375,-0.322784423828125
1789223982630115800,0.30011572265625,-1.2990264892578125,-2.49298095703125,0.2202911376953125
1789223982640108500,0.310108642578125,-0.30084228515625,1.172454833984375,0.14776611328125
1789223982650102500,0.3201025390625,-0.761383056640625,-0.1559295654296875,0.0274200439453125
1789223982660096800,0.3300966796875,-1.0682220458984375,-2.3481597900390625,0.0467071533203125
1789223982670089700,0.34008984375,-0.0317230224609375,-0.1243896484375,0.092193603515625
1789223982680083500,0.35008349609375,-0.2313995361328125,0.4295196533203125,-0.068939208984375
1789223982690077700,0.36007763671875,-2.06298828125,-2.579376220703125,-0.287628173828125
1789223982700071000,0.37007080078125,-2.1894073486328125,-1.4523162841796875,-0.0930938720703125
1789223982710065000,0.38006494140625,-0.5072479248046875,0.80828857421875,-0.1779937744140625
1789223982720059000,0.390058837890625,0.202484130859375,-1.6471405029296875,-0.4842529296875
1789223982730052000,0.400052001953125,0.4345855712890625,-0.8138427734375,-0.1098175048828125
1789223982740045800,0.4100458984375,0.6329803466796875,2.609710693359375,0.0562286376953125
1789223982750039800,0.420039794921875,-0.16357421875,-0.1560821533203125,-0.05279541015625
1789223982760032800,0.43003271484375,-0.9205780029296875,-2.1380615234375,0.6358489990234375
1789223982770027000,0.440027099609375,-1.085845947265625,1.2381134033203125,0.788330078125
1789223982780020000,0.45002001953125,-1.261077880859375,-1.8866119384765625,0.5539093017578125
1789223982790013700,0.460013671875,-0.5462799072265625,-2.59149169921875,1.331085205078125
1789223982800008000,0.470008056640625,0.8180694580078125,1.3697662353515625,1.2155914306640625
1789223982810001000,0.4800009765625,0.205078125,-0.18792724609375,0.0146484375
1789223982819995000,0.489994873046875,-1.2356109619140625,-0.8887176513671875,-0.108795166015625
1789223982829988900,0.49998876953125,-2.1898956298828125,1.176910400390625,0.0737152099609375
1789223982839981800,0.50998193359375,-2.5730133056640625,-0.696014404296875,-0.3017120361328125
1789223982849975800,0.519975830078125,-1.8134307861328125,-0.9484405517578125,-0.06756591796875
1789223982859969800,0.5299697265625,-0.9970550537109375,0.110107421875,0.26812744140625
1789223982869963000,0.539962890625,-0.69744873046875,-1.062744140625,0.35693359375
1789223982879957000,0.54995703125,-0.119110107421875,-0.8659820556640625,0.47161865234375
1789223982889949700,0.55994970703125,-0.2028961181640625,-0.542755126953125,0.43035888671875
1789223982899944000,0.56994384765625,-0.961395263671875,-0.8856964111328125,0.21685791015625
1789223982909938000,0.57993798828125,-1.3116455078125,-0.7820281982421875,0.0523834228515625
1789223982919931000,0.589930908203125,-1.13311767578125,-0.578582763671875,-0.1666259765625
1789223982929924900,0.5999248046875,-0.91552734375,-0.5635833740234375,-0.1966552734375
1789223982939919000,0.609919189453125,-0.8414154052734375,-1.0654449462890625,-0.01885986328125
1789223982949911800,0.619911865234375,-0.5970458984375,-1.1894378662109375,-0.063568115234375
1789223982959905800,0.62990576171875,-0.42486572265625,-0.671783447265625,-0.0904541015625
1789223982969899800,0.639899658203125,-0.624542236328125,-1.000823974609375,-0.058135986328125
1789223982979893000,0.64989306640625,-0.730926513671875,-1.366546630859375,-0.0852203369140625
1789223982989887000,0.659886962890625,-0.69659423828125,-0.4300384521484375,-0.125213623046875
1789223982999880700,0.669880615234375,-0.955230712890625,-0.6047821044921875,-0.25634765625
1789223983009874000,0.6798740234375,-1.143646240234375,-1.358245849609375,-0.430145263671875
1789223983019868000,0.689867919921875,-0.66143798828125,-0.90948486328125,-0.521240234375
1789223983029860900,0.69986083984375,-0.1678924560546875,-0.367523193359375,-0.427581787109375
1789223983039854800,0.709854736328125,-0.4549713134765625,-0.5655670166015625,-0.3643035888671875
1789223983049848800,0.719848876953125,-1.0836334228515625,-0.75128173828125,-0.2068023681640625
1789223983059841800,0.729841796875,-1.291229248046875,-0.5394439697265625,0.0429534912109375
1789223983069835800,0.739835693359375,-1.101593017578125,-1.11944580078125,0.069366455078125
1789223983079830000,0.749830078125,-0.716766357421875,-1.092498779296875,0.1172027587890625
1789223983089822700,0.75982275390625,-0.4243927001953125,-0.1842803955078125,0.248626708984375
1789223983099816700,0.769816650390625,-0.6366119384765625,-0.25726318359375,0.1289520263671875
1789223983109811000,0.77981103515625,-0.6637420654296875,-1.129425048828125,-0.2678375244140625
1789223983119804000,0.789803955078125,-0.5142669677734375,-0.2390594482421875,-0.3839874267578125
1789223983129798000,0.7997978515625,-0.8970794677734375,0.1317596435546875,-0.418060302734375
1789223983139790800,0.809790771484375,-1.19439697265625,-1.2583160400390625,-0.458526611328125
1789223983149784800,0.819784912109375,-0.7253265380859375,-0.8002166748046875,-0.2563934326171875
1789223983159778800,0.82977880859375,-0.2987213134765625,0.0911407470703125,-0.1016998291015625
1789223983169772000,0.83977197265625,-0.1860809326171875,-0.772674560546875,-0.011444091796875
1789223983179766000,0.84976611328125,0.0870208740234375,-0.9437255859375,0.178558349609375
1789223983189760000,0.859760009765625,0.1163482666015625,-0.3152618408203125,0.283966064453125
1789223983199752700,0.869752685546875,-0.33685302734375,-0.858062744140625,0.1117095947265625
1789223983209747000,0.879746826171875,-0.618438720703125,-0.7180938720703125,0.066253662109375
1789223983219741000,0.889740966796875,-0.3941650390625,-0.334442138671875,0.3294830322265625
1789223983229734000,0.89973388671875,-0.19256591796875,-0.141448974609375,0.542938232421875
1789223983239727900,0.909727783203125,-1.1294708251953125,-1.2772369384765625,0.4210357666015625
1789223983249720800,0.919720947265625,-2.1966094970703125,-1.514190673828125,0.384765625
1789223983259714800,0.92971484375,-2.1054534912109375,-0.0855255126953125,0.3086090087890625
1789223983269708800,0.939708740234375,-1.1983642578125,-0.592529296875,0.0906829833984375
1789223983279702000,0.949701904296875,-0.0237884521484375,-0.68170166015625,-0.238861083984375
1789223983289696000,0.959696044921875,-0.287139892578125,0.2639923095703125,-0.305694580078125
1789223983299689700,0.969689697265625,-1.8022918701171875,-0.72735595703125,-0.128509521484375
1789223983309683000,0.979682861328125,-2.4294891357421875,-1.7417755126953125,-0.1300201416015625
1789223983319677000,0.989677001953125,-1.05426025390625,-0.4738922119140625,-0.11865234375
1789223983329671000,0.9996708984375,0.206024169921875,-0.0718841552734375,-0.036590576171875
1789223983339664000,1.009663818359375,-0.3121337890625,-1.059814453125,0.0574493408203125
1789223983349657900,1.019657958984375,-1.450103759765625,-0.8907623291015625,0.154937744140625
1789223983359650800,1.02965087890625,-1.227386474609375,-0.227020263671875,0.144805908203125
1789223983369644800,1.039644775390625,0.1077880859375,-0.9654693603515625,0.0239105224609375
1789223983379638800,1.049638671875,0.3722991943359375,-1.2919921875,0.17926025390625
1789223983389632000,1.059632080078125,-0.53082275390625,-0.351654052734375,0.25164794921875
1789223983399625700,1.069625732421875,-0.90289306640625,-0.5104522705078125,-0.140472412109375
1789223983409619700,1.07961962890625,-0.540191650390625,-1.7649993896484375,-0.3699188232421875
1789223983419613000,1.089613037109375,-0.421173095703125,-0.7128143310546875,-0.2166595458984375
1789223983429607000,1.09960693359375,-0.9183197021484375,0.072662353515625,-0.158294677734375
1789223983439601000,1.109600830078125,-1.46502685546875,-1.92608642578125,-0.302490234375
1789223983449593900,1.11959375,-0.339874267578125,-1.04644775390625,-0.2992401123046875
1789223983459587800,1.129587890625,0.571807861328125,1.081756591796875,-0.1128082275390625
1789223983469580800,1.139580810546875,-0.6866607666015625,-1.5612030029296875,-0.161102294921875
1789223983479575000,1.149574951171875,-1.7143402099609375,-1.92071533203125,-0.289947509765625
1789223983489569000,1.159569091796875,-1.1162261962890625,1.326751708984375,-0.3360137939453125
1789223983499561700,1.169561767578125,-0.9691162109375,-1.68585205078125,-0.3492584228515625
1789223983509555700,1.1795556640625,-0.3844757080078125,-2.1583404541015625,-0.00640869140625
1789223983519550000,1.189550048828125,0.6504364013671875,1.9157867431640625,0.16943359375
1789223983529543000,1.19954296875,-0.486175537109375,-1.3593902587890625,-0.225433349609375
1789223983539537000,1.209536865234375,-2.529022216796875,-2.249298095703125,-0.104248046875
1789223983549531000,1.21953076171875,-1.5260009765625,1.118316650390625,0.1664581298828125
1789223983559523800,1.22952392578125,1.5411529541015625,-1.7200164794921875,-0.204620361328125
1789223983569517800,1.239517822265625,1.9063568115234375,0.2354736328125,0.0102691650390625
1789223983579511000,1.249510986328125,-1.5236053466796875,1.6954803466796875,0.1065216064453125
1789223983589505000,1.259505126953125,-4.4594573974609375,-4.8594970703125,-0.490325927734375
1789223983599499000,1.2694990234375,-2.2522735595703125,-0.147369384765625,-0.1811676025390625
1789223983609491700,1.27949169921875,0.903228759765625,2.8118438720703125,0.1506195068359375
1789223983619486000,1.28948583984375,0.868560791015625,-3.725341796875,-0.071441650390625
1789223983629480000,1.29947998046875,-0.84521484375,-1.410552978515625,0.2640533447265625
1789223983639473000,1.309472900390625,-2.3464508056640625,3.470062255859375,0.1965789794921875
1789223983649467000,1.319466796875,-0.81939697265625,-3.9803924560546875,-0.51068115234375
1789223983659460900,1.3294609375,0.4492034912109375,-2.432861328125,0.10040283203125
1789223983669453800,1.339453857421875,0.1898193359375,4.1129913330078125,0.4893341064453125
1789223983679447800,1.34944775390625,-0.7463531494140625,-1.4503326416015625,-0.1360931396484375
1789223983689441000,1.35944091796875,-1.395294189453125,-4.8925323486328125,-0.2030181884765625
1789223983699435000,1.36943505859375,-0.860565185546875,2.9036865234375,0.0110626220703125
1789223983709429000,1.379428955078125,-1.4245147705078125,0.783966064453125,-0.2424468994140625
1789223983719422000,1.389421875,-2.390411376953125,-5.986236572265625,0.20867919921875
1789223983729416000,1.399416015625,0.358428955078125,0.8453826904296875,0.4215087890625
1789223983739410000,1.409409912109375,1.328857421875,3.727142333984375,-0.3939056396484375
1789223983749403000,1.41940283203125,-1.6749267578125,-3.565826416015625,-0.480133056640625
1789223983759397000,1.429397216796875,-2.34063720703125,-2.480133056640625,0.1961212158203125
1789223983769390800,1.439390869140625,0.2253570556640625,3.4710540771484375,0.0999908447265625
1789223983779383800,1.4493837890625,0.1859588623046875,-1.9023590087890625,-0.04522705078125
1789223983789378000,1.4593779296875,-0.995025634765625,-3.550445556640625,0.4808197021484375
1789223983799371000,1.46937109375,-0.5036773681640625,2.38848876953125,0.42510986328125
1789223983809365000,1.479364990234375,-1.389068603515625,-1.2436676025390625,0.0353240966796875
1789223983819358700,1.489358642578125,-0.925567626953125,-2.808502197265625,0.3564300537109375
1789223983829352000,1.49935205078125,0.305328369140625,2.35736083984375,0.4570465087890625
1789223983839346000,1.509345947265625,-1.547119140625,-1.7577362060546875,0.13775634765625
1789223983849340000,1.51933984375,-1.558563232421875,-2.276214599609375,0.4424591064453125
1789223983859333000,1.5293330078125,0.3426666259765625,2.718719482421875,0.260040283203125
1789223983869326800,1.539326904296875,-1.01300048828125,-2.236358642578125,-0.1263580322265625
1789223983879320800,1.54932080078125,-1.4874725341796875,-2.385589599609375,0.2901763916015625
1789223983889314000,1.55931396484375,-1.2829742431640625,3.145843505859375,0.15283203125
1789223983899308000,1.56930810546875,-1.617279052734375,-3.3755950927734375,-0.43341064453125
1789223983909301000,1.579301025390625,0.3083953857421875,-2.287200927734375,0.1874237060546875
1789223983919294700,1.589294677734375,1.7117767333984375,3.204803466796875,0.575775146484375
1789223983929289000,1.5992890625,-0.4978790283203125,-1.637298583984375,-0.00262451171875
1789223983939282000,1.609281982421875,-2.7428131103515625,-2.1427764892578125,-0.1639862060546875
1789223983949276000,1.61927587890625,-1.85247802734375,0.3976287841796875,-0.0380859375
1789223983959270000,1.629269775390625,-0.528839111328125,-2.526031494140625,-0.0753936767578125
1789223983969262800,1.639262939453125,0.672760009765625,0.6805419921875,0.42767333984375
1789223983979256800,1.6492568359375,-0.09356689453125,1.641021728515625,0.3489227294921875
1789223983989250800,1.659250732421875,-3.4714508056640625,-3.96795654296875,-0.3805084228515625
1789223983999244000,1.669244140625,-2.4355926513671875,0.2308807373046875,-0.2129364013671875
1789223984009238000,1.679238037109375,-0.0130615234375,1.8050689697265625,0.144622802734375
1789223984019230700,1.689230712890625,-0.169036865234375,-4.0888214111328125,-0.0900726318359375
1789223984029225000,1.699224853515625,0.2374114990234375,-0.52484130859375,0.177459716796875
1789223984039219000,1.709218994140625,0.525665283203125,2.2617034912109375,0.3562164306640625
1789223984049212000,1.7192119140625,-0.56768798828125,-2.75750732421875,-0.1707611083984375
1789223984059206000,1.729205810546875,-1.396820068359375,-1.2766265869140625,-0.163665771484375
1789223984069200100,1.7392001953125,-1.4439849853515625,1.3202362060546875,0.227874755859375
1789223984079192800,1.74919287109375,-1.428436279296875,-3.136199951171875,-0.10498046875
1789223984089186800,1.759186767578125,-0.6342315673828125,-0.5544891357421875,-0.012451171875
1789223984099181000,1.76918115234375,-0.4897918701171875,1.6118621826171875,0.2588348388671875
1789223984109174000,1.779174072265625,-1.8398284912109375,-3.4273223876953125,-0.177001953125
1789223984119167700,1.789167724609375,-0.7106781005859375,-0.4043426513671875,-0.3074798583984375
1789223984129161000,1.799160888671875,0.5708770751953125,2.21759033203125,0.09161376953125
1789223984139155000,1.809155029296875,-0.1728973388671875,-2.9488983154296875,-0.0206146240234375
1789223984149149000,1.81914892578125,-1.1990203857421875,-0.9399261474609375,0.0006256103515625
1789223984159142100,1.82914208984375,-1.640838623046875,1.32452392578125,0.056304931640625
1789223984169135900,1.839135986328125,-0.6705169677734375,-4.5551300048828125,-0.244537353515625
1789223984179129900,1.8491298828125,1.3071136474609375,-0.2591400146484375,0.09320068359375
1789223984189122800,1.859122802734375,1.4004974365234375,3.485595703125,0.3132171630859375
1789223984199117000,1.869116943359375,-1.6276397705078125,-3.0262451171875,-0.550506591796875
1789223984209111000,1.879111083984375,-4.783477783203125,-2.070953369140625,-0.9749908447265625
1789223984219103700,1.889103759765625,-1.8538665771484375,2.0509796142578125,-0.624359130859375
1789223984229097700,1.89909765625,0.41265869140625,-3.397430419921875,-0.4245147705078125
1789223984239091000,1.909091064453125,0.9603118896484375,-1.4880218505859375,0.0583343505859375
1789223984249085000,1.9190849609375,0.4394683837890625,2.7758026123046875,0.3066558837890625
1789223984259079000,1.929078857421875,-1.2262725830078125,-2.1486358642578125,-0.635345458984375
1789223984269072000,1.93907177734375,-1.5126190185546875,-3.0001373291015625,-1.12945556640625
1789223984279065900,1.94906591796875,-0.9912567138671875,1.938018798828125,0.062591552734375
1789223984289059800,1.959059814453125,1.0073699951171875,-1.14178466796875,0.09478759765625
1789223984299053000,1.969052978515625,0.9273223876953125,-2.166900634765625,-0.322784423828125
1789223984309047000,1.979047119140625,-0.78485107421875,0.858428955078125,-0.037445068359375
1789223984319041000,1.989041015625,-2.18701171875,-1.919677734375,-0.0743255615234375
1789223984329033700,1.99903369140625,-1.505889892578125,-1.8663177490234375,-0.48944091796875
1789223984339028000,2.009028076171875,-0.245361328125,1.368560791015625,-0.20135498046875
1789223984349021000,2.01902099609375,-0.61248779296875,-1.1932220458984375,-0.199310302734375
1789223984359015000,2.029014892578125,-1.3982696533203125,-1.7542266845703125,-0.4464111328125
1789223984369009000,2.0390087890625,-1.3361663818359375,1.2967681884765625,0.093231201171875
1789223984379001900,2.049001953125,-0.4334869384765625,-1.3253631591796875,0.2177581787109375
1789223984388995800,2.058995849609375,0.544647216796875,-2.1124420166015625,-0.0840301513671875
1789223984398989800,2.06898974609375,0.1598663330078125,0.4482574462890625,0.446136474609375
1789223984408983000,2.078983154296875,-0.6358489990234375,-0.331878662109375,0.5276336669921875
1789223984418977000,2.08897705078125,-1.02484130859375,-0.3693389892578125,-0.1906585693359375
1789223984428970800,2.098970703125,-1.1462249755859375,-0.293792724609375,-0.425201416015625
1789223984438964000,2.1089638671875,-0.829803466796875,-2.2334442138671875,0.1429290771484375
1789223984448958000,2.1189580078125,-0.70159912109375,0.8224029541015625,0.2574462890625
1789223984458952000,2.128951904296875,-1.784881591796875,0.379058837890625,-0.0849151611328125
1789223984468945200,2.138945068359375,-2.0425262451171875,-2.3350067138671875,0.1448516845703125
1789223984478939000,2.14893896484375,-0.73040771484375,1.2857513427734375,0.15399169921875
1789223984488931800,2.158931884765625,-0.47039794921875,1.0035400390625,-0.248626708984375
1789223984498925800,2.16892578125,-0.566131591796875,-3.3260040283203125,0.2257537841796875
1789223984508920000,2.178920166015625,0.041107177734375,-0.873565673828125,0.6968536376953125
1789223984518913000,2.1889130859375,-0.44305419921875,1.692657470703125,0.1480560302734375
1789223984528906800,2.19890673828125,-0.9525146484375,-2.2667388916015625,-0.061981201171875
1789223984538900700,2.208900634765625,-0.0416107177734375,-1.51873779296875,0.39190673828125
1789223984548894000,2.21889404296875,0.1954193115234375,1.5994873046875,0.204833984375
1789223984558888000,2.228887939453125,-1.37176513671875,-1.7122955322265625,0.088134765625
1789223984568882000,2.2388818359375,-2.0287322998046875,-2.0000152587890625,0.36749267578125
1789223984578875000,2.248875,-0.9370574951171875,1.6934661865234375,-0.1662750244140625
1789223984588868900,2.258868896484375,-0.784271240234375,-1.1606292724609375,-0.280670166015625
1789223984598861800,2.26886181640625,-0.7682342529296875,-1.967376708984375,0.4858551025390625
1789223984608856000,2.27885595703125,-0.38507080078125,1.4468231201171875,0.3347930908203125
1789223984618850000,2.28885009765625,-0.9560089111328125,-1.185699462890625,-0.1252288818359375
1789223984628842800,2.2988427734375,-0.919830322265625,-2.3735504150390625,0.42437744140625
1789223984638836700,2.308836669921875,0.0357666015625,1.1690521240234375,0.60626220703125
1789223984648831000,2.3188310546875,-0.2192230224609375,-1.1165313720703125,0.2118988037109375
1789223984658824000,2.328823974609375,-0.4493865966796875,-1.9322967529296875,0.439605712890625
1789223984668818000,2.33881787109375,0.189697265625,1.86322021484375,0.345458984375
1789223984678812000,2.34881201171875,-1.33489990234375,-1.4399871826171875,-0.0591888427734375
1789223984688804000,2.35880419921875,-3.1016082763671875,-2.4068756103515625,0.201995849609375
1789223984698798000,2.368798095703125,-2.1485595703125,2.2348785400390625,-0.069305419921875
1789223984708792300,2.378792236328125,-2.0463714599609375,-2.128387451171875,-0.415252685546875
1789223984718785300,2.388785400390625,-0.138519287109375,-2.6030731201171875,0.127044677734375
1789223984728779300,2.398779296875,2.4102020263671875,2.786865234375,0.259429931640625
1789223984738772200,2.408772216796875,0.1921234130859375,0.0439453125,0.0306549072265625
1789223984748766200,2.41876611328125,-3.023040771484375,-4.397308349609375,0.2170867919921875
1789223984758760200,2.42876025390625,-1.5055389404296875,-0.0589599609375,0.097381591796875
1789223984768753400,2.43875341796875,2.28204345703125,0.134429931640625,-0.06488037109375
1789223984778747400,2.448747314453125,2.08331298828125,-0.6920013427734375,0.7148895263671875
1789223984788741400,2.458741455078125,-0.7176361083984375,0.9998321533203125,0.57366943359375
1789223984798734000,2.468734130859375,-4.2934722900390625,-2.4092559814453125,-0.431884765625
1789223984808728300,2.478728271484375,-2.6826324462890625,-2.36468505859375,-0.1419525146484375
1789223984818722300,2.488722412109375,1.0710296630859375,2.1006011962890625,0.009063720703125
1789223984828715300,2.49871533203125,0.3536376953125,-1.232757568359375,-0.3944549560546875
1789223984838709200,2.508709228515625,-1.8973846435546875,-1.996185302734375,-0.04290771484375
1789223984848702200,2.5187021484375,-1.8876495361328125,1.8665008544921875,-0.060546875
1789223984858696200,2.5286962890625,-1.147125244140625,-2.0642547607421875,-0.2101287841796875
1789223984868690200,2.538690185546875,0.3472747802734375,-2.1912994384765625,0.51751708984375
1789223984878683400,2.548683349609375,1.4505767822265625,2.5126495361328125,0.7541351318359375
1789223984888677400,2.558677490234375,-0.028900146484375,-0.6818389892578125,0.40130615234375
1789223984898671000,2.568671142578125,-2.60107421875,-2.3938751220703125,0.511383056640625
1789223984908664300,2.578664306640625,-2.4720458984375,0.9310302734375,0.28118896484375
1789223984918658300,2.588658203125,-1.2686920166015625,-2.8378448486328125,0.06182861328125
1789223984928652300,2.59865234375,0.0938568115234375,-0.8923492431640625,0.6597747802734375
1789223984938645200,2.608645263671875,0.5069732666015625,2.2281341552734375,0.4224700927734375
1789223984948639200,2.61863916015625,-1.5087127685546875,-2.48040771484375,-0.2822265625
1789223984958633200,2.62863330078125,-2.1143646240234375,-1.0434112548828125,0.228485107421875
1789223984968626200,2.638626220703125,-0.68341064453125,1.56500244140625,0.176300048828125
1789223984978620400,2.648620361328125,-0.1495513916015625,-2.795318603515625,-0.140411376953125
1789223984988613400,2.65861328125,-0.078826904296875,-0.0278167724609375,0.3172760009765625
1789223984998607000,2.668607177734375,-0.84088134765625,1.3653564453125,0.0332489013671875
1789223985008601000,2.67860107421875,-1.500396728515625,-3.2512969970703125,-0.3332061767578125
1789223985018594300,2.68859423828125,-0.57891845703125,-0.5277252197265625,0.3507080078125
1789223985028588300,2.69858837890625,-0.303436279296875,1.3008270263671875,0.262298583984375
1789223985038582300,2.708582275390625,-1.6241455078125,-3.4825592041015625,-0.2714080810546875
1789223985048575200,2.7185751953125,-0.88995361328125,-0.7949676513671875,0.173980712890625
1789223985058569200,2.7285693359375,0.1045684814453125,1.5466156005859375,0.204315185546875
1789223985068563200,2.738563232421875,-0.7412872314453125,-2.7177276611328125,-0.28765869140625
1789223985078556400,2.748556396484375,-0.646453857421875,-1.18328857421875,-0.028839111328125
1789223985088550400,2.75855029296875,-0.6367645263671875,1.2808074951171875,0.1863250732421875
1789223985098544400,2.76854443359375,-1.197265625,-2.618621826171875,-0.1103515625
1789223985108537000,2.778537109375,-0.379150390625,-0.2953643798828125,0.0976104736328125
1789223985118531300,2.78853125,0.625335693359375,0.69622802734375,0.1918792724609375
1789223985128524300,2.798524169921875,1.3463287353515625,-2.6406707763671875,0.1605377197265625
1789223985138518300,2.808518310546875,0.56878662109375,0.7013092041015625,0.4116973876953125
1789223985148512300,2.81851220703125,-2.8576202392578125,0.024932861328125,-0.1388397216796875
1789223985158505200,2.828505126953125,-4.831268310546875,-3.8393096923828125,-0.3407440185546875
1789223985168499200,2.838499267578125,-1.5872802734375,1.6907501220703125,0.431060791015625
1789223985178493200,2.8484931640625,0.542694091796875,-0.9802703857421875,0.3365936279296875
1789223985188486400,2.858486328125,1.203948974609375,-2.8663787841796875,0.2855377197265625
1789223985198480400,2.86848046875,1.2645111083984375,2.489776611328125,0.232330322265625
1789223985208474000,2.87847412109375,-2.6380615234375,-0.2730560302734375,-0.2582550048828125
1789223985218467300,2.88846728515625,-4.4700775146484375,-3.0604095458984375,-0.2176055908203125
1789223985228461300,2.89846142578125,0.143524169921875,0.1207275390625,-0.0247955322265625
1789223985238455300,2.908455322265625,2.414337158203125,-1.4149932861328125,-0.136688232421875
1789223985248448300,2.9184482421875,1.1168365478515625,0.7332916259765625,0.1890716552734375
1789223985258442200,2.928442138671875,-2.5492706298828125,-0.18994140625,-0.0166168212890625
1789223985268435200,2.938435302734375,-3.6693572998046875,-3.7478790283203125,-0.460296630859375
1789223985278429200,2.94842919921875,-1.3299560546875,1.9147186279296875,0.0291595458984375
1789223985288423400,2.95842333984375,0.2893524169921875,-0.7162322998046875,0.0102691650390625
1789223985298416000,2.968416015625,0.64892578125,-3.1692047119140625,0.252777099609375
1789223985308410000,2.97841015625,0.0799713134765625,2.214569091796875,0.6210784912109375
1789223985318404000,2.988404052734375,-1.6493377685546875,-0.65020751953125,-0.138397216796875
1789223985328397300,2.998397216796875,-2.0214080810546875,-3.9565582275390625,-0.625457763671875
1789223985338391300,3.008391357421875,-0.3460845947265625,1.443267822265625,0.086578369140625
1789223985348385300,3.01838525390625,0.6819610595703125,-0.4478302001953125,0.12432861328125
1789223985358378200,3.028378173828125,-0.0350799560546875,-2.3790130615234375,-0.2721405029296875
1789223985368372200,3.038372314453125,-0.946014404296875,0.720977783203125,-0.1098785400390625
1789223985378366200,3.0483662109375,-0.99566650390625,-1.6624298095703125,-0.2631378173828125
1789223985388359400,3.058359375,-0.65032958984375,-0.989288330078125,-0.1815338134765625
1789223985398353400,3.068353515625,-0.8478851318359375,1.8233184814453125,0.2224578857421875
1789223985408347400,3.078347412109375,-1.8128662109375,-1.992431640625,-0.0041351318359375
1789223985418340000,3.088340087890625,-1.289947509765625,-2.2963409423828125,-0.122772216796875
1789223985428334300,3.098334228515625,-0.160400390625,1.6157989501953125,-0.0114288330078125
1789223985438327300,3.108327392578125,-0.53790283203125,-1.4159088134765625,-0.3173980712890625
1789223985448321300,3.1183212890625,-0.860748291015625,-2.106964111328125,-0.314544677734375
1789223985458315300,3.128315185546875,-0.0808258056640625,0.14862060546875,0.0014190673828125
1789223985468308200,3.13830810546875,0.334228515625,-0.6487884521484375,-0.1334381103515625
1789223985478302200,3.14830224609375,-0.460205078125,-0.5492706298828125,-0.193634033203125
1789223985488296200,3.158296142578125,-1.160186767578125,-1.88934326171875,-0.061370849609375
1789223985498289400,3.168289306640625,-0.878204345703125,-0.6901092529296875,-0.1607513427734375
1789223985508283100,3.178283203125,-0.7671966552734375,1.45013427734375,0.0101318359375
1789223985518277000,3.188277099609375,-1.4022064208984375,-2.7808837890625,0.1351165771484375
1789223985528270300,3.198270263671875,-0.737762451171875,-0.9947662353515625,0.117095947265625
1789223985538264300,3.208264404296875,-0.219879150390625,2.1790618896484375,-0.0969085693359375
1789223985548258300,3.21825830078125,-1.460693359375,-2.8545074462890625,-0.3920440673828125
1789223985558251300,3.228251220703125,-1.414794921875,-0.7738800048828125,-0.14532470703125
1789223985568245200,3.238245361328125,-0.4247894287109375,1.2858123779296875,-0.05072021484375
1789223985578239200,3.2482392578125,-0.540863037109375,-2.7462158203125,-0.29388427734375
1789223985588232200,3.258232177734375,-0.505584716796875,0.3001861572265625,0.03656005859375
1789223985598226400,3.268226318359375,-0.58197021484375,0.156494140625,0.210357666015625
1789223985608219100,3.27821923828125,-0.69146728515625,-3.0004119873046875,-0.0026397705078125
1789223985618213000,3.288213134765625,0.0507965087890625,1.80023193359375,0.261962890625
1789223985628207000,3.29820703125,-0.62481689453125,-0.0475311279296875,0.19549560546875
1789223985638200300,3.308200439453125,-1.9797515869140625,-3.7245635986328125,-0.0304718017578125
1789223985648194300,3.3181943359375,-1.0830230712890625,1.7348785400390625,0.219879150390625
1789223985658188300,3.328188232421875,-0.751312255859375,0.0137481689453125,0.0921173095703125
1789223985668181200,3.33818115234375,-0.7924957275390625,-2.6726226806640625,-0.009246826171875
1789223985678175200,3.34817529296875,0.2035064697265625,1.39703369140625,0.4715118408203125
1789223985688169200,3.358169189453125,-0.1380767822265625,-0.689727783203125,0.3352508544921875
1789223985698162400,3.368162353515625,-1.1854248046875,-2.4249114990234375,0.1769866943359375
1789223985708156400,3.378156494140625,-0.8980560302734375,1.04156494140625,0.292266845703125
1789223985718150400,3.388150390625,-0.7781219482421875,-1.30865478515625,0.1303863525390625
1789223985728143000,3.39814306640625,-0.40899658203125,-1.4557647705078125,0.3754730224609375
1789223985738137300,3.408137451171875,-0.271209716796875,1.02667236328125,0.5093994140625
1789223985748131300,3.41813134765625,-1.4111175537109375,-1.7360076904296875,0.195068359375
1789223985758124300,3.428124267578125,-1.1615753173828125,-0.2760467529296875,0.2984619140625
1789223985768118300,3.4381181640625,-0.606842041015625,-0.258758544921875,0.1682891845703125
1789223985778112500,3.448112548828125,-0.93609619140625,-1.3792572021484375,-0.050140380859375
1789223985788105200,3.458105224609375,-0.8791961669921875,1.1820526123046875,0.0619354248046875
1789223985798099200,3.46809912109375,-1.3738250732421875,-2.33343505859375,-0.2400970458984375
1789223985808092400,3.478092529296875,-0.96875,-0.8963470458984375,-0.2266387939453125
1789223985818086400,3.48808642578125,-0.276458740234375,1.6176300048828125,0.0305023193359375
1789223985828080400,3.498080322265625,-1.1732177734375,-3.5006103515625,-0.3200531005859375
1789223985838073300,3.5080732421875,-0.99334716796875,-0.6239166259765625,-0.307464599609375
1789223985848067300,3.5180673828125,-0.3925323486328125,1.1869964599609375,-0.07421875
1789223985858061300,3.528061279296875,-0.8916778564453125,-3.4491119384765625,-0.35809326171875
1789223985868054300,3.53805419921875,-0.5956573486328125,0.0604400634765625,-0.23883056640625
1789223985878048300,3.54804833984375,-0.415802001953125,0.60870361328125,0.075103759765625
1789223985888042200,3.558042236328125,-0.6487274169921875,-2.97918701171875,-0.2034454345703125
1789223985898035200,3.56803515625,-0.3436126708984375,0.6722412109375,-0.1603240966796875
1789223985908029400,3.578029541015625,-0.1110992431640625,-0.186187744140625,0.050567626953125
1789223985918023400,3.5880234375,-0.0398406982421875,-2.692047119140625,-0.1301727294921875
1789223985928016100,3.59801611328125,-0.858673095703125,1.009796142578125,-0.0540313720703125
1789223985938010000,3.608010009765625,-2.354583740234375,-1.28558349609375,-0.086944580078125
1789223985948004400,3.61800439453125,-1.3680419921875,-2.623077392578125,-0.21636962890625
1789223985957997300,3.627997314453125,1.1420440673828125,1.6556549072265625,0.0959625244140625
1789223985967991300,3.6379912109375,1.1512603759765625,-0.206451416015625,0.109375
1789223985977985300,3.6479853515625,-1.365264892578125,-1.9918975830078125,-0.267608642578125
1789223985987978200,3.657978271484375,-4.388275146484375,-0.403228759765625,-0.0719146728515625
1789223985997972200,3.66797216796875,-2.0030364990234375,-1.8499755859375,-0.3503875732421875
1789223986007965400,3.67796533203125,2.043487548828125,0.1798553466796875,0.030609130859375
1789223986017959400,3.68795947265625,2.1643218994140625,0.59112548828125,0.6164093017578125
1789223986027953400,3.697953369140625,-1.03631591796875,-1.6795501708984375,0.089141845703125
1789223986037946000,3.707946044921875,-5.675506591796875,-0.8943939208984375,-0.354400634765625
1789223986047940400,3.7179404296875,-2.9720458984375,-2.7255401611328125,-0.284515380859375
1789223986057934300,3.727934326171875,2.4076080322265625,-0.21783447265625,0.43353271484375
1789223986067927300,3.73792724609375,3.43060302734375,2.606842041015625,0.8775634765625
1789223986077921300,3.74792138671875,1.566741943359375,-0.7185211181640625,0.1428985595703125
1789223986087915300,3.757915283203125,-5.597320556640625,-2.60882568359375,-0.8020782470703125
1789223986097908200,3.767908203125,-5.715118408203125,-1.7266082763671875,-0.676422119140625
1789223986107902200,3.777902099609375,2.2228240966796875,-0.8939056396484375,0.305206298828125
1789223986117896200,3.787896240234375,3.1146697998046875,1.7357940673828125,1.008026123046875
1789223986127889400,3.797889404296875,2.277923583984375,0.066009521484375,0.6819610595703125
1789223986137883100,3.807883056640625,-1.1173553466796875,-2.1579132080078125,-0.380340576171875
1789223986147877000,3.817877197265625,-6.536956787109375,-1.1475677490234375,-0.646575927734375
1789223986157870300,3.827870361328125,-1.7474212646484375,-2.3365478515625,-0.1751251220703125
1789223986167864300,3.8378642578125,2.1288299560546875,1.4552764892578125,0.4149627685546875
1789223986177858300,3.8478583984375,1.9773712158203125,1.7456817626953125,0.3656463623046875
1789223986187851300,3.857851318359375,-0.9148406982421875,-3.1746978759765625,-0.2845611572265625
1789223986197845200,3.86784521484375,-5.29931640625,-1.4936065673828125,-0.196746826171875
1789223986207839200,3.877839111328125,-3.202484130859375,-0.156158447265625,-0.0367889404296875
1789223986217832400,3.88783251953125,1.4917144775390625,-1.2322235107421875,0.048828125
1789223986227826400,3.897826416015625,2.58740234375,1.8201141357421875,0.36663818359375
1789223986237820400,3.9078203125,0.313568115234375,-1.72088623046875,0.08245849609375
1789223986247813000,3.917813232421875,-3.5896759033203125,-2.3196563720703125,-0.048583984375
1789223986257807400,3.927807373046875,-3.847747802734375,0.03240966796875,-0.2224273681640625
1789223986267800300,3.93780029296875,0.4511566162109375,-2.0295562744140625,-0.3452606201171875
1789223986277794300,3.947794189453125,2.59283447265625,1.32769775390625,0.463897705078125
1789223986287788300,3.957788330078125,1.87115478515625,0.3881988525390625,0.458465576171875
1789223986297781200,3.96778125,-1.5507659912109375,-2.6069793701171875,-0.0158233642578125
1789223986307775200,3.977775146484375,-5.43096923828125,-0.7105255126953125,-0.4355621337890625
1789223986317769200,3.987769287109375,-2.091522216796875,-1.9663848876953125,-0.5966949462890625
1789223986327762400,3.997762451171875,1.6060333251953125,1.1862640380859375,0.2759857177734375
1789223986337756400,4.00775634765625,2.2686767578125,1.03668212890625,0.313690185546875
1789223986347750100,4.017750244140625,1.101806640625,-3.2196197509765625,-0.04254150390625
1789223986357743400,4.027743408203125,-1.7537689208984375,0.15313720703125,0.01318359375
1789223986367737300,4.0377373046875,-5.5760955810546875,-0.284210205078125,-0.545135498046875
1789223986377731300,4.0477314453125,-2.0952606201171875,-4.5923004150390625,-0.412445068359375
1789223986387724300,4.057724365234375,1.7365264892578125,1.137786865234375,0.357452392578125
1789223986397718300,4.06771826171875,1.8185882568359375,0.424407958984375,0.3499603271484375
1789223986407712300,4.077712158203125,-0.4977569580078125,-1.941864013671875,0.139862060546875
1789223986417705200,4.087705322265625,-2.3314971923828125,-0.9561920166015625,-0.1729736328125
1789223986427699200,4.09769921875,-2.0394287109375,-0.9851837158203125,-0.1131439208984375
1789223986437693400,4.107693359375,0.1202850341796875,0.7252960205078125,0.3926239013671875
1789223986447686100,4.11768603515625,0.473846435546875,-1.2731781005859375,0.1208648681640625
1789223986457680100,4.12768017578125,-0.4495697021484375,-2.6147918701171875,-0.0603179931640625
1789223986467674400,4.13767431640625,-0.6540374755859375,1.5831298828125,0.096893310546875
1789223986477667300,4.147667236328125,-1.3616485595703125,-1.6109619140625,-0.4891204833984375
1789223986487661300,4.157661376953125,-0.98822021484375,-1.4868316650390625,-0.55413818359375
1789223986497655300,4.1676552734375,-0.000274658203125,1.2218017578125,-0.1396636962890625
1789223986507648300,4.177648193359375,-0.574066162109375,-2.2549896240234375,-0.1394805908203125
1789223986517642200,4.187642333984375,-0.7037200927734375,-0.6783294677734375,-0.1164398193359375
1789223986527636200,4.19763623046875,-0.590423583984375,-0.2923126220703125,-0.07470703125
1789223986537629400,4.20762939453125,-0.9505767822265625,-0.727813720703125,0.022552490234375
1789223986547623400,4.21762353515625,-0.633056640625,0.351409912109375,-0.079833984375
1789223986557617200,4.2276171875,-0.075103759765625,-1.40826416015625,0.0270233154296875
1789223986567610400,4.2376103515625,-0.2315673828125,0.2379913330078125,0.1152801513671875
1789223986577604400,4.247604248046875,-1.775238037109375,-0.8210601806640625,-0.4374237060546875
1789223986587597300,4.257597412109375,-2.5843353271484375,-1.9224853515625,-0.2894134521484375
1789223986597591300,4.26759130859375,-0.613311767578125,0.52227783203125,-0.053497314453125
1789223986607585300,4.277585205078125,-0.073699951171875,-1.3354034423828125,-0.357818603515625
1789223986617578200,4.287578125,-0.5794525146484375,-1.086883544921875,-0.339935302734375
1789223986627572200,4.297572265625,-0.9529571533203125,0.3958587646484375,-0.11883544921875
1789223986637566200,4.307566162109375,-1.3415069580078125,-1.73004150390625,-0.1754913330078125
1789223986647559400,4.317559326171875,-0.3498687744140625,0.0592498779296875,0.027984619140625
1789223986657553200,4.32755322265625,0.667388916015625,-0.3286590576171875,0.183685302734375
1789223986667547100,4.337547119140625,0.5538330078125,-0.8310546875,0.2014312744140625
1789223986677540400,4.347540283203125,-0.802398681640625,0.7639312744140625,0.0801849365234375
1789223986687534300,4.357534423828125,-2.0626678466796875,-2.331695556640625,-0.2071685791015625
1789223986697528300,4.3675283203125,-1.5572509765625,-0.741729736328125,0.069610595703125
1789223986707521500,4.377521484375,-0.2767486572265625,0.8785400390625,-0.0609588623046875
1789223986717515500,4.387515625,-0.88055419921875,-2.03302001953125,0.0225982666015625
1789223986727509500,4.397509521484375,-1.5495452880859375,0.0988616943359375,0.5998992919921875
1789223986737502500,4.40750244140625,-1.3507537841796875,-0.0705718994140625,0.346435546875
1789223986747496400,4.417496337890625,-0.468170166015625,-1.9445037841796875,0.158355712890625
1789223986757490400,4.427490478515625,0.5372161865234375,0.696746826171875,0.6923370361328125
1789223986767483400,4.4374833984375,-0.12554931640625,-0.80126953125,0.5057525634765625
1789223986777477400,4.447477294921875,-1.2889404296875,-1.740142822265625,-0.0330352783203125
1789223986787471400,4.457471435546875,-1.7624053955078125,0.6063690185546875,-0.0874176025390625
1789223986797464300,4.46746435546875,-1.7951507568359375,-2.263916015625,0.05718994140625
1789223986807458300,4.477458251953125,0.1479339599609375,-0.460052490234375,0.4427642822265625
1789223986817452500,4.48745263671875,1.6417388916015625,2.0902099609375,0.3544464111328125
1789223986827445200,4.4974453125,-0.1389007568359375,-1.3386688232421875,0.101043701171875
1789223986837439200,4.507439208984375,-2.7690887451171875,-2.1007080078125,0.4125518798828125
1789223986847433200,4.51743310546875,-2.652099609375,-0.897613525390625,0.2561492919921875
1789223986857426400,4.527426513671875,-0.0635528564453125,-0.837554931640625,0.0503692626953125
1789223986867420400,4.53742041015625,1.2447662353515625,1.29510498046875,0.120147705078125
1789223986877414400,4.547414306640625,-0.1554718017578125,-1.856414794921875,0.4889678955078125
1789223986887407400,4.557407470703125,-1.558990478515625,-0.771270751953125,0.6379241943359375
1789223986897401300,4.5674013671875,-1.387359619140625,0.487548828125,-0.2071685791015625
1789223986907395300,4.577395263671875,-0.7966156005859375,-1.8683929443359375,-0.139617919921875
1789223986917388500,4.587388427734375,-0.5797882080078125,1.6712799072265625,0.320892333984375
1789223986927382500,4.597382568359375,-1.41986083984375,-1.939483642578125,0.213226318359375
1789223986937376500,4.60737646484375,-0.8682708740234375,-2.40771484375,0.2454071044921875
1789223986947369200,4.617369140625,-0.0429229736328125,3.1948089599609375,0.021087646484375
1789223986957363500,4.627363525390625,-1.3388824462890625,-2.4521026611328125,-0.2483673095703125
1789223986967357400,4.637357421875,-1.6814117431640625,-2.2110595703125,0.372344970703125
1789223986977350400,4.647350341796875,-0.36328125,1.4872894287109375,0.490020751953125
1789223986987344400,4.657344482421875,0.7165985107421875,-1.97698974609375,-0.0442657470703125
1789223986997338400,4.66733837890625,0.5736236572265625,0.79901123046875,0.06243896484375
1789223987007331300,4.677331298828125,-1.6079864501953125,-0.8829803466796875,0.20269775390625
1789223987017325300,4.6873251953125,-2.4679107666015625,-2.86614990234375,0.139251708984375
1789223987027319600,4.697319580078125,-0.878448486328125,1.3878631591796875,0.0839080810546875
1789223987037312300,4.707312255859375,-0.0405120849609375,-1.987884521484375,-0.09112548828125
1789223987047306200,4.71730615234375,0.0802459716796875,-0.4816741943359375,0.3482818603515625
1789223987057300200,4.72730029296875,-0.9921417236328125,0.580474853515625,0.590545654296875
1789223987067293400,4.73729345703125,-1.791656494140625,-2.7883758544921875,0.1614837646484375
1789223987077287400,4.747287353515625,-0.91461181640625,1.3121337890625,0.0937957763671875
1789223987087281400,4.757281494140625,-0.8541259765625,-1.0727996826171875,0.0318603515625
1789223987097274400,4.7672744140625,-0.412353515625,-2.3759613037109375,0.2073974609375
1789223987107268400,4.777268310546875,-0.0365753173828125,1.8538818359375,0.4322967529296875
1789223987117261300,4.78726123046875,-1.034515380859375,-1.892608642578125,0.0152587890625
1789223987127255600,4.797255615234375,-1.157958984375,-1.557464599609375,-0.1158599853515625
1789223987137249500,4.80724951171875,-0.729461669921875,-0.0222930908203125,0.2877197265625
1789223987147243500,4.817243408203125,-0.2717742919921875,-1.2207489013671875,0.1640472412109375
1789223987157236200,4.827236328125,-0.184722900390625,0.7666473388671875,0.10382080078125
1789223987167230500,4.83723046875,-1.159271240234375,-1.8221588134765625,0.176727294921875
1789223987177223400,4.847223388671875,-1.26239013671875,-0.6899261474609375,0.1902313232421875
1789223987187217400,4.857217529296875,-0.973114013671875,0.5855865478515625,0.16168212890625
1789223987197211400,4.86721142578125,-0.40374755859375,-2.0761260986328125,-0.01043701171875
1789223987207204400,4.877204345703125,0.3571929931640625,0.5046539306640625,0.150970458984375
1789223987217198300,4.8871982421875,-0.5610809326171875,-0.7937164306640625,0.13482666015625
1789223987227192300,4.8971923828125,-1.6908111572265625,-1.651763916015625,-0.0712127685546875
1789223987237185500,4.907185546875,-1.70831298828125,0.2047576904296875,0.000762939453125
1789223987247179300,4.91717919921875,-0.65142822265625,-1.597259521484375,-0.085418701171875
1789223987257173200,4.92717333984375,0.2311248779296875,0.086517333984375,0.122314453125
1789223987267166500,4.93716650390625,-0.618133544921875,-0.272979736328125,0.2352447509765625
1789223987277160400,4.947160400390625,-1.353057861328125,-1.91827392578125,-0.0987091064453125
1789223987287154400,4.957154541015625,-0.6132659912109375,0.41632080078125,-0.0001373291015625
1789223987297147400,4.9671474609375,-0.4382171630859375,-1.01715087890625,0.14794921875
1789223987307141400,4.977141357421875,-1.222137451171875,-1.1129608154296875,0.098846435546875
1789223987317135400,4.98713525390625,-1.28924560546875,-1.400360107421875,0.0581817626953125
1789223987327128300,4.99712841796875,0.3255462646484375,-0.55328369140625,0.08013916015625
1789223987337122600,5.00712255859375,0.6324462890625,0.526947021484375,0.0259857177734375
1789223987347116500,5.017116455078125,-1.5228118896484375,-2.2447662353515625,-0.30120849609375
1789223987357109200,5.027109130859375,-2.685516357421875,-0.6960906982421875,-0.3729400634765625
1789223987367103200,5.037103271484375,-1.516387939453125,-0.7025146484375,-0.5264739990234375
1789223987377097500,5.047097412109375,0.2854766845703125,-1.2199859619140625,-0.6242523193359375
1789223987387090400,5.05709033203125,0.628692626953125,0.423858642578125,-0.1754150390625
1789223987397084400,5.06708447265625,-1.085052490234375,-1.0330810546875,-0.1714019775390625
1789223987407078100,5.077078125,-1.936767578125,-0.187225341796875,-0.3904876708984375
1789223987417071400,5.0870712890625,-1.5244140625,-1.0291595458984375,-0.265106201171875
1789223987427065300,5.0970654296875,-0.4078521728515625,-0.7160491943359375,-0.0276031494140625
1789223987437059300,5.107059326171875,0.3302459716796875,0.7270050048828125,0.2415771484375
1789223987447052500,5.117052490234375,-0.7823333740234375,-0.9205169677734375,0.0187835693359375
1789223987457046300,5.12704638671875,-1.78302001953125,-0.769317626953125,-0.170135498046875
1789223987467040300,5.137040283203125,-1.5880279541015625,0.116241455078125,0.24468994140625
1789223987477033500,5.147033447265625,-1.0173492431640625,-1.9383392333984375,0.23138427734375
1789223987487027500,5.15702734375,0.186309814453125,-0.25115966796875,0.180572509765625
1789223987497021400,5.167021484375,0.1348114013671875,0.4299774169921875,0.3162384033203125
1789223987507014400,5.177014404296875,-0.1272430419921875,-1.32647705078125,0.3098602294921875
1789223987517008400,5.18700830078125,0.1169891357421875,0.1539306640625,0.30352783203125
1789223987527002400,5.19700244140625,-1.57598876953125,-1.2724456787109375,0.1112518310546875
1789223987536995300,5.206995361328125,-2.5062255859375,-0.8075408935546875,0.0175628662109375
1789223987546989600,5.216989501953125,-1.8724365234375,-0.255401611328125,0.063995361328125
1789223987556983600,5.226983642578125,-0.7236480712890625,-2.8080902099609375,-0.14739990234375
1789223987566976300,5.236976318359375,0.915283203125,0.4853363037109375,0.1147613525390625
1789223987576970200,5.24697021484375,-0.4067230224609375,0.268035888671875,-0.054351806640625
1789223987586964500,5.256964599609375,-1.6308441162109375,-2.151580810546875,-0.640167236328125
1789223987596957400,5.26695751953125,-1.113525390625,-0.96832275390625,-0.2446441650390625
1789223987606951400,5.276951416015625,-0.1828460693359375,-1.124908447265625,0.2572784423828125
1789223987616945200,5.286945068359375,0.7964324951171875,0.9184722900390625,0.2347869873046875
1789223987626938400,5.2969384765625,0.25823974609375,-1.4417266845703125,-0.138214111328125
1789223987636932400,5.306932373046875,-1.0574951171875,-1.6470184326171875,-0.25225830078125
1789223987646926300,5.31692626953125,-1.4066162109375,1.6382293701171875,-0.1275787353515625
1789223987656919600,5.32691943359375,-1.26641845703125,-1.866058349609375,-0.407501220703125
1789223987666913300,5.336913330078125,-0.7489166259765625,-1.6358642578125,-0.5603179931640625
1789223987676907300,5.3469072265625,-0.646331787109375,0.81939697265625,-0.244476318359375
1789223987686900500,5.356900390625,-1.3885040283203125,-0.6191253662109375,-0.1829986572265625
1789223987696894700,5.366894775390625,-1.10284423828125,-0.937744140625,-0.245758056640625
1789223987706888700,5.376888671875,0.2356109619140625,-1.1786651611328125,-0.0235137939453125
1789223987716881700,5.386881591796875,0.127166748046875,0.6446380615234375,0.1165313720703125
1789223987726876000,5.3968759765625,-1.776092529296875,-0.5422515869140625,0.0418701171875
1789223987736870000,5.406869873046875,-2.589569091796875,-3.156951904296875,-0.1128387451171875
1789223987746862600,5.416862548828125,-0.03753662109375,0.749298095703125,-0.01837158203125
1789223987756856600,5.426856689453125,1.3170928955078125,0.878265380859375,0.1363677978515625
1789223987766850800,5.436850830078125,-0.5268096923828125,-2.08990478515625,-0.129913330078125
1789223987776843800,5.44684375,-2.6551513671875,-0.533111572265625,-0.214935302734375
1789223987786837800,5.456837646484375,-3.3522491455078125,-1.5825347900390625,-0.0785369873046875
1789223987796831700,5.466831787109375,0.0587005615234375,-1.0739288330078125,0.09423828125
1789223987806824700,5.47682470703125,2.6244354248046875,1.04449462890625,0.4696197509765625
1789223987816818700,5.486818603515625,0.8050994873046875,-0.858856201171875,0.2989959716796875
1789223987826812700,5.496812744140625,-3.572540283203125,-0.6131439208984375,0.192840576171875
1789223987836806000,5.506805908203125,-3.8462066650390625,-2.51690673828125,0.026214599609375
1789223987846800000,5.5167998046875,0.8480072021484375,-1.123687744140625,0.2803955078125
1789223987856793600,5.526793701171875,3.1320343017578125,2.0341949462890625,0.6201171875
1789223987866786800,5.536786865234375,1.8892059326171875,-0.381134033203125,0.1601715087890625
1789223987876780800,5.54678076171875,-3.214569091796875,-0.934112548828125,-0.5357513427734375
1789223987886774800,5.55677490234375,-6.7394561767578125,-1.413543701171875,-1.042999267578125
1789223987896767700,5.566767822265625,0.2103729248046875,-2.1788330078125,-0.39923095703125
1789223987906761700,5.57676171875,2.531341552734375,1.0879058837890625,0.5824432373046875
1789223987916755700,5.586755615234375,1.900665283203125,0.97662353515625,0.5473480224609375
1789223987926748700,5.596748779296875,-0.5556640625,-1.6272735595703125,-0.17974853515625
1789223987936742700,5.60674267578125,-3.6797332763671875,-0.8711090087890625,-0.462127685546875
1789223987946737000,5.61673681640625,-2.28192138671875,-1.15582275390625,-0.210601806640625
1789223987956729600,5.6267294921875,1.0536346435546875,-0.301971435546875,0.5107269287109375
1789223987966723600,5.6367236328125,1.60552978515625,0.84881591796875,0.6086578369140625
1789223987976717800,5.6467177734375,0.0123291015625,-1.376495361328125,-0.084686279296875
1789223987986710800,5.656710693359375,-2.122650146484375,-0.7013092041015625,-0.2171173095703125
1789223987996704800,5.666704833984375,-2.981231689453125,-0.5301055908203125,0.14202880859375
1789223988006698800,5.67669873046875,-1.5841064453125,-1.8997955322265625,0.1887054443359375
1789223988016691700,5.686691650390625,0.9920501708984375,0.8055419921875,-0.035400390625
1789223988026685700,5.696685791015625,2.214691162109375,-0.1795501708984375,-0.1054229736328125
1789223988036679700,5.7066796875,2.21185302734375,-0.00933837890625,0.1519012451171875
1789223988046673000,5.7166728515625,0.426666259765625,0.382232666015625,-0.0043792724609375
1789223988056667000,5.7266669921875,-4.7225494384765625,-2.09625244140625,-0.3423614501953125
1789223988066660600,5.73666064453125,-5.57427978515625,-2.531890869140625,-0.72186279296875
1789223988076654600,5.746654541015625,0.488067626953125,-3.255950927734375,-0.130767822265625
1789223988086647800,5.756647705078125,3.476776123046875,-0.0935516357421875,0.5749969482421875
1789223988096641800,5.766641845703125,4.4353790283203125,3.2870330810546875,1.0864715576171875
1789223988106634800,5.776634765625,1.74334716796875,-0.848114013671875,0.1082305908203125
1789223988116628700,5.786628662109375,-18.697982788085938,-4.7012939453125,-1.21282958984375
1789223988126622700,5.796622802734375,-4.58367919921875,-1.8725738525390625,-0.8873748779296875
1789223988136616700,5.80661669921875,4.0153656005859375,-2.5489349365234375,0.17486572265625
1789223988146609700,5.816609619140625,1.1942596435546875,-1.420013427734375,0.629241943359375
1789223988156604000,5.82660400390625,3.74090576171875,1.759490966796875,0.9266204833984375
1789223988166598000,5.836597900390625,5.6308441162109375,3.7356719970703125,0.4158172607421875
1789223988176590600,5.846590576171875,3.5327301025390625,1.744171142578125,0.0080108642578125
1789223988186584800,5.856584716796875,-1.24444580078125,-2.484619140625,-0.091644287109375
1789223988196578800,5.866578857421875,-6.0006256103515625,-1.7633514404296875,0.2826995849609375
1789223988206571800,5.87657177734375,-12.406600952148438,-3.781707763671875,-0.0441436767578125
1789223988216565800,5.886565673828125,-0.986083984375,-1.6978302001953125,0.4085540771484375
1789223988226559700,5.896559814453125,2.9180908203125,1.349365234375,-0.116363525390625
1789223988236552700,5.906552734375,2.3964385986328125,1.7075347900390625,-0.137786865234375
1789223988246546700,5.916546630859375,-0.9307403564453125,0.2004852294921875,-0.9726104736328125
1789223988256540700,5.926540771484375,-8.208587646484375,-1.735992431640625,-1.2343902587890625
1789223988266534000,5.936533935546875,0.48583984375,-0.6485137939453125,-0.315765380859375
1789223988276527600,5.946527587890625,3.2395172119140625,1.812835693359375,1.033233642578125
1789223988286521600,5.956521484375,2.074615478515625,0.5797576904296875,1.5648956298828125
1789223988296514800,5.966514892578125,-0.1172332763671875,-1.649871826171875,1.3069610595703125
1789223988306508800,5.9765087890625,-1.2566070556640625,-0.9824371337890625,0.3237457275390625
1789223988316502800,5.986502685546875,-1.85205078125,-1.387969970703125,-0.235198974609375
1789223988326495700,5.996495849609375,-1.8265838623046875,-1.8343353271484375,0.223541259765625
1789223988336489700,6.00648974609375,-0.522796630859375,1.2591094970703125,0.2126007080078125
1789223988346483700,6.016483642578125,-0.166778564453125,0.457672119140625,-0.3642578125
1789223988356476700,6.0264765625,-1.146240234375,-0.373992919921875,-0.3880767822265625
1789223988366471000,6.036470947265625,-2.7391510009765625,-0.416107177734375,-0.22576904296875
1789223988376465000,6.04646484375,-2.088470458984375,-5.158660888671875,0.1503448486328125
1789223988386457600,6.05645751953125,0.2445831298828125,-2.722015380859375,1.1320343017578125
1789223988396451600,6.06645166015625,0.179046630859375,5.6873016357421875,0.9361724853515625
1789223988406445800,6.07644580078125,0.5710906982421875,1.349029541015625,-0.3587646484375
1789223988416438800,6.086438720703125,0.422393798828125,-5.2467498779296875,0.3487091064453125
1789223988426432800,6.096432861328125,0.1896514892578125,0.333709716796875,0.741546630859375
1789223988436426800,6.1064267578125,-1.703216552734375,3.217010498046875,-0.1912078857421875
1789223988446419700,6.116419677734375,-4.0015411376953125,-4.672149658203125,-0.7542572021484375
1789223988456413700,6.12641357421875,-1.69561767578125,-4.2820281982421875,0.023773193359375
1789223988466407700,6.13640771484375,1.52276611328125,2.7681884765625,0.80120849609375
1789223988476401000,6.14640087890625,0.649658203125,2.673065185546875,0.4769744873046875
1789223988486394600,6.15639453125,-0.57281494140625,-3.5756072998046875,-0.36871337890625
1789223988496388600,6.166388671875,-0.200225830078125,-0.9414825439453125,0.237335205078125
1789223988506381800,6.1763818359375,-1.11737060546875,2.678070068359375,0.8889312744140625
1789223988516375800,6.186375732421875,-3.4775238037109375,-2.9525299072265625,0.0434722900390625
1789223988526369800,6.196369873046875,-3.4587860107421875,-1.9508514404296875,-0.0891876220703125
1789223988536362800,6.20636279296875,-0.4431915283203125,1.9998931884765625,0.25286865234375
1789223988546356700,6.216356689453125,0.3493804931640625,-1.56353759765625,-0.2019195556640625
1789223988556350700,6.226350830078125,-0.216339111328125,-1.72418212890625,-0.4031524658203125
1789223988566343700,6.23634375,-0.92138671875,0.779327392578125,-0.401214599609375
1789223988576338000,6.246337890625,-1.2078857421875,-1.139862060546875,-0.411895751953125
1789223988586332000,6.256331787109375,-0.218597412109375,-2.01318359375,0.14447021484375
1789223988596324600,6.26632470703125,0.85858154296875,-0.17926025390625,0.4766082763671875
1789223988606318600,6.276318603515625,-0.0875091552734375,-0.2190093994140625,0.2640838623046875
1789223988616312800,6.286312744140625,-1.8619537353515625,-1.869903564453125,0.1678924560546875
1789223988626305800,6.296305908203125,-1.5550689697265625,-0.610198974609375,0.3304443359375
1789223988636299800,6.3062998046875,0.2259063720703125,0.1859588623046875,0.25775146484375
1789223988646293800,6.316293701171875,0.9592742919921875,-0.779510498046875,0.031951904296875
1789223988656287700,6.326287841796875,-0.2411041259765625,-0.271026611328125,-0.1515960693359375
1789223988666280700,6.33628076171875,-2.2408905029296875,-0.5868377685546875,-0.3694305419921875
1789223988676274700,6.346274658203125,-2.5578155517578125,-1.605499267578125,-0.3553009033203125
1789223988686269000,6.35626904296875,-0.7646026611328125,-0.9277801513671875,-0.0323638916015625
1789223988696261000,6.36626123046875,0.4962005615234375,-0.568115234375,0.1419677734375
1789223988706255000,6.376255126953125,0.1257781982421875,-0.8044281005859375,0.1918182373046875
1789223988716249300,6.386249267578125,-0.624359130859375,-0.5706329345703125,0.316253662109375
1789223988726242000,6.396241943359375,-0.6674652099609375,-0.0664215087890625,0.2310333251953125
1789223988736236000,6.406236083984375,-0.7866058349609375,-0.645751953125,0.01702880859375
1789223988746230000,6.41622998046875,-1.2964630126953125,-1.1450347900390625,-0.077362060546875
1789223988756223200,6.42622314453125,-1.2590789794921875,-0.7503204345703125,-0.120758056640625
1789223988766217200,6.43621728515625,-0.9594879150390625,-0.2564544677734375,-0.1143035888671875
1789223988776211200,6.446211181640625,-1.687530517578125,-0.91168212890625,0.0438995361328125
1789223988786204200,6.4562041015625,-1.6923675537109375,-0.988067626953125,0.2006072998046875
1789223988796198100,6.4661982421875,-0.3206329345703125,-0.27325439453125,0.0989227294921875
1789223988806192000,6.476192138671875,1.0130462646484375,-0.4857177734375,0.065765380859375
1789223988816185300,6.486185302734375,0.78564453125,0.01715087890625,0.2022552490234375
1789223988826179300,6.496179443359375,-1.1493072509765625,-0.7166595458984375,0.1371612548828125
1789223988836173000,6.506173095703125,-2.3036956787109375,-1.70513916015625,-0.202423095703125
1789223988846166000,6.516166015625,-1.2763214111328125,-0.4183502197265625,-0.1925201416015625
1789223988856160300,6.52616015625,-0.257598876953125,-0.6738739013671875,0.0839080810546875
1789223988866154200,6.536154296875,-0.24737548828125,-1.0527191162109375,0.1331634521484375
1789223988876147200,6.546147216796875,-1.044036865234375,0.250396728515625,0.09417724609375
1789223988886141200,6.55614111328125,-2.215423583984375,-0.984649658203125,-0.0720062255859375
1789223988896135200,6.56613525390625,-1.85052490234375,-1.2537384033203125,-0.13311767578125
1789223988906128100,6.576128173828125,-0.4969635009765625,0.1458587646484375,0.060821533203125
1789223988916122000,6.5861220703125,0.584686279296875,-1.1161041259765625,-0.050994873046875
1789223988926116400,6.596116455078125,0.9098052978515625,-1.394989013671875,-0.1942291259765625
1789223988936109000,6.606109130859375,0.0151824951171875,-0.313934326171875,-0.0146331787109375
1789223988946103000,6.61610302734375,-1.4036102294921875,-0.925384521484375,-0.056488037109375
1789223988956097000,6.626096923828125,-1.411285400390625,-1.2546234130859375,-0.247894287109375
1789223988966090200,6.63609033203125,-0.4329986572265625,-0.6744384765625,-0.114044189453125
1789223988976084200,6.646084228515625,0.4044952392578125,-0.9716644287109375,-0.143524169921875
1789223988986078200,6.656078125,-0.17169189453125,-0.8504638671875,-0.3511199951171875
1789223988996072200,6.666072265625,-2.13671875,-0.6028900146484375,-0.341522216796875
1789223989006065200,6.676065185546875,-2.69464111328125,-1.1303253173828125,-0.349334716796875
1789223989016059100,6.68605908203125,-0.3682098388671875,-1.17724609375,-0.6022491455078125
1789223989026053000,6.69605322265625,1.4106903076171875,-0.38287353515625,-0.47186279296875
1789223989036046300,6.70604638671875,0.10772705078125,-0.542388916015625,-0.156829833984375
1789223989046040000,6.7160400390625,-2.738189697265625,-1.4705352783203125,-0.3238677978515625
1789223989056034000,6.726033935546875,-2.4745330810546875,-1.516204833984375,-0.643402099609375
1789223989066027300,6.73602734375,-0.118682861328125,-0.751312255859375,-0.295074462890625
1789223989076021200,6.746021240234375,0.6551513671875,-0.9362640380859375,-0.0821685791015625
1789223989086015200,6.75601513671875,-0.8328857421875,-0.774749755859375,-0.516326904296875
1789223989096008000,6.766008056640625,-3.311767578125,-0.8530426025390625,-1.0372467041015625
1789223989106002200,6.776002197265625,-2.616912841796875,-1.259368896484375,-1.0845489501953125
1789223989115996200,6.78599609375,0.2686920166015625,0.1941986083984375,-0.616241455078125
1789223989125989000,6.795989013671875,1.4040374755859375,-0.3374176025390625,-0.276214599609375
1789223989135983000,6.805983154296875,0.55224609375,-0.8187713623046875,-0.2801513671875
1789223989145977300,6.815977294921875,-1.4516754150390625,-0.634765625,-0.4327545166015625
1789223989155970000,6.825969970703125,-1.9139862060546875,-0.756317138671875,-0.3673858642578125
1789223989165964000,6.835964111328125,0.1902313232421875,-0.3683013916015625,-0.066497802734375
1789223989175958300,6.845958251953125,1.2037506103515625,-0.1932220458984375,0.416046142578125
1789223989185951200,6.855951171875,0.46063232421875,0.077301025390625,0.4239959716796875
1789223989195945200,6.8659453125,-0.666595458984375,-0.055206298828125,0.0496063232421875
1789223989205939000,6.87593896484375,-1.4720611572265625,-0.226959228515625,-0.002105712890625
1789223989215932200,6.88593212890625,-1.999176025390625,-0.574737548828125,0.24884033203125
1789223989225926100,6.895926025390625,-1.8053436279296875,-0.5991058349609375,0.24658203125
1789223989235920100,6.905920166015625,-0.9265289306640625,-0.1664886474609375,0.157196044921875
1789223989245913300,6.915913330078125,-0.413299560546875,0.041473388671875,0.23760986328125
1789223989255907000,6.925906982421875,-1.1419525146484375,-0.449005126953125,0.4105682373046875
1789223989265901000,6.935901123046875,-1.9329986572265625,-0.886474609375,0.5060577392578125
1789223989275894300,6.945894287109375,-1.277862548828125,-0.806060791015625,0.5361175537109375
1789223989285888300,6.95588818359375,0.5609130859375,-0.7184600830078125,0.5335845947265625
1789223989295882200,6.96588232421875,1.305511474609375,-0.0885772705078125,0.4890289306640625
1789223989305876200,6.975876220703125,-1.04107666015625,-0.55584716796875,0.2164154052734375
1789223989315869200,6.985869140625,-3.96502685546875,-1.8252716064453125,0.093963623046875
1789223989325863200,6.99586328125,-1.879364013671875,-1.23468017578125,0.230926513671875
1789223989335857200,7.005857177734375,1.7777862548828125,0.1053466796875,0.545562744140625
1789223989345850000,7.01585009765625,2.3516387939453125,0.6429443359375,0.6327972412109375
1789223989355844400,7.02584423828125,-0.5911712646484375,-0.1358489990234375,0.575225830078125
1789223989365838300,7.03583837890625,-4.8079376220703125,-1.115509033203125,0.11767578125
1789223989375831000,7.0458310546875,-2.841339111328125,-0.9675445556640625,-0.0386199951171875
1789223989385825300,7.0558251953125,1.171112060546875,-0.063201904296875,0.4474029541015625
1789223989395819300,7.0658193359375,1.803680419921875,0.3529815673828125,0.4845733642578125
1789223989405812200,7.075812255859375,-0.0770721435546875,-0.7750396728515625,-0.04327392578125
1789223989415806000,7.085805908203125,-2.4907073974609375,-0.64251708984375,-0.234375
1789223989425800200,7.09580029296875,-2.0577850341796875,-0.752288818359375,-0.23980712890625
1789223989435793200,7.105793212890625,0.353607177734375,-1.81298828125,-0.1922454833984375
1789223989445787100,7.115787109375,0.3958587646484375,-0.8928375244140625,0.108917236328125
1789223989455781000,7.125781005859375,-1.974822998046875,-0.6703948974609375,-0.0065155029296875
1789223989465774000,7.135774169921875,-2.66845703125,-1.1543426513671875,0.0837249755859375
1789223989475768000,7.14576806640625,0.5267181396484375,-0.05694580078125,0.369873046875
1789223989485762000,7.155761962890625,2.391387939453125,-0.331268310546875,0.3904266357421875
1789223989495755300,7.16575537109375,0.317535400390625,-1.358795166015625,0.60736083984375
1789223989505749200,7.175749267578125,-3.857757568359375,-1.0780487060546875,0.6595001220703125
1789223989515743200,7.1857431640625,-3.413482666015625,-1.908782958984375,0.2744903564453125
1789223989525737200,7.1957373046875,1.5952301025390625,-0.9359893798828125,0.1830902099609375
1789223989535730200,7.205730224609375,3.086578369140625,0.7246246337890625,0.427978515625
1789223989545724200,7.21572412109375,0.8523101806640625,0.3896026611328125,0.3620758056640625
1789223989555718100,7.22571826171875,-3.98956298828125,-1.3745574951171875,-0.297576904296875
1789223989565711400,7.23571142578125,-2.4608001708984375,-1.7944488525390625,-0.6918487548828125
1789223989575705300,7.245705322265625,1.9480133056640625,0.58868408203125,-0.0226287841796875
1789223989585699000,7.255698974609375,0.56268310546875,-0.0987396240234375,0.5929412841796875
1789223989595692000,7.265692138671875,-3.83428955078125,-1.6238861083984375,0.1105804443359375
1789223989605686300,7.275686279296875,-3.1304779052734375,-0.0961761474609375,-0.621612548828125
1789223989615680300,7.28568017578125,1.42413330078125,0.5505218505859375,-0.2974395751953125
1789223989625673000,7.2956728515625,1.8658599853515625,-0.2853240966796875,0.305572509765625
1789223989635667200,7.305667236328125,-0.35284423828125,-0.69989013671875,0.0783233642578125
1789223989645661200,7.3156611328125,-5.1971435546875,-1.0713043212890625,-0.582244873046875
1789223989655654100,7.325654052734375,-2.20123291015625,-2.01287841796875,-0.6766815185546875
1789223989665648000,7.335648193359375,1.993194580078125,0.28265380859375,0.3506622314453125
1789223989675642400,7.345642333984375,2.2018280029296875,0.5078887939453125,0.5812225341796875
1789223989685635000,7.355635009765625,-0.01177978515625,-1.02691650390625,0.3905792236328125
1789223989695629600,7.365629638671875,-2.3415985107421875,-0.953277587890625,0.1195068359375
1789223989705623600,7.37562353515625,-2.52667236328125,-0.5142974853515625,0.138885498046875
1789223989715616800,7.38561669921875,-0.903839111328125,-1.4433135986328125,0.3799896240234375
1789223989725610800,7.39561083984375,-0.424224853515625,-0.4939727783203125,0.6029510498046875
1789223989735604700,7.405604736328125,-1.1815338134765625,-0.32037353515625,0.320953369140625
1789223989745597700,7.41559765625,-1.4290924072265625,-0.96917724609375,-0.1334686279296875
1789223989755591700,7.425591796875,-0.322967529296875,-0.3601531982421875,-0.2468109130859375
1789223989765585700,7.435585693359375,0.09759521484375,0.22625732421875,-0.0951080322265625
1789223989775579600,7.44557958984375,-0.4975738525390625,-0.7425079345703125,-0.1938629150390625
1789223989785572900,7.45557275390625,-1.4004058837890625,-1.5583648681640625,-0.107574462890625
1789223989795566600,7.465566650390625,-1.4069061279296875,-0.6023712158203125,0.1942291259765625
1789223989805560600,7.475560546875,-0.4437408447265625,-1.1712188720703125,0.3160552978515625
1789223989815553800,7.4855537109375,0.5171356201171875,-1.4697723388671875,0.2380218505859375
1789223989825547800,7.4955478515625,0.19305419921875,0.513397216796875,0.0911865234375
1789223989835541800,7.505541748046875,-1.80206298828125,-0.10174560546875,-0.12518310546875
1789223989845534500,7.515534423828125,-2.9072723388671875,-1.912139892578125,-0.08807373046875
1789223989855528700,7.52552880859375,-0.95196533203125,-0.4817047119140625,0.059967041015625
1789223989865522700,7.535522705078125,1.31982421875,0.636383056640625,0.181915283203125
1789223989875515600,7.545515625,1.05810546875,-0.768341064453125,0.2925262451171875
1789223989885509600,7.555509521484375,-0.2363433837890625,-1.428436279296875,0.3726959228515625
1789223989895504000,7.56550390625,-0.8299560546875,0.12017822265625,0.564910888671875
1789223989905496600,7.57549658203125,-1.1909637451171875,-0.2504119873046875,0.4054412841796875
1789223989915490600,7.585490478515625,-2.1083831787109375,-1.6083984375,-0.0558319091796875
1789223989925484500,7.595484619140625,-2.788482666015625,-0.7547760009765625,0.1322479248046875
1789223989935477800,7.605477783203125,-1.7493133544921875,-0.12164306640625,0.563018798828125
1789223989945471700,7.6154716796875,0.0785980224609375,-0.627349853515625,0.31048583984375
1789223989955465500,7.625465576171875,1.03045654296875,0.222381591796875,-0.19683837890625
1789223989965459700,7.635459716796875,0.46319580078125,0.4426116943359375,-0.00482177734375
1789223989975452700,7.64545263671875,-1.15234375,-0.45013427734375,0.3897705078125
1789223989985446700,7.65544677734375,-2.6103515625,-1.875274658203125,0.327972412109375
1789223989995440600,7.665440673828125,-2.0810699462890625,-1.49658203125,0.1944427490234375
1789223990005433600,7.67543359375,-0.1173858642578125,-0.267242431640625,0.63525390625
1789223990015427600,7.685427490234375,0.224761962890625,-0.3827972412109375,0.9494171142578125
1789223990025421600,7.695421630859375,-1.1061248779296875,-0.9678802490234375,0.3961944580078125
1789223990035414800,7.705414794921875,-1.7103271484375,-0.2468414306640625,-0.18634033203125
1789223990045408800,7.71540869140625,-1.6132965087890625,-0.5044708251953125,-0.005645751953125
1789223990055402800,7.72540283203125,-1.0512542724609375,-0.95953369140625,-0.0542755126953125
1789223990065395700,7.735395751953125,-1.1815185546875,-0.7900848388671875,-0.1816253662109375
1789223990075389700,7.7453896484375,-1.1305694580078125,-1.586761474609375,0.1601409912109375
1789223990085383700,7.7553837890625,0.0030975341796875,-1.053466796875,0.3982086181640625
1789223990095376600,7.765376708984375,0.508544921875,-0.4850921630859375,0.2790679931640625
1789223990105371000,7.775370849609375,-0.415618896484375,-0.7343292236328125,-0.16827392578125
1789223990115364900,7.78536474609375,-1.5892486572265625,-1.2501678466796875,-0.4421234130859375
1789223990125357600,7.795357666015625,-1.818939208984375,-0.5513458251953125,-0.39154052734375
1789223990135351600,7.8053515625,-1.6741180419921875,-0.723236083984375,-0.7615509033203125
1789223990145345800,7.815345703125,-0.9378662109375,-1.62884521484375,-0.8882598876953125
1789223990155339800,7.82533984375,0.3584747314453125,-1.0317230224609375,-0.370635986328125
1789223990165332500,7.83533251953125,1.9570159912109375,0.2504730224609375,-0.2146148681640625
1789223990175326500,7.845326416015625,2.555328369140625,1.504608154296875,-0.451324462890625
1789223990185320700,7.85532080078125,-1.80120849609375,-0.355316162109375,-0.6580352783203125
1789223990195313700,7.865313720703125,-10.282424926757812,-4.83489990234375,-1.565826416015625
1789223990205307600,7.8753076171875,-1.5155487060546875,-2.183258056640625,-1.0332183837890625
1789223990215301600,7.885301513671875,1.328765869140625,1.6222381591796875,0.7922210693359375
1789223990225294600,7.895294677734375,0.3517303466796875,-0.957733154296875,0.6395416259765625
1789223990235288600,7.90528857421875,0.29290771484375,-1.2916412353515625,-0.6783447265625
1789223990245282600,7.915282470703125,0.4893951416015625,1.4642181396484375,-1.0401763916015625
1789223990255275800,7.92527587890625,1.6862335205078125,1.099884033203125,-0.232025146484375
1789223990265269800,7.935269775390625,2.347930908203125,0.4732818603515625,0.5106658935546875
1789223990275263700,7.945263671875,0.197052001953125,0.0739898681640625,0.231109619140625
1789223990285256700,7.955256591796875,-3.3426513671875,-2.6621856689453125,-0.3990478515625
1789223990295250700,7.965250732421875,-2.9788360595703125,-3.511199951171875,0.0125579833984375
1789223990305244700,7.97524462890625,-0.7267913818359375,-0.004150390625,0.8759002685546875
1789223990315238000,7.98523779296875,0.7931060791015625,0.2826690673828125,0.25897216796875
1789223990325231900,7.99523193359375,-0.4379425048828125,-0.4941558837890625,0.19378662109375
1789223990335225600,8.0052255859375,-3.659515380859375,0.7958831787109375,0.31982421875
1789223990345219600,8.015219482421875,-5.453887939453125,0.114593505859375,-0.040985107421875
1789223990355212800,8.025212890625,-1.7247161865234375,-0.9952392578125,-0.0617218017578125
1789223990365206800,8.035206787109376,-0.699676513671875,-0.7717132568359375,0.257843017578125
1789223990375200800,8.04520068359375,0.3456573486328125,-0.9521484375,0.0352783203125
1789223990385193500,8.055193359375,0.3466796875,-0.29681396484375,-0.5366668701171875
1789223990395187700,8.065187744140625,-1.3240509033203125,-0.47998046875,-0.9321746826171875
1789223990405181700,8.075181640625,-4.5468902587890625,-2.278839111328125,-0.5363311767578125
1789223990415174700,8.085174560546875,-1.7054290771484375,-1.4947052001953125,-0.1648406982421875
1789223990425168600,8.095168701171875,1.491607666015625,0.911651611328125,0.1547698974609375
1789223990435163000,8.105162841796876,0.9852752685546875,-1.770263671875,0.378753662109375
1789223990445155600,8.115155517578126,1.6847381591796875,-1.6909637451171875,0.548858642578125
1789223990455149600,8.125149658203124,4.1368865966796875,2.2696533203125,0.6886444091796875
1789223990465143800,8.135143798828125,4.410797119140625,1.6049652099609375,0.16650390625
1789223990475136800,8.14513671875,-6.8098297119140625,-4.2277069091796875,-0.4570159912109375
1789223990485130800,8.155130859375,-12.982742309570312,-7.8701629638671875,-2.5245819091796875
1789223990495124500,8.16512451171875,3.965301513671875,-1.95123291015625,-0.9046783447265625
1789223990505118700,8.17511865234375,4.8223724365234375,3.17559814453125,0.8738555908203125
1789223990515111700,8.185111572265624,4.004913330078125,2.7987060546875,1.68157958984375
1789223990525105700,8.195105712890625,3.3685760498046875,-0.105072021484375,0.0073089599609375
1789223990535099600,8.205099609375,0.80963134765625,1.7270355224609375,-1.65460205078125
1789223990545092600,8.215092529296875,-8.305923461914062,0.058441162109375,-1.220672607421875
1789223990555086600,8.225086669921875,-5.744110107421875,-0.9805145263671875,0.6755218505859375
1789223990565080600,8.23508056640625,-8.528457641601562,1.0768280029296875,1.7472076416015625
1789223990575073800,8.24507373046875,-2.293304443359375,-4.7743377685546875,-0.062255859375
1789223990585067800,8.25506787109375,2.5449981689453125,-4.062286376953125,-0.60986328125
1789223990595061800,8.265061767578125,4.743377685546875,1.7165069580078125,0.6905517578125
1789223990605054700,8.2750546875,7.9019012451171875,5.674468994140625,0.4974365234375
1789223990615048700,8.285048583984375,5.1005096435546875,1.106170654296875,-1.0615386962890625
1789223990625042700,8.295042724609376,-1.195526123046875,-4.6334228515625,-1.8004608154296875
1789223990635035600,8.30503564453125,-8.180084228515625,-1.7834014892578125,-1.1342620849609375
1789223990645030000,8.31502978515625,-4.6003875732421875,-3.30145263671875,-0.746734619140625
1789223990655023600,8.325023681640625,-2.155914306640625,-4.2582855224609375,1.6875152587890625
1789223990665017600,8.335017578125,2.1610107421875,-0.5519256591796875,0.6538543701171875
1789223990675010600,8.345010498046875,5.85406494140625,3.7296905517578125,-0.2070159912109375
1789223990685004800,8.3550048828125,-0.0755157470703125,3.132537841796875,-1.065338134765625
1789223990694999000,8.3649990234375,-20.715133666992188,-3.4073333740234375,-2.4073028564453125
1789223990704991700,8.37499169921875,2.6890106201171875,2.768218994140625,-1.4267578125
1789223990714985700,8.38498583984375,4.953765869140625,0.637298583984375,0.6242828369140625
1789223990724980000,8.39497998046875,1.069549560546875,-2.6356964111328125,2.2003631591796875
1789223990734973000,8.404972900390625,1.167266845703125,-1.2357940673828125,2.235107421875
1789223990744967000,8.414966796875,1.1204376220703125,0.3639373779296875,0.421875
1789223990754961000,8.4249609375,-0.9528350830078125,-2.7820587158203125,-0.4782867431640625
1789223990764953900,8.434953857421876,-0.751068115234375,-1.7549285888671875,-0.714508056640625
1789223990774947800,8.44494775390625,0.5982208251953125,1.0372161865234375,-0.5877838134765625
1789223990784941800,8.45494189453125,0.6758270263671875,0.3749237060546875,-0.430389404296875
1789223990794935000,8.46493505859375,-0.8620147705078125,-0.18121337890625,-0.5616302490234375
1789223990804929000,8.474928955078125,-4.1204986572265625,0.424835205078125,-0.4163818359375
1789223990814922800,8.4849228515625,-3.9763641357421875,0.0946044921875,-0.035369873046875
1789223990824916700,8.494916748046874,-0.4835357666015625,-1.5917816162109375,0.1167449951171875
1789223990834910000,8.504909912109374,0.0791015625,-0.80328369140625,0.296417236328125
1789223990844904000,8.514904052734375,-0.53814697265625,0.0228271484375,0.5319061279296875
1789223990854898000,8.52489794921875,-1.197265625,-1.0930023193359375,0.08538818359375
1789223990864891000,8.534890869140625,-0.1249847412109375,-1.2881317138671875,-0.020050048828125
1789223990874884900,8.544884765625,1.5778656005859375,-0.4737548828125,0.83831787109375
1789223990884878800,8.55487890625,1.5602264404296875,-0.5754241943359375,1.4256439208984375
1789223990894872000,8.5648720703125,0.384490966796875,-0.94732666015625,0.7742919921875
1789223990904866000,8.574865966796875,-0.5197906494140625,-0.947998046875,-0.0915374755859375
1789223990914860000,8.584860107421875,-0.2923431396484375,-1.43988037109375,-0.2309722900390625
1789223990924852700,8.594852783203125,0.504241943359375,-1.13409423828125,-0.079437255859375
1789223990934847000,8.604846923828125,0.84820556640625,0.6545257568359375,0.007476806640625
1789223990944841000,8.614841064453126,-3.101043701171875,2.095794677734375,-0.5890655517578125
1789223990954835000,8.6248349609375,-10.65032958984375,-2.1104888916015625,-1.319610595703125
1789223990964828000,8.634827880859374,-0.0586700439453125,-0.803924560546875,-0.210540771484375
1789223990974822000,8.64482177734375,1.94720458984375,0.4391021728515625,0.9442138671875
1789223990984815900,8.65481591796875,0.248138427734375,0.2163238525390625,0.749420166015625
1789223990994808800,8.664808837890625,-3.5486602783203125,-1.7041778564453125,-0.2171783447265625
1789223991004802800,8.674802734375,-3.7011566162109375,-2.1644134521484375,-0.116455078125
1789223991014797000,8.684797119140624,1.23321533203125,-0.098419189453125,0.571136474609375
1789223991024789800,8.694789794921874,2.8482666015625,0.36761474609375,0.8083953857421875
1789223991034783700,8.70478369140625,2.8725433349609375,0.1230621337890625,0.2981109619140625
1789223991044778000,8.714778076171875,1.2818756103515625,0.51055908203125,-0.0446319580078125
1789223991054771000,8.72477099609375,-2.9138336181640625,0.4000396728515625,0.28424072265625
1789223991064765000,8.734764892578125,-2.488525390625,-1.995086669921875,0.3885040283203125
1789223991074759000,8.744759033203126,-0.725799560546875,-0.5075531005859375,1.085601806640625
1789223991084752000,8.754751953125,-2.48779296875,0.8917999267578125,1.6333770751953125
1789223991094745900,8.764745849609374,-4.902313232421875,-1.4891357421875,1.6444549560546875
1789223991104739800,8.77473974609375,-0.2288665771484375,-0.3769378662109375,0.565155029296875
1789223991114733800,8.78473388671875,2.2115325927734375,1.111236572265625,-0.16400146484375
1789223991124727000,8.79472705078125,-0.5033111572265625,0.075836181640625,-0.260009765625
1789223991134721000,8.804720947265626,-4.5764923095703125,-3.41650390625,-0.7317047119140625
1789223991144714800,8.81471484375,-1.2569427490234375,-2.47296142578125,-0.777496337890625
1789223991154708000,8.8247080078125,2.6080474853515625,0.477020263671875,0.1945037841796875
1789223991164702000,8.834701904296875,3.3467559814453125,0.366241455078125,0.2647705078125
1789223991174696000,8.844696044921875,1.1038360595703125,-0.6806793212890625,-0.073577880859375
1789223991184689000,8.85468896484375,-1.8878326416015625,-0.974456787109375,0.0374298095703125
1789223991194683000,8.864682861328125,-2.6646575927734375,-1.5421600341796875,0.2628326416015625
1789223991204676900,8.8746767578125,-0.8487091064453125,-1.3238372802734375,0.330535888671875
1789223991214669800,8.884669921875,-0.1433563232421875,0.6905517578125,0.56610107421875
1789223991224664000,8.8946640625,-1.6826934814453125,-0.5897216796875,0.98455810546875
1789223991234658000,8.904657958984375,-2.0212554931640625,-2.190460205078125,0.761810302734375
1789223991244652000,8.914652099609375,0.0357666015625,1.0286712646484375,-0.1106719970703125
1789223991254645000,8.92464501953125,0.06622314453125,0.820709228515625,-0.4095306396484375
1789223991264639000,8.934638916015626,-1.3855133056640625,-2.0195770263671875,-0.3522186279296875
1789223991274633000,8.944633056640624,-1.193939208984375,-1.24859619140625,-0.3201141357421875
1789223991284626000,8.9546259765625,0.536651611328125,0.4713592529296875,-0.3699188232421875
1789223991294620200,8.9646201171875,0.76409912109375,-0.8827056884765625,-0.281280517578125
1789223991304614000,8.97461376953125,-1.54644775390625,-1.766387939453125,0.19354248046875
1789223991314606800,8.98460693359375,-3.6674346923828125,-0.576202392578125,0.4973907470703125
1789223991324600800,8.994600830078125,-1.6817169189453125,-0.20782470703125,0.1768951416015625
1789223991334595000,9.004594970703126,0.2992706298828125,-0.279571533203125,0.37762451171875
1789223991344588000,9.014588134765624,0.4518585205078125,-0.2343597412109375,0.7757720947265625
1789223991354581800,9.024581787109375,-0.97320556640625,-0.393218994140625,0.62255859375
1789223991364575700,9.03457568359375,-2.102783203125,-1.459228515625,0.1263580322265625
1789223991374570000,9.044570068359375,-0.8825531005859375,-1.08929443359375,-0.0915069580078125
1789223991384563000,9.05456298828125,0.53369140625,-0.304107666015625,0.018341064453125
1789223991394557000,9.064556884765626,0.239837646484375,-0.799163818359375,0.0628509521484375
1789223991404551000,9.074551025390624,-0.40911865234375,-1.006378173828125,-0.082489013671875
1789223991414544000,9.0845439453125,-0.7506256103515625,-0.3726043701171875,-0.1155853271484375
1789223991424537900,9.094537841796875,-1.6336517333984375,-1.21221923828125,0.101470947265625
1789223991434531800,9.10453173828125,-1.8897247314453125,-1.685882568359375,0.3871612548828125
1789223991444525000,9.114525146484375,-0.351470947265625,-0.30078125,0.29302978515625
1789223991454519000,9.12451904296875,0.9221954345703125,-0.3364410400390625,0.1747589111328125
1789223991464512800,9.1345126953125,-0.092376708984375,-0.69256591796875,0.1184844970703125
1789223991474506000,9.144506103515624,-1.67852783203125,-1.1771697998046875,-0.2905731201171875
1789223991484500000,9.1545,-2.563934326171875,-0.6718292236328125,-0.5749969482421875
1789223991494494000,9.164493896484375,-1.9866485595703125,-1.0914154052734375,-0.3255157470703125
1789223991504488000,9.174488037109375,-0.47454833984375,-1.8224639892578125,0.1737060546875
1789223991514481000,9.18448095703125,1.6921539306640625,-0.163330078125,0.281402587890625
1789223991524475000,9.194474853515626,2.3215179443359375,1.279510498046875,0.2704620361328125
1789223991534468900,9.20446875,0.157745361328125,-0.195404052734375,0.052337646484375
1789223991544462000,9.214462158203125,-2.5671844482421875,-1.89910888671875,-0.29742431640625
1789223991554456000,9.2244560546875,-2.4244384765625,-0.193115234375,-0.463592529296875
1789223991564450000,9.234449951171875,-0.695465087890625,-0.034820556640625,-0.3536224365234375
1789223991574442800,9.24444287109375,-0.3521728515625,-1.3381805419921875,0.2640838623046875
1789223991584437000,9.25443701171875,-0.109649658203125,-0.1224212646484375,0.4874267578125
1789223991594431000,9.264430908203124,-2.0635223388671875,-0.475128173828125,0.31195068359375
1789223991604425000,9.274425048828125,-6.8018341064453125,-2.0663299560546875,0.2544403076171875
1789223991614418000,9.28441796875,-2.81793212890625,-0.5295257568359375,-0.195404052734375
1789223991624412000,9.294411865234375,1.5594024658203125,-0.7062225341796875,-0.482025146484375
1789223991634406000,9.304406005859375,2.0858154296875,-0.2290191650390625,0.0223846435546875
1789223991644398800,9.31439892578125,1.4836578369140625,-0.1759033203125,0.0207672119140625
1789223991654392800,9.324392822265626,0.7078094482421875,-1.1044921875,-0.3464202880859375
1789223991664387000,9.334386962890624,0.4459686279296875,-0.4700927734375,-0.8621063232421875
1789223991674379800,9.3443798828125,0.4804840087890625,-1.5297088623046875,-0.7218017578125
1789223991684373800,9.354373779296875,1.408599853515625,-1.715545654296875,-0.2234954833984375
1789223991694367700,9.36436767578125,2.2128448486328125,0.28753662109375,-0.5148162841796875
1789223991704360700,9.374360595703125,-2.466827392578125,0.398040771484375,-0.4813385009765625
1789223991714354700,9.384354736328126,-11.072006225585938,-3.8391876220703125,-0.26141357421875
1789223991724348700,9.3943486328125,-1.3604888916015625,-2.74578857421875,-0.0336151123046875
1789223991734343000,9.404343017578125,3.13848876953125,0.4680023193359375,-0.9255523681640625
1789223991744335600,9.414335693359375,2.0153961181640625,1.4783477783203125,-0.9004974365234375
1789223991754329600,9.42432958984375,-2.3751678466796875,-0.8740081787109375,-1.1077117919921875
1789223991764323600,9.434323486328125,-4.7253570556640625,-1.1291656494140625,-1.5930023193359375
1789223991774316800,9.44431689453125,1.679840087890625,1.047088623046875,-0.8451080322265625
1789223991784310800,9.454310791015626,2.76806640625,-0.3538818359375,0.2205047607421875
1789223991794304800,9.4643046875,0.4725189208984375,-2.0184783935546875,0.0886383056640625
1789223991804297700,9.474297607421875,-2.7212982177734375,-1.004913330078125,-0.415863037109375
1789223991814291700,9.484291748046875,-1.7177276611328125,-0.307586669921875,-1.33343505859375
1789223991824285700,9.49428564453125,0.46905517578125,-0.8892669677734375,-1.39849853515625
1789223991834279000,9.50427880859375,0.0224609375,0.072265625,-0.830413818359375
1789223991844273000,9.51427294921875,-1.7519378662109375,-0.3520965576171875,-0.92144775390625
1789223991854266600,9.5242666015625,-3.2952728271484375,-1.2501220703125,-1.0231475830078125
1789223991864260600,9.534260498046875,-1.4682159423828125,0.1675567626953125,-0.30670166015625
1789223991874253800,9.54425390625,0.4936981201171875,-0.0419921875,0.5626678466796875
1789223991884247800,9.554247802734375,0.54730224609375,-0.32037353515625,1.238677978515625
1789223991894241800,9.56424169921875,-1.0491943359375,0.26055908203125,1.1806488037109375
1789223991904234800,9.57423486328125,-2.5071868896484375,0.08135986328125,0.9005126953125
1789223991914228700,9.584228759765624,-0.3852386474609375,-0.8482208251953125,0.9163360595703125
1789223991924222700,9.59422265625,2.1755218505859375,-0.5186920166015625,0.8218536376953125
1789223991934215700,9.604215576171875,2.02630615234375,-0.1637420654296875,0.6824493408203125
1789223991944210000,9.6142099609375,-1.1434326171875,-0.682403564453125,0.2776336669921875
1789223991954204000,9.624203857421875,-4.3634033203125,-2.532501220703125,-0.5340118408203125
1789223991964196600,9.634196533203125,-2.811798095703125,-1.9910430908203125,-0.300140380859375
1789223991974190600,9.644190673828126,-1.0991973876953125,0.2688751220703125,0.3559722900390625
1789223991984184800,9.654184814453124,-1.3444366455078125,0.34710693359375,0.8122406005859375
1789223991994178800,9.6641787109375,-1.2701873779296875,0.4915924072265625,0.7657318115234375
1789223992004171800,9.674171875,-1.232879638671875,-1.5975189208984375,0.5848236083984375
1789223992014165800,9.684165771484375,-0.198577880859375,-0.348663330078125,0.27069091796875
1789223992024159700,9.69415966796875,1.2425994873046875,1.715301513671875,-0.1961669921875
1789223992034152700,9.704152587890626,1.7304534912109375,-0.5890960693359375,-0.150482177734375
1789223992044146700,9.714146728515624,1.6284027099609375,-1.04364013671875,0.1045379638671875
1789223992054141000,9.724140869140625,-1.2375640869140625,-0.1678009033203125,-0.5823211669921875
1789223992064133600,9.734133544921875,-8.28900146484375,-4.1383209228515625,-1.454620361328125
1789223992074127600,9.744127685546875,-4.05853271484375,-4.48974609375,0.2037811279296875
1789223992084121600,9.75412158203125,2.804840087890625,0.7219696044921875,0.8664398193359375
1789223992094115800,9.76411572265625,4.3037109375,1.7122955322265625,0.322540283203125
1789223992104108800,9.77410888671875,2.3554840087890625,0.8673095703125,-0.083099365234375
1789223992114102800,9.784102783203124,-10.873489379882812,-2.72369384765625,-0.8099212646484375
1789223992124096800,9.7940966796875,-4.869293212890625,0.0724334716796875,-0.9891357421875
1789223992134089700,9.80408984375,4.8105621337890625,1.6428680419921875,0.65350341796875
1789223992144083700,9.814083740234375,2.639495849609375,-0.127410888671875,1.8411712646484375
1789223992154077700,9.82407763671875,0.966156005859375,-1.7706146240234375,1.553314208984375
1789223992164071000,9.83407080078125,-0.293487548828125,-1.962738037109375,0.065277099609375
1789223992174065000,9.84406494140625,0.1255645751953125,-1.0053558349609375,-0.1862030029296875
1789223992184058600,9.85405859375,0.39068603515625,-0.5472412109375,0.569244384765625
1789223992194052600,9.864052490234375,-2.508758544921875,0.262237548828125,0.4420318603515625
1789223992204045800,9.8740458984375,-3.837982177734375,-0.5202789306640625,-0.7237548828125
1789223992214039800,9.884039794921875,-1.3146820068359375,-1.0577850341796875,-0.3318023681640625
1789223992224033800,9.89403369140625,1.2911376953125,-0.764617919921875,0.68780517578125
1789223992234026800,9.90402685546875,2.1382598876953125,-0.139251708984375,0.7857513427734375
1789223992244020700,9.914020751953124,-0.4261932373046875,-0.5124359130859375,0.30224609375
1789223992254014700,9.9240146484375,-7.4794921875,-2.1047821044921875,0.063262939453125
1789223992264007700,9.934007568359375,-2.5193634033203125,-1.4235992431640625,0.62103271484375
1789223992274002000,9.944001953125,2.95208740234375,0.746337890625,1.031890869140625
1789223992283996000,9.953995849609376,2.0519866943359375,0.7689208984375,1.0250091552734375
1789223992293989600,9.96398974609375,-1.09893798828125,-0.231842041015625,0.77734375
1789223992303982800,9.97398291015625,-3.6165924072265625,-0.8087921142578125,0.9517669677734375
1789223992313976800,9.983976806640625,-2.4257659912109375,-1.699981689453125,0.83447265625
1789223992323970800,9.993970703125,-0.4772491455078125,-0.5592041015625,0.28125
1789223992333963800,10.0039638671875,-0.4095916748046875,0.79534912109375,-0.118133544921875
1789223992343957800,10.013957763671876,-1.517608642578125,-0.2021942138671875,-0.353607177734375
1789223992353951700,10.02395166015625,-1.213348388671875,-0.970062255859375,-0.260711669921875
1789223992363944700,10.03394482421875,0.3207855224609375,0.8282012939453125,0.050018310546875
1789223992373938700,10.043938720703125,0.4660186767578125,0.1844329833984375,0.2925872802734375
1789223992383933000,10.053932861328125,-0.2523040771484375,-1.7380218505859375,0.545867919921875
1789223992393927000,10.063927001953125,0.1334991455078125,-0.531890869140625,0.684234619140625
1789223992403919600,10.073919677734375,0.7745361328125,0.319183349609375,0.5560455322265625
1789223992413913600,10.08391357421875,-0.1215057373046875,-0.7578582763671875,0.4412689208984375
1789223992423907800,10.093907958984374,-2.0971221923828125,-0.3399810791015625,0.3468017578125
1789223992433900800,10.10390087890625,-3.2548828125,0.283447265625,0.128936767578125
1789223992443894800,10.113894775390625,-2.1077423095703125,-0.448089599609375,-0.124298095703125
1789223992453888800,10.123888671875,-0.1208038330078125,-0.8452606201171875,-0.3531951904296875
1789223992463881700,10.1338818359375,0.955322265625,-0.413177490234375,-0.514404296875
1789223992473875700,10.143875732421876,0.064178466796875,-0.8663482666015625,-0.390289306640625
1789223992483869700,10.15386962890625,-1.638702392578125,-2.564544677734375,-0.3236083984375
1789223992493864000,10.163864013671875,-2.1130218505859375,-2.372894287109375,-0.0327606201171875
1789223992503856600,10.173856689453125,-0.1937408447265625,-0.3759765625,0.3748626708984375
1789223992513850600,10.1838505859375,1.6683197021484375,-0.0502471923828125,0.645416259765625
1789223992523844600,10.1938447265625,1.8944549560546875,-0.7489776611328125,0.46820068359375
1789223992533837800,10.203837890625,0.934967041015625,-0.59100341796875,0.15484619140625
1789223992543831800,10.213831787109376,-0.9688262939453125,-0.29412841796875,0.0856170654296875
1789223992553825800,10.22382568359375,-3.0866241455078125,-1.4446868896484375,0.0509185791015625
1789223992563818800,10.23381884765625,-3.5257568359375,-1.6113739013671875,0.0827178955078125
1789223992573812700,10.243812744140625,-1.4660491943359375,0.357940673828125,0.13616943359375
1789223992583806700,10.253806640625,0.724700927734375,-0.3462371826171875,-0.1700286865234375
1789223992593800700,10.26380078125,1.6372222900390625,-0.54730224609375,-0.2881622314453125
1789223992603794000,10.2737939453125,0.1124420166015625,0.5274505615234375,-0.15924072265625
1789223992613787600,10.28378759765625,-3.7557525634765625,-0.55462646484375,-0.396148681640625
1789223992623781600,10.29378173828125,-3.8605804443359375,-2.2292327880859375,-0.815643310546875
1789223992633774800,10.30377490234375,-0.3613739013671875,-0.790679931640625,-0.2091522216796875
1789223992643768800,10.313768798828125,1.1691436767578125,-0.126129150390625,0.5059356689453125
1789223992653762800,10.3237626953125,0.9867095947265625,-0.3709259033203125,0.38079833984375
1789223992663755800,10.333755859375,-0.512481689453125,-0.164642333984375,-0.3965301513671875
1789223992673749800,10.343749755859376,-1.851287841796875,-0.0707244873046875,-0.9366455078125
1789223992683743700,10.35374365234375,-1.563568115234375,0.143829345703125,-0.761322021484375
1789223992693737700,10.36373779296875,-0.71142578125,-0.0372314453125,-0.4200286865234375
1789223992703730400,10.37373046875,-1.2946014404296875,-0.7976531982421875,-0.1049041748046875
1789223992713724400,10.383724365234375,-2.8217926025390625,-1.3089447021484375,0.46038818359375
1789223992723718100,10.39371826171875,-2.1825714111328125,-0.815155029296875,0.565155029296875
1789223992733711400,10.40371142578125,0.0902099609375,-0.75177001953125,-0.187744140625
1789223992743705300,10.413705322265624,0.7631988525390625,-1.0334014892578125,-0.6749725341796875
1789223992753699300,10.42369921875,-0.7563018798828125,0.030548095703125,-0.423248291015625
1789223992763692000,10.433692138671875,-2.2125244140625,0.2166595458984375,-0.255096435546875
1789223992773686300,10.443686279296875,-0.461029052734375,-1.115509033203125,-0.442047119140625
1789223992783680300,10.45368017578125,-0.1230926513671875,-0.7517547607421875,0.265533447265625
1789223992793674200,10.46367431640625,-0.7035064697265625,-0.7448577880859375,0.9474945068359375
1789223992803667200,10.473667236328126,-1.3124237060546875,-0.713226318359375,1.009674072265625
1789223992813661400,10.483661376953124,-1.4413604736328125,-0.880828857421875,0.2817230224609375
1789223992823655400,10.493655517578125,-0.9494476318359375,-1.6961517333984375,-0.5356292724609375
1789223992833648000,10.503648193359375,0.1539764404296875,-0.8378448486328125,-0.40087890625
1789223992843642000,10.51364208984375,1.229736328125,0.9776153564453125,0.0628204345703125
1789223992853636400,10.52363623046875,1.2177276611328125,0.380859375,-0.1497802734375
1789223992863629300,10.53362939453125,0.410247802734375,-1.41790771484375,-0.5212860107421875
1789223992873623300,10.543623291015624,-0.213470458984375,-0.9210968017578125,-0.2328338623046875
1789223992883617300,10.5536171875,-0.3251800537109375,-0.03948974609375,0.1756591796875
1789223992893611300,10.563611328125,-1.640228271484375,-1.146392822265625,0.1631011962890625
1789223992903604200,10.573604248046875,-6.3585052490234375,-2.1102294921875,0.2813720703125
1789223992913598200,10.58359814453125,-4.3891448974609375,-0.22149658203125,0.2615203857421875
1789223992923592400,10.593592529296876,0.1786651611328125,0.0869140625,-0.02764892578125
1789223992933585200,10.603585205078126,0.8975677490234375,-0.3098297119140625,-0.2835540771484375
1789223992943579100,10.6135791015625,0.1328277587890625,-0.544219970703125,-0.6305389404296875
1789223992953573000,10.623572998046875,-1.34619140625,-0.592529296875,-0.8673095703125
1789223992963566300,10.63356640625,-0.870513916015625,-0.808746337890625,-0.8536529541015625
1789223992973560300,10.643560302734375,0.75189208984375,-1.313446044921875,-0.6212005615234375
1789223992983554300,10.65355419921875,0.780303955078125,-0.765411376953125,-0.1381378173828125
1789223992993548000,10.663548095703124,-0.6364288330078125,-0.484619140625,0.2591705322265625
1789223993003541200,10.673541259765624,-1.8621673583984375,-1.3876953125,0.4659881591796875
1789223993013535200,10.68353515625,-1.125640869140625,-1.189544677734375,0.4235687255859375
1789223993023529200,10.693529296875,0.640899658203125,-0.0959320068359375,0.0002593994140625
1789223993033522400,10.7035224609375,0.6376953125,-0.1788787841796875,-0.4127349853515625
1789223993043516200,10.71351611328125,-1.3464508056640625,-0.6645965576171875,-0.6370849609375
1789223993053510100,10.72351025390625,-2.2871246337890625,-1.079437255859375,-1.01409912109375
1789223993063504100,10.733504150390624,-1.4100494384765625,-0.277099609375,-1.081634521484375
1789223993073497300,10.743497314453125,-0.6946563720703125,-0.40789794921875,-0.769256591796875
1789223993083491300,10.7534912109375,-1.3247528076171875,-1.338897705078125,-0.315338134765625
1789223993093485300,10.7634853515625,-1.6910858154296875,-0.813262939453125,-0.1512298583984375
1789223993103478300,10.773478271484375,-0.406158447265625,-0.2796783447265625,-0.341644287109375
1789223993113472300,10.78347216796875,0.741546630859375,-0.150634765625,-0.27850341796875
1789223993123466200,10.79346630859375,0.5900115966796875,-0.1904144287109375,-0.250579833984375
1789223993133459500,10.80345947265625,-0.0526580810546875,-0.571136474609375,-0.5071258544921875
1789223993143453400,10.813453369140625,-1.596038818359375,-1.0040130615234375,-0.468505859375
1789223993153447200,10.823447265625,-2.88433837890625,-2.03350830078125,-0.157806396484375
1789223993163441200,10.833441162109375,-1.18499755859375,-1.65301513671875,0.2525634765625
1789223993173434400,10.843434326171876,0.716156005859375,0.625579833984375,0.066314697265625
1789223993183428400,10.853428466796874,0.528472900390625,-0.119873046875,-0.3231964111328125
1789223993193422300,10.86342236328125,-2.2913665771484375,-1.1439361572265625,-0.035491943359375
1789223993203415000,10.8734150390625,-3.24468994140625,-1.0509033203125,-0.1788177490234375
1789223993213409300,10.8834091796875,-0.038604736328125,-0.762847900390625,-0.5585784912109375
1789223993223403300,10.8934033203125,2.0194244384765625,-0.0160064697265625,-0.0911407470703125
1789223993233396200,10.903396240234375,1.4064483642578125,-0.5234375,0.5885009765625
1789223993243390200,10.91339013671875,-2.6253814697265625,-1.434326171875,0.786285400390625
1789223993253384400,10.923384521484374,-4.734649658203125,-1.8021087646484375,-0.06903076171875
1789223993263378200,10.933378173828125,-0.9329986572265625,-0.6287689208984375,-0.3240814208984375
1789223993273371100,10.94337109375,0.66748046875,0.004638671875,0.2449493408203125
1789223993283365400,10.953365478515625,0.5282440185546875,-0.610687255859375,0.2588348388671875
1789223993293359400,10.963359375,1.0628814697265625,0.2296142578125,-0.084075927734375
1789223993303352300,10.973352294921876,-0.2481536865234375,0.1653900146484375,-0.3451385498046875
1789223993313346000,10.983345947265626,-2.7011566162109375,-2.197906494140625,-0.286163330078125
1789223993323340300,10.99334033203125,-2.3989105224609375,-1.365753173828125,0.004669189453125
1789223993333334300,11.003334228515625,1.2841339111328125,0.8000030517578125,-0.0744781494140625
1789223993343327200,11.0133271484375,2.0540771484375,-0.1593780517578125,0.383392333984375
1789223993353321200,11.0233212890625,0.8541412353515625,-0.55877685546875,0.4918212890625
1789223993363315500,11.0333154296875,-2.585906982421875,0.10137939453125,0.3412933349609375
1789223993373308200,11.04330810546875,-3.4576263427734375,-2.227142333984375,-0.15765380859375
1789223993383302100,11.05330224609375,-0.383819580078125,-1.4510650634765625,0.1179046630859375
1789223993393296100,11.063296142578125,1.32196044921875,1.0890350341796875,0.206146240234375
1789223993403289300,11.073289306640625,-0.1732940673828125,-0.456512451171875,-0.256378173828125
1789223993413283300,11.083283447265625,-2.2904510498046875,-2.173797607421875,-0.7056427001953125
1789223993423277000,11.093277099609375,-2.1303863525390625,-0.8572540283203125,-0.5142059326171875
1789223993433271300,11.103271240234376,-0.6097869873046875,-0.2377471923828125,-0.03912353515625
1789223993443264300,11.11326416015625,0.3086395263671875,-0.867095947265625,0.3034820556640625
1789223993453258200,11.12325830078125,0.2051544189453125,-1.18829345703125,0.5489654541015625
1789223993463252200,11.133252197265625,-0.04351806640625,-0.773651123046875,0.620635986328125
1789223993473245200,11.1432451171875,-0.166473388671875,-0.372528076171875,0.6173095703125
1789223993483239200,11.1532392578125,-0.7905731201171875,-0.4536895751953125,0.2940216064453125
1789223993493233200,11.163233154296876,-1.494598388671875,-0.561279296875,-0.3723602294921875
1789223993503227100,11.17322705078125,-1.802001953125,-0.3856658935546875,-0.7609405517578125
1789223993513220400,11.183220458984374,-1.7640533447265625,-0.333099365234375,-0.8212432861328125
1789223993523214300,11.19321435546875,-1.4729766845703125,-0.5760040283203125,-0.76580810546875
1789223993533208300,11.203208251953125,-1.048736572265625,-0.6641693115234375,-0.5035858154296875
1789223993543201300,11.213201171875,-0.8668365478515625,-0.594451904296875,-0.013031005859375
1789223993553195300,11.2231953125,-0.456390380859375,-0.5425872802734375,0.386322021484375
1789223993563189200,11.233189208984374,0.056976318359375,-0.552215576171875,0.5128173828125
1789223993573182500,11.243182373046874,0.114410400390625,-0.9134979248046875,0.6203765869140625
1789223993583176400,11.253176513671875,-0.1895751953125,-0.822357177734375,0.7520599365234375
1789223993593170200,11.263170166015625,-0.632537841796875,-0.632904052734375,0.6863555908203125
1789223993603164200,11.2731640625,-0.7996673583984375,-0.8372344970703125,0.5498199462890625
1789223993613157400,11.283157470703125,-0.743682861328125,-0.2151031494140625,0.5442657470703125
1789223993623151400,11.2931513671875,-0.83526611328125,-0.2925872802734375,0.486602783203125
1789223993633145300,11.303145263671874,-0.879730224609375,-0.874237060546875,0.36260986328125
1789223993643138000,11.313137939453124,-0.9995574951171875,-0.0400238037109375,0.209014892578125
1789223993653132300,11.32313232421875,-1.7641143798828125,-0.2381439208984375,-0.093597412109375
1789223993663126300,11.333126220703125,-2.0905914306640625,-0.897705078125,-0.394134521484375
1789223993673119200,11.343119140625,-1.37713623046875,-0.4337921142578125,-0.5120849609375
1789223993683113200,11.35311328125,-0.48681640625,-0.520843505859375,-0.408905029296875
1789223993693107500,11.363107421875,-0.1459808349609375,-0.9332122802734375,-0.1189117431640625
1789223993703101700,11.373101806640625,-0.3272857666015625,-0.624908447265625,0.0440216064453125
1789223993713094400,11.383094482421875,-0.48583984375,-0.7158203125,-0.0237884521484375
1789223993723088400,11.39308837890625,-0.2182159423828125,-1.0014495849609375,0.1626434326171875
1789223993733082600,11.40308251953125,0.0709381103515625,-0.210540771484375,0.5375213623046875
1789223993743075600,11.41307568359375,-0.0213470458984375,-0.013092041015625,0.614654541015625
1789223993753069600,11.423069580078124,-0.3290252685546875,-0.5733184814453125,0.4810333251953125
1789223993763063600,11.4330634765625,-0.5966949462890625,-0.3814697265625,0.586456298828125
1789223993773057500,11.4430576171875,-1.4248046875,-0.126739501953125,0.6654815673828125
1789223993783050500,11.453050537109375,-2.3197174072265625,-1.008209228515625,0.5537872314453125
1789223993793044500,11.46304443359375,-1.21942138671875,-0.961334228515625,0.2148590087890625
1789223993803038700,11.473038818359376,0.8744354248046875,-0.3387603759765625,-0.035919189453125
1789223993813031400,11.483031494140626,1.9404296875,0.396240234375,0.1201019287109375
1789223993823025400,11.493025390625,1.3158721923828125,0.2930450439453125,0.265869140625
1789223993833019400,11.503019287109375,-1.6648712158203125,-1.024383544921875,-0.096221923828125
1789223993843013600,11.513013671875,-8.8934326171875,-3.3471221923828125,-1.085357666015625
1789223993853006600,11.523006591796875,-2.730224609375,-2.8455963134765625,-0.257080078125
1789223993863000600,11.53300048828125,2.466217041015625,0.49627685546875,0.672088623046875
1789223993872994600,11.54299462890625,3.06243896484375,0.6661834716796875,0.5823516845703125
1789223993882987500,11.552987548828124,2.54681396484375,0.5029296875,0.3148345947265625
1789223993892981500,11.5629814453125,-3.60858154296875,-1.90350341796875,-0.5051116943359375
1789223993902975500,11.5729755859375,-7.3802032470703125,-2.802703857421875,-1.1000518798828125
1789223993912968700,11.58296875,2.2285308837890625,0.439361572265625,0.0016326904296875
1789223993922962700,11.592962646484375,3.32049560546875,0.7841033935546875,0.7227020263671875
1789223993932956400,11.602956298828126,1.4341888427734375,-1.6578216552734375,0.1666717529296875
1789223993942950400,11.612950439453124,-3.2149505615234375,-2.235382080078125,-0.5149688720703125
1789223993952943600,11.622943603515624,-4.992462158203125,-1.5723114013671875,-0.4187164306640625
1789223993962937600,11.6329375,0.498565673828125,-1.530426025390625,0.29022216796875
1789223993972931600,11.642931640625,2.26312255859375,0.1656951904296875,0.5758209228515625
1789223993982924500,11.652924560546875,0.023651123046875,-0.06158447265625,0.22607421875
1789223993992918500,11.66291845703125,-4.1515655517578125,-1.8553466796875,-0.4051055908203125
1789223994002912500,11.67291259765625,-2.93023681640625,-0.811798095703125,-0.636810302734375
1789223994012906500,11.682906494140624,1.574127197265625,0.5986785888671875,-0.030059814453125
1789223994022899700,11.692899658203125,2.29913330078125,1.0146636962890625,0.3504180908203125
1789223994032893700,11.702893798828125,-0.34307861328125,-0.41876220703125,0.090179443359375
1789223994042887400,11.712887451171875,-4.490814208984375,-2.99456787109375,0.226959228515625
1789223994052880600,11.722880615234375,-2.6702880859375,-1.098876953125,0.769805908203125
1789223994062874600,11.73287451171875,0.40228271484375,1.1471710205078125,1.07598876953125
1789223994072868600,11.74286865234375,0.69256591796875,-1.087432861328125,0.7105712890625
1789223994082862600,11.752862548828125,-0.072265625,-0.6638031005859375,0.38897705078125
1789223994092855600,11.76285546875,-0.8365478515625,0.90325927734375,0.255157470703125
1789223994102849500,11.772849609375,-1.2470855712890625,-0.6750946044921875,-0.00994873046875
1789223994112843500,11.782843505859375,-0.7772064208984375,-1.5949859619140625,-0.0499114990234375
1789223994122836500,11.79283642578125,-1.0341644287109375,-0.531585693359375,0.156280517578125
1789223994132830700,11.802830810546874,-1.9947509765625,-1.21087646484375,0.4768218994140625
1789223994142824700,11.81282470703125,-1.4877471923828125,-1.8840179443359375,0.747650146484375
1789223994152818400,11.822818359375,0.733642578125,-0.3700408935546875,0.7355499267578125
1789223994162811400,11.832811279296875,1.4422760009765625,0.824951171875,0.7256927490234375
1789223994172805600,11.8428056640625,-0.2422027587890625,0.5726470947265625,0.5512237548828125
1789223994182799600,11.852799560546876,-1.605743408203125,-1.257080078125,0.3407745361328125
1789223994192792600,11.86279248046875,-0.293182373046875,0.0534210205078125,0.6812896728515625
1789223994202786600,11.87278662109375,1.695648193359375,1.143035888671875,0.867645263671875
1789223994212780500,11.882780517578125,0.9506988525390625,-0.8862457275390625,0.4315032958984375
1789223994222773500,11.8927734375,-7.109375,-1.7698516845703125,0.0603485107421875
1789223994232767500,11.902767578125,-7.52911376953125,-1.969024658203125,-0.1603546142578125
1789223994242761700,11.91276171875,2.73358154296875,-0.2851104736328125,-0.3233642578125
1789223994252755700,11.922755615234376,2.3983306884765625,0.813629150390625,0.1051788330078125
1789223994262748400,11.93274853515625,1.3869476318359375,0.3148040771484375,0.3074493408203125
1789223994272742400,11.942742431640625,-1.5018157958984375,-1.754852294921875,0.1100006103515625
1789223994282736600,11.952736572265625,-2.1758575439453125,-2.119232177734375,-0.068603515625
1789223994292729600,11.9627294921875,1.41485595703125,0.4876556396484375,0.4023590087890625
1789223994302723600,11.9727236328125,3.02703857421875,0.0764617919921875,0.8234405517578125
1789223994312717300,11.98271728515625,-0.76629638671875,-2.0190887451171875,1.0357666015625
1789223994322711600,11.992711669921874,-7.7574462890625,-0.917266845703125,0.7652130126953125
1789223994332704500,12.00270458984375,-2.6468353271484375,-1.36285400390625,0.189056396484375
1789223994342698500,12.012698486328125,2.428558349609375,-0.5349273681640625,0.1995086669921875
1789223994352692500,12.0226923828125,3.031768798828125,1.03662109375,0.2181549072265625
1789223994362685400,12.032685546875,2.155975341796875,0.9532623291015625,-0.2091522216796875
1789223994372679400,12.042679443359376,-5.026123046875,-1.4974212646484375,-0.8058929443359375
1789223994382673400,12.05267333984375,-7.227813720703125,-2.987091064453125,-0.988250732421875
1789223994392667600,12.062667724609375,0.8138427734375,-0.95526123046875,0.357757568359375
1789223994402660600,12.07266064453125,1.791107177734375,-0.1276702880859375,0.390838623046875
1789223994412654600,12.082654541015625,1.7166595458984375,-0.9300079345703125,0.02325439453125
1789223994422648300,12.0926484375,0.98712158203125,-0.0252227783203125,0.0549468994140625
1789223994432641500,12.1026416015625,-0.366546630859375,0.911407470703125,0.0953521728515625
1789223994442635500,12.112635498046876,-2.415496826171875,-0.5988006591796875,-0.1981353759765625
1789223994452629500,12.12262939453125,-4.207855224609375,-2.234649658203125,-0.2752532958984375
1789223994462623500,12.13262353515625,-3.848480224609375,-1.1907501220703125,0.698394775390625
1789223994472616400,12.142616455078125,0.4095306396484375,-1.155914306640625,0.07275390625
1789223994482610400,12.1526103515625,3.156036376953125,-0.2110748291015625,-0.9090118408203125
1789223994492604400,12.1626044921875,3.2372283935546875,1.0393829345703125,-0.4858551025390625
1789223994502597600,12.17259765625,-1.1075286865234375,0.4987945556640625,0.1170654296875
1789223994512591600,12.182591552734374,-10.879669189453125,-2.3165130615234375,-0.4551544189453125
1789223994522585600,12.192585693359375,-0.9565887451171875,-3.4484405517578125,0.54638671875
1789223994532579600,12.20257958984375,3.314697265625,0.407684326171875,1.3689117431640625
1789223994542572500,12.212572509765625,4.14886474609375,0.86767578125,0.3254547119140625
1789223994552566500,12.22256640625,2.405548095703125,0.354248046875,-0.052459716796875
1789223994562560500,12.232560546875,-5.43011474609375,-0.6026458740234375,-1.0535430908203125
1789223994572553700,12.2425537109375,-7.641571044921875,-3.5038604736328125,-2.5835418701171875
1789223994582547700,12.252547607421874,0.86932373046875,-0.9561614990234375,-0.6004791259765625
1789223994592541400,12.26254150390625,0.8628997802734375,-0.194671630859375,1.2172088623046875
1789223994602535400,12.272535400390625,2.0109710693359375,-0.9940948486328125,0.7693634033203125
1789223994612528600,12.282528564453125,1.734375,0.251434326171875,0.29412841796875
1789223994622522600,12.292522705078126,-0.6666107177734375,0.922637939453125,-0.4011688232421875
1789223994632516600,12.3025166015625,-7.3387451171875,-1.720062255859375,-0.42010498046875
1789223994642509600,12.312509521484374,-2.935699462890625,-2.745697021484375,-0.633148193359375
1789223994652503600,12.322503662109375,2.565399169921875,-0.3412933349609375,-0.335845947265625
1789223994662497500,12.33249755859375,2.9968109130859375,0.6678619384765625,0.154388427734375
1789223994672490500,12.342490478515625,2.6023406982421875,1.21002197265625,-0.1122589111328125
1789223994682484700,12.352484619140625,-0.379547119140625,0.83660888671875,-0.8729095458984375
1789223994692478700,12.362478759765626,-7.5388031005859375,-2.564971923828125,-1.26800537109375
1789223994702472400,12.372472412109374,-4.752105712890625,-4.2154388427734375,-0.7265472412109375
1789223994712465400,12.38246533203125,0.92840576171875,-0.91497802734375,0.6392364501953125
1789223994722459400,12.39245947265625,3.041717529296875,0.43023681640625,0.029449462890625
1789223994732453400,12.402453369140625,2.4639129638671875,0.5341339111328125,-0.2720184326171875
1789223994742446300,12.4124462890625,-2.06402587890625,0.052398681640625,-0.499267578125
1789223994752440600,12.422440673828126,-6.4362335205078125,-1.1162567138671875,-0.8805999755859375
1789223994762434600,12.4324345703125,-0.215972900390625,-1.42926025390625,-0.8672332763671875
1789223994772428300,12.44242822265625,1.774444580078125,-0.507476806640625,-0.019012451171875
1789223994782421200,12.452421142578125,1.166473388671875,-1.192413330078125,-0.0329132080078125
1789223994792415500,12.46241552734375,-0.72210693359375,-1.1637115478515625,-0.5512847900390625
1789223994802409500,12.472409423828125,-1.879547119140625,-0.9356536865234375,-1.28546142578125
1789223994812402400,12.48240234375,-1.456512451171875,0.5961456298828125,-1.2886199951171875
1789223994822396200,12.492396240234376,-0.2642974853515625,0.107879638671875,-0.82470703125
1789223994832390400,12.502390380859374,-0.5272064208984375,-2.0641021728515625,-0.14752197265625
1789223994842384400,12.51238427734375,-0.493804931640625,-1.1294708251953125,0.18450927734375
1789223994852377300,12.52237744140625,-1.34124755859375,-0.0681915283203125,0.10076904296875
1789223994862371300,12.532371337890625,-2.6007080078125,-2.5816192626953125,-0.219482421875
1789223994872365600,12.542365478515626,-1.7077789306640625,-2.16510009765625,-0.410888671875
1789223994882358300,12.552358154296876,-0.1038055419921875,0.2478485107421875,-0.4429931640625
1789223994892352300,12.562352294921874,1.525299072265625,0.5606536865234375,-0.7790069580078125
1789223994902346500,12.572346435546875,2.3014984130859375,0.1396636962890625,-0.5713043212890625
1789223994912340500,12.582340576171875,1.3253631591796875,0.1563568115234375,-0.264068603515625
1789223994922333400,12.59233349609375,-1.314453125,-1.352203369140625,-0.5845947265625
1789223994932327200,12.6023271484375,-2.816619873046875,-2.4774932861328125,-1.14483642578125
1789223994942321400,12.6123212890625,-3.1673126220703125,-0.7458953857421875,-0.377197265625
1789223994952314400,12.622314453125,-1.8944244384765625,-0.0040740966796875,0.5971221923828125
1789223994962308400,12.632308349609374,0.26397705078125,-0.8304595947265625,0.3721923828125
1789223994972302300,12.64230224609375,2.1652069091796875,0.3038787841796875,-0.0247955322265625
1789223994982296600,12.652296630859375,2.2367095947265625,1.0977935791015625,-0.0531005859375
1789223994992289300,12.662289306640625,-6.1316986083984375,-1.2376556396484375,-0.07037353515625
1789223995002283300,12.672283203125,-8.239578247070312,-2.90582275390625,-0.41748046875
1789223995012277200,12.68227734375,3.379791259765625,0.00341796875,0.2573699951171875
1789223995022270500,12.6922705078125,4.3521575927734375,1.3798828125,0.725128173828125
1789223995032264400,12.702264404296875,3.394561767578125,0.8057708740234375,1.191497802734375
1789223995042258200,12.712258056640625,-0.656097412109375,-0.640777587890625,0.4826812744140625
1789223995052252400,12.72225244140625,-8.033401489257812,-3.0168914794921875,-1.156768798828125
1789223995062245400,12.732245361328125,-2.1350860595703125,-2.1548614501953125,-0.5896453857421875
1789223995072239400,12.7422392578125,1.7380218505859375,1.12646484375,0.990570068359375
1789223995082233300,12.7522333984375,1.1961669921875,0.2386016845703125,1.022247314453125
1789223995092226300,12.762226318359374,-1.213775634765625,-0.4677734375,0.6736297607421875
1789223995102220300,12.77222021484375,-3.93389892578125,-0.7557373046875,0.5435943603515625
1789223995112214300,12.78221435546875,-2.57073974609375,-0.610748291015625,0.7101287841796875
1789223995122208300,12.792208251953125,0.1449127197265625,-0.366973876953125,0.5668487548828125
1789223995132201500,12.802201416015626,1.13623046875,0.1766204833984375,-0.00360107421875
1789223995142195500,12.812195556640624,0.17572021484375,-1.295318603515625,-0.0226287841796875
1789223995152189400,12.822189453125,-0.443084716796875,-1.2982635498046875,0.6282806396484375
1789223995162182400,12.832182373046875,0.3424072265625,0.1950836181640625,0.87725830078125
1789223995172176400,12.84217626953125,1.6378173828125,-0.58013916015625,0.527252197265625
1789223995182170400,12.85217041015625,2.166412353515625,-0.493621826171875,0.491668701171875
1789223995192164400,12.862164306640626,0.2191009521484375,0.6095733642578125,0.826263427734375
1789223995202157600,12.872157470703126,-9.780685424804688,-1.9623260498046875,0.23223876953125
1789223995212151300,12.8821513671875,-6.109588623046875,-2.08917236328125,0.1563262939453125
1789223995222145300,12.892145263671875,2.303314208984375,1.3687286376953125,0.674957275390625
1789223995232138500,12.902138427734375,1.5782012939453125,-0.003570556640625,0.3773651123046875
