time,seconds_elapsed,z,y,x
1789223982381523700,0.051523681640625,-7.2408479106009,-6.603824849304557,0.3605482260625809
1789223982391516700,0.0615166015625,-7.173974514767528,-6.6792158981144425,0.3042194589886814
1789223982401510700,0.0715107421875,-7.073568851688504,-6.7827949305325745,0.3587396057380363
1789223982411504600,0.081504638671875,-7.033131627359986,-6.8202809038400645,0.4349839103763923
1789223982421497600,0.09149755859375,-6.981267000088096,-6.870051773703098,0.4844438145941123
1789223982431491600,0.10149169921875,-6.884728533831239,-6.967998353192209,0.4667996925603598
1789223982441485600,0.111485595703125,-6.936910556489229,-6.923001273602247,0.3488716706637293
1789223982451478800,0.121478759765625,-7.106516597044467,-6.756206198814511,0.1466000352953095
1789223982461472800,0.13147265625,-7.151222584733366,-6.710393711188435,-0.031911968000861816
1789223982471466500,0.141466552734375,-7.218308162012696,-6.638222208946943,0.02063086220998084
1789223982481459700,0.151459716796875,-7.45817840988338,-6.365481957131624,0.16312816804433242
1789223982491453700,0.16145361328125,-7.540551572665572,-6.269789878571033,0.013905997234641108
1789223982501447700,0.17144775390625,-7.478947057145834,-6.342156611123681,-0.11304618640551344
1789223982511440600,0.181440673828125,-7.505148250851034,-6.31101153127551,-0.1194603094978258
1789223982521434600,0.1914345703125,-7.463132817420363,-6.360083312958478,-0.1461870705802459
1789223982531427600,0.201427490234375,-7.29705962716639,-6.5507859175562855,-0.10252290182816795
1789223982541421600,0.211421630859375,-7.3007713411659,-6.546528844633698,0.10994611063147894
1789223982551415800,0.221415771484375,-7.359179690992832,-6.479297721403837,0.17765463298158718
1789223982561408500,0.231408447265625,-7.2730802011638875,-6.577452975207567,0.0989987371568568
1789223982571402500,0.241402587890625,-7.274962946170568,-6.576102729642391,-0.013225506440480239
1789223982581396500,0.251396484375,-7.401942727920413,-6.430784742647409,-0.16323014884777365
1789223982591389700,0.2613896484375,-7.43210464195013,-6.393709103706478,-0.23386121671423316
1789223982601383700,0.2713837890625,-7.443844179582595,-6.382430753844976,-0.15537077711690217
1789223982611377700,0.281377685546875,-7.545641004759073,-6.26347353503108,-0.050870049576857125
1789223982621370600,0.29137060546875,-7.586380426904559,-6.2142527002662415,0.016706756701960694
1789223982631364600,0.301364501953125,-7.5113202174842355,-6.304397081571817,0.07093926616595127
1789223982641357600,0.311357666015625,-7.463719092875719,-6.360189111420512,0.10620695150261744
1789223982651351800,0.321351806640625,-7.437727158007025,-6.390804614436626,0.09066961075607687
1789223982661345800,0.331345703125,-7.357469964465499,-6.483465946999192,0.0518128696851898
1789223982671338500,0.34133837890625,-7.288681674921512,-6.560887040331959,0.016110995323985116
1789223982681332500,0.35133251953125,-7.28784639314115,-6.561834550315141,-0.003140275924504385
1789223982691327000,0.361326904296875,-7.296818804147839,-6.551794217815995,0.02854260801548371
1789223982701320000,0.37131982421875,-7.346003983077407,-6.495490731313824,0.12335437606060877
1789223982711314000,0.38131396484375,-7.447785026162863,-6.377179409188032,0.1801842975896783
1789223982721308000,0.391307861328125,-7.451076468923688,-6.375066362556815,0.10180711824162862
1789223982731300900,0.40130078125,-7.356207981705666,-6.4850950095057485,-0.011310920973832253
1789223982741294800,0.411294921875,-7.305242349100112,-6.541940347799659,-0.08265534072443842
1789223982751288800,0.421288818359375,-7.2322606995195144,-6.622757513311505,-0.06219855415644124
1789223982761282000,0.431281982421875,-7.108332706555724,-6.754755415484309,0.12357430242160335
1789223982771276000,0.441276123046875,-7.122486904114484,-6.73177552191317,0.3517932937314734
1789223982781268700,0.451268798828125,-7.196818799260258,-6.650936144569516,0.37580607401430605
1789223982791263000,0.461262939453125,-7.246655135574937,-6.601221388807892,0.2832890270269476
1789223982801257000,0.471257080078125,-7.353433256295323,-6.4866217806816096,0.1454395127491094
1789223982811250000,0.48125,-7.443982126748561,-6.3832502535343165,-0.10784124730671756
1789223982821243600,0.49124365234375,-7.477176540341973,-6.33628333517611,-0.3372400503851473
1789223982831238000,0.50123779296875,-7.530175724601746,-6.2705292987614865,-0.38379718236606564
1789223982841230800,0.51123095703125,-7.544376683911681,-6.25677783678472,-0.32481125184688714
1789223982851224800,0.521224853515625,-7.507341961503029,-6.304795140978694,-0.24444592175576835
1789223982861218800,0.53121875,-7.4672420063048595,-6.353916607022285,-0.19601410021046176
1789223982871211800,0.541211669921875,-7.413830734112858,-6.415465008440614,-0.21750329856611786
1789223982881205800,0.551205810546875,-7.363241533604264,-6.470289654561877,-0.2973498654801398
1789223982891199000,0.561198974609375,-7.339955935084819,-6.490630431801081,-0.40884186297990377
1789223982901193000,0.57119287109375,-7.348859957030415,-6.472413222587108,-0.5220358420919626
1789223982911187000,0.58118701171875,-7.387313314065337,-6.4204954038232565,-0.6125588474515825
1789223982921179600,0.5911796875,-7.440762580180167,-6.352092898726463,-0.6755426154352724
1789223982931174000,0.601173828125,-7.488381824967265,-6.293889716082811,-0.6938841086160391
1789223982941167900,0.61116796875,-7.502492767906189,-6.280840849417448,-0.6588031506236642
1789223982951160800,0.621160888671875,-7.480236512434482,-6.309851839846372,-0.6341992360472679
1789223982961154800,0.63115478515625,-7.455898774513602,-6.335082142692804,-0.6683437169071287
1789223982971149000,0.641149169921875,-7.432209855890274,-6.354430986285209,-0.7442042829249054
1789223982981141800,0.651141845703125,-7.39984020268321,-6.383201153695583,-0.8170049499154091
1789223982991135700,0.6611357421875,-7.393774034512043,-6.385654392066598,-0.852006559061259
1789223983001130000,0.6711298828125,-7.414999777892231,-6.361876041594147,-0.845392255488038
1789223983011123000,0.681123046875,-7.434452666381001,-6.341722311359644,-0.825745817188546
1789223983021117000,0.691116943359375,-7.446788416340946,-6.326981253823638,-0.8276679443575441
1789223983031110000,0.70110986328125,-7.459311213305592,-6.3101850173234935,-0.8429860711291431
1789223983041104000,0.711103759765625,-7.470454538610577,-6.297852189972996,-0.8365169481802731
1789223983051097900,0.721097900390625,-7.488362535744905,-6.28534985127449,-0.767588008056581
1789223983061091000,0.731091064453125,-7.5137804701179265,-6.267454713621735,-0.6576448474340141
1789223983071085000,0.7410849609375,-7.505191505470871,-6.28374650773108,-0.5974976545831189
1789223983081078800,0.751078857421875,-7.459386032107472,-6.337791401651502,-0.6002825725939125
1789223983091071700,0.76107177734375,-7.4264400403171775,-6.375923856168985,-0.6049453767731785
1789223983101066000,0.77106591796875,-7.4215984455049036,-6.382451212111115,-0.5954641394615173
1789223983111060000,0.78106005859375,-7.4123624151259655,-6.391672629442811,-0.6113863696061075
1789223983121053000,0.791052978515625,-7.420694774663448,-6.378616163992882,-0.6456992658354341
1789223983131046700,0.801046630859375,-7.454274388182163,-6.338501595747471,-0.653899450360611
1789223983141039900,0.811039794921875,-7.451130244937539,-6.346475058844685,-0.6109888216558843
1789223983151033900,0.821033935546875,-7.410095054715871,-6.402697296804189,-0.516089829701744
1789223983161027800,0.83102783203125,-7.369846630957722,-6.456618856605887,-0.40966253171302375
1789223983171021000,0.84102099609375,-7.31979343702197,-6.51707770922184,-0.3445349566336721
1789223983181014800,0.851014892578125,-7.264613401591777,-6.579136398249864,-0.3327632337646559
1789223983191008800,0.8610087890625,-7.241461658585071,-6.603534926447272,-0.35348237932957705
1789223983201002000,0.871001953125,-7.251826985254883,-6.5906567401736975,-0.3803099613048136
1789223983210996000,0.880995849609375,-7.298742465686797,-6.539256807804107,-0.3699577133122831
1789223983220990000,0.890989990234375,-7.369801038250326,-6.463591618227959,-0.2799820579034276
1789223983230982700,0.900982666015625,-7.442544787421822,-6.38408378174901,-0.14961963884481227
1789223983240977000,0.910976806640625,-7.470436418431997,-6.352057242891192,-0.11975370295383035
1789223983250969900,0.920969970703125,-7.4578656906723975,-6.363757617557049,-0.2306771433180198
1789223983260963800,0.9309638671875,-7.460762581157684,-6.355358622524142,-0.34178759415429083
1789223983270957800,0.940957763671875,-7.448598680633306,-6.367674498739838,-0.3761361096862703
1789223983280950800,0.95095068359375,-7.397616681414842,-6.426228979039192,-0.3863113571440801
1789223983290944800,0.96094482421875,-7.373279528015852,-6.454529775372147,-0.37970596752967684
1789223983300938800,0.970938720703125,-7.398709152826666,-6.4286594210565084,-0.3191022996155545
1789223983310932000,0.980931884765625,-7.439374925214052,-6.383885628828406,-0.26850588391488417
1789223983320926000,0.990926025390625,-7.4839365359961985,-6.331634048065543,-0.26736756406733764
1789223983330920000,1.000919921875,-7.495258724999427,-6.316658012729883,-0.3021774135007523
1789223983340913000,1.010912841796875,-7.440028420686722,-6.381122593855857,-0.31246706285215914
1789223983350907000,1.020906982421875,-7.372844643729925,-6.461432394367456,-0.24788765970747917
1789223983360899800,1.03089990234375,-7.344921448537707,-6.495905157333612,-0.16041220535021275
1789223983370894000,1.04089404296875,-7.311748662254214,-6.533467703008651,-0.15006922750952653
1789223983380888000,1.05088818359375,-7.257025722941756,-6.59277738558948,-0.2031046247269958
1789223983390880800,1.060880859375,-7.252256608843803,-6.596658610936999,-0.24341986664365975
1789223983400874800,1.070874755859375,-7.297399818906188,-6.5455725668221705,-0.2717043876952491
1789223983410869000,1.080868896484375,-7.308863462206721,-6.531309063670038,-0.30479397094100713
1789223983420862000,1.090862060546875,-7.307489251244068,-6.53304158655107,-0.30057496500648556
1789223983430856000,1.10085595703125,-7.336084062087536,-6.503615001058578,-0.2350216935946606
1789223983440849700,1.110849609375,-7.328445530033111,-6.514366112175583,-0.16524815587298944
1789223983450843000,1.1208427734375,-7.292033323436975,-6.555515868687629,-0.14780368459718302
1789223983460836900,1.1308369140625,-7.288124041038751,-6.559328704974055,-0.1698239941548556
1789223983470830000,1.140830078125,-7.249647303128242,-6.601596067339181,-0.178693584107887
1789223983480824000,1.150823974609375,-7.2047431625187395,-6.6514335726976395,-0.1431355740551371
1789223983490817800,1.16081787109375,-7.265169281908869,-6.586275164088606,-0.09314302426544017
1789223983500810800,1.170810791015625,-7.288713239103555,-6.560577828252315,-0.062102774764923374
1789223983510805000,1.180804931640625,-7.226254152581095,-6.6295841444611545,-0.015792550766759086
1789223983520799000,1.190799072265625,-7.218557752859592,-6.637887862426042,0.03540423741327831
1789223983530792000,1.2007919921875,-7.198292963466048,-6.659810355898737,0.04340884228413924
1789223983540785700,1.21078564453125,-7.187215104612708,-6.671380382183194,0.08373862418280914
1789223983550780000,1.22077978515625,-7.2577838478326795,-6.592634177726507,0.17925488951876759
1789223983560772900,1.23077294921875,-7.223418052372336,-6.630756110849976,0.16028023126730695
1789223983570766800,1.240766845703125,-7.16145464041233,-6.6991679682970044,0.07147877073697745
1789223983580759800,1.250759765625,-7.220787703868746,-6.6348536092966794,0.09656823120745829
1789223983590753800,1.26075390625,-7.217603228613734,-6.636383887603879,0.18708499862253664
1789223983600747800,1.270747802734375,-7.2760536640167235,-6.567680353733897,0.3082010394381359
1789223983610741000,1.280740966796875,-7.403778711175918,-6.41972266588509,0.37630478078406304
1789223983620735000,1.29073486328125,-7.318707395350932,-6.518133355754613,0.347619405580312
1789223983630729000,1.30072900390625,-7.164652559670806,-6.685811643117666,0.37157113985829054
1789223983640722000,1.310721923828125,-7.2268486113429065,-6.612201632505655,0.47099356405362486
1789223983650716000,1.3207158203125,-7.205843817237019,-6.637568713474273,0.4345925729712471
1789223983660710000,1.3307099609375,-7.098591649264097,-6.757256000128388,0.3462134477725252
1789223983670702800,1.340702880859375,-7.182785013210773,-6.668600980597734,0.32823793835993853
1789223983680697000,1.350697021484375,-7.26928957670927,-6.572812455925345,0.35488705849573016
1789223983690690000,1.36068994140625,-7.211571547234058,-6.63352849817276,0.39990401182994245
1789223983700683800,1.370683837890625,-7.316047820752859,-6.513354304784536,0.47121498825196173
1789223983710677800,1.380677734375,-7.49445208479166,-6.309014804500341,0.4471052138680592
1789223983720671000,1.3906708984375,-7.4363570386976,-6.3821244643747805,0.3734542867237702
1789223983730665000,1.4006650390625,-7.336275200745463,-6.497213901844621,0.3683276278924197
1789223983740659000,1.410658935546875,-7.361577399784326,-6.471968985950946,0.30195155058931555
1789223983750652000,1.42065185546875,-7.309680623808503,-6.532208642858267,0.26306581175280735
1789223983760646000,1.43064599609375,-7.227844052121043,-6.616682577311992,0.38492154675349594
1789223983770640000,1.440639892578125,-7.310778940439223,-6.515107870453596,0.5256141755027696
1789223983780633000,1.450633056640625,-7.351935711213946,-6.46688949072957,0.5466008859626948
1789223983790627000,1.460626953125,-7.281928693529963,-6.548820754963159,0.5068097409853711
1789223983800619800,1.470619873046875,-7.329159231260419,-6.499551404881477,0.4578707188365981
1789223983810613800,1.48061376953125,-7.383008894869684,-6.442969101437926,0.38692631070464845
1789223983820608000,1.49060791015625,-7.350476744577288,-6.481292694613337,0.36568142423257227
1789223983830601000,1.50060107421875,-7.3890446679025885,-6.435956592327356,0.3884164396645501
1789223983840595000,1.510594970703125,-7.400856101727485,-6.4218222685128445,0.3973865125836804
1789223983850589000,1.5205888671875,-7.370020233958959,-6.456211444848775,0.41294261282961814
1789223983860582000,1.530581787109375,-7.4381632113367315,-6.379611020249128,0.3803631527967751
1789223983870575900,1.540575927734375,-7.433565362152457,-6.390524628451466,0.2714445494489744
1789223983880569900,1.55056982421875,-7.355802908036113,-6.4813061386168,0.23499838578430934
1789223983890563000,1.56056298828125,-7.407088274115323,-6.420457994422316,0.28836707920990884
1789223983900557000,1.57055712890625,-7.36026514814198,-6.475563795572519,0.2528936147686094
1789223983910549800,1.5805498046875,-7.206819968792796,-6.647518445080518,0.20644836393063887
1789223983920544000,1.5905439453125,-7.1559390918612475,-6.702831751501559,0.18698002214441076
1789223983930538000,1.6005380859375,-7.144962939816713,-6.714290134105086,0.1954472966405563
1789223983940531000,1.610531005859375,-7.214405309355259,-6.636572103652358,0.2804352632973343
1789223983950525000,1.62052490234375,-7.381665663567185,-6.447864472264051,0.32626667481958865
1789223983960519000,1.630518798828125,-7.456818227446079,-6.364603420731425,0.24097594409026205
1789223983970512000,1.640511962890625,-7.487273571464419,-6.33117344481647,0.16542592359269037
1789223983980505900,1.650505859375,-7.514920287802815,-6.298870427104831,0.14348715483862906
1789223983990500000,1.6605,-7.409193137440085,-6.423431457275152,0.11731874002502299
1789223984000492800,1.670492919921875,-7.346077048313617,-6.494666555449366,0.15761718607051298
1789223984010486800,1.68048681640625,-7.356698980093002,-6.480370319071412,0.232736888859421
1789223984020480000,1.69047998046875,-7.228103579840064,-6.622683279031515,0.25490413260711353
1789223984030474000,1.700473876953125,-7.107123330765962,-6.7529252774477,0.23913069981606674
1789223984040468000,1.710468017578125,-7.134809794592857,-6.724817957860231,0.20420126085728404
1789223984050461000,1.7204609375,-7.148944702929258,-6.711328946211934,0.1450733189183753
1789223984060455000,1.730454833984375,-7.200021979215741,-6.656428896766901,0.14838506468171253
1789223984070449000,1.740448974609375,-7.349613990268111,-6.487464076724648,0.2576029249707237
1789223984080441900,1.75044189453125,-7.402393394297361,-6.425457994666695,0.29740605264678593
1789223984090436000,1.76043603515625,-7.414320563456416,-6.412815955236554,0.2720841442604549
1789223984100430000,1.77043017578125,-7.45136931439042,-6.3706561448991295,0.24945540221454574
1789223984110422800,1.7804228515625,-7.359477212634682,-6.478667022284865,0.18803619840014724
1789223984120416800,1.790416748046875,-7.245435238391161,-6.606891251137852,0.15180428027436135
1789223984130410000,1.800409912109375,-7.199183190304041,-6.656549308276176,0.1802839037729427
1789223984140404000,1.810404052734375,-7.067866840654611,-6.792975548285246,0.26668586541349065
1789223984150398000,1.82039794921875,-7.005021969684958,-6.850290842178463,0.4166088802522048
1789223984160391000,1.830390869140625,-7.1266159667432305,-6.715473790931701,0.5330422066116706
1789223984170385000,1.840385009765625,-7.152962706398964,-6.692762192907929,0.4609223980247974
1789223984180379000,1.85037890625,-7.1539581471771,-6.70091101257205,0.2984272306543775
1789223984190372000,1.8603720703125,-7.253217562830447,-6.597548253253102,0.1832349173319526
1789223984200366000,1.870365966796875,-7.2691709187656635,-6.5797881401568645,0.18956214759210124
1789223984210359800,1.88035986328125,-7.280583124139905,-6.555895807915926,0.4286436014389619
1789223984220352800,1.890352783203125,-7.387388717389106,-6.416014459016918,0.6569938361793756
1789223984230347000,1.900346923828125,-7.3384209806025025,-6.4719099492400884,0.6575332768183201
1789223984240340000,1.910340087890625,-7.175313654416799,-6.659655457597971,0.578139970097132
1789223984250334000,1.920333984375,-7.1160618395030495,-6.724606360936164,0.558315398751758
1789223984260328000,1.930327880859375,-7.05410544180572,-6.790141786164045,0.5513271472996101
1789223984270321000,1.94032080078125,-6.971102164426446,-6.874407630825043,0.5627070578394457
1789223984280315000,1.95031494140625,-7.008578785383701,-6.819029442474245,0.7423244605276733
1789223984290308900,1.960308837890625,-7.013159098911285,-6.791279265761375,0.9297856720514595
1789223984300302000,1.970302001953125,-6.977179438513517,-6.817996592295169,1.0021353073388337
1789223984310295800,1.9802958984375,-7.077263614553213,-6.711722913965582,1.0175902122326195
1789223984320289800,1.990289794921875,-7.216606034269929,-6.5614610408276315,1.0189282559033483
1789223984330283000,2.000282958984375,-7.322725983342528,-6.445345767441392,1.0027893142681568
1789223984340277000,2.010277099609375,-7.415703542247414,-6.3317848547130815,1.0422186036631464
1789223984350270000,2.02027001953125,-7.386843942987919,-6.349422218212485,1.1356743745390325
1789223984360264000,2.030263916015625,-7.257959788921475,-6.476973662370443,1.2414580043293535
1789223984370258000,2.0402578125,-7.174469020286202,-6.5363949886322015,1.404609023526311
1789223984380251000,2.0502509765625,-7.0769193311601875,-6.6124260889112945,1.5373422542363404
1789223984390244900,2.060244873046875,-6.965142379239201,-6.730260441175103,1.536478477013856
1789223984400239000,2.070239013671875,-6.950514718949794,-6.751389153921604,1.509793153053522
1789223984410231800,2.080231689453125,-7.0306175987124435,-6.663283584967255,1.5301827378705144
1789223984420225800,2.090225830078125,-7.198975685033202,-6.480356875067949,1.5330099241204558
1789223984430219800,2.1002197265625,-7.376009829762578,-6.2838084670513865,1.5095087831541896
1789223984440213000,2.110212890625,-7.413337982159852,-6.229173790544271,1.5524815173096953
1789223984450207000,2.12020703125,-7.413110018622874,-6.19791940510273,1.673914770848304
1789223984460201000,2.130200927734375,-7.424808639723062,-6.170269181632995,1.723481788702309
1789223984470194000,2.14019384765625,-7.38376351262927,-6.229678817456961,1.6856810503572224
1789223984480188000,2.15018798828125,-7.38691525465846,-6.2353890117973085,1.6503899567455051
1789223984490180900,2.160180908203125,-7.411913502314686,-6.212339560121298,1.6250392423897981
1789223984500175000,2.170175048828125,-7.2711255599647755,-6.36226241056323,1.6800994508326053
1789223984510169000,2.180169189453125,-7.075284423434734,-6.544021830248832,1.8128734519444405
1789223984520161800,2.190161865234375,-7.05570936987102,-6.548078412163258,1.873504592387378
1789223984530155800,2.20015576171875,-7.119578907713294,-6.497806022518873,1.805687485963106
1789223984540150000,2.21014990234375,-7.203587562742829,-6.43660073544979,1.6878651163980365
1789223984550143000,2.22014306640625,-7.358179574039578,-6.285172741141915,1.5887668826557695
1789223984560137000,2.230136962890625,-7.446644039434194,-6.177873811417817,1.5974191217973828
1789223984570131000,2.240130859375,-7.450933845582604,-6.143444303071498,1.706477608539909
1789223984580124000,2.2501240234375,-7.509512875801325,-6.063120474034547,1.7367118571534752
1789223984590118000,2.260117919921875,-7.524697000929713,-6.076856738442182,1.6189895869620143
1789223984600111000,2.270111083984375,-7.422027484571934,-6.216796539530158,1.5605524494320153
1789223984610105000,2.28010498046875,-7.340002112314105,-6.304371362608671,1.5967672337599097
1789223984620098800,2.290098876953125,-7.263828973215818,-6.3807824021160595,1.6409700942322611
1789223984630092000,2.300092041015625,-7.174572480660676,-6.467685025021433,1.692615818056464
1789223984640086000,2.3100859375,-7.200891747787594,-6.43483138768971,1.7060156901165842
1789223984650080000,2.320080078125,-7.274186701101065,-6.371537019386887,1.6309842683993279
1789223984660073000,2.330072998046875,-7.328831314480304,-6.3334197624385355,1.5317985025040803
1789223984670067000,2.34006689453125,-7.44937492570281,-6.213387023347615,1.4391028292804955
1789223984680061000,2.35006103515625,-7.525331207180023,-6.1395256683230395,1.3586742246948182
1789223984690053000,2.36005322265625,-7.53233027228713,-6.133205817651748,1.3483936536990104
1789223984700047400,2.37004736328125,-7.603524453929066,-6.039935997802019,1.369658413915336
1789223984710041300,2.380041259765625,-7.589988096007704,-6.079132282158732,1.2675237350866198
1789223984720034300,2.390034423828125,-7.411516027429699,-6.311772578775883,1.1837784802336244
1789223984730028000,2.400028076171875,-7.260645667004585,-6.494388907551765,1.1297428655982016
1789223984740021200,2.410021240234375,-7.158209374880791,-6.603684564051032,1.1496858756914734
1789223984750015200,2.42001513671875,-7.047250753605366,-6.688567663827538,1.3303025550827383
1789223984760009200,2.43000927734375,-7.087579841384291,-6.614217063981294,1.4794361548431216
1789223984770002400,2.44000244140625,-7.20737117293477,-6.504438592401146,1.3843649846598505
1789223984779996200,2.44999609375,-7.2920976208448405,-6.447886099573969,1.1918300500683485
1789223984789990100,2.459990234375,-7.417991360923647,-6.324172626143693,1.0717405392888932
1789223984799983400,2.4699833984375,-7.499840207570791,-6.234595231071114,1.0259658994551748
1789223984809977300,2.479977294921875,-7.504882877913117,-6.226258779880404,1.0396235456686467
1789223984819971300,2.489971435546875,-7.526908831760287,-6.197026255655288,1.0549383845046163
1789223984829964300,2.49996435546875,-7.485629895910621,-6.255767198437452,1.0005514722134918
1789223984839958300,2.509958251953125,-7.4083052486896515,-6.3514388187319035,0.9729463299944996
1789223984849951200,2.519951171875,-7.441314368844032,-6.307725349211692,1.004902726225555
1789223984859945200,2.5299453125,-7.427248434090614,-6.324744873073697,1.0019793130595236
1789223984869939200,2.539939208984375,-7.303761755153537,-6.465982897278666,1.008222591363266
1789223984879932200,2.54993212890625,-7.247888476762175,-6.529183157557249,1.0041231201551855
1789223984889926100,2.559926025390625,-7.239204235047102,-6.542993071722984,0.9764957661043852
1789223984899920100,2.569920166015625,-7.294190793731809,-6.480953087395429,0.9810256646189838
1789223984909913300,2.579913330078125,-7.494965295010805,-6.258223359417915,0.9113293203193694
1789223984919907300,2.5899072265625,-7.594793450462817,-6.159531514519452,0.7413978472020477
1789223984929901300,2.5999013671875,-7.5757199166804545,-6.192068340986967,0.6611644729275256
1789223984939894300,2.609894287109375,-7.555268080282211,-6.217208627462386,0.6592669687431305
1789223984949888300,2.61988818359375,-7.460344063484668,-6.33376404583156,0.6301438231766223
1789223984959882200,2.62988232421875,-7.384674782255291,-6.421278663155436,0.635721769439429
1789223984969875500,2.63987548828125,-7.408802092295884,-6.393420349892973,0.6357787603236734
1789223984979869400,2.649869384765625,-7.3704042648404835,-6.4451183884263035,0.5549607180289924
1789223984989862100,2.659862060546875,-7.3542521714627735,-6.470907494199276,0.461202639738284
1789223984999856000,2.669856201171875,-7.424467278939485,-6.395929117843508,0.37384708543363954
1789223985009850400,2.679850341796875,-7.418719675198197,-6.406172863960266,0.3064722063515335
1789223985019843300,2.68984326171875,-7.401021521422266,-6.424555492869019,0.3469207557916641
1789223985029837300,2.69983740234375,-7.4509560574144125,-6.362338982930779,0.41747930641118436
1789223985039831000,2.7098310546875,-7.437476982638239,-6.381088691586256,0.3688155575398355
1789223985049824300,2.71982421875,-7.428868144246936,-6.39523470583856,0.2885610491457395
1789223985059818200,2.729818359375,-7.473354936227202,-6.345768371880054,0.224880110944435
1789223985069812200,2.739812255859375,-7.419120072692632,-6.4109051531791685,0.16531581428172065
1789223985079805400,2.749805419921875,-7.321936294269562,-6.5218637744545935,0.15785364344120026
1789223985089799200,2.759799072265625,-7.301388011759519,-6.543281825536489,0.21346832569530233
1789223985099793200,2.769793212890625,-7.265383216920495,-6.581432400232553,0.26332188713941723
1789223985109786400,2.779786376953125,-7.285009708410501,-6.5596069373935455,0.2656526681745425
1789223985119780400,2.7897802734375,-7.332779759845137,-6.508425616210698,0.20278803305849433
1789223985129773000,2.79977294921875,-7.2461074385643,-6.607032705435157,0.10691646974515169
1789223985139767300,2.809767333984375,-7.200512393081188,-6.656960811686515,0.08879572490928694
1789223985149761300,2.81976123046875,-7.30114368160963,-6.5448109347999095,0.1707069510018453
1789223985159754200,2.829754150390625,-7.43063106226623,-6.397132648414373,0.18112035459708423
1789223985169748200,2.839748291015625,-7.614736168295145,-6.176312553450465,0.19835037940461187
1789223985179742500,2.849742431640625,-7.6395631510376925,-6.146088095578551,0.18183734376002103
1789223985189735200,2.859735107421875,-7.423383575356006,-6.406957292336225,0.12107422923417761
1789223985199729200,2.869729248046875,-7.2416381841957564,-6.61273296290338,0.028529419740347655
1789223985209723100,2.87972314453125,-7.195116671517491,-6.663211104252934,0.047910601549642155
1789223985219716400,2.88971630859375,-7.245816346663236,-6.606081688320637,0.16797509661884977
1789223985229710300,2.89971044921875,-7.345618783152103,-6.494867630979418,0.17017295372299848
1789223985239704300,2.909704345703125,-7.337769238695502,-6.505955426704883,-0.008431255617982242
1789223985249697300,2.919697265625,-7.320925071400404,-6.5224623248696325,-0.1786900221776217
1789223985259691300,2.929691162109375,-7.354704006883502,-6.4852452316313975,-0.14250864692898466
1789223985269684200,2.939684326171875,-7.354600546509027,-6.4869274856299155,0.0029945972578207147
1789223985279678500,2.949678466796875,-7.454823254236579,-6.369625632807612,0.15447918030573055
1789223985289672400,2.95967236328125,-7.4900401135683055,-6.328063203841447,0.1590566442891024
1789223985299665200,2.9696650390625,-7.350255795302987,-6.491509552723169,0.06654725545181427
1789223985309659100,2.9796591796875,-7.278536128482222,-6.572157206887006,0.007029026420530863
1789223985319653400,2.9896533203125,-7.261082889378071,-6.591143062385917,-0.062388190410449164
1789223985329646300,2.999646240234375,-7.195357494536042,-6.661608929753303,-0.14208070384049787
1789223985339640000,3.00964013671875,-7.219321722969412,-6.6356608340263366,-0.14064955679252744
1789223985349634000,3.019634033203125,-7.2342433977693315,-6.620345191472769,-0.08449836564208381
1789223985359627300,3.029627197265625,-7.197959201467037,-6.660243486618995,-0.0303467165616923
1789223985369621200,3.039621337890625,-7.255352821293473,-6.5977294550389045,0.014033421864948468
1789223985379615200,3.049615234375,-7.322284084793925,-6.523377101626992,0.00973283516926458
1789223985389608200,3.059608154296875,-7.3901079132199285,-6.446427132937312,-0.0163041558339959
1789223985399602200,3.069602294921875,-7.515129546639323,-6.300249314242601,0.007716166722009074
1789223985409596200,3.07959619140625,-7.53078245832324,-6.2815253245502705,0.011847887669544433
1789223985419589400,3.08958935546875,-7.411888952395319,-6.421392644923925,-0.001520087419214542
1789223985429583400,3.099583251953125,-7.316144266864657,-6.530258093312383,0.012408946485252818
1789223985439576000,3.109576171875,-7.201873160040378,-6.656049542060494,0.020245883763674647
1789223985449570300,3.1195703125,-7.0875026844948525,-6.777668673560023,0.029769683858717325
1789223985459564300,3.129564208984375,-7.059380751860141,-6.806794814801216,0.055395938636618666
1789223985469557200,3.13955712890625,-7.096261745011806,-6.768262547311187,0.06387417291819583
1789223985479551200,3.14955126953125,-7.189039981952309,-6.669540307274461,0.07300138632752932
1789223985489545500,3.15954541015625,-7.261412559723854,-6.589982786434889,0.12004129685671068
1789223985499538200,3.1695380859375,-7.343097740241885,-6.4973886738896365,0.1823360870623961
1789223985509532200,3.1795322265625,-7.472647080218792,-6.345874170342087,0.24458962280908597
1789223985519526100,3.189526123046875,-7.467696764335036,-6.351143635177612,0.2585787112003192
1789223985529519400,3.199519287109375,-7.390972421094775,-6.440299005445838,0.2577858437895775
1789223985539513300,3.209513427734375,-7.37734721584618,-6.456663280269503,0.2379542764478363
1789223985549507000,3.219507080078125,-7.299546183285116,-6.545903406211734,0.19533095851819962
1789223985559500300,3.229500244140625,-7.2405305152148,-6.610574323564768,0.21310588559107854
1789223985569494300,3.239494384765625,-7.256839844980836,-6.5904135790675875,0.27406013877484947
1789223985579488300,3.24948828125,-7.219059272640943,-6.629734366586804,0.3196740716215223
1789223985589481500,3.2594814453125,-7.235637482476234,-6.6093100027173755,0.36463202477749435
1789223985599475200,3.26947509765625,-7.290958972203731,-6.545694147375226,0.40765623339191076
1789223985609468200,3.27946826171875,-7.275690675923228,-6.562198707452416,0.41503194979168473
1789223985619462100,3.289462158203125,-7.3395467697620385,-6.491221967953443,0.40679000848401337
1789223985629456400,3.299456298828125,-7.407147310826182,-6.415755515819788,0.37767617873512205
1789223985639449300,3.309449462890625,-7.361110366794467,-6.470902233502269,0.33446094106063246
1789223985649443000,3.319443115234375,-7.379166247966885,-6.4492047809571025,0.35502610164023934
1789223985659437000,3.32943701171875,-7.403697462633252,-6.419373706316947,0.3837821309274062
1789223985669430300,3.33943017578125,-7.339789346346259,-6.492455893662571,0.38196561955735087
1789223985679424300,3.34942431640625,-7.3134057818114755,-6.521960805088281,0.3853757202617824
1789223985689418200,3.359418212890625,-7.28240098721683,-6.557246638002991,0.3735444126926362
1789223985699411500,3.369411376953125,-7.231093993827701,-6.615374417322874,0.3442163556711748
1789223985709405200,3.3794052734375,-7.283356680506468,-6.559457299789786,0.31083982697650786
1789223985719399200,3.389399169921875,-7.336476860797405,-6.501912288793921,0.2676411568443291
1789223985729392400,3.399392333984375,-7.349786424225568,-6.487272353544831,0.25751846155766395
1789223985739386400,3.409386474609375,-7.395038939881324,-6.434827880558371,0.27706854507690293
1789223985749380400,3.41938037109375,-7.4071999177962535,-6.421524746870994,0.26035847075656054
1789223985759373300,3.429373291015625,-7.424696411520242,-6.403026382628083,0.2133488823004067
1789223985769367300,3.4393671875,-7.425326526117324,-6.404319345048069,0.14001519527859055
1789223985779361300,3.449361328125,-7.395945533332228,-6.439321100324392,0.07425425419914536
1789223985789354200,3.459354248046875,-7.41891899716258,-6.41306613060534,0.05098307236412074
1789223985799348500,3.469348388671875,-7.383548993095755,-6.453910182169079,0.025173668155213817
1789223985809341200,3.479341064453125,-7.352136202222108,-6.489710978868604,0.01139089886637521
1789223985819335200,3.489335205078125,-7.394808053734898,-6.441033164939284,0.016965190725727004
1789223985829329200,3.4993291015625,-7.350528182503581,-6.491541116905212,0.0017511157003580592
1789223985839322400,3.509322265625,-7.328080203852057,-6.516859682556986,-0.012400711804802995
1789223985849316400,3.51931640625,-7.375367440205812,-6.463306371545792,-0.0028319540420154226
1789223985859310300,3.529310302734375,-7.335586633959412,-6.508416848382353,0.007558172281857696
1789223985869303300,3.53930322265625,-7.325939684692025,-6.519194847506284,0.03284349268033402
1789223985879297300,3.54929736328125,-7.359598793187737,-6.480613480177522,0.09131396394106558
1789223985889291300,3.559291259765625,-7.320024907690287,-6.52464785221517,0.12876360555985011
1789223985899284500,3.569284423828125,-7.331763276278973,-6.511358162531256,0.13357816623472607
1789223985909278500,3.579278564453125,-7.346659816637635,-6.494505227407813,0.1355375840736553
1789223985919272200,3.589272216796875,-7.283023503029346,-6.5657829956799745,0.1358170860016253
1789223985929265200,3.59926513671875,-7.312362994760274,-6.531770251441001,0.18895629065344108
1789223985939259400,3.60925927734375,-7.383671158170699,-6.448359562304615,0.26540101323472337
1789223985949253400,3.61925341796875,-7.405425309339165,-6.422589161232113,0.2835554776770994
1789223985959246300,3.629246337890625,-7.440016730248928,-6.383501597946882,0.2596924811284989
1789223985969240000,3.639239990234375,-7.4123343580752605,-6.417061337721347,0.22136355419084427
1789223985979234300,3.649234375,-7.335530519858002,-6.503932980966567,0.2433677893965505
1789223985989227300,3.659227294921875,-7.338283617958426,-6.492590918219089,0.4077268144100904
1789223985999221200,3.66922119140625,-7.351690796542167,-6.4738914784461254,0.46017464839741584
1789223986009214500,3.67921435546875,-7.343101831895113,-6.488088930624723,0.39235860141906886
1789223986019208200,3.689208251953125,-7.285743867903947,-6.556245936527848,0.32243396478891373
1789223986029202200,3.6992021484375,-7.216888358342647,-6.630702334836125,0.34741927989833055
1789223986039195400,3.7091953125,-7.284368487897515,-6.549941283425689,0.45456407850664104
1789223986049189400,3.719189453125,-7.34008569894433,-6.487239620319008,0.45743313113693146
1789223986059183400,3.729183349609375,-7.327654671916365,-6.502863890430331,0.43430718015860764
1789223986069176300,3.73917626953125,-7.300569096592068,-6.534407029685378,0.416660939233005
1789223986079170300,3.74917041015625,-7.213259646451473,-6.633861091127991,0.36214572438709436
1789223986089164300,3.759164306640625,-7.16305798395574,-6.681537034538388,0.46695532151348884
1789223986099157200,3.7691572265625,-7.20668085258305,-6.628700931885838,0.5426370968982577
1789223986109151500,3.7791513671875,-7.222581601548194,-6.611508974066377,0.5409709537843242
1789223986119145500,3.7891455078125,-7.220511809536815,-6.614222909200191,0.5353943957610056
1789223986129138200,3.79913818359375,-7.160622865763306,-6.681559246370196,0.5026270484732464
1789223986139132200,3.809132080078125,-7.111924009045958,-6.738722564572096,0.4248942953754216
1789223986149126400,3.81912646484375,-7.217054947081208,-6.625092678260803,0.43891938666179775
1789223986159119400,3.829119384765625,-7.313371295019984,-6.517645864498615,0.4530783334609121
1789223986169113300,3.83911328125,-7.407736508890986,-6.4093848117440935,0.46434517554771154
1789223986179107000,3.849107177734375,-7.469938405781984,-6.338346112924814,0.4424692976957187
1789223986189100300,3.859100341796875,-7.373109432145953,-6.455933212429285,0.3585683773569763
1789223986199094300,3.86909423828125,-7.258445526611805,-6.578232142886519,0.46067174773197617
1789223986209088300,3.879088134765625,-7.216169980940222,-6.610701164814829,0.6292099033273756
1789223986219081500,3.88908154296875,-7.174960018673539,-6.653114657652377,0.6529954141929746
1789223986229075200,3.8990751953125,-7.181402618941664,-6.658086600846052,0.5174146850973368
1789223986239069200,3.909069091796875,-7.138070257693529,-6.71599810706675,0.3372076824855059
1789223986249062400,3.9190625,-7.123412786787748,-6.727558781000972,0.4090613509494811
1789223986259056400,3.929056396484375,-7.2198255808383225,-6.608127514934539,0.6141285079210996
1789223986269049300,3.93904931640625,-7.27757108284235,-6.542019842776655,0.6397775476362556
1789223986279043000,3.94904296875,-7.3194573369354,-6.504198353904485,0.5397571575477719
1789223986289037300,3.959037353515625,-7.290069329887628,-6.546902354121208,0.40415249958727506
1789223986299030300,3.9690302734375,-7.189046411693096,-6.659305328986048,0.37636392709277566
1789223986309024300,3.979024169921875,-7.1924430683940646,-6.647680942165851,0.49748208680022504
1789223986319018200,3.989018310546875,-7.238114686244725,-6.595265695273876,0.5315482051942497
1789223986329011200,3.99901123046875,-7.32199416193664,-6.50364831880629,0.5112106793580576
1789223986339005200,4.009005126953125,-7.348907887825369,-6.47912470292449,0.42997649401053784
1789223986348999200,4.018999267578125,-7.169267359989881,-6.682199297839403,0.3467115334877744
1789223986358992400,4.028992431640625,-7.057334925246239,-6.792142604592442,0.4808327114248648
1789223986368986400,4.038986328125,-7.174232288920879,-6.655949004295468,0.6317620720282197
1789223986378980400,4.04898046875,-7.259584759774803,-6.566093376803398,0.5960173528974876
1789223986388973300,4.058973388671875,-7.335370360860228,-6.488621430066227,0.5104134645657613
1789223986398967300,4.06896728515625,-7.338180157583952,-6.489799241673946,0.4516689050544053
1789223986408961300,4.078961181640625,-7.238993807166814,-6.595550941956043,0.515810172510147
1789223986418954500,4.08895458984375,-7.16169663247466,-6.667724782285094,0.6495643437657505
1789223986428948500,4.098948486328125,-7.160918633839487,-6.654722677370906,0.7786542495373636
1789223986438942200,4.108942138671875,-7.246921093034744,-6.552444790679216,0.8473436087515205
1789223986448935200,4.11893505859375,-7.28473147599101,-6.519698120853304,0.7724059297323227
1789223986458929400,4.128929443359375,-7.221995910614728,-6.602946897426247,0.643628450910747
1789223986468923400,4.13892333984375,-7.220205520066618,-6.610576661652326,0.5824869497928769
1789223986478916400,4.148916259765625,-7.204079730173945,-6.627650546050071,0.5881076392188668
1789223986488910000,4.15891015625,-7.181999415791034,-6.645711687919497,0.6509865585885941
1789223986498904300,4.168904296875,-7.219734395423531,-6.594116525238752,0.7506368001904338
1789223986508897300,4.178897216796875,-7.21624772235155,-6.5848933543413875,0.8575178698286413
1789223986518891300,4.188891357421875,-7.231225511252879,-6.5594233975201846,0.9239731133151798
1789223986528885200,4.19888525390625,-7.274387776631117,-6.511192158314585,0.9263062324378639
1789223986538878200,4.208878173828125,-7.322682144200801,-6.4594736615151165,0.9076942517526447
1789223986548872200,4.2188720703125,-7.362925891783833,-6.415138845226168,0.896492474258691
1789223986558866200,4.2288662109375,-7.3115657069027415,-6.469306488743424,0.9270704948086291
1789223986568859400,4.238859375,-7.257934069958329,-6.519498214367031,0.9944419763572514
1789223986578853400,4.248853271484375,-7.251435355588793,-6.523301698303222,1.016662649058923
1789223986588846000,4.25884619140625,-7.2827072766870256,-6.48712446950674,1.024588692817837
1789223986598840300,4.26884033203125,-7.358000125819444,-6.396005690211057,1.0589259928360581
1789223986608834300,4.278834228515625,-7.37350749155283,-6.375469098138809,1.0747867020517587
1789223986618827300,4.2888271484375,-7.332817169246077,-6.4198600285291665,1.0888415308892727
1789223986628821200,4.2988212890625,-7.297765729609131,-6.449753062489628,1.1461598935224115
1789223986638815500,4.3088154296875,-7.232627194744348,-6.507367047068477,1.2303086876749991
1789223986648808200,4.31880810546875,-7.1974682030797,-6.532433099263906,1.3015991692982614
1789223986658802200,4.32880224609375,-7.1675552953749895,-6.5597711880445475,1.3288888888925312
1789223986668796400,4.33879638671875,-7.157336683699488,-6.572066605994105,1.323201198644936
1789223986678789400,4.348789306640625,-7.253979194852709,-6.466361667463183,1.3177015783153474
1789223986688783400,4.358783447265625,-7.353213476064801,-6.354375456705689,1.3124610473133622
1789223986698777300,4.36877734375,-7.447817174866795,-6.237000538647174,1.3417276199385524
1789223986708770300,4.378770263671875,-7.528367213875055,-6.133825410854816,1.367570647855848
1789223986718764300,4.388764404296875,-7.4944550074011085,-6.171429457584023,1.384554369752109
1789223986728758300,4.39875830078125,-7.427619605490565,-6.23284926418662,1.467121886062622
1789223986738751500,4.40875146484375,-7.370065242144465,-6.2882718762010335,1.5199201409228145
1789223986748745500,4.418745361328125,-7.288883919495344,-6.388937066999078,1.4913219690784811
1789223986758739500,4.428739501953125,-7.251708327311277,-6.440132416707277,1.451827286297083
1789223986768732400,4.438732421875,-7.236034957361221,-6.465508265504241,1.416825384890288
1789223986778726400,4.448726318359375,-7.261397362154722,-6.4491767239063975,1.360375183393806
1789223986788720400,4.458720458984375,-7.384764214104414,-6.319000776463747,1.3060900509767233
1789223986798713300,4.46871337890625,-7.455579625561833,-6.244176713886857,1.2629225249014795
1789223986808707600,4.47870751953125,-7.460656198173761,-6.235716344055533,1.2746918731503187
1789223986818701300,4.488701416015625,-7.469059869381785,-6.226655670243502,1.2697611387498675
1789223986828694300,4.4986943359375,-7.418909644812345,-6.294186653202772,1.2301963133417069
1789223986838688300,4.508688232421875,-7.340633395954966,-6.390484296441078,1.2029933952480554
1789223986848682500,4.5186826171875,-7.300999889224768,-6.438912519523501,1.185831759501621
1789223986858675500,4.528675537109375,-7.2912494795829055,-6.461666203123331,1.1202359823886305
1789223986868669200,4.538669189453125,-7.324335172104835,-6.443903751939534,1.0003029773451386
1789223986878663400,4.548663330078125,-7.277302202773094,-6.500864241045713,0.9746894473347812
1789223986888656400,4.558656494140625,-7.245928574866056,-6.517566954043507,1.0900566788326949
1789223986898650400,4.568650390625,-7.323229841211438,-6.427200454419851,1.109852608605474
1789223986908644400,4.578644287109375,-7.41906921928823,-6.339966407603025,0.9657203242637217
1789223986918637300,4.58863720703125,-7.559661931326985,-6.192640003395081,0.8204316364284604
1789223986928631300,4.59863134765625,-7.567643577730656,-6.191472128659487,0.7528789530940353
1789223986938625300,4.608625244140625,-7.437045605483651,-6.34377982841134,0.7856142978083341
1789223986948618500,4.618618408203125,-7.404678290364146,-6.378447237166762,0.8102719883985817
1789223986958612500,4.628612548828125,-7.349194888073206,-6.44917204773128,0.7535925081908702
1789223986968606500,4.6386064453125,-7.282158995154499,-6.527236699664592,0.7319309306766837
1789223986978599400,4.648599365234375,-7.295852589464187,-6.5114078468918795,0.7365322869922966
1789223986988593400,4.658593505859375,-7.26893594096601,-6.550696485707164,0.6491038135819137
1789223986998587400,4.66858740234375,-7.2899915884763,-6.539800997683406,0.5073696033578365
1789223987008580400,4.678580322265625,-7.325320676010847,-6.5039785736739635,0.4564249039424583
1789223987018574600,4.68857470703125,-7.339107793822884,-6.4833186474829905,0.5238982384303584
1789223987028568300,4.698568359375,-7.4328288645714515,-6.369789883458614,0.5909495846465229
1789223987038561300,4.708561279296875,-7.462510301607847,-6.340391355016827,0.5298760341983288
1789223987048555300,4.71855517578125,-7.4612173391878605,-6.349097808563709,0.43540217232108114
1789223987058549500,4.728549560546875,-7.468632583880424,-6.343057943877578,0.3943666167732328
1789223987068542500,4.73854248046875,-7.412176537165045,-6.411107982274889,0.35737482019085437
1789223987078536200,4.7485361328125,-7.4221385437309735,-6.402133233180642,0.30810207257568833
1789223987088530200,4.7585302734375,-7.399852477642893,-6.431019720447063,0.23355487244511022
1789223987098523400,4.7685234375,-7.300580202507972,-6.545146450364589,0.18158603588007388
1789223987108517400,4.778517333984375,-7.287232060635089,-6.560282644698024,0.17124956997856497
1789223987118510600,4.788510498046875,-7.286005733710527,-6.562202214583754,0.14837096309112385
1789223987128504300,4.79850439453125,-7.310185066199303,-6.536303218695521,0.09119275784734636
1789223987138498300,4.808498291015625,-7.369853645220399,-6.469418716946244,0.04754034803172107
1789223987148492300,4.8184921875,-7.407332019743323,-6.426646912190318,0.004993282809224911
1789223987158485500,4.828485595703125,-7.45741268620789,-6.36830519785881,-0.045498503473191516
1789223987168479500,4.8384794921875,-7.433172563442588,-6.396133700504898,-0.08838422149894759
1789223987178472200,4.84847216796875,-7.397033328568935,-6.437738215047121,-0.09908205892560072
1789223987188466400,4.858466552734375,-7.396097509023547,-6.438724303475022,-0.10469090265017002
1789223987198460400,4.86846044921875,-7.341524207314849,-6.499822038516402,-0.1572102492374368
1789223987208453400,4.878453369140625,-7.307795540714263,-6.5353825967192645,-0.2351287158994004
1789223987218447400,4.888447265625,-7.285690676411986,-6.557943388095498,-0.2871804997738451
1789223987228441600,4.898441650390625,-7.29620213355422,-6.546230738469958,-0.287541606437508
1789223987238434300,4.908434326171875,-7.38273826123476,-6.449473076504469,-0.2643154647540301
1789223987248428300,4.91842822265625,-7.428805015882849,-6.395374991092085,-0.28707358706695957
1789223987258422300,4.92842236328125,-7.446629426386952,-6.372312679934502,-0.33425497015975414
1789223987268415500,4.93841552734375,-7.427520236769318,-6.392977282300591,-0.3635548605326563
1789223987278409500,4.948409423828125,-7.357939335542917,-6.47157092654407,-0.38715862162318077
1789223987288403200,4.9584033203125,-7.325767250734567,-6.507656385403871,-0.39234307505637406
1789223987298396400,4.968396484375,-7.302694418182969,-6.534522180497646,-0.3755858553923666
1789223987308390400,4.978390380859375,-7.311018009892106,-6.526630550464987,-0.35000290318336336
1789223987318384400,4.98838427734375,-7.327352474099397,-6.507945139217377,-0.35628603857345875
1789223987328377600,4.998377685546875,-7.341265848639607,-6.488726059484481,-0.41550464533735065
1789223987338371300,5.008371337890625,-7.361366971904039,-6.459800409251451,-0.5016370510552078
1789223987348365300,5.018365234375,-7.347068981960415,-6.473077823975682,-0.5387297507287934
1789223987358358300,5.028358154296875,-7.386274618667364,-6.43393473111093,-0.46671234307046977
1789223987368352500,5.0383525390625,-7.435398422798514,-6.381854999783635,-0.3964223437266424
1789223987378346500,5.048346435546875,-7.423373053961992,-6.3951224776357405,-0.4078305305128917
1789223987388339200,5.058339111328125,-7.3842387289255855,-6.438903167173266,-0.42888292662017047
1789223987398333200,5.068333251953125,-7.3372519368231295,-6.495318297356366,-0.3820485486004501
1789223987408327400,5.078327392578125,-7.351602533736824,-6.483841794574261,-0.290040729776863
1789223987418320400,5.0883203125,-7.379059864982962,-6.4554726091802115,-0.21617510043596846
1789223987428314400,5.098314453125,-7.394085584679246,-6.43966012302041,-0.16927805070988833
1789223987438308400,5.108308349609375,-7.41619629420042,-6.414969918400049,-0.13628305041240527
1789223987448301300,5.11830126953125,-7.414083832091093,-6.417254814466833,-0.14349422390023245
1789223987458295300,5.12829541015625,-7.416132581314444,-6.414256217172741,-0.16936872466802597
1789223987468289300,5.138289306640625,-7.4370426828742024,-6.391153574004769,-0.11810062938402406
1789223987478282500,5.148282470703125,-7.384462016287445,-6.452873240336776,-0.023054447511537
1789223987488276500,5.1582763671875,-7.3127066936314105,-6.533999033406377,0.03955359162809327
1789223987498270200,5.168270263671875,-7.273121702218055,-6.57802522213757,0.04090304717540275
1789223987508263400,5.178263427734375,-7.230076925739645,-6.6254340390443796,0.0018525022779329447
1789223987518257400,5.18825732421875,-7.2334525396525855,-6.62159197666347,-0.045420940158376465
1789223987528251400,5.19825146484375,-7.278909637969732,-6.571593143263459,-0.04506005725699942
1789223987538244600,5.20824462890625,-7.3885238588988775,-6.448249087667465,0.013598219060257542
1789223987548238300,5.21823828125,-7.495688348588347,-6.32328415287137,0.03348498718795599
1789223987558232300,5.228232421875,-7.4481737332195035,-6.379231081020832,-0.022611133323982357
1789223987568225300,5.238225341796875,-7.3441107166767114,-6.498584605675935,-0.05311825776190962
1789223987578219500,5.248219482421875,-7.253239774662256,-6.599982786923647,-0.03363387130646733
1789223987588213500,5.258213623046875,-7.173999649208784,-6.686113840934634,-0.0022280550233568647
1789223987598206200,5.268206298828125,-7.140345801410079,-6.721752725070715,0.062335743270581584
1789223987608200200,5.2782001953125,-7.133264318716526,-6.727353613817692,0.1721399977459572
1789223987618194400,5.2881943359375,-7.194478373613953,-6.659356182390451,0.2506800851712935
1789223987628187400,5.2981875,-7.227243748140335,-6.624405280518531,0.23363321664463726
1789223987638181400,5.308181396484375,-7.252961542242765,-6.597699644422531,0.1878722217437811
1789223987648175400,5.31817529296875,-7.3725932993173595,-6.463176023164391,0.20642481865826992
1789223987658168300,5.328168212890625,-7.424666600903868,-6.401843894845247,0.2472067647712305
1789223987668162300,5.338162353515625,-7.387678055724501,-6.443000081098079,0.2834678907251917
1789223987678156300,5.34815625,-7.3607479632228605,-6.469824375137686,0.36213173239436
1789223987688149500,5.3581494140625,-7.347536014950275,-6.478226292780041,0.46549292081072924
1789223987698143700,5.368143798828125,-7.323602181655168,-6.499893934708833,0.5353688594609499
1789223987708137700,5.3781376953125,-7.255054715129733,-6.5741685467094175,0.5611390413377434
1789223987718131000,5.388130859375,-7.2352505289852616,-6.594514000123739,0.5778638565694912
1789223987728125000,5.398125,-7.266350016126037,-6.555922695922852,0.6248343916568905
1789223987738118700,5.40811865234375,-7.264649641948938,-6.553282410547137,0.6706287591043859
1789223987748111600,5.418111572265625,-7.300702952104807,-6.509812686654925,0.7017556457087397
1789223987758105900,5.42810595703125,-7.337497436016798,-6.46785979706645,0.7059086737349629
1789223987768099800,5.438099853515625,-7.304888713356852,-6.504474248236417,0.7076733453199266
1789223987778092800,5.4480927734375,-7.305356330868602,-6.497225007760524,0.766956212959066
1789223987788086500,5.45808642578125,-7.315427643027901,-6.475612895411253,0.8493202425867319
1789223987798080800,5.468080810546875,-7.285490769925713,-6.500373242658377,0.9149654117994009
1789223987808073700,5.47807373046875,-7.216693128031491,-6.573506283408403,0.937414559494704
1789223987818067700,5.488067626953125,-7.118433829331398,-6.678966891789436,0.9432312098842114
1789223987828061700,5.498061767578125,-7.132200488877296,-6.6503872785151,1.036554732682556
1789223987838054700,5.5080546875,-7.196130232474207,-6.576019727534056,1.068672237759456
1789223987848048600,5.518048583984375,-7.226765024712681,-6.546649840664863,1.041932553263381
1789223987858042600,5.528042724609375,-7.245650926968455,-6.536921058332919,0.969326532062143
1789223987868035800,5.538035888671875,-7.205803485226631,-6.59493953205943,0.868071558677405
1789223987878029800,5.54802978515625,-7.216131987017393,-6.572212736466526,0.9507114095717668
1789223987888023800,5.55802392578125,-7.317530168265104,-6.439765336960554,1.0740338378578425
1789223987898016800,5.568016845703125,-7.363071437734365,-6.390306017264724,1.058086181011051
1789223987908010800,5.5780107421875,-7.3509718346178525,-6.407063675320148,1.0407384481079875
1789223987918004700,5.588004638671875,-7.28982266165018,-6.47393882471919,1.056874321003258
1789223987927998000,5.597998046875,-7.1947747262120245,-6.576819353479147,1.0728704931668938
1789223987937992000,5.607991943359375,-7.193728432029485,-6.5732859186559915,1.1011717278912663
1789223987947985700,5.617985595703125,-7.247611997908353,-6.506563329470157,1.1433025313299148
1789223987957978600,5.627978515625,-7.285634562310576,-6.452799006056785,1.204697714947909
1789223987967972900,5.637972900390625,-7.312769237473606,-6.415232368728518,1.2403953435339032
1789223987977966800,5.647966796875,-7.310149994885921,-6.4298869170248505,1.178410231198743
1789223987987959800,5.657959716796875,-7.3483128445416686,-6.402274687477946,1.087920105195418
1789223987997953500,5.66795361328125,-7.414886965167522,-6.323025794196129,1.0996301975376903
1789223988007947800,5.67794775390625,-7.427393395519256,-6.292224413219094,1.1883286178186536
1789223988017940700,5.687940673828125,-7.423895616531372,-6.290272110107541,1.220097309457883
1789223988027934700,5.697934814453125,-7.360403679829836,-6.383485231333971,1.116227404334396
1789223988037928700,5.7079287109375,-7.256904142388701,-6.524948296466469,0.9658006960235536
1789223988047921700,5.717921630859375,-7.209239304894209,-6.586397329163551,0.9036771981310099
1789223988057915600,5.72791552734375,-7.28467653093338,-6.457165969094634,1.1869599598139524
1789223988067909600,5.73790966796875,-7.5095093686699865,-6.175683607897162,1.2800709358401596
1789223988077904000,5.74790380859375,-7.627044445726275,-6.057056643950939,1.1448362437032162
1789223988087896800,5.757896728515625,-7.613349097850918,-6.099569505509733,1.001276936943829
1789223988097890800,5.767890869140625,-7.581811803814769,-6.14735767712295,0.9468384405959397
1789223988107883800,5.7778837890625,-7.49126293336153,-6.246419524377584,1.0166638911679386
1789223988117877800,5.787877685546875,-7.422905436450242,-6.280427592441439,1.2755730398990213
1789223988127871700,5.797871826171875,-7.477431391885876,-6.24432050627172,1.1255498708877711
1789223988137865700,5.80786572265625,-7.3810858178526155,-6.3903381659686564,0.9238734523329883
1789223988147859000,5.81785888671875,-7.124458496448397,-6.681222561761737,0.8796230994570999
1789223988157852700,5.827852783203125,-6.88838179564178,-6.910465617156028,0.9828725345946848
1789223988167846700,5.8378466796875,-6.868286517596244,-6.927281142878532,1.0048915472444147
1789223988177839900,5.84783984375,-7.044544417256116,-6.758910197076201,0.9283914412140846
1789223988187833900,5.857833740234375,-7.288869306448102,-6.481799475091695,1.014412385914102
1789223988197827800,5.867827880859375,-7.6425155711025,-5.985932020413875,1.3895919255279003
1789223988207820500,5.877820556640625,-8.017464151504635,-5.506387339505553,1.253133829075843
1789223988217814800,5.887814697265625,-8.200046578010916,-5.276331798684597,1.0440025644704698
1789223988227808800,5.897808837890625,-8.208741925641894,-5.296445196908712,0.85709387226291
1789223988237801700,5.9078017578125,-8.072870981428027,-5.52006339815855,0.7266629271458834
1789223988247795700,5.917795654296875,-7.810240620216727,-5.870129466238618,0.843863511550799
1789223988257790000,5.9277900390625,-7.4548068876236675,-6.216283329311013,1.397877961705625
1789223988267782700,5.93778271484375,-7.215059973871708,-6.440978804403543,1.6208296618707476
1789223988277776600,5.947776611328125,-7.173028173828125,-6.4999699225544925,1.5711290807649492
1789223988287770600,5.9577705078125,-7.235592474290728,-6.470052923196554,1.3982143540531395
1789223988297763800,5.967763916015625,-7.3015171910971395,-6.426304966884851,1.249336774880439
1789223988307757800,5.9777578125,-7.407856920400262,-6.336921048557758,1.0665262387067078
1789223988317751600,5.98775146484375,-7.511841611009836,-6.243937059912085,0.8694077757172286
1789223988327744800,5.997744873046875,-7.551468103477358,-6.2006526294589035,0.835244297895953
1789223988337738800,6.00773876953125,-7.611637033236026,-6.113570558333397,0.926081702966988
1789223988347732700,6.017732666015625,-7.674207763439417,-6.03195084426701,0.9447204255286603
1789223988357726000,6.027725830078125,-7.706275803351402,-6.012690263479947,0.7945164200577884
1789223988367719700,6.0377197265625,-7.643665325659513,-6.112852765452861,0.6146485862724482
1789223988377713700,6.047713623046875,-7.2819152495265005,-6.540453908634185,0.6054358637038618
1789223988387707000,6.057706787109375,-6.731618870046734,-7.081849773299694,0.8385078297365456
1789223988397700900,6.067700927734375,-6.619922582146525,-7.1586185402035705,1.049378996811807
1789223988407694800,6.07769482421875,-6.915024887895584,-6.89520550418198,0.8994195406865328
1789223988417687600,6.0876875,-7.1022338051587335,-6.733371266672015,0.6247912101022899
1789223988427681800,6.097681884765625,-7.287223877328634,-6.5483104673534624,0.43172702747229486
1789223988437675800,6.10767578125,-7.585033688470721,-6.203488145145774,0.39292818146795033
1789223988447668700,6.117668701171875,-7.644862426489591,-6.131123750680684,0.36848873673826454
1789223988457662700,6.127662841796875,-7.419157482093572,-6.400688295069337,0.3970801865808666
1789223988467657000,6.137656982421875,-7.226736383140087,-6.60739920065999,0.5356678424075245
1789223988477649700,6.147649658203125,-7.221891281196474,-6.606324849426746,0.6092091351648792
1789223988487643600,6.1576435546875,-7.212645898467302,-6.628021717450022,0.46631326075028623
1789223988497637600,6.1676376953125,-7.235482584175467,-6.613821927183866,0.27484082255745307
1789223988507630800,6.177630859375,-7.403655377057194,-6.425871251642704,0.25385455048894506
1789223988517624800,6.187624755859375,-7.522269481521844,-6.286113236862421,0.2657435613283887
1789223988527618600,6.19761865234375,-7.574057536426186,-6.225645031896233,0.21303952409029006
1789223988537611800,6.20761181640625,-7.634864764088392,-6.152556999331712,0.1589558325294405
1789223988547605800,6.217605712890625,-7.5720906202673905,-6.231273393172025,0.07111641283114441
1789223988557599700,6.227599853515625,-7.409900993448495,-6.423624349498748,-0.02816396569513017
1789223988567593000,6.237593017578125,-7.3181538531214,-6.527524868956208,-0.0802344611199107
1789223988577586700,6.247586669921875,-7.280276834669709,-6.5698056753247975,-0.07482308532935567
1789223988587580700,6.25758056640625,-7.219197219806909,-6.637282297748327,0.007377085231308592
1789223988597573600,6.26757373046875,-7.176305588063597,-6.68283934930861,0.10332818119591101
1789223988607568000,6.27756787109375,-7.210241175413131,-6.64553808491826,0.14009431579625234
1789223988617561900,6.287561767578125,-7.302161334219575,-6.545013179373741,0.10781924553746357
1789223988627554600,6.297554443359375,-7.441897721689939,-6.38648967384696,0.035876229706045704
1789223988637548800,6.307548828125,-7.560840327456593,-6.245062849071622,-0.05722516335777472
1789223988647542800,6.317542724609375,-7.57448073027432,-6.226560977697372,-0.16604487747494132
1789223988657536800,6.327536865234375,-7.53273943760991,-6.274959974685311,-0.23044006489282473
1789223988667529700,6.33752978515625,-7.500404271194339,-6.3136296048194165,-0.22891747670173643
1789223988677524000,6.34752392578125,-7.474054024407267,-6.346562737128139,-0.17332500627944245
1789223988687517700,6.357517578125,-7.441610136920214,-6.3864031646072865,-0.08169507172438316
1789223988697510100,6.36751025390625,-7.388819626975059,-6.447832323560118,-0.03453596211218973
1789223988707504400,6.37750439453125,-7.332656425726413,-6.5114943561315535,-0.05459818498820532
1789223988717498000,6.387498046875,-7.317719553357362,-6.527809531116485,-0.09523533863588236
1789223988727491000,6.397490966796875,-7.3666060416013,-6.471966647863388,-0.13096392861572093
1789223988737485000,6.407485107421875,-7.439863585513829,-6.387068935039639,-0.15548161708023397
1789223988747479300,6.417479248046875,-7.495631065443158,-6.321233650082349,-0.16704923221189527
1789223988757472300,6.42747216796875,-7.522978506574034,-6.288527896788716,-0.17201827106242998
1789223988767466000,6.437466064453125,-7.526527723488211,-6.284322261792421,-0.1704480626036413
1789223988777460200,6.447460205078125,-7.494855989417434,-6.322528950589895,-0.15210717221107334
1789223988787453200,6.457453125,-7.438451380628347,-6.38973435485661,-0.10543128182184881
1789223988797447200,6.467447265625,-7.371050746050477,-6.467721849900483,-0.08105875571537763
1789223988807441200,6.477441162109375,-7.276101594811678,-6.5735992223888635,-0.12855530570456758
1789223988817434000,6.48743408203125,-7.208188919058442,-6.646506637689471,-0.1906406635438092
1789223988827428000,6.497427978515625,-7.221312604525685,-6.632697892567515,-0.174202720695734
1789223988837422000,6.507422119140625,-7.314027713102102,-6.5319608055770395,-0.09415036554392427
1789223988847415300,6.517415283203125,-7.461269361636043,-6.363862831497192,-0.03307469848716864
1789223988857409300,6.5274091796875,-7.561631770095229,-6.244317583662271,-0.024648383905785158
1789223988867403300,6.5374033203125,-7.5630620951592915,-6.242345991328358,-0.05991587287962902
1789223988877396200,6.547396240234375,-7.528277782025933,-6.283847045496106,-0.09316169243329205
1789223988887390200,6.55739013671875,-7.4653610148638485,-6.358325071114301,-0.10230872935452498
1789223988897384200,6.56738427734375,-7.395379716143012,-6.440221848556399,-0.04788180927999783
1789223988907377200,6.577377197265625,-7.353004217228293,-6.488543688654899,0.05012297580291051
1789223988917371400,6.587371337890625,-7.2755837084174155,-6.574848930189013,0.08734632981857285
1789223988927365000,6.597365234375,-7.16156686861515,-6.699368459305167,0.028378898503887466
1789223988937358000,6.607358154296875,-7.1062500550627705,-6.758046273723244,-0.02014003278600285
1789223988947352000,6.61735205078125,-7.146586157104372,-6.715335843765735,0.03088356338475132
1789223988957346300,6.62734619140625,-7.2529486827611915,-6.598675211456418,0.1503437427351251
1789223988967339300,6.63733935546875,-7.367045602062344,-6.467421990171075,0.2635895981648937
1789223988977333000,6.6473330078125,-7.419155144006013,-6.406301458775997,0.2929467899492942
1789223988987327000,6.657326904296875,-7.416518950283527,-6.411532345166802,0.2405854469353333
1789223988997321200,6.6673212890625,-7.4138804184734814,-6.41541649312377,0.2172277147614397
1789223989007314200,6.677314208984375,-7.406596691206097,-6.420538658443093,0.2989862893092446
1789223989017308200,6.68730810546875,-7.343515088871121,-6.4863149066895245,0.41338104077950116
1789223989027302100,6.69730224609375,-7.2289955602437255,-6.608647154894471,0.48763376974184064
1789223989037295000,6.707295166015625,-7.133279516285658,-6.704208300551771,0.5833538688205182
1789223989047289000,6.7172890625,-7.134260928538441,-6.685145872685313,0.7625791669186204
1789223989057283000,6.727282958984375,-7.228465983411669,-6.568453091672063,0.8803906497634947
1789223989067276300,6.7372763671875,-7.328537299969792,-6.451667956200241,0.9159162097182124
1789223989077270300,6.747270263671875,-7.349051680210232,-6.427510251021385,0.9213757172331214
1789223989087264000,6.757263916015625,-7.324091426476836,-6.453141535884142,0.9407640160530805
1789223989097257200,6.76725732421875,-7.3065534316986795,-6.462281120151281,1.0117238774824886
1789223989107251200,6.777251220703125,-7.289287824121117,-6.463150888723135,1.1244326303608714
1789223989117245200,6.7872451171875,-7.256426588004827,-6.475071628141403,1.2602008448526263
1789223989127238400,6.79723828125,-7.158679915001988,-6.5569760043680665,1.3891560183286666
1789223989137232100,6.807232177734375,-7.034543832245468,-6.666582626512646,1.4974144407346843
1789223989147226000,6.81722607421875,-6.982559377986192,-6.695984077563882,1.6056296085208654
1789223989157219000,6.827218994140625,-7.0215393892437215,-6.628980333349109,1.7102616571232676
1789223989167213300,6.83721337890625,-7.088284190261364,-6.542474600806832,1.7671002734154462
1789223989177207300,6.847207275390625,-7.115688914537429,-6.496586125335097,1.8253018486239014
1789223989187200000,6.857199951171875,-7.122611407276987,-6.465421171742677,1.9071235150031745
1789223989197194000,6.867194091796875,-7.161752162054181,-6.404217053717375,1.966135822072625
1789223989207188200,6.877188232421875,-7.24541711821258,-6.307887261775136,1.9710078120231627
1789223989217181200,6.88718115234375,-7.324704589939117,-6.221961959469318,1.9509685019485652
1789223989227175200,6.897175048828125,-7.351955584958195,-6.189703949943184,1.951075907845795
1789223989237169200,6.907169189453125,-7.314434540337324,-6.224199509263038,1.9821137279272079
1789223989247162000,6.917162109375,-7.230208443164825,-6.305726868870854,2.0327993745476007
1789223989257156000,6.927156005859375,-7.135035420042276,-6.397472840154171,2.0818255635231733
1789223989267150000,6.937150146484375,-7.071493798980116,-6.462680348601937,2.097172477997839
1789223989277143300,6.947143310546875,-7.047437800610065,-6.497827065306901,2.0693588806599377
1789223989287137300,6.95713720703125,-7.023840651923417,-6.549763588771223,1.984096864568442
1789223989297131000,6.967131103515625,-7.003774015450477,-6.60870502256155,1.8554137860320508
1789223989307125000,6.977125,-7.027684467869997,-6.604684681004286,1.7776885951861738
1789223989317118200,6.9871181640625,-7.092334342435002,-6.522686196753383,1.8231141293212771
1789223989327112200,6.9971123046875,-7.166413724124431,-6.42781829405725,1.8697750504702328
1789223989337106200,7.007106201171875,-7.202710195386409,-6.392123880341648,1.8525905453048646
1789223989347099100,7.01709912109375,-7.2029463422298425,-6.418725471541285,1.7572439191810785
1789223989357093000,7.027093017578125,-7.209370237797498,-6.439630312404036,1.6512170552194116
1789223989367087000,7.037087158203125,-7.266124390676617,-6.396045437699556,1.5698527772188187
1789223989377080300,7.047080322265625,-7.331065357142687,-6.340752005022764,1.4902129849232733
1789223989387074300,7.05707421875,-7.3296853009611365,-6.354481255167722,1.437592570848018
1789223989397068300,7.067068359375,-7.263547818186879,-6.441462788528203,1.3852148794874548
1789223989407061000,7.07706103515625,-7.190065817868709,-6.540022531479597,1.304393476191908
1789223989417055200,7.08705517578125,-7.206020927369594,-6.53369449750185,1.2467885517023503
1789223989427049200,7.09704931640625,-7.285891751942038,-6.453456008660793,1.1996112785290927
1789223989437042200,7.107042236328125,-7.303147422647476,-6.447583317235112,1.1238773345656692
1789223989447036200,7.1170361328125,-7.262803137299418,-6.501991783770919,1.070597798994556
1789223989457030100,7.127030029296875,-7.248488196220993,-6.515608221191167,1.0847384794846175
1789223989467023000,7.137023193359375,-7.274234631896019,-6.477359446817636,1.1400466713391244
1789223989477017000,7.14701708984375,-7.299700497063994,-6.446911701583862,1.149820242660865
1789223989487011000,7.157010986328125,-7.253371876609325,-6.514152177163958,1.0605670380413532
1789223989497004300,7.16700439453125,-7.1497770621001715,-6.637950406268239,0.994324706653133
1789223989506998000,7.176998046875,-7.151750992521643,-6.632749330493807,1.0146277091652154
1789223989516992000,7.186991943359375,-7.230811669754981,-6.549498800355195,0.9948956384088844
1789223989526986200,7.196986328125,-7.264119480594992,-6.528128680068254,0.8868438444908708
1789223989536979200,7.206979248046875,-7.2373045389056205,-6.579357932046055,0.7098286967229097
1789223989546973200,7.21697314453125,-7.208039281454682,-6.622008156248927,0.6029612172186374
1789223989556967200,7.22696728515625,-7.237731824406981,-6.581110913193226,0.6889174261193722
1789223989566960000,7.236960205078125,-7.303334469652175,-6.503766976749897,0.7298721715159714
1789223989576954000,7.2469541015625,-7.376867323374748,-6.427087641695142,0.6669019206009805
1789223989586948000,7.256947998046875,-7.425727508133649,-6.376169355362653,0.6110813953101635
1789223989596941300,7.26694140625,-7.46412650463283,-6.336570335423946,0.5523417677022516
1789223989606935300,7.276935302734375,-7.518966348323225,-6.2834367111295455,0.3923636794529855
1789223989616929000,7.286928955078125,-7.507094708743691,-6.306990605196356,0.1891589005534537
1789223989626922200,7.296922119140625,-7.358879246741533,-6.481403753772377,0.09319089112831279
1789223989636916200,7.306916259765625,-7.1746087210178375,-6.682172994354367,0.20963892186656594
1789223989646910200,7.31691015625,-7.158253214022516,-6.6891065930098295,0.43087304099146273
1789223989656903200,7.326903076171875,-7.264047584402561,-6.577627747252583,0.372572206659615
1789223989666897200,7.336897216796875,-7.370809923031926,-6.465563210561871,0.19503462418643758
1789223989676891100,7.34689111328125,-7.400543967038392,-6.434429821151495,0.021153162201168016
1789223989686884000,7.356884033203125,-7.345676650819182,-6.4970256857961415,-0.009124201180806266
1789223989696878600,7.366878662109375,-7.311892454639077,-6.533968638268113,0.11778849469493143
1789223989706872600,7.37687255859375,-7.355667298957705,-6.481238334077596,0.24103872539447618
1789223989716865800,7.38686572265625,-7.41563690675199,-6.413153224366903,0.22399607638521118
1789223989726859500,7.396859619140625,-7.4822034285932775,-6.338861661231517,0.07646477898862213
1789223989736853500,7.406853515625,-7.537199924150109,-6.272367035582661,-0.13570881245471536
1789223989746846700,7.4168466796875,-7.5370345044553275,-6.265074540486931,-0.33517851474545896
1789223989756840700,7.4268408203125,-7.47906513056755,-6.326614758598804,-0.4559753700766712
1789223989766834700,7.436834716796875,-7.400387899693846,-6.418524396011233,-0.45517336951140314
1789223989776828700,7.44682861328125,-7.329153970563412,-6.50517918163538,-0.3694964890087023
1789223989786821600,7.456821533203125,-7.308893272823095,-6.533353136718273,-0.2564387948284857
1789223989796815600,7.466815673828125,-7.388578803956508,-6.4452189261913295,-0.1960836400490254
1789223989806809600,7.4768095703125,-7.480210208949447,-6.335842021149396,-0.27193828778266904
1789223989816802800,7.486802734375,-7.498451383560895,-6.30275165245235,-0.46789647482112046
1789223989826796800,7.496796875,-7.501579160192608,-6.27997867963016,-0.677168243875727
1789223989836790500,7.50679052734375,-7.523691038757562,-6.24312632805109,-0.7667023843284696
1789223989846783700,7.51678369140625,-7.528647199860215,-6.244959973219037,-0.7002354504041374
1789223989856777700,7.52677783203125,-7.5212962525755165,-6.2673074141055345,-0.5668746989129111
1789223989866771700,7.536771728515625,-7.498758257552981,-6.298029884627461,-0.5232916143067181
1789223989876764700,7.5467646484375,-7.427194658076763,-6.373590444785356,-0.6200823017589747
1789223989886758700,7.556758544921875,-7.337245507082343,-6.460692974177003,-0.7711435816463083
1789223989896752600,7.566752685546875,-7.336431268090009,-6.449986286723614,-0.8630415286209434
1789223989906745600,7.57674560546875,-7.426372820299863,-6.341310807949304,-0.898413505449146
1789223989916739600,7.586739501953125,-7.536417833861708,-6.199585877010226,-0.9684683808628469
1789223989926733800,7.59673388671875,-7.6493772735655305,-6.044436231830716,-1.0593399804644286
1789223989936726500,7.6067265625,-7.729761892879009,-5.94026741682589,-1.0650769897464663
1789223989946720500,7.616720458984375,-7.702063738614321,-5.976907586959004,-1.0607427599344401
1789223989956714800,7.62671484375,-7.579501773306727,-6.111205582767725,-1.1724788683883844
1789223989966708700,7.636708740234375,-7.439222365000844,-6.249034090790152,-1.3333895613126456
1789223989976701700,7.64670166015625,-7.361618316316604,-6.330518195778131,-1.3789485125690697
1789223989986695700,7.65669580078125,-7.377004686018824,-6.3337102698177095,-1.2783974496699868
1789223989996689700,7.666689697265625,-7.469770647999644,-6.241288591229916,-1.1913134788483382
1789223990006682600,7.6766826171875,-7.599697004595399,-6.082788466578721,-1.1893992427248508
1789223990016676600,7.686676513671875,-7.70208244331479,-5.934098957324028,-1.278581866326183
1789223990026670600,7.696670654296875,-7.7249425098985425,-5.848574052512645,-1.5132164055004715
1789223990036663800,7.706663818359375,-7.700344659736752,-5.805067503741383,-1.7822091413505374
1789223990046657500,7.716657470703125,-7.663492892679572,-5.827744614973664,-1.8651169955313205
1789223990056651500,7.726651611328125,-7.621022701218724,-5.917777352598309,-1.752230913324654
1789223990066644700,7.736644775390625,-7.595206707438826,-6.001587854707241,-1.569765245065838
1789223990076638700,7.746638671875,-7.577543040454387,-6.0544064217031,-1.4475472708903252
1789223990086632700,7.7566328125,-7.567947529113292,-6.064127020728588,-1.457024124287814
1789223990096625700,7.766625732421875,-7.56246938996315,-6.0330889083862305,-1.6066368858672677
1789223990106619600,7.77661962890625,-7.556985990116,-5.979986263751983,-1.8171710030078887
1789223990116613600,7.786613525390625,-7.561189871546626,-5.938633093622326,-1.9316906777657568
1789223990126606600,7.796606689453125,-7.61129508793056,-5.899187218418717,-1.8542266220740973
1789223990136600800,7.806600830078125,-7.661878443220258,-5.882500287511944,-1.6918043555431066
1789223990146594800,7.8165947265625,-7.631273461598157,-5.949942423143982,-1.591300492786616
1789223990156588500,7.826588623046875,-7.516701910522579,-6.1034150750219816,-1.554957990425825
1789223990166581500,7.83658154296875,-7.355726920190453,-6.283828340795636,-1.6053547371022403
1789223990176575700,7.84657568359375,-7.229047582691908,-6.392765685376524,-1.7446489337630569
1789223990186569700,7.85656982421875,-7.300927993032336,-6.351604238426685,-1.5886983474642038
1789223990196562700,7.866562744140625,-7.470203778719902,-6.238045663785934,-1.2055012864157557
1789223990206556700,7.876556640625,-7.55663235437274,-6.117918232148885,-1.2801454623810946
1789223990216550700,7.886550537109375,-7.633199461224675,-6.016718203821778,-1.305280342029035
1789223990226543600,7.896543701171875,-7.592011126267909,-6.089464875602721,-1.204226736435294
1789223990236537600,7.90653759765625,-7.4118071193307635,-6.311230726984143,-1.184848155291751
1789223990246531800,7.91653173828125,-7.233255555775761,-6.494075603818893,-1.295137279807776
1789223990256524500,7.926524658203125,-7.077129759040474,-6.641858519622683,-1.4036873786367474
1789223990266518500,7.9365185546875,-6.952199311035871,-6.782195211073756,-1.3561496746532617
1789223990276512500,7.946512451171875,-6.975124844071269,-6.810806388530135,-1.0634566220030188
1789223990286505700,7.956505615234375,-7.1717626839369535,-6.653792118522524,-0.6806358469210565
1789223990296499700,7.966499755859375,-7.435967162597179,-6.3633046130925415,-0.6205817026484757
1789223990306493700,7.97649365234375,-7.705563271167874,-6.034484746658801,-0.6161797413624823
1789223990316486700,7.986486572265625,-7.8587296335756776,-5.827435987415909,-0.6721134447041899
1789223990326480600,7.996480712890625,-7.84732911863923,-5.834227547252178,-0.7426973854932933
1789223990336474600,8.006474609375,-7.764068651628494,-5.959859421524405,-0.6080324926009402
1789223990346468600,8.016468505859375,-7.643743651592731,-6.1322249899208545,-0.3733490727836266
1789223990356461800,8.0264619140625,-7.499799291038513,-6.3065212341189385,-0.3888281988032162
1789223990366455600,8.03645556640625,-7.377510881975293,-6.442062507987022,-0.49249158503655344
1789223990376449500,8.046449462890624,-7.274452658560872,-6.546785449743271,-0.6263578748971224
1789223990386442800,8.05644287109375,-7.227022798866033,-6.585487813103199,-0.7562274598043411
1789223990396436700,8.066436767578125,-7.278419808626174,-6.529443854320049,-0.749225983544439
1789223990406430700,8.0764306640625,-7.378889769113063,-6.4440574811965226,-0.4432627496283501
1789223990416423700,8.086423583984375,-7.421257669243216,-6.408752943581343,-0.1523139285632409
1789223990426417700,8.096417724609376,-7.403629658094048,-6.430866575711965,-0.024743382412591015
1789223990436411600,8.10641162109375,-7.217198154944181,-6.639187254586815,-0.06028850101772695
1789223990446404600,8.116404541015624,-6.8616212144881485,-7.004560197392106,-0.15709374671829862
1789223990456398800,8.12639892578125,-6.52285804618895,-7.317140292164683,-0.28664009102052074
1789223990466392800,8.136392822265625,-6.291366335085034,-7.51077018238604,-0.4212164105802774
1789223990476385500,8.146385498046875,-6.301849735176563,-7.513731954801083,0.030283364435320252
1789223990486379500,8.156379638671876,-6.482111025258899,-7.35722446527183,0.1544849524593912
1789223990496373800,8.166373779296874,-6.694771194642782,-7.1648097960591315,-0.12619753619781696
1789223990506367700,8.17636767578125,-6.942664005449414,-6.919606370466947,-0.2980685716761276
1789223990516360700,8.186360595703125,-7.176465747061371,-6.683160836347938,-0.06392677988826763
1789223990526354700,8.196354736328125,-7.251139587512612,-6.597891367602348,0.24329649599231779
1789223990536348700,8.2063486328125,-7.360793555930257,-6.4684080785989755,0.3857523715544492
1789223990546341600,8.216341552734375,-7.49420892368555,-6.286499021309614,0.6979612949270755
1789223990556335600,8.226335693359376,-7.5907245935887095,-6.147693192687631,0.8701485841471701
1789223990566329600,8.23632958984375,-7.607754638844728,-6.108674018463492,0.988207758142799
1789223990576322600,8.246322509765625,-7.293148006680608,-6.501701860913634,0.8415770811140537
1789223990586316500,8.256316650390625,-6.56761839441359,-7.25955436463654,0.5793407972542569
1789223990596310500,8.266310546875,-5.727687326940893,-7.945827486792206,0.47729153168667104
1789223990606303700,8.2763037109375,-5.269501660403609,-8.258812655234337,0.4413027746669948
1789223990616297700,8.286297607421876,-5.184909068006276,-8.312864563417435,0.42822636240758
1789223990626291700,8.296291748046874,-5.319017678722739,-8.203223454481362,0.7652157990325242
1789223990636284700,8.30628466796875,-5.904544946059584,-7.660262240195274,1.6208372606553136
1789223990646278700,8.316278564453125,-6.937851636731624,-6.724121792289615,1.6801152329236269
1789223990656272600,8.326272705078125,-7.616652815571427,-5.966622339788079,1.5988753119550645
1789223990666266600,8.3362666015625,-7.905496645447611,-5.587490336221456,1.5663509065777061
1789223990676259800,8.346259765625,-8.068530321875214,-5.424221681994199,1.2833598943829536
1789223990686253800,8.35625390625,-8.046201585689186,-5.434577656313777,1.376368725208938
1789223990696247800,8.366247802734375,-7.588099505782127,-5.8063581280738115,2.2084688067950307
1789223990706240800,8.37624072265625,-7.260584876728058,-6.190266260001063,2.266029892142862
1789223990716235000,8.386235107421875,-6.89970281560123,-6.649037617471814,2.0868100739374755
1789223990726229000,8.39622900390625,-6.270472600138187,-7.21936439306736,2.175393489536643
1789223990736222000,8.406221923828125,-5.638235604074597,-7.638786321446299,2.455528527778387
1789223990746216000,8.4162158203125,-5.643477596381306,-7.6665762456476685,2.354813652619719
1789223990756210000,8.4262099609375,-6.025263329327106,-7.446911165937781,2.1000245064280927
1789223990766203000,8.436202880859375,-6.506555146163701,-7.088840655100345,1.8930051194101571
1789223990776196900,8.44619677734375,-7.028040441700815,-6.614203035455942,1.740505696478486
1789223990786191000,8.456191162109375,-7.460370366969705,-6.132402684575319,1.7049638429760932
1789223990796183800,8.466183837890625,-7.725963085117936,-5.735386649271845,1.893468791399151
1789223990806177800,8.476177734375,-7.78128925102055,-5.495279670035838,2.3289105650782584
1789223990816171800,8.486171875,-7.722127452477812,-5.509704501229525,2.4864210941702125
1789223990826166000,8.496166015625,-7.545895271781086,-5.818826564502715,2.3175638261556624
1789223990836159000,8.506158935546875,-7.22688017552495,-6.259429812598228,2.182229326906055
1789223990846153000,8.516153076171875,-6.869212400269508,-6.637175914764404,2.2208540949851274
1789223990856146700,8.526146728515625,-6.565127162119746,-6.890122501829266,2.3655256007701158
1789223990866140000,8.536139892578126,-6.373632530361413,-7.031160619547963,2.4718343504130837
1789223990876134000,8.5461337890625,-6.309751886603236,-7.072432541134953,2.5175606210604307
1789223990886127900,8.5561279296875,-6.365611136469244,-7.011082292637228,2.548351772904396
1789223990896121000,8.56612109375,-6.5979153329998255,-6.808495773500204,2.5064494444593786
1789223990906114800,8.57611474609375,-7.003104153364896,-6.460830921342969,2.3204694844692946
1789223990916108800,8.58610888671875,-7.3923887176334855,-6.105569038185477,2.0603382465973494
1789223990926102000,8.59610205078125,-7.607323261690139,-5.894941251412034,1.8837943696029482
1789223990936096000,8.606095947265626,-7.684094366681576,-5.789766474235058,1.8983362513050437
1789223990946090000,8.616090087890624,-7.734334023100137,-5.660863030946254,2.0748703375577926
1789223990956084000,8.626083984375,-7.726281065025925,-5.669629690247774,2.0809300759881735
1789223990966077000,8.636076904296875,-7.611193381121754,-5.842658106467128,2.0257032788068057
1789223990976071000,8.64607080078125,-7.359073892530798,-6.143145612385869,2.0678952378481625
1789223990986065000,8.65606494140625,-7.079976380643248,-6.424903283393383,2.182875369724631
1789223990996058000,8.66605810546875,-6.976636417677998,-6.53637862201929,2.18464939365983
1789223991006052000,8.676052001953124,-7.051628238037228,-6.48865474781394,2.08381366860047
1789223991016045800,8.6860458984375,-7.151697216507792,-6.413539593335986,1.972338037713617
1789223991026038800,8.696038818359375,-7.1861880996525285,-6.408357806783914,1.8606549015559255
1789223991036033000,8.706032958984375,-7.153427985823154,-6.490833845418691,1.6934972770661114
1789223991046027000,8.716027099609375,-7.14588239274919,-6.537289891645312,1.5396690897487102
1789223991056020000,8.72602001953125,-7.225924482235312,-6.41327012874484,1.6811795011542736
1789223991066013700,8.736013671875,-7.325011463931203,-6.230190858632326,1.9233594872720539
1789223991076008000,8.746008056640624,-7.460756735938787,-6.03900134730041,2.0094687678426504
1789223991086001000,8.7560009765625,-7.678978631103038,-5.854534422221779,1.7111686889655886
1789223991095995000,8.765994873046875,-7.735683099621534,-5.856244148749113,1.4261816806480287
1789223991105988900,8.77598876953125,-7.606377505272627,-6.073132749482989,1.1960201952345668
1789223991115983000,8.785983154296876,-7.365951961606741,-6.4057046619266265,0.9381346904627978
1789223991125975800,8.795975830078126,-7.108716152915358,-6.7025768999576565,0.8438046940356493
1789223991135969800,8.8059697265625,-6.895763722586631,-6.894531550443172,1.0412831494439392
1789223991145964000,8.815964111328125,-6.816602507588267,-6.951069430223107,1.1776903924915938
1789223991155957000,8.82595703125,-6.880000920787453,-6.894905644452572,1.1385324673838912
1789223991165951000,8.835950927734375,-6.989220589441061,-6.81935677473247,0.904188435588777
1789223991175944700,8.84594482421875,-7.076222581067681,-6.761446437555551,0.6166868871670216
1789223991185938000,8.85593798828125,-7.148128125849365,-6.693155576139688,0.5256629830805585
1789223991195932000,8.865931884765626,-7.182977905434369,-6.639716246896982,0.6995555053159594
1789223991205926000,8.87592578125,-7.176701893904805,-6.617997751563787,0.9313617622617631
1789223991215919000,8.885919189453125,-7.242679217681288,-6.537846356484294,0.9851615223146974
1789223991225912800,8.895912841796875,-7.344798114418983,-6.451721147692203,0.774354141190648
1789223991235906800,8.90590673828125,-7.357415603929757,-6.468040414330363,0.4508564926929772
1789223991245900800,8.91590087890625,-7.3343766736477605,-6.5082713024318215,0.14041666135210543
1789223991255894000,8.92589404296875,-7.272785602131486,-6.578332680651545,-0.050158937598858026
1789223991265888000,8.935887939453124,-7.125849074023962,-6.7373986224919555,-0.011420545085967751
1789223991275882000,8.945882080078125,-6.980024306550622,-6.885991685634851,0.1809942987983115
1789223991285875000,8.955875,-6.944189607581496,-6.917542423674464,0.3101884138630703
1789223991295869000,8.965868896484375,-6.9996402766466135,-6.863138633313775,0.2697313340566121
1789223991305863000,8.97586279296875,-7.129186109492182,-6.730898739078641,0.20021942467950282
1789223991315856000,8.98585595703125,-7.332742934966087,-6.508507449275255,0.20148482323912903
1789223991325850000,8.99585009765625,-7.501134339034557,-6.315684199261665,0.12450779301258734
1789223991335844000,9.005843994140625,-7.531604296100139,-6.280470262539386,0.03185470312198158
1789223991345836800,9.0158369140625,-7.421932792025804,-6.409639078766107,0.042832540233526374
1789223991355830800,9.025830810546875,-7.260476155656575,-6.590978227213025,0.1219782562686596
1789223991365825000,9.035824951171875,-7.130987021434307,-6.731120857396721,0.10687882288219407
1789223991375819000,9.045819091796876,-7.085626369228959,-6.779626821890473,-0.0308069636177388
1789223991385811700,9.055811767578126,-7.09765349163115,-6.763640732729435,-0.2164891713538207
1789223991395806000,9.065805908203124,-7.110259875226021,-6.7451131423920385,-0.34356972833070903
1789223991405800000,9.075800048828125,-7.115757303598523,-6.738817841640114,-0.3531443430142477
1789223991415793000,9.08579296875,-7.157666354045271,-6.698705026960373,-0.25602798553789036
1789223991425787000,9.095786865234375,-7.232025721719861,-6.622718934866786,-0.08822991685322486
1789223991435781000,9.105781005859376,-7.31018798880875,-6.53690060006678,0.021544392291747497
1789223991445773800,9.11577392578125,-7.383810858902335,-6.453547778597474,-0.03795852500597248
1789223991455767800,9.125767822265624,-7.398473005983233,-6.432951565292477,-0.2238553710065782
1789223991465761800,9.13576171875,-7.341963183254003,-6.489277263626456,-0.39400706274583935
1789223991475755000,9.145755126953125,-7.2605153186231846,-6.576397328674793,-0.45420269784834233
1789223991485749000,9.1557490234375,-7.235910454198717,-6.608339111858606,-0.3766157098967582
1789223991495743000,9.165742919921875,-7.24358990278542,-6.6069286605387925,-0.2220157344892621
1789223991505736700,9.17573681640625,-7.205987609621882,-6.651217884120345,-0.07370258426629006
1789223991515730000,9.18572998046875,-7.138392913776635,-6.724013071218133,-0.03725683387686731
1789223991525724000,9.195723876953124,-7.1083537493437525,-6.754444449838996,-0.13847715379004366
1789223991535718000,9.2057177734375,-7.124028872859477,-6.733112907996773,-0.2894623453670181
1789223991545711000,9.215711181640625,-7.185860182872414,-6.665462098050117,-0.3246615411778912
1789223991555704800,9.225704833984375,-7.328342654180526,-6.512651124951243,-0.22616196744851766
1789223991565698800,9.23569873046875,-7.4659391070127485,-6.3574786834180355,-0.11227906535738147
1789223991575692000,9.245692138671876,-7.4937623489618295,-6.325654389134049,0.0034926315990756844
1789223991585686000,9.25568603515625,-7.455352831068635,-6.370401877877116,0.0779723888062872
1789223991595680000,9.265679931640625,-7.410119604635238,-6.4234343798846005,-0.0027121110716092516
1789223991605674000,9.275674072265625,-7.369176184350252,-6.470137678870558,-0.05427691257800907
1789223991615667000,9.2856669921875,-7.330695354786515,-6.513534922048449,-0.07176184372836723
1789223991625661000,9.295660888671875,-7.19974257775247,-6.656142481040955,-0.172784542727191
1789223991635655000,9.305655029296876,-6.966694284856319,-6.896749226492643,-0.2653502146292478
1789223991645648100,9.315648193359374,-6.695591863375902,-7.160704114305973,-0.25249047732781615
1789223991655642000,9.32564208984375,-6.469672399446368,-7.368297647950053,-0.1480172725489363
1789223991665635800,9.3356357421875,-6.414582380387187,-7.417686240497231,-0.038153369441349054
1789223991675628800,9.34562890625,-6.489799241673946,-7.351856216236949,0.05559146577529609
1789223991685623000,9.355623046875,-6.601126696261764,-7.250936173895001,0.1394343631833326
1789223991695616800,9.36561669921875,-6.785401898160576,-7.078171961569786,0.16792915685158222
1789223991705609700,9.375609619140626,-7.125023144593834,-6.720104373341798,0.4946011976016685
1789223991715603700,9.385603759765624,-7.428063842126726,-6.350048825678229,0.8192289095751941
1789223991725598000,9.395597900390625,-7.568769366890192,-6.192221485722064,0.7351947547782212
1789223991735591700,9.405591796875,-7.556047832483053,-6.235390180841088,0.44320948507115243
1789223991745584600,9.415584716796875,-7.434822668737173,-6.391826943221688,0.19582431325940414
1789223991755579000,9.425578857421876,-7.226211482483148,-6.616424218636751,0.41855321925301103
1789223991765572900,9.43557275390625,-7.007305696707964,-6.776361098092794,1.0719051552660763
1789223991775565800,9.44556591796875,-6.881603679808974,-6.815014361613988,1.5393153078749775
1789223991785559600,9.4555595703125,-6.83090049753189,-6.831033184000849,1.687058914581686
1789223991795553800,9.4655537109375,-6.856632904681563,-6.8354995157599445,1.5597800037547944
1789223991805546800,9.475546630859375,-7.0069573216617105,-6.70885524957478,1.4367308394521474
1789223991815540700,9.485540771484375,-7.240275079149008,-6.488924796926975,1.2816583511620758
1789223991825534700,9.49553466796875,-7.413526782730221,-6.319662455242872,1.127770615677163
1789223991835527700,9.505527587890626,-7.488269596764445,-6.214170282679796,1.2166713535971938
1789223991845521700,9.515521728515624,-7.481924611651897,-6.129604578289389,1.6183733547598123
1789223991855515600,9.525515625,-7.434075649762153,-6.043941141790151,2.091812266138941
1789223991865509600,9.535509521484375,-7.447000013265013,-5.944177868267894,2.319337119438499
1789223991875502800,9.5455029296875,-7.455980607578158,-5.91484714436531,2.365019989335537
1789223991885496800,9.555496826171876,-7.377945766261219,-5.993181260889768,2.412069471410662
1789223991895490600,9.565490478515626,-7.269391868039965,-6.092314419814944,2.4919933413445947
1789223991905483800,9.57548388671875,-7.19937140635252,-6.150452136006951,2.55173849273324
1789223991915477800,9.585477783203125,-7.13482206955254,-6.230609376305341,2.538543495595455
1789223991925471700,9.5954716796875,-7.031934526529907,-6.386868444031476,2.4351995871074497
1789223991935465000,9.60546484375,-6.934661316257714,-6.538594544503092,2.3081696826055644
1789223991945458700,9.615458740234375,-6.99412531261742,-6.512409717410803,2.2002526209831235
1789223991955452700,9.62545263671875,-7.222886137452721,-6.294764745351672,2.091946413912624
1789223991965445600,9.635445556640626,-7.435486101081967,-6.037473991602659,2.1054282651677725
1789223991975440000,9.64543994140625,-7.557986107069254,-5.820445690137148,2.273685667593032
1789223991985433900,9.655433837890625,-7.570845004120469,-5.725020153558254,2.465122577814758
1789223991995427800,9.665427734375,-7.5156410032927985,-5.804110641407966,2.44904720293507
1789223992005420800,9.6754208984375,-7.344031806221604,-6.100099666863679,2.2415108063057065
1789223992015414800,9.685414794921876,-7.107317392033338,-6.447838753300905,2.020345112774521
1789223992025408800,9.69540869140625,-6.923567675313353,-6.702444213488698,1.8198453367836773
1789223992035401700,9.705401611328124,-6.73339815467894,-6.92113021903336,1.711631776432693
1789223992045396000,9.71539599609375,-6.565480797863006,-7.071432424181699,1.7491970985867082
1789223992055389700,9.7253896484375,-6.658953446808457,-6.935721054443716,1.929896926216781
1789223992065382700,9.735382568359375,-7.06706604566574,-6.507317362707853,1.9702235297776758
1789223992075376600,9.745376708984375,-7.388990307366847,-6.11570990844965,2.0423757427968083
1789223992085371000,9.755370849609376,-7.568152111774682,-5.849126425698399,2.1636036830216643
1789223992095364900,9.76536474609375,-7.656962614127993,-5.745899275457859,2.1274267464861274
1789223992105357600,9.775357666015625,-7.649047018697857,-5.826202061706781,1.9281687872499227
1789223992115351600,9.7853515625,-7.358941790583729,-6.1284863879144185,2.1114007637061176
1789223992125345800,9.795345703125,-7.091676755309105,-6.411652172154188,2.1838556129336357
1789223992135338800,9.8053388671875,-6.884114201325178,-6.649749565133452,2.135457346598059
1789223992145332700,9.815332763671876,-6.616934506246447,-6.90522304032743,2.1689755853183565
1789223992155326700,9.82532666015625,-6.3550044022589915,-7.118675236871838,2.260259199786931
1789223992165319700,9.835319580078124,-6.385474359324574,-7.14843733792901,2.072668005207926
1789223992175313700,9.845313720703125,-6.6319806842088695,-7.021153604796528,1.7001847920060156
1789223992185307600,9.8553076171875,-6.8886395697951315,-6.828837135261296,1.4436124156594277
1789223992195302000,9.865302001953125,-7.15800537674129,-6.518384115645289,1.5633327278003095
1789223992205294800,9.875294921875,-7.434501766219735,-6.169711547750234,1.6832177289836108
1789223992215288600,9.88528857421875,-7.596811804547905,-6.000353344476222,1.5667149175845085
1789223992225282600,9.895282470703124,-7.534503524672985,-6.099555476984381,1.4822498970896005
1789223992235275800,9.90527587890625,-7.2852592992573975,-6.396304965418577,1.4773819987922907
1789223992245269800,9.915269775390625,-7.037932305639981,-6.693537268933653,1.3544202205121516
1789223992255263700,9.925263671875,-6.932571065980196,-6.836875480288267,1.1691789500601588
1789223992265256700,9.935256591796875,-6.8568626217842095,-6.911846842381358,1.1748119144458322
1789223992275250700,9.945250732421876,-6.78345485574603,-6.98541710550487,1.1657921571660785
1789223992285244700,9.95524462890625,-6.7570005640625945,-7.024733801370859,1.080019999595359
1789223992295238700,9.96523876953125,-6.871119110673666,-6.93235713096857,0.9489636160563677
1789223992305232000,9.97523193359375,-7.113940025043487,-6.704909726819396,0.7787278992954642
1789223992315225900,9.985225830078125,-7.284312373796105,-6.537577476415038,0.6076662896370515
1789223992325219800,9.9952197265625,-7.320003280380368,-6.512552340751886,0.41785274283345786
1789223992335212800,10.005212890625,-7.269969375666975,-6.578450754073262,0.20471730235433205
1789223992345206800,10.015206787109374,-7.150290856841206,-6.711459879115224,0.0057974467904714395
1789223992355200800,10.02520068359375,-6.978072003439069,-6.88955610011816,-0.10446034529730677
1789223992365193700,10.03519384765625,-6.844698721259832,-7.021332468494773,-0.146183636514144
1789223992375188000,10.04518798828125,-6.773582865551114,-7.08968996540606,-0.15890623950036242
1789223992385181700,10.055181640625,-6.731274586653709,-7.129601120033859,-0.17063207740103825
1789223992395175700,10.06517578125,-6.766266405057907,-7.094086739060282,-0.24892595324665306
1789223992405169000,10.0751689453125,-6.879574804329872,-6.9740405559659004,-0.4523365751828998
1789223992415163000,10.085162841796874,-7.0090674456834785,-6.820163414940238,-0.7271394586164504
1789223992425156900,10.095156982421875,-7.167817745703458,-6.624540889596939,-0.953016179382801
1789223992435149600,10.105149658203125,-7.3384566364377735,-6.413141533929109,-1.0904377140395343
1789223992445143800,10.115143798828125,-7.408864636138081,-6.310885859069228,-1.2049182258307933
1789223992455137800,10.1251376953125,-7.308022335207462,-6.4016843203693625,-1.3347772162787614
1789223992465130800,10.135130859375,-7.0708297821134325,-6.630801703557371,-1.4853331039272248
1789223992475124700,10.145124755859374,-6.79339581952393,-6.891068842768669,-1.5916411229178309
1789223992485119000,10.155118896484375,-6.56838411808908,-7.105126603990793,-1.5949569694675505
1789223992495112700,10.16511279296875,-6.505161061456799,-7.1883274497687815,-1.476894507536292
1789223992505105700,10.175105712890625,-6.619468408638238,-7.103467146345973,-1.3761439765423535
1789223992515099600,10.185099609375,-6.797862735804915,-6.925321240982413,-1.413990015333891
1789223992525094000,10.195093994140626,-6.920516471049189,-6.753582280051708,-1.632779188992083
1789223992535086800,10.2050869140625,-6.979395945519208,-6.610721623080969,-1.9382422913663089
1789223992545080600,10.21508056640625,-7.058695107683539,-6.472993652823567,-2.1084483436413106
1789223992555074800,10.22507470703125,-7.199048750269412,-6.351637556174397,-2.0001918209314344
1789223992565067800,10.23506787109375,-7.348000125330686,-6.244005448973178,-1.7859667403183876
1789223992575061800,10.245061767578125,-7.461731133928895,-6.120207219868898,-1.74241459883973
1789223992585055700,10.2550556640625,-7.434093185418844,-6.089947690683603,-1.9537600323632358
1789223992595050000,10.265050048828124,-7.247248425292969,-6.203236800733208,-2.2732414309568703
1789223992605042700,10.275042724609374,-7.066960831725597,-6.346811743453145,-2.4385304850958285
1789223992615036700,10.28503662109375,-7.0900535380214444,-6.408013523390888,-2.1997478863313793
1789223992625030700,10.29503076171875,-7.188057400655746,-6.401075248560309,-1.8784163298264145
1789223992635024000,10.30502392578125,-7.260106737822293,-6.345673679333925,-1.7870833232581615
1789223992645017900,10.315017822265625,-7.289627431339025,-6.287987214040756,-1.868940499342233
1789223992655011600,10.325011474609376,-7.267775665014982,-6.257884336721896,-2.046631500545144
1789223992665004800,10.3350048828125,-7.244456748747825,-6.213419172051549,-2.254254114153236
1789223992674998800,10.344998779296875,-7.283446696877479,-6.122794313752651,-2.3734328667633235
1789223992684992800,10.35499267578125,-7.391785491043329,-6.012747546625137,-2.31921407758072
1789223992694986800,10.36498681640625,-7.513185426834225,-5.942230825853348,-2.100554083260149
1789223992704979200,10.374979248046875,-7.585636330538987,-5.934238073533773,-1.8475193795204161
1789223992714973200,10.38497314453125,-7.583226931309699,-5.966636952835321,-1.7505153415784238
1789223992724967200,10.39496728515625,-7.521191623157263,-6.018460663574934,-1.838530309639871
1789223992734960400,10.40496044921875,-7.374733818477392,-6.125142922705412,-2.0655052739717066
1789223992744954400,10.414954345703125,-7.1460039733022445,-6.2971706374496215,-2.3346618220813573
1789223992754948000,10.424947998046875,-7.038523257270455,-6.405920935025811,-2.365109421184659
1789223992764941300,10.43494140625,-7.17896750074923,-6.359225234824419,-2.0476973762109876
1789223992774935300,10.444935302734375,-7.3955124026119705,-6.207739372849464,-1.7148615521341561
1789223992784929300,10.45492919921875,-7.609637968373298,-5.9915790863901375,-1.5377835682630538
1789223992794923300,10.46492333984375,-7.7462442411243915,-5.799575336065888,-1.590912662512809
1789223992804916200,10.474916259765624,-7.758467178359627,-5.723159035861491,-1.79499848029688
1789223992814910200,10.48491015625,-7.632253120285272,-5.811814639914036,-2.035167272722721
1789223992824904200,10.494904296875,-7.379158649182319,-6.073916008815169,-2.1968029189206657
1789223992834897200,10.504897216796875,-7.090512972226739,-6.412259490397572,-2.185850001621246
1789223992844891400,10.514891357421876,-6.910710531827807,-6.66224898122251,-2.0067139161765573
1789223992854885400,10.524885498046874,-6.888010039719939,-6.751014475390314,-1.7746835681512951
1789223992864878000,10.534878173828124,-6.992548272559047,-6.679789898610115,-1.6294341163478792
1789223992874872300,10.544872314453125,-7.226408466359972,-6.436262881797552,-1.5886834421560168
1789223992884866300,10.5548662109375,-7.533999082282185,-6.071399642080069,-1.5960403807900845
1789223992894860300,10.5648603515625,-7.7844865857571355,-5.746743909588456,-1.5959592783778904
1789223992904853200,10.574853271484375,-7.907825965178012,-5.629698661875724,-1.393977301005274
1789223992914847500,10.584847412109376,-7.899832628336548,-5.673128053757548,-1.2564428074933587
1789223992924841200,10.59484130859375,-7.764358574485779,-5.837521328100562,-1.344794314032793
1789223992934834200,10.604834228515625,-7.529921457579731,-6.090993984866142,-1.5396321187391877
1789223992944828200,10.614828125,-7.281834000983834,-6.347371130901575,-1.690015864691138
1789223992954822400,10.624822509765625,-7.145617604333162,-6.50849868144691,-1.6583071596108376
1789223992964815000,10.634815185546875,-7.114324055925011,-6.583740677174926,-1.4869931460939347
1789223992974809000,10.64480908203125,-7.087162492755055,-6.652078884863853,-1.300907972163707
1789223992984803000,10.654802978515624,-7.077780916425585,-6.694286625996232,-1.1233559410400689
1789223992994797300,10.66479736328125,-7.159197216874361,-6.639378393244743,-0.9137424458757042
1789223993004790300,10.674790283203125,-7.311918758124112,-6.498260196027159,-0.6919851431269198
1789223993014784300,10.6847841796875,-7.456427182301878,-6.340510597482323,-0.6082795626971871
1789223993024778200,10.6947783203125,-7.534668944367766,-6.233209329670667,-0.7390843826279043
1789223993034771200,10.704771240234376,-7.516458164894581,-6.2233577977418895,-0.9711102006085216
1789223993044765200,10.71476513671875,-7.445814602872729,-6.293270707401633,-1.0606449986483901
1789223993054759200,10.72475927734375,-7.379588857293129,-6.393863417485356,-0.9113501439116894
1789223993064753400,10.73475341796875,-7.356255912500619,-6.455618155130743,-0.6171617381371557
1789223993074746400,10.744746337890625,-7.366970198738574,-6.464518085423111,-0.32884350303765386
1789223993084740000,10.754739990234375,-7.387433141052722,-6.447533632874489,-0.15976541361296548
1789223993094734000,10.764734130859376,-7.416321381884813,-6.414580042299628,-0.14738946863994934
1789223993104727300,10.774727294921876,-7.419401227721571,-6.409022992694378,-0.21748084927229208
1789223993114721300,10.78472119140625,-7.351299751397967,-6.485208991274237,-0.2661625173928216
1789223993124715300,10.79471533203125,-7.223529696053266,-6.6294976352214805,-0.20189594305697828
1789223993134708200,10.804708251953125,-7.101740468683839,-6.7627972676426165,-0.015587352759082568
1789223993144702200,10.8147021484375,-7.086735207253694,-6.770713447594642,0.3255865470683202
1789223993154696200,10.8246962890625,-7.20030371876657,-6.6249120609968895,0.6607168022252619
1789223993164690200,10.834690185546876,-7.37619161607027,-6.416286846217512,0.7703484857458621
1789223993174683400,10.844683349609374,-7.552004694572091,-6.22318887091577,0.6399467667233198
1789223993184677400,10.854677490234375,-7.609598805406689,-6.172695531997085,0.402766196328029
1789223993194671000,10.864671142578125,-7.505379136997461,-6.297836992403864,0.42061095550041644
1789223993204664300,10.874664306640625,-7.291127899029851,-6.516033168604969,0.742395406872034
1789223993214658300,10.884658203125,-7.044637356236577,-6.742784991705418,1.0384173847492784
1789223993224652300,10.89465234375,-6.8547957523822785,-6.915660263189673,1.1643900352831928
1789223993234645200,10.904645263671876,-6.779153943681717,-6.983990872094035,1.198885010081157
1789223993244639200,10.91463916015625,-6.919276115599274,-6.834113614359498,1.2605116643674672
1789223993254633200,10.92463330078125,-7.227744098877906,-6.520988160663843,1.1860885107416659
1789223993264627200,10.934627197265625,-7.48014708058536,-6.260483705565333,1.0119948033783583
1789223993274620400,10.944620361328125,-7.5400143970489495,-6.197437174543738,0.9541204873628913
1789223993284614400,10.954614501953126,-7.36746353521347,-6.3743783802926535,1.1216817972827702
1789223993294608400,10.9646083984375,-7.071998241370916,-6.651261138740182,1.384902306406945
1789223993304601000,10.97460107421875,-6.868543122705817,-6.828517986309528,1.5378054878339171
1789223993314595300,10.98459521484375,-6.869761266323923,-6.839193694102764,1.4839800818830728
1789223993324589300,10.99458935546875,-6.97329470603466,-6.735399557629227,1.475782746902108
1789223993334583300,11.004583251953125,-7.089664246442913,-6.61842094541192,1.4503596979625522
1789223993344576300,11.014576171875,-7.086005723935365,-6.6193012353777885,1.4641601136475801
1789223993354570200,11.0245703125,-6.967626597270369,-6.717015175154804,1.5824914556480942
1789223993364564200,11.034564208984374,-6.886145999413729,-6.722817139431834,1.885499712216109
1789223993374557200,11.04455712890625,-6.931357598537207,-6.646071753403544,1.9890692461535333
1789223993384551200,11.05455126953125,-7.050147644090652,-6.550107872164249,1.88729740928784
1789223993394545400,11.06454541015625,-7.194835516488552,-6.435824490380287,1.72768537787199
1789223993404538000,11.0745380859375,-7.262828856262564,-6.385479035499691,1.6270717711307108
1789223993414532000,11.084531982421876,-7.199819150120019,-6.446473310166597,1.6661261627987025
1789223993424526300,11.0945263671875,-7.067286410418152,-6.541121432632208,1.8540731850780545
1789223993434520300,11.104520263671875,-6.919633258473873,-6.620615825107693,2.111045520527661
1789223993444513300,11.11451318359375,-6.798043353068828,-6.678882720637321,2.312903286998719
1789223993454507300,11.12450732421875,-6.753759390184283,-6.695134182736277,2.3942232874661684
1789223993464501200,11.134501220703125,-6.816817611643671,-6.642076546287536,2.3630926745347676
1789223993474494200,11.144494140625,-6.956390332984924,-6.527598518714308,2.2736482581920923
1789223993484488200,11.15448828125,-7.114077387687564,-6.386947354486584,2.183389310596138
1789223993494482200,11.164482177734374,-7.257224460384249,-6.251520062386989,2.1027533468700943
1789223993504476400,11.174476318359375,-7.36013421523869,-6.148322138240933,2.0486432787589726
1789223993514469000,11.18446923828125,-7.394611654379964,-6.100645610308646,2.066936768079549
1789223993524463000,11.194463134765625,-7.345907536965608,-6.124526252111792,2.167534738860279
1789223993534457000,11.20445703125,-7.232447162002325,-6.200704651907086,2.3266627861514686
1789223993544450300,11.2144501953125,-7.100453936004638,-6.282258314999938,2.507422381144762
1789223993554444300,11.2244443359375,-7.001206210789084,-6.337084130164981,2.644780641306937
1789223993564438300,11.234438232421875,-6.960901672929525,-6.368270711067319,2.6760718516275284
1789223993574431200,11.24443115234375,-6.951581471398472,-6.400354533070326,2.6232366257578135
1789223993584425200,11.25442529296875,-6.949070949882269,-6.424512822771072,2.5702976472526786
1789223993594419200,11.264419189453125,-6.9645841608345505,-6.409488272118568,2.565816117924452
1789223993604413200,11.2744130859375,-7.015787693849205,-6.339511649572849,2.599941382627189
1789223993614406400,11.284406494140624,-7.129989827090501,-6.194774092814326,2.637877730050683
1789223993624400100,11.294400146484374,-7.280970077630877,-6.02725070375204,2.613445884105563
1789223993634394000,11.30439404296875,-7.399435129013657,-5.93068067331314,2.499152857710421
1789223993644387300,11.31438720703125,-7.458128141000866,-5.912625961184501,2.3638027225002647
1789223993654381300,11.32438134765625,-7.445088626685738,-5.96773877659738,2.2643179736584425
1789223993664375300,11.334375244140626,-7.363183665937185,-6.081027886646986,2.2304743023760616
1789223993674368300,11.3443681640625,-7.256004563200474,-6.200803436106443,2.2518479297943412
1789223993684362200,11.3543623046875,-7.154901565507054,-6.305068697223067,2.2855815648309887
1789223993694356200,11.364356201171875,-7.077729478499293,-6.379146909868717,2.3200471674039957
1789223993704350500,11.3743505859375,-7.067409160014987,-6.3808689113557335,2.346619240248203
1789223993714343400,11.384343505859375,-7.1264669136613605,-6.3180953520566225,2.337843666987866
1789223993724337700,11.394337646484376,-7.19614484552145,-6.247870892229676,2.3130035325028
1789223993734331600,11.40433154296875,-7.241306175762414,-6.189850664937496,2.3280070403672752
1789223993744324400,11.414324462890624,-7.257299863708019,-6.153426767903566,2.3743051195532083
1789223993754318600,11.424318603515625,-7.254908584657311,-6.148620828926563,2.3939815876647828
1789223993764312600,11.4343125,-7.264711601269244,-6.147224406132102,2.3676954921551046
1789223993774306600,11.444306640625,-7.311005150410533,-6.114993284612893,2.3079105932779607
1789223993784299500,11.454299560546875,-7.361447635924816,-6.088798520648479,2.2149510084211825
1789223993794293800,11.464293701171876,-7.371348852214217,-6.115639765822887,2.1053633832380174
1789223993804287500,11.47428759765625,-7.316468676513433,-6.225695885300636,1.9698681404687464
1789223993814280400,11.484280517578124,-7.210114918684959,-6.387098161134124,1.8410886158205568
1789223993824274400,11.4942744140625,-7.090937919640541,-6.530856643727422,1.799136603014916
1789223993834268700,11.5042685546875,-7.053221644708514,-6.529540884953737,1.9461589097097516
1789223993844262700,11.5142626953125,-7.227631286153197,-6.328596287804841,1.9699249852225182
1789223993854255400,11.52425537109375,-7.426406138047575,-6.130964176204801,1.8520672520831227
1789223993864249300,11.534249267578126,-7.5188079428911205,-6.036258186072111,1.7892749880835412
1789223993874243600,11.54424365234375,-7.473754749199748,-6.093053840005397,1.7855165123328565
1789223993884236500,11.554236572265625,-7.338153269577026,-6.2544064314782615,1.790054009632021
1789223993894230500,11.56423046875,-7.199735563489794,-6.408446654111146,1.807208558050543
1789223993904224500,11.574224609375,-7.150808743235468,-6.47285804374516,1.7715582757376134
1789223993914217500,11.584217529296875,-7.150808158713579,-6.489519840210676,1.709518437540531
1789223993924211500,11.59421142578125,-7.106417228323221,-6.547809532094002,1.6719501927770672
1789223993934205400,11.604205322265624,-6.978693350207805,-6.687022187951206,1.6589024951554834
1789223993944199700,11.61419970703125,-6.913303470930456,-6.725955437457561,1.771481264978647
1789223993954192600,11.624192626953125,-7.02277389947474,-6.576933335247635,1.896042441279441
1789223993964186400,11.634186279296875,-7.164676525068282,-6.411429469314217,1.9316750418052075
1789223993974180400,11.644180419921875,-7.284579500299691,-6.2942076959908,1.8676824621051549
1789223993984173600,11.654173583984376,-7.381866154575348,-6.22184622413516,1.7225196656718849
1789223993994167600,11.66416748046875,-7.405275087213516,-6.236651579079032,1.560920405961573
1789223994004161500,11.67416162109375,-7.358434425583481,-6.315194954439997,1.4636042333304882
1789223994014155500,11.684155517578125,-7.244767714393139,-6.452123883274197,1.4331168867386876
1789223994024148500,11.6941484375,-7.103223985239863,-6.602012246924638,1.4587749134778976
1789223994034142500,11.704142578125,-7.00403062056005,-6.684398269188404,1.5597287119589744
1789223994044136400,11.714136474609376,-6.9908496519476175,-6.6553545455336565,1.7333948415599763
1789223994054129700,11.724129638671876,-7.12879915600121,-6.492487457844614,1.7883526125416158
1789223994064123600,11.73412353515625,-7.325204940676689,-6.2805076719403266,1.7512829649500548
1789223994074117600,11.74411767578125,-7.4141452068895095,-6.22686317551434,1.5578874680064618
1789223994084111400,11.754111328125,-7.367336109441518,-6.343680459690094,1.2847045869901776
1789223994094104600,11.7641044921875,-7.254290745019913,-6.506068823951482,1.103051404158026
1789223994104098600,11.7740986328125,-7.088392911332845,-6.694683516359329,1.0517930722162128
1789223994114092500,11.784092529296874,-6.908990868428349,-6.87532649923563,1.0798699966654182
1789223994124085800,11.794085693359374,-6.85337477966845,-6.921091056066751,1.1402382483884692
1789223994134079500,11.80407958984375,-6.960291432076692,-6.811928086036444,1.1499437229100613
1789223994144073500,11.814073486328125,-7.108923658186197,-6.670111385160684,1.0692088288541883
1789223994154067500,11.8240673828125,-7.210780689117312,-6.583404577088356,0.9131297208048402
1789223994164060700,11.834060791015625,-7.249878773796558,-6.56342094272375,0.7287984048046171
1789223994174054700,11.8440546875,-7.233428574255108,-6.596513649508356,0.5778409871505573
1789223994184048600,11.854048583984374,-7.1430088831394905,-6.7011378070652485,0.49250681913830335
1789223994194041600,11.86404150390625,-7.047273549959063,-6.801383895668387,0.49748837041053917
1789223994204035600,11.87403564453125,-6.995140042617916,-6.854855373615026,0.4993531048364937
1789223994214029600,11.884029541015625,-7.002432537713647,-6.85712448759079,0.3408308414187282
1789223994224022500,11.8940224609375,-7.167216272678971,-6.693353144538402,0.02048472717098193
1789223994234016800,11.904016845703126,-7.332332016077637,-6.511250610503554,-0.10445641804086044
1789223994244010500,11.914010498046874,-7.365213710460067,-6.466834545671939,-0.3225879863068461
1789223994254004500,11.92400439453125,-7.254656071200967,-6.575194382625818,-0.5542270334595814
1789223994263997400,11.93399755859375,-7.044415822440385,-6.789978704556822,-0.6654262220252305
1789223994273991700,11.94399169921875,-6.808984433799981,-7.0321227425783865,-0.5977979527039453
1789223994283985700,11.953985595703125,-6.665719287681579,-7.17926677595675,-0.4435002847112715
1789223994293978400,11.963978271484375,-6.677170071500539,-7.172335515388846,-0.37865967334713785
1789223994303972600,11.97397265625,-6.766099816319346,-7.083290035235882,-0.4661347258456051
1789223994313966600,11.983966552734374,-6.949342752560972,-6.891372209629416,-0.621295038549602
1789223994323960600,11.993960693359375,-7.3072513508349655,-6.489207120999693,-0.8152606635313481
1789223994333953500,12.00395361328125,-7.55282711687088,-6.164514563629031,-1.060167005873099
1789223994343947800,12.01394775390625,-7.573256156915426,-6.091861999872327,-1.3059072417557238
1789223994353941500,12.02394140625,-7.423875158265233,-6.230352186673879,-1.4963875819049774
1789223994363934500,12.0339345703125,-7.203083120352029,-6.460519371175765,-1.5961419414684175
1789223994373928400,12.043928466796874,-7.105441661289334,-6.619177316737175,-1.3673289480544626
1789223994383922700,12.053922607421875,-7.129100184774399,-6.613172523364424,-1.2697482792682946
1789223994393916700,12.063916748046875,-7.190351064550876,-6.55135582639873,-1.2445755518279968
1789223994403909400,12.073909423828125,-7.190990531498193,-6.531504878503084,-1.3414488029971718
1789223994413903400,12.0839033203125,-7.0690686176598065,-6.617867987704277,-1.5499917463205755
1789223994423897600,12.093897705078126,-6.915389045032859,-6.731639912834763,-1.7414944152548908
1789223994433890600,12.103890625,-6.909137583422661,-6.737158968517184,-1.7449622374959288
1789223994443884500,12.113884521484374,-7.117730649498105,-6.588277736082673,-1.4501367028616368
1789223994453878500,12.12387841796875,-7.408489957606792,-6.272464066216349,-1.3931440650515257
1789223994463872500,12.13387255859375,-7.642773929777741,-5.9344391490638255,-1.5939990842208265
1789223994473865500,12.143865478515625,-7.6881977103471755,-5.821469187965989,-1.7811510105997324
1789223994483859500,12.153859375,-7.494563143950701,-5.981482639789581,-2.055181448356062
1789223994493853700,12.163853759765624,-7.166013911151886,-6.304053967222571,-2.2533393373958766
1789223994503846700,12.1738466796875,-7.04464963119626,-6.574150426530838,-1.8231426247633993
1789223994513840400,12.18384033203125,-7.194030629846453,-6.586591390430927,-1.0164236526712775
1789223994523834400,12.19383447265625,-7.282334351721405,-6.488126340025663,-1.0208866234295069
1789223994533828600,12.20382861328125,-7.315314245781302,-6.410140014025568,-1.2516656562194228
1789223994543821600,12.213821533203125,-7.222119244733452,-6.409658952510356,-1.711034687322378
1789223994553815600,12.223815673828126,-7.053460129639506,-6.469675322055816,-2.1359766942970455
1789223994563809500,12.2338095703125,-7.155954873952269,-6.4529118187814944,-1.8228049172416327
1789223994573802500,12.243802490234375,-7.340076346594095,-6.371956121581793,-1.3007061659812926
1789223994583796500,12.25379638671875,-7.46800714545846,-6.231313725182414,-1.2529909134738146
1789223994593790500,12.26379052734375,-7.541927537193894,-6.143652977386116,-1.2430771299637853
1789223994603784400,12.273784423828126,-7.480175722157955,-6.21117928417027,-1.2800791191466152
1789223994613777700,12.283777587890626,-7.354685302183031,-6.3407204408407205,-1.3690366287551818
1789223994623771600,12.293771728515624,-7.319904496181011,-6.360964771968126,-1.4586005798242985
1789223994633765400,12.303765380859375,-7.418475929570198,-6.296303791487216,-1.2219509745005517
1789223994643758600,12.313758544921875,-7.434469617515802,-6.292771525707841,-1.1402077801849693
1789223994653752600,12.323752685546875,-7.328650697216391,-6.385770127400756,-1.2973818438641727
1789223994663746600,12.33374658203125,-7.144203061360121,-6.544885753601789,-1.5149946672193706
1789223994673739500,12.343739501953126,-6.987098190459609,-6.676792470359802,-1.6647179034359751
1789223994683733500,12.3537333984375,-7.044086736616491,-6.6449646689444775,-1.5477935056239365
1789223994693727500,12.3637275390625,-7.334116561406851,-6.435659655207395,-0.9815281342484057
1789223994703721200,12.37372119140625,-7.5266218315124505,-6.232791396519541,-0.8201547922484577
1789223994713714400,12.38371435546875,-7.589847810754179,-6.156110307899117,-0.816637577907741
1789223994723708400,12.39370849609375,-7.51435154800415,-6.2238300914287565,-0.984299133331701
1789223994733702400,12.403702392578126,-7.339144034180045,-6.392939872899651,-1.1990306290969253
1789223994743695600,12.413695556640626,-7.270673140022158,-6.498918952196836,-1.0352555597174913
1789223994753689300,12.423689453125,-7.370930334541201,-6.453709691160917,-0.43521253150049594
1789223994763683300,12.433683349609375,-7.463715001222491,-6.358596873793005,-0.17771544152442365
1789223994773677300,12.44367724609375,-7.498339739879965,-6.3133724151879544,-0.29430110890138894
1789223994783670500,12.45367041015625,-7.422140297296643,-6.384622126409411,-0.5646408023810013
1789223994793664500,12.46366455078125,-7.284120650616288,-6.525784162768721,-0.7253408847618847
1789223994803658500,12.473658447265626,-7.186354103869199,-6.639741381338238,-0.6637299395013601
1789223994813651200,12.483651123046876,-7.220549803459644,-6.624470746970176,-0.38785186458434906
1789223994823645400,12.4936455078125,-7.3243801802903405,-6.520928539431095,-0.03644681440192507
1789223994833639400,12.503639404296875,-7.387817756456136,-6.44171296389699,0.3080115447480231
1789223994843633400,12.51363330078125,-7.434989257475733,-6.373412165609002,0.5205161947766319
1789223994853626400,12.52362646484375,-7.501123817640543,-6.297925839731096,0.48954968636576085
1789223994863620400,12.533620361328126,-7.473364288577437,-6.342671574908494,0.29955884676650163
1789223994873614300,12.5436142578125,-7.322677468025684,-6.517835834112763,0.2580509062002413
1789223994883607300,12.553607177734374,-7.129706918495893,-6.721102736729383,0.4055272220065817
1789223994893601500,12.5636015625,-6.940805225840211,-6.903231574249268,0.5839547207904979
1789223994903595500,12.573595458984375,-6.784578891339898,-7.042527816736698,0.7366667270269245
1789223994913589500,12.583589599609375,-6.742900727039575,-7.064266770336031,0.8943164453938602
1789223994923582200,12.593582275390625,-6.857974382418393,-6.920526407921314,1.1157459044277667
1789223994933576400,12.603576416015626,-7.117938154768943,-6.617566958931088,1.3088761745639144
1789223994943570400,12.6135703125,-7.4672572038739915,-6.19972791582942,1.4049287569999693
1789223994953563400,12.6235634765625,-7.727101149237155,-5.854518640130758,1.4788191919885574
1789223994963557400,12.633557373046875,-7.767926496100425,-5.779455508100986,1.5580750995330512
1789223994973551400,12.64355126953125,-7.62651369985044,-5.9599243034541605,1.5766965056337414
1789223994983545300,12.65354541015625,-7.402123929706216,-6.245780641952156,1.53921287041381
1789223994993538300,12.663538330078126,-7.1455977305889125,-6.457933446335792,1.845510962307453
1789223995003532300,12.6735322265625,-7.017693235209584,-6.537752248460054,2.0445443190075454
1789223995013526500,12.683526611328125,-6.9951043867826455,-6.575031885540485,2.0019617532134055
1789223995023519200,12.693519287109375,-6.994637938314676,-6.627488633486628,1.8225851370111106
