time,seconds_elapsed,z,y,x
1789223982381523700,0.051523681640625,0.9562092423439026,-0.7558955550193787,0.13678202033042908
1789223982391516700,0.0615166015625,0.3375891447067261,0.566408097743988,1.6774566173553467
1789223982401510700,0.0715107421875,0.26280197501182556,1.3064807653427124,1.0128154754638672
1789223982411504600,0.081504638671875,0.5740339756011963,1.6524063348770142,0.2041497528553009
1789223982421497600,0.09149755859375,0.6193341016769409,0.8076167106628418,1.344597339630127
1789223982431491600,0.10149169921875,0.4194570779800415,-0.42875373363494873,0.9089580774307251
1789223982441485600,0.111485595703125,0.8225113153457642,-1.6621661186218262,-2.249767303466797
1789223982451478800,0.121478759765625,1.118343472480774,-2.114772081375122,-1.9169909954071045
1789223982461472800,0.13147265625,1.0570495128631592,-0.42714059352874756,0.27172279357910156
1789223982471466500,0.141466552734375,1.5315749645233154,4.427845478057861,-2.9201316833496094
1789223982481459700,0.151459716796875,1.7657687664031982,1.4160336256027222,-3.4861505031585693
1789223982491453700,0.16145361328125,1.1253025531768799,-1.9328502416610718,0.7546199560165405
1789223982501447700,0.17144775390625,-0.18397682905197144,-0.6343756318092346,0.48495522141456604
1789223982511440600,0.181440673828125,-0.8282273411750793,-0.7581299543380737,-0.7973333597183228
1789223982521434600,0.1914345703125,-1.1677969694137573,-1.4423059225082397,2.284351110458374
1789223982531427600,0.201427490234375,-0.9506577849388123,1.0897375345230103,1.9600242376327515
1789223982541421600,0.211421630859375,0.07989927381277084,2.776843786239624,-1.660218596458435
1789223982551415800,0.221415771484375,0.5952562093734741,-0.17406406998634338,0.419513463973999
1789223982561408500,0.231408447265625,0.5668589472770691,-0.75550776720047,1.5581773519515991
1789223982571402500,0.241402587890625,0.8261974453926086,-1.163995623588562,-1.6890029907226562
1789223982581396500,0.251396484375,0.6762449741363525,-1.3526947498321533,-1.5949270725250244
1789223982591389700,0.2613896484375,0.09397511184215546,0.3117337226867676,0.36313527822494507
1789223982601383700,0.2713837890625,-0.16048353910446167,1.419373869895935,-1.0172922611236572
1789223982611377700,0.281377685546875,-0.3831680417060852,0.8511998653411865,-1.7212189435958862
1789223982621370600,0.29137060546875,-0.7717636823654175,0.044967491179704666,0.5899692177772522
1789223982631364600,0.301364501953125,-1.0380523204803467,-0.13277994096279144,1.3599717617034912
1789223982641357600,0.311357666015625,-0.8771966695785522,-0.6113451719284058,0.23634307086467743
1789223982651351800,0.321351806640625,-0.6659879088401794,-1.0726946592330933,0.8232698440551758
1789223982661345800,0.331345703125,-0.4766257703304291,-0.9342776536941528,1.532090187072754
1789223982671338500,0.34133837890625,-0.11686155945062637,-0.5637004375457764,0.43990957736968994
1789223982681332500,0.35133251953125,-0.02146020345389843,-0.0022112783044576645,-0.20771421492099762
1789223982691327000,0.361326904296875,-0.32631856203079224,0.6103183031082153,-0.15286438167095184
1789223982701320000,0.37131982421875,-0.7349724173545837,0.8185985088348389,-1.4849817752838135
1789223982711314000,0.38131396484375,-1.0508414506912231,-1.0671664476394653,-1.2283892631530762
1789223982721308000,0.391307861328125,-1.2353918552398682,-2.7173938751220703,1.2027909755706787
1789223982731300900,0.40130078125,-0.9301910400390625,-2.102867603302002,1.3563969135284424
1789223982741294800,0.411294921875,0.013713130727410316,-0.6013041734695435,0.4370995759963989
1789223982751288800,0.421288818359375,0.5755734443664551,1.925231695175171,1.9391834735870361
1789223982761282000,0.431281982421875,1.2548494338989258,4.782306671142578,1.1175450086593628
1789223982771276000,0.441276123046875,1.8099446296691895,3.7695934772491455,-1.5412760972976685
1789223982781268700,0.451268798828125,1.5217628479003906,0.35586991906166077,-0.6994935274124146
1789223982791263000,0.461262939453125,0.5387306213378906,-0.8906754851341248,-1.0756022930145264
1789223982801257000,0.471257080078125,-0.14008203148841858,-2.7603728771209717,-1.8679230213165283
1789223982811250000,0.48125,-0.16503044962882996,-4.047279357910156,-0.8113294839859009
1789223982821243600,0.49124365234375,0.3013385832309723,-1.6705125570297241,-0.6829195618629456
1789223982831238000,0.50123779296875,1.2394580841064453,1.4611005783081055,-0.7554929852485657
1789223982841230800,0.51123095703125,1.9657808542251587,2.6515491008758545,0.5441921949386597
1789223982851224800,0.521224853515625,2.147756338119507,2.820002794265747,0.7387455105781555
1789223982861218800,0.53121875,1.6696256399154663,1.6142420768737793,0.7594918012619019
1789223982871211800,0.541211669921875,0.8470345735549927,-0.008538227528333664,0.9133695960044861
1789223982881205800,0.551205810546875,0.19695326685905457,-1.2099528312683105,0.5553922653198242
1789223982891199000,0.561198974609375,0.07142070680856705,-1.5421996116638184,0.017788875848054886
1789223982901193000,0.57119287109375,0.5442947745323181,-0.9541098475456238,-0.4701094329357147
1789223982911187000,0.58118701171875,1.3171582221984863,0.1104004830121994,-0.7515844106674194
1789223982921179600,0.5911796875,1.9286258220672607,1.005551815032959,-0.7680299282073975
1789223982931174000,0.601173828125,1.9512939453125,1.8300930261611938,-0.36218830943107605
1789223982941167900,0.61116796875,1.4984346628189087,1.8559843301773071,0.3336711823940277
1789223982951160800,0.621160888671875,0.911385715007782,0.7240185737609863,0.549299418926239
1789223982961154800,0.63115478515625,0.43546387553215027,-0.47252050042152405,0.25237083435058594
1789223982971149000,0.641149169921875,0.20769715309143066,-0.9463627934455872,0.38921746611595154
1789223982981141800,0.651141845703125,0.3127593696117401,-0.5187624096870422,0.3498663306236267
1789223982991135700,0.6611357421875,0.6313065886497498,0.37981465458869934,-0.16418024897575378
1789223983001130000,0.6711298828125,0.8516376614570618,1.0057775974273682,-0.23652368783950806
1789223983011123000,0.681123046875,0.8329268097877502,0.8530811667442322,-0.1132863238453865
1789223983021117000,0.691116943359375,0.5732923150062561,0.2933637797832489,-0.13491706550121307
1789223983031110000,0.70110986328125,0.218092679977417,0.004949051886796951,-0.203423410654068
1789223983041104000,0.711103759765625,-0.06923658400774002,0.3619082272052765,-0.1125936359167099
1789223983051097900,0.721097900390625,-0.16153521835803986,1.2533464431762695,-0.2762751579284668
1789223983061091000,0.731091064453125,-0.035592999309301376,1.2866226434707642,-0.11058524250984192
1789223983071085000,0.7410849609375,0.09516245126724243,0.33887001872062683,0.56109619140625
1789223983081078800,0.751078857421875,0.024353522807359695,-0.18408797681331635,0.7763994336128235
1789223983091071700,0.76107177734375,-0.20830705761909485,-0.0712914764881134,0.1988808512687683
1789223983101066000,0.77106591796875,-0.45936620235443115,-0.3704321086406708,0.03329801931977272
1789223983111060000,0.78106005859375,-0.5758865475654602,-0.9545513987541199,0.06316685676574707
1789223983121053000,0.791052978515625,-0.5124279260635376,-0.8297412395477295,-0.5405693650245667
1789223983131046700,0.801046630859375,-0.40481218695640564,-0.15854449570178986,-0.42538583278656006
1789223983141039900,0.811039794921875,-0.372916579246521,0.6552680134773254,0.5651630759239197
1789223983151033900,0.821033935546875,-0.303349107503891,1.2309479713439941,0.7765381932258606
1789223983161027800,0.83102783203125,-0.2561933100223541,1.0576363801956177,0.6996809244155884
1789223983171021000,0.84102099609375,-0.2196686565876007,0.2701462209224701,0.9316868185997009
1789223983181014800,0.851014892578125,-0.13705287873744965,-0.2346106916666031,0.6456393599510193
1789223983191008800,0.8610087890625,-0.00487640080973506,-0.4280802607536316,0.05798112601041794
1789223983201002000,0.871001953125,0.0793633759021759,-0.17350628972053528,-0.4409908652305603
1789223983210996000,0.880995849609375,0.014221126213669777,0.6419289112091064,-0.9137037396430969
1789223983220990000,0.890989990234375,-0.20887640118598938,1.5777066946029663,-1.1515594720840454
1789223983230982700,0.900982666015625,-0.2580416798591614,1.254953384399414,-0.9016422629356384
1789223983240977000,0.910976806640625,0.06043163314461708,-0.7322348952293396,0.04784204810857773
1789223983250969900,0.920969970703125,0.44752222299575806,-1.494796872138977,0.09808193892240524
1789223983260963800,0.9309638671875,0.6591516733169556,-0.399654746055603,-0.15488827228546143
1789223983270957800,0.940957763671875,0.648276150226593,0.42829155921936035,0.6260426044464111
1789223983280950800,0.95095068359375,0.6462444067001343,0.38212886452674866,0.831902265548706
1789223983290944800,0.96094482421875,0.4782538414001465,0.9028181433677673,-0.043684013187885284
1789223983300938800,0.970938720703125,0.22404420375823975,1.1539469957351685,-0.5218663215637207
1789223983310932000,0.980931884765625,0.06198801472783089,0.39657309651374817,-0.6771857738494873
1789223983320926000,0.990926025390625,-0.08907260745763779,-0.3793271780014038,-0.6376932263374329
1789223983330920000,1.000919921875,-0.19641397893428802,-0.6843387484550476,0.3350633680820465
1789223983340913000,1.010912841796875,-0.2411220669746399,0.11505085974931717,1.239988923072815
1789223983350907000,1.020906982421875,-0.0841485857963562,1.2364076375961304,0.7749282717704773
1789223983360899800,1.03089990234375,0.12163040786981583,0.9431893825531006,0.2991527318954468
1789223983370894000,1.04089404296875,0.16980870068073273,-0.3698118031024933,0.793764054775238
1789223983380888000,1.05088818359375,0.07032550871372223,-0.7282005548477173,0.6517658829689026
1789223983390880800,1.060880859375,0.047509074211120605,-0.3234541714191437,-0.5503984689712524
1789223983400874800,1.070874755859375,0.06377007067203522,-0.413838654756546,-0.6172496676445007
1789223983410869000,1.080868896484375,0.01924251578748226,-0.3358006477355957,0.15906600654125214
1789223983420862000,1.090862060546875,-0.004696372896432877,0.5000606775283813,-0.24934865534305573
1789223983430856000,1.10085595703125,-0.10004972666501999,1.061601996421814,-0.36068692803382874
1789223983440849700,1.110849609375,-0.2039574831724167,0.4583953320980072,0.6147860884666443
1789223983450843000,1.1208427734375,-0.2294401377439499,-0.35170432925224304,0.303138792514801
1789223983460836900,1.1308369140625,-0.24801993370056152,-0.5863568186759949,0.01794646680355072
1789223983470830000,1.140830078125,-0.31512147188186646,-0.11866675317287445,1.1015918254852295
1789223983480824000,1.150823974609375,-0.07313571870326996,0.67948317527771,-0.10510294884443283
1789223983490817800,1.16081787109375,0.15511199831962585,0.6937634348869324,-1.279908537864685
1789223983500810800,1.170810791015625,-0.0663844421505928,0.34877195954322815,0.7142371535301208
1789223983510805000,1.180804931640625,-0.38872045278549194,0.48641252517700195,0.728783905506134
1789223983520799000,1.190799072265625,-0.5326136946678162,-0.037195052951574326,-0.21163709461688995
1789223983530792000,1.2007919921875,-0.6630510091781616,-0.7731067538261414,0.8106075525283813
1789223983540785700,1.21078564453125,-0.6249086856842041,0.9297794103622437,-0.8323028683662415
1789223983550780000,1.22077978515625,-0.6152240633964539,0.19754405319690704,-0.7066033482551575
1789223983560772900,1.23077294921875,-0.707183837890625,-1.8112269639968872,1.5733944177627563
1789223983570766800,1.240766845703125,-0.5321605801582336,-1.3616975545883179,-0.1884765475988388
1789223983580759800,1.250759765625,-0.38929420709609985,0.8098599910736084,-0.8647328019142151
1789223983590753800,1.26075390625,-0.37380141019821167,0.9928253889083862,0.4004911482334137
1789223983600747800,1.270747802734375,-0.3629455864429474,1.324409008026123,-2.316754102706909
1789223983610741000,1.280740966796875,-0.6687787175178528,-0.5005006194114685,-0.7987231016159058
1789223983620735000,1.29073486328125,-1.1839864253997803,-1.6099507808685303,3.261557102203369
1789223983630729000,1.30072900390625,-1.1031348705291748,0.5931108593940735,0.41857966780662537
1789223983640722000,1.310721923828125,-0.6743519306182861,-0.08527295291423798,-1.2654608488082886
1789223983650716000,1.3207158203125,-0.7048355937004089,-1.8949148654937744,2.0162181854248047
1789223983660710000,1.3307099609375,-0.3878948986530304,-1.3743197917938232,0.547899067401886
1789223983670702800,1.340702880859375,0.05063686519861221,0.28524598479270935,-2.4184107780456543
1789223983680697000,1.350697021484375,-0.2034151256084442,0.24699284136295319,0.2436717301607132
1789223983690690000,1.36068994140625,-0.3655607998371124,0.5121693015098572,0.5441642999649048
1789223983700683800,1.370683837890625,-0.0628744587302208,0.6461089849472046,-3.580179214477539
1789223983710677800,1.380677734375,-0.146318718791008,-1.4682576656341553,-1.0087732076644897
1789223983720671000,1.3906708984375,-0.6802740097045898,-0.8359476327896118,2.3635308742523193
1789223983730665000,1.4006650390625,-0.47485801577568054,-0.7299763560295105,0.37122413516044617
1789223983740659000,1.410658935546875,-0.1144188791513443,-1.328492522239685,-0.38581693172454834
1789223983750652000,1.42065185546875,-0.3133385479450226,0.24280288815498352,1.8807013034820557
1789223983760646000,1.43064599609375,0.013123204931616783,2.5395960807800293,-0.154969722032547
1789223983770640000,1.440639892578125,0.4346398711204529,1.531362533569336,-2.020423173904419
1789223983780633000,1.450633056640625,0.3523644506931305,-0.14284878969192505,0.8560606837272644
1789223983790627000,1.460626953125,0.30998897552490234,-0.2673324942588806,0.5879034399986267
1789223983800619800,1.470619873046875,0.5868996977806091,-0.3334462642669678,-1.6113072633743286
1789223983810613800,1.48061376953125,0.49645066261291504,-0.40414926409721375,0.263638436794281
1789223983820608000,1.49060791015625,0.45099613070487976,0.5767448544502258,0.17871235311031342
1789223983830601000,1.50060107421875,0.6414089202880859,0.9025107026100159,-1.1053065061569214
1789223983840595000,1.510594970703125,0.4750220775604248,0.45202744007110596,0.7206515073776245
1789223983850589000,1.5205888671875,0.4165092408657074,0.534349262714386,-0.32317546010017395
1789223983860582000,1.530581787109375,0.5970726609230042,-0.607624351978302,-1.24916410446167
1789223983870575900,1.540575927734375,0.3620358109474182,-1.0956883430480957,1.5208059549331665
1789223983880569900,1.55056982421875,0.36525610089302063,0.8585090637207031,0.14509257674217224
1789223983890563000,1.56056298828125,0.7461227178573608,0.9024592638015747,-0.9759635925292969
1789223983900557000,1.57055712890625,0.5763065218925476,-0.3297957479953766,2.347442150115967
1789223983910549800,1.5805498046875,0.37406179308891296,-0.09189832955598831,1.7386893033981323
1789223983920544000,1.5905439453125,0.28080159425735474,0.1337164342403412,0.10045372694730759
1789223983930538000,1.6005380859375,0.01065448671579361,0.4186307191848755,0.09947008639574051
1789223983940531000,1.610531005859375,0.23386360704898834,1.8602261543273926,-2.440124750137329
1789223983950525000,1.62052490234375,0.5178504586219788,-0.09482818841934204,-2.1910970211029053
1789223983960519000,1.630518798828125,0.4343145489692688,-1.018415093421936,-0.3146415650844574
1789223983970512000,1.640511962890625,0.4395245611667633,-0.18786990642547607,-0.7940763235092163
1789223983980505900,1.650505859375,0.5621551275253296,0.16000737249851227,0.4511336386203766
1789223983990500000,1.6605,0.5962646007537842,0.2821352481842041,2.216459035873413
1789223984000492800,1.670492919921875,0.5779316425323486,1.6171963214874268,-0.3488641381263733
1789223984010486800,1.68048681640625,0.23670563101768494,0.9626317024230957,0.6138948202133179
1789223984020480000,1.69047998046875,-0.22097298502922058,-0.28104424476623535,2.8344995975494385
1789223984030474000,1.700473876953125,-0.278859943151474,-0.5878418684005737,0.43984997272491455
1789223984040468000,1.710468017578125,-0.11191757023334503,-0.8207009434700012,-0.6839978694915771
1789223984050461000,1.7204609375,0.04596131667494774,-0.7558388710021973,0.13576988875865936
1789223984060455000,1.730454833984375,0.49083465337753296,1.6398742198944092,-1.9769659042358398
1789223984070449000,1.740448974609375,0.6872140169143677,2.001427412033081,-2.0837485790252686
1789223984080441900,1.75044189453125,0.6211149096488953,0.3180563449859619,0.12495273351669312
1789223984090436000,1.76043603515625,0.3598414361476898,0.015125783160328865,-0.7530367970466614
1789223984100430000,1.77043017578125,0.08267828077077866,-0.4658248722553253,0.1636517196893692
1789223984110422800,1.7804228515625,-0.18042828142642975,-1.0310015678405762,2.378445625305176
1789223984120416800,1.790416748046875,-0.19724348187446594,-0.26043328642845154,0.8742042183876038
1789223984130410000,1.800409912109375,-0.31216272711753845,0.5700092315673828,1.0430537462234497
1789223984140404000,1.810404052734375,-0.5228281021118164,1.0096856355667114,2.417527675628662
1789223984150398000,1.82039794921875,-0.15420427918434143,2.5632946491241455,-1.2384523153305054
1789223984160391000,1.830390869140625,0.08020450174808502,0.3340262770652771,-1.6771857738494873
1789223984170385000,1.840385009765625,-0.01634247601032257,-2.0364954471588135,0.7409562468528748
1789223984180379000,1.85037890625,0.029783206060528755,-2.2377493381500244,-0.9267250299453735
1789223984190372000,1.8603720703125,-0.006758322939276695,-0.8219446539878845,-1.356794834136963
1789223984200366000,1.870365966796875,-0.13234181702136993,1.0755289793014526,0.7316884398460388
1789223984210359800,1.88035986328125,0.13762705028057098,4.593435764312744,-1.776859998703003
1789223984220352800,1.890352783203125,-0.14101123809814453,1.334027886390686,-1.213257908821106
1789223984230347000,1.900346923828125,-0.8056550025939941,-1.7701079845428467,2.611692190170288
1789223984240340000,1.910340087890625,-1.5128196477890015,-2.23925518989563,2.0772206783294678
1789223984250334000,1.920333984375,-1.6462715864181519,-1.4121814966201782,0.4087159335613251
1789223984260328000,1.930327880859375,-1.3619756698608398,-1.7562123537063599,1.7532988786697388
1789223984270321000,1.94032080078125,-0.6920400857925415,0.8757539391517639,0.22540555894374847
1789223984280315000,1.95031494140625,-0.32251235842704773,2.8211894035339355,-1.2085332870483398
1789223984290308900,1.960308837890625,-0.4282898008823395,1.542742133140564,0.59322589635849
1789223984300302000,1.970302001953125,-0.6477938890457153,-0.311732679605484,-0.2489258199930191
1789223984310295800,1.9802958984375,-1.030004620552063,-0.7333602905273438,-2.2393436431884766
1789223984320289800,1.990289794921875,-1.3183189630508423,-1.4589827060699463,-1.469056248664856
1789223984330283000,2.000282958984375,-1.4258545637130737,-1.269566535949707,-1.5169390439987183
1789223984340277000,2.010277099609375,-1.5206795930862427,-0.21801923215389252,-0.8306441307067871
1789223984350270000,2.02027001953125,-1.4665108919143677,0.05127694830298424,1.7496923208236694
1789223984360264000,2.030263916015625,-1.228472113609314,0.6874339580535889,1.6696048974990845
1789223984370258000,2.0402578125,-1.2274034023284912,1.4293642044067383,0.7116567492485046
1789223984380251000,2.0502509765625,-1.235851526260376,-0.2516646683216095,2.0224387645721436
1789223984390244900,2.060244873046875,-1.2563236951828003,-1.8355646133422852,1.5217171907424927
1789223984400239000,2.070239013671875,-1.3133701086044312,-1.2632241249084473,-0.3409399688243866
1789223984410231800,2.080231689453125,-1.0971827507019043,-0.6555750370025635,-1.6263089179992676
1789223984420225800,2.090225830078125,-0.6342273354530334,-0.8717246651649475,-3.0444748401641846
1789223984430219800,2.1002197265625,-0.6260068416595459,-0.6702977418899536,-1.6833606958389282
1789223984440213000,2.110212890625,-0.8650087714195251,0.6369487047195435,0.14011558890342712
1789223984450207000,2.12020703125,-0.783113420009613,0.9337183237075806,-0.6330979466438293
1789223984460201000,2.130200927734375,-0.6707721948623657,-0.8365790843963623,0.48898717761039734
1789223984470194000,2.14019384765625,-0.7182132601737976,-1.1143993139266968,1.0497339963912964
1789223984480188000,2.15018798828125,-0.5776300430297852,-0.9798354506492615,-0.5783072113990784
1789223984490180900,2.160180908203125,-0.7983697652816772,-0.6911938786506653,0.7806022763252258
1789223984500175000,2.170175048828125,-1.1797478199005127,0.5385862588882446,3.452397108078003
1789223984510169000,2.180169189453125,-0.9337614178657532,0.9619184136390686,1.5800074338912964
1789223984520161800,2.190161865234375,-0.440502405166626,-0.6050341725349426,-0.7217134833335876
1789223984530155800,2.20015576171875,-0.1711386740207672,-1.6563688516616821,-0.44112831354141235
1789223984540150000,2.21014990234375,0.21992655098438263,-1.4901857376098633,-1.586282730102539
1789223984550143000,2.22014306640625,0.38842833042144775,-0.5064248442649841,-2.3476717472076416
1789223984560137000,2.230136962890625,0.052686259150505066,1.104719638824463,-0.5536417365074158
1789223984570131000,2.240130859375,-0.06496629863977432,1.472070574760437,-0.756093442440033
1789223984580124000,2.2501240234375,0.020476695150136948,-0.8862230181694031,-0.9945616722106934
1789223984590118000,2.260117919921875,-0.2855790853500366,-1.917880654335022,1.5048598051071167
1789223984600111000,2.270111083984375,-0.5789603590965271,-0.33728232979774475,1.9438531398773193
1789223984610105000,2.28010498046875,-0.4341261088848114,0.28536349534988403,0.8259526491165161
1789223984620098800,2.290098876953125,-0.3735751509666443,0.2984587848186493,1.5501759052276611
1789223984630092000,2.300092041015625,-0.14252591133117676,0.5911511182785034,0.5657729506492615
1789223984640086000,2.3100859375,0.22763217985630035,-0.25854745507240295,-1.2321624755859375
1789223984650080000,2.320080078125,0.30115628242492676,-1.1632975339889526,-0.47782954573631287
1789223984660073000,2.330072998046875,0.43168872594833374,-0.8941011428833008,-1.103830099105835
1789223984670067000,2.34006689453125,0.6264459490776062,-0.6885187029838562,-2.0001375675201416
1789223984680061000,2.35006103515625,0.5069395303726196,-0.44724780321121216,-0.08386914432048798
1789223984690053000,2.36005322265625,0.4878632128238678,1.082512617111206,-0.7968721985816956
1789223984700047400,2.37004736328125,0.6934831738471985,-0.045923568308353424,-1.2666774988174438
1789223984710041300,2.380041259765625,0.3758254051208496,-1.2723418474197388,2.2264230251312256
1789223984720034300,2.390034423828125,-0.06511550396680832,-0.8388113379478455,3.3567254543304443
1789223984730028000,2.400028076171875,-0.11819790303707123,-0.6896242499351501,1.633992075920105
1789223984740021200,2.410021240234375,-0.5071427226066589,0.88399338722229,1.7432461977005005
1789223984750015200,2.42001513671875,-0.4994535744190216,3.0410444736480713,0.273727685213089
1789223984760009200,2.43000927734375,-0.06748325377702713,0.30965718626976013,-1.8953189849853516
1789223984770002400,2.44000244140625,0.16003873944282532,-2.4944849014282227,-1.013081431388855
1789223984779996200,2.44999609375,0.3396042585372925,-2.057356834411621,-1.0306748151779175
1789223984789990100,2.459990234375,0.701471745967865,-0.3609117865562439,-2.2207794189453125
1789223984799983400,2.4699833984375,0.7037250399589539,0.22725984454154968,-0.32243576645851135
1789223984809977300,2.479977294921875,0.3077298700809479,0.8602509498596191,-0.3472987413406372
1789223984819971300,2.489971435546875,-0.10440868139266968,-0.4467347264289856,-0.12211969494819641
1789223984829964300,2.49996435546875,-0.5827680826187134,-1.3631983995437622,1.7444592714309692
1789223984839958300,2.509958251953125,-0.5767034888267517,-0.16219694912433624,0.4259408414363861
1789223984849951200,2.519951171875,-0.13359586894512177,0.08171900361776352,-0.9318327307701111
1789223984859945200,2.5299453125,-0.0324399508535862,-0.10562798380851746,1.5568097829818726
1789223984869939200,2.539939208984375,0.2334229201078415,0.39177489280700684,1.6963520050048828
1789223984879932200,2.54993212890625,0.7128099799156189,0.29429733753204346,0.08854921162128448
1789223984889926100,2.559926025390625,0.7647740244865417,0.42072251439094543,0.11053323745727539
1789223984899920100,2.569920166015625,0.9215300679206848,0.9091971516609192,-2.548189401626587
1789223984909913300,2.579913330078125,1.0587213039398193,-1.0944643020629883,-2.9516348838806152
1789223984919907300,2.5899072265625,0.7125459909439087,-1.43909752368927,0.0632568746805191
1789223984929901300,2.5999013671875,0.42439284920692444,0.16033391654491425,0.30740243196487427
1789223984939894300,2.609894287109375,0.46239349246025085,0.29003387689590454,0.6410046219825745
1789223984949888300,2.61988818359375,0.3846971392631531,-0.11061951518058777,2.0861785411834717
1789223984959882200,2.62988232421875,0.43348437547683716,0.8253074884414673,-0.06518096476793289
1789223984969875500,2.63987548828125,0.5455181002616882,-0.1484045535326004,-0.19171416759490967
1789223984979869400,2.649869384765625,0.5263955593109131,-0.9085652232170105,1.1918584108352661
1789223984989862100,2.659862060546875,0.9976673722267151,-0.2829356789588928,-0.8167608380317688
1789223984999856000,2.669856201171875,1.3852823972702026,-0.05956172198057175,-0.8128291964530945
1789223985009850400,2.679850341796875,1.2736563682556152,0.8034508228302002,0.744722843170166
1789223985019843300,2.68984326171875,1.1335394382476807,2.203840494155884,-0.6331503391265869
1789223985029837300,2.69983740234375,0.9155464172363281,1.070403814315796,-0.6443653106689453
1789223985039831000,2.7098310546875,0.5118487477302551,-0.7900416851043701,0.7752843499183655
1789223985049824300,2.71982421875,0.16765998303890228,-0.7654846906661987,-0.5865088105201721
1789223985059818200,2.729818359375,0.003414055798202753,-0.8513708710670471,-0.2719407379627228
1789223985069812200,2.739812255859375,-0.10847166925668716,-0.6957624554634094,1.850294589996338
1789223985079805400,2.749805419921875,0.21253885328769684,0.621857762336731,0.7745884656906128
1789223985089799200,2.759799072265625,0.4643711745738983,1.3527376651763916,0.16724388301372528
1789223985099793200,2.769793212890625,0.5114098191261292,0.857275664806366,0.5776771903038025
1789223985109786400,2.779786376953125,0.6375124454498291,0.22049003839492798,-1.2206016778945923
1789223985119780400,2.7897802734375,0.42637357115745544,-0.9728388786315918,0.31710776686668396
1789223985129773000,2.79977294921875,0.0785340741276741,-0.9798256754875183,1.8897992372512817
1789223985139767300,2.809767333984375,0.18169400095939636,1.0067696571350098,-0.7867125868797302
1789223985149761300,2.81976123046875,0.46752503514289856,1.073284387588501,-1.7828965187072754
1789223985159754200,2.829754150390625,0.5151362419128418,0.5366101264953613,-2.6031503677368164
1789223985169748200,2.839748291015625,0.34682077169418335,0.46794331073760986,-2.6373798847198486
1789223985179742500,2.849742431640625,0.04533417150378227,-0.5208468437194824,2.04538631439209
1789223985189735200,2.859735107421875,-0.05716194212436676,-1.1329957246780396,4.01788330078125
1789223985199729200,2.869729248046875,0.38426607847213745,-0.8366624116897583,1.4731544256210327
1789223985209723100,2.87972314453125,0.6397428512573242,2.331408739089966,0.09488947689533234
1789223985219716400,2.88971630859375,0.7531421184539795,1.932598352432251,-1.7116061449050903
1789223985229710300,2.89971044921875,0.6462397575378418,-0.8010640740394592,-0.8625581860542297
1789223985239704300,2.909704345703125,0.40706342458724976,-2.7327041625976562,0.8723682165145874
1789223985249697300,2.919697265625,0.241753488779068,-0.9146705865859985,-0.5608542561531067
1789223985259691300,2.929691162109375,0.08706030994653702,1.7369842529296875,0.009489915333688259
1789223985269684200,2.939684326171875,0.12191010266542435,2.494206428527832,-0.5707361102104187
1789223985279678500,2.949678466796875,0.15690509974956512,1.4524563550949097,-2.0701024532318115
1789223985289672400,2.95967236328125,-0.0019506807439029217,-1.0484174489974976,1.271410584449768
1789223985299665200,2.9696650390625,-0.23910756409168243,-1.3762141466140747,2.3824918270111084
1789223985309659100,2.9796591796875,0.034081652760505676,-0.5541535019874573,-0.039453357458114624
1789223985319653400,2.9896533203125,0.3546673655509949,-1.0491793155670166,0.9197402596473694
1789223985329646300,2.999646240234375,0.5599163770675659,-0.11698545515537262,0.5349524617195129
1789223985339640000,3.00964013671875,0.6044478416442871,1.1695524454116821,-0.8990122079849243
1789223985349634000,3.019634033203125,0.21959514915943146,1.0127497911453247,0.6292212605476379
1789223985359627300,3.029627197265625,-0.09126950800418854,0.6469342708587646,-0.024950165301561356
1789223985369621200,3.039621337890625,-0.25468650460243225,0.15782126784324646,-1.3883756399154663
1789223985379615200,3.049615234375,-0.37662598490715027,-0.7809736132621765,-0.6609960198402405
1789223985389608200,3.059608154296875,-0.2660840153694153,-0.3078197240829468,-1.6633052825927734
1789223985399602200,3.069602294921875,-0.034817785024642944,0.4849380850791931,-1.7846450805664062
1789223985409596200,3.07959619140625,0.11451517790555954,-0.25594562292099,1.3655095100402832
1789223985419589400,3.08958935546875,0.14365096390247345,0.19518506526947021,1.877050757408142
1789223985429583400,3.099583251953125,0.13376513123512268,0.34717121720314026,1.3102954626083374
1789223985439576000,3.109576171875,-0.14761993288993835,-0.11061178892850876,2.097379684448242
1789223985449570300,3.1195703125,-0.4210437536239624,-0.11232659965753555,1.0803494453430176
1789223985459564300,3.129564208984375,-0.5717698335647583,-0.21904930472373962,-0.11475003510713577
1789223985469557200,3.13955712890625,-0.49666157364845276,-0.5171559453010559,-1.054685115814209
1789223985479551200,3.14955126953125,-0.4261578321456909,0.017355963587760925,-1.4863896369934082
1789223985489545500,3.15954541015625,-0.3983705937862396,0.4574141204357147,-0.7829327583312988
1789223985499538200,3.1695380859375,-0.22293220460414886,0.705872118473053,-1.9799878597259521
1789223985509532200,3.1795322265625,-0.29621511697769165,0.36392951011657715,-1.5015840530395508
1789223985519526100,3.189526123046875,-0.5596119165420532,-0.543054461479187,1.460540533065796
1789223985529519400,3.199519287109375,-0.6862765550613403,-0.6034711003303528,0.5641000270843506
1789223985539513300,3.209513427734375,-0.6459919810295105,-1.136786937713623,0.4166167974472046
1789223985549507000,3.219507080078125,-0.7160941958427429,-0.9689913988113403,1.7273383140563965
1789223985559500300,3.229500244140625,-0.5487585067749023,0.25478383898735046,-0.08753970265388489
1789223985569494300,3.239494384765625,-0.5023872256278992,0.34450677037239075,0.03673038259148598
1789223985579488300,3.24948828125,-0.536857545375824,0.02838902175426483,0.6774088740348816
1789223985589481500,3.2594814453125,-0.42816993594169617,0.34350982308387756,-1.1529879570007324
1789223985599475200,3.26947509765625,-0.5115228891372681,-0.1146889328956604,-0.14397293329238892
1789223985609468200,3.27946826171875,-0.513757586479187,-0.5354058742523193,0.10950326174497604
1789223985619462100,3.289462158203125,-0.21793608367443085,-0.34777313470840454,-1.781995177268982
1789223985629456400,3.299456298828125,-0.08139171451330185,-0.8002534508705139,0.18968327343463898
1789223985639449300,3.309449462890625,0.07286576926708221,-0.1300244778394699,0.6576834917068481
1789223985649443000,3.319443115234375,0.3846700191497803,0.9536879658699036,-1.0419280529022217
1789223985659437000,3.32943701171875,0.43217095732688904,0.4322871267795563,0.517194926738739
1789223985669430300,3.33943017578125,0.34424757957458496,0.3065250813961029,0.9711818695068359
1789223985679424300,3.34942431640625,0.33119943737983704,0.3263794779777527,-0.006476011127233505
1789223985689418200,3.359418212890625,0.18863031268119812,-0.2032785713672638,1.0527749061584473
1789223985699411500,3.369411376953125,0.2746797204017639,-0.13788145780563354,0.09692087769508362
1789223985709405200,3.3794052734375,0.5740686058998108,-0.05052805691957474,-1.33640718460083
1789223985719399200,3.389399169921875,0.5669265389442444,0.019070196896791458,-0.20102941989898682
1789223985729392400,3.399392333984375,0.6421871185302734,0.7647697925567627,-0.521639883518219
1789223985739386400,3.409386474609375,0.7489604353904724,0.8110323548316956,-0.6674104332923889
1789223985749380400,3.41938037109375,0.7171235084533691,0.10477490723133087,0.03646334260702133
1789223985759373300,3.429373291015625,0.7654454708099365,-0.12136848270893097,-0.48460063338279724
1789223985769367300,3.4393671875,0.6694076657295227,-0.569654107093811,0.584280788898468
1789223985779361300,3.449361328125,0.6252604722976685,-0.008407607674598694,-0.02022717334330082
1789223985789354200,3.459354248046875,0.7214048504829407,0.40660426020622253,-0.26924577355384827
1789223985799348500,3.469348388671875,0.6536687016487122,0.1809767484664917,1.1671322584152222
1789223985809341200,3.479341064453125,0.7052286267280579,0.6489763259887695,-0.47997280955314636
1789223985819335200,3.489335205078125,0.5676271319389343,0.5220641493797302,-0.2775645852088928
1789223985829329200,3.4993291015625,0.26395076513290405,-0.09956826269626617,1.2588143348693848
1789223985839322400,3.509322265625,0.16278526186943054,0.1377098113298416,-0.7328298091888428
1789223985849316400,3.51931640625,-0.09474436938762665,0.11576177924871445,-0.19187335669994354
1789223985859310300,3.529310302734375,-0.31405940651893616,-0.15056951344013214,0.9828546643257141
1789223985869303300,3.53930322265625,-0.2587273120880127,0.40009382367134094,-0.7206010222434998
1789223985879297300,3.54929736328125,-0.3620404005050659,0.5076559782028198,0.08288320899009705
1789223985889291300,3.559291259765625,-0.3159888982772827,-0.10709130764007568,0.6583492755889893
1789223985899284500,3.569284423828125,-0.18655234575271606,-0.12441330403089523,-0.8383898138999939
1789223985909278500,3.579278564453125,-0.3718012869358063,-0.3425075113773346,0.6794689893722534
1789223985919272200,3.589272216796875,-0.4782044291496277,-0.2965293824672699,0.7132940292358398
1789223985929265200,3.59926513671875,-0.46652454137802124,0.8931289315223694,-1.4384359121322632
1789223985939259400,3.60925927734375,-0.5220158100128174,0.15387028455734253,-0.5348012447357178
1789223985949253400,3.61925341796875,-0.570740818977356,-0.5888282060623169,-0.3958635926246643
1789223985959246300,3.629246337890625,-0.6095194220542908,-1.0250213146209717,-0.3631376028060913
1789223985969240000,3.639239990234375,-0.6634771227836609,-1.0173896551132202,1.3106269836425781
1789223985979234300,3.649234375,-0.4041989743709564,1.2831319570541382,0.6029185056686401
1789223985989227300,3.659227294921875,0.06706617027521133,1.8849101066589355,-0.509462296962738
1789223985999221200,3.66922119140625,0.02450353093445301,-0.3067939579486847,-0.0065850503742694855
1789223986009214500,3.67921435546875,-0.21963177621364594,-1.4564472436904907,0.47388139367103577
1789223986019208200,3.689208251953125,-0.4732707142829895,-0.9302776455879211,1.4226441383361816
1789223986029202200,3.6992021484375,-0.2949593663215637,1.3361817598342896,0.08395105600357056
1789223986039195400,3.7091953125,0.1969813108444214,0.7605385184288025,-1.6105449199676514
1789223986049189400,3.719189453125,-0.009636998176574707,-0.308954119682312,-0.03847416490316391
1789223986059183400,3.729183349609375,-0.2820514738559723,-0.48871561884880066,0.3102249801158905
1789223986069176300,3.73917626953125,-0.4113779664039612,-0.7502074241638184,0.8560943007469177
1789223986079170300,3.74917041015625,-0.27963751554489136,-1.2948254346847534,1.7477315664291382
1789223986089164300,3.759164306640625,0.5095974206924438,2.6394753456115723,-0.6220443844795227
1789223986099157200,3.7691572265625,0.423926442861557,0.7081537246704102,-0.6396926045417786
1789223986109151500,3.7791513671875,0.03128407150506973,-0.13122761249542236,-0.05377257242798805
1789223986119145500,3.7891455078125,-0.26737987995147705,-0.2601635158061981,0.24977558851242065
1789223986129138200,3.79913818359375,-0.4342237710952759,-1.4288313388824463,1.6029434204101562
1789223986139132200,3.809132080078125,0.08463751524686813,-0.1492500901222229,-0.7127451300621033
1789223986149126400,3.81912646484375,0.4964935779571533,0.6128886342048645,-1.8485604524612427
1789223986159119400,3.829119384765625,0.2569909393787384,0.4520390033721924,-1.2577041387557983
1789223986169113300,3.83911328125,0.032877638936042786,0.06422922760248184,-1.6408344507217407
1789223986179107000,3.849107177734375,-0.13096216320991516,-0.7936745285987854,0.16207648813724518
1789223986189100300,3.859100341796875,-0.06389909982681274,-1.2052055597305298,2.576678991317749
1789223986199094300,3.86909423828125,0.2760361135005951,3.2248775959014893,0.5649678707122803
1789223986209088300,3.879088134765625,0.1363675445318222,1.6451971530914307,0.5807393789291382
1789223986219081500,3.88908154296875,-0.09733521938323975,-0.977174699306488,0.3551182448863983
1789223986229075200,3.8990751953125,-0.12756992876529694,-2.8294713497161865,0.13069656491279602
1789223986239069200,3.909069091796875,-0.21994513273239136,-2.0853323936462402,1.326090693473816
1789223986249062400,3.9190625,0.33200496435165405,4.078827381134033,-1.3426833152770996
1789223986259056400,3.929056396484375,0.6718631982803345,2.164773941040039,-1.5746725797653198
1789223986269049300,3.93904931640625,0.3739679157733917,-0.36937814950942993,-0.5344403982162476
1789223986279043000,3.94904296875,0.10124903917312622,-1.802588701248169,-0.35493481159210205
1789223986289037300,3.959037353515625,-0.2433287501335144,-1.7829482555389404,1.6221977472305298
1789223986299030300,3.9690302734375,-0.11139921098947525,1.3219928741455078,0.8847280144691467
1789223986309024300,3.979024169921875,0.49013039469718933,1.4598389863967896,-0.7542425394058228
1789223986319018200,3.989018310546875,0.32141515612602234,0.38205480575561523,-0.8617974519729614
1789223986329011200,3.99901123046875,0.1083938404917717,-0.6002709865570068,-1.4952534437179565
1789223986339005200,4.009005126953125,-0.25377342104911804,-1.6362113952636719,1.302290439605713
1789223986348999200,4.018999267578125,-0.5934843420982361,-1.1940324306488037,3.637741804122925
1789223986358992400,4.028992431640625,-0.016133613884449005,4.366166114807129,-1.1071832180023193
1789223986368986400,4.038986328125,0.43326467275619507,0.4611329436302185,-1.8109724521636963
1789223986378980400,4.04898046875,0.12965472042560577,-0.792221188545227,-1.0318982601165771
1789223986388973300,4.058973388671875,-0.11742604523897171,-1.403423547744751,-0.8686145544052124
1789223986398967300,4.06896728515625,-0.5467627644538879,-0.5517652034759521,1.047501802444458
1789223986408961300,4.078961181640625,-0.6882075071334839,1.0861283540725708,1.5616501569747925
1789223986418954500,4.08895458984375,-0.4189915060997009,1.4641315937042236,0.5025312304496765
1789223986428948500,4.098948486328125,-0.3770754635334015,1.3385814428329468,-0.8786932229995728
1789223986438942200,4.108942138671875,-0.24478639662265778,-0.20048704743385315,-1.5413603782653809
1789223986448935200,4.11893505859375,-0.23481445014476776,-2.0976762771606445,0.8732993006706238
1789223986458929400,4.128929443359375,-0.211541086435318,-1.616560459136963,0.8874369859695435
1789223986468923400,4.13892333984375,-0.022894639521837234,-0.3456229567527771,-0.3057948052883148
1789223986478916400,4.148916259765625,-0.12482047080993652,0.38011667132377625,0.7528979778289795
1789223986488910000,4.15891015625,-0.16643743216991425,1.0555018186569214,-0.4713183641433716
1789223986498904300,4.168904296875,-0.4971655607223511,1.0659728050231934,-0.5148003697395325
1789223986508897300,4.178897216796875,-0.8690823316574097,0.5683532357215881,0.14649078249931335
1789223986518891300,4.188891357421875,-0.9634182453155518,-0.44895753264427185,-0.5977594256401062
1789223986528885200,4.19888525390625,-0.8996533155441284,-1.0445055961608887,-0.4220728576183319
1789223986538878200,4.208878173828125,-0.5903351306915283,-0.7628489136695862,-0.8858187198638916
1789223986548872200,4.2188720703125,-0.4767088294029236,-0.40160852670669556,0.09968802332878113
1789223986558866200,4.2288662109375,-0.47767528891563416,0.4355337917804718,1.1904916763305664
1789223986568859400,4.238859375,-0.30457064509391785,0.5660486817359924,0.21002179384231567
1789223986578853400,4.248853271484375,-0.30770066380500793,-0.41341057419776917,0.024843676015734673
1789223986588846000,4.25884619140625,-0.6121980547904968,-0.11648397147655487,-1.0157322883605957
1789223986598840300,4.26884033203125,-1.0392820835113525,-0.5034356713294983,-0.9167239665985107
1789223986608834300,4.278834228515625,-1.379440188407898,-1.1172114610671997,0.6895949840545654
1789223986618827300,4.2888271484375,-1.3338866233825684,-0.7445580363273621,0.6633053421974182
1789223986628821200,4.2988212890625,-1.1670141220092773,0.05736079439520836,0.7533293962478638
1789223986638815500,4.3088154296875,-0.8327010869979858,0.4174118936061859,0.9157052040100098
1789223986648808200,4.31880810546875,-0.5123499035835266,0.2931603789329529,0.1688588261604309
1789223986658802200,4.32880224609375,-0.5246667265892029,-0.4369891583919525,0.7742336988449097
1789223986668796400,4.33879638671875,-0.4649774134159088,-0.5280882120132446,-0.6166265606880188
1789223986678789400,4.348789306640625,-0.5009846687316895,-0.5295675992965698,-1.7803248167037964
1789223986688783400,4.358783447265625,-0.6669662594795227,-0.47266343235969543,-1.1551446914672852
1789223986698777300,4.36877734375,-0.6915440559387207,-0.01313498429954052,-1.8047488927841187
1789223986708770300,4.378770263671875,-0.7816041707992554,-0.5367901921272278,-0.33743149042129517
1789223986718764300,4.388764404296875,-0.9097957015037537,-0.1251632273197174,1.298409104347229
1789223986728758300,4.39875830078125,-0.7968553900718689,0.6794681549072266,0.6420471668243408
1789223986738751500,4.40875146484375,-0.5882539749145508,-0.5116000175476074,1.3101242780685425
1789223986748745500,4.418745361328125,-0.5331032276153564,-1.075260877609253,1.3683044910430908
1789223986758739500,4.428739501953125,-0.4342690706253052,-0.8334886431694031,0.36769068241119385
1789223986768732400,4.438732421875,-0.3134477138519287,-0.8689253926277161,0.47946056723594666
1789223986778726400,4.448726318359375,0.23364493250846863,-0.5478589534759521,-1.2508662939071655
1789223986788720400,4.458720458984375,0.6727034449577332,-0.2386733740568161,-1.975184440612793
1789223986798713300,4.46871337890625,0.5642156004905701,0.3136339783668518,-0.30787941813468933
1789223986808707600,4.47870751953125,0.4547480046749115,0.6743079423904419,-0.2711532413959503
1789223986818701300,4.488701416015625,0.33032989501953125,-0.14451447129249573,0.10266029834747314
1789223986828694300,4.4986943359375,0.02855653129518032,-0.5351047515869141,1.550666093826294
1789223986838688300,4.508688232421875,0.03830583021044731,-0.11418760567903519,0.8616167902946472
1789223986848682500,4.5186826171875,0.06608566641807556,-0.34382206201553345,0.5718373656272888
1789223986858675500,4.528675537109375,0.257855623960495,-1.2270718812942505,-0.17761825025081635
1789223986868669200,4.538669189453125,0.3693096339702606,-1.1588314771652222,-0.01883448287844658
1789223986878663400,4.548663330078125,0.07312403619289398,0.9946679472923279,1.2086974382400513
1789223986888656400,4.558656494140625,0.4714145362377167,2.1337833404541016,-1.01646888256073
1789223986898650400,4.568650390625,0.8928059339523315,-0.4431251585483551,-1.3011584281921387
1789223986908644400,4.578644287109375,0.9220028519630432,-1.5080283880233765,-1.7039446830749512
1789223986918637300,4.58863720703125,0.7925825715065002,-0.8162845373153687,-1.8958193063735962
1789223986928631300,4.59863134765625,0.26685506105422974,0.01892293244600296,1.8136531114578247
1789223986938625300,4.608625244140625,0.11488363146781921,0.9074991941452026,1.433620810508728
1789223986948618500,4.618618408203125,0.3460664451122284,-0.0012825466692447662,-0.005632101558148861
1789223986958612500,4.628612548828125,0.1144324243068695,-0.7714216113090515,1.7507625818252563
1789223986968606500,4.6386064453125,0.06703414767980576,0.27477583289146423,0.04355225712060928
1789223986978599400,4.648599365234375,0.12407639622688293,-0.25885239243507385,0.022744715213775635
1789223986988593400,4.658593505859375,0.36436644196510315,-1.619384765625,0.6075817942619324
1789223986998587400,4.66858740234375,0.8051171898841858,-0.8904435634613037,-0.8885573148727417
1789223987008580400,4.678580322265625,0.7367849349975586,0.8792778253555298,0.003959006164222956
1789223987018574600,4.68857470703125,0.7690326571464539,2.091137409210205,-1.1222801208496094
1789223987028568300,4.698568359375,0.7993050217628479,0.7928412556648254,-1.5069336891174316
1789223987038561300,4.708561279296875,0.5105956792831421,-1.0369148254394531,0.4069651961326599
1789223987048555300,4.71855517578125,0.2317243367433548,-0.6666511297225952,-0.3956323564052582
1789223987058549500,4.728549560546875,0.09790155291557312,-0.35026752948760986,0.5932520627975464
1789223987068542500,4.73854248046875,0.2571038603782654,-0.30046385526657104,0.6790288686752319
1789223987078536200,4.7485361328125,0.7196027636528015,-0.24337658286094666,-0.6063585877418518
1789223987088530200,4.7585302734375,0.7535240650177002,-0.3517829477787018,1.485005497932434
1789223987098523400,4.7685234375,0.7871307730674744,0.3326084613800049,1.0137830972671509
1789223987108517400,4.778517333984375,0.8581213355064392,0.7516347765922546,-0.2809109687805176
1789223987118510600,4.788510498046875,0.7711907029151917,0.018055081367492676,0.18578696250915527
1789223987128504300,4.79850439453125,0.7729216814041138,-0.07093429565429688,-0.9727607369422913
1789223987138498300,4.808498291015625,0.6393972039222717,0.07272620499134064,-0.6379576921463013
1789223987148492300,4.8184921875,0.7129771113395691,-0.0609772615134716,-0.7491886019706726
1789223987158485500,4.828485595703125,0.8485421538352966,0.07429401576519012,-0.47688010334968567
1789223987168479500,4.8384794921875,0.8447747826576233,0.3041740953922272,1.0111788511276245
1789223987178472200,4.84847216796875,0.9582927823066711,0.9138445854187012,-0.035173412412405014
1789223987188466400,4.858466552734375,0.9264703989028931,0.4471439719200134,0.436813086271286
1789223987198460400,4.86846044921875,0.7868182063102722,-0.32681962847709656,0.9366673827171326
1789223987208453400,4.878453369140625,0.6950714588165283,-0.37245771288871765,0.1897389143705368
1789223987218447400,4.888447265625,0.5442869663238525,0.09776440262794495,0.42330268025398254
1789223987228441600,4.898441650390625,0.6657174825668335,0.9669934511184692,-0.9073315858840942
1789223987238434300,4.908434326171875,0.8768951892852783,0.8490129709243774,-1.287514328956604
1789223987248428300,4.91842822265625,0.9193835258483887,0.15575523674488068,-0.2426644265651703
1789223987258422300,4.92842236328125,0.9543015360832214,0.2993161082267761,-0.26465070247650146
1789223987268415500,4.93841552734375,0.8831132650375366,0.4020901024341583,1.0031591653823853
1789223987278409500,4.948409423828125,0.8225247263908386,0.4892950654029846,0.9041441679000854
1789223987288403200,4.9584033203125,0.6705951690673828,0.6782122850418091,0.3409685492515564
1789223987298396400,4.968396484375,0.4254019260406494,0.749998927116394,0.3000062108039856
1789223987308390400,4.978390380859375,0.39301827549934387,0.5715811848640442,-0.3806830942630768
1789223987318384400,4.98838427734375,0.36970415711402893,-0.09284396469593048,-0.06942054629325867
1789223987328377600,4.998377685546875,0.46661508083343506,-0.7528976202011108,-0.49437567591667175
1789223987338371300,5.008371337890625,0.4428271949291229,-0.6477352380752563,-0.04156531020998955
1789223987348365300,5.018365234375,0.28612425923347473,0.41997456550598145,0.14685742557048798
1789223987358358300,5.028358154296875,0.1349208950996399,1.5161387920379639,-1.0376628637313843
1789223987368352500,5.0383525390625,-0.1755279302597046,0.22073815762996674,-0.18499429523944855
1789223987378346500,5.048346435546875,-0.5075127482414246,-0.965779721736908,0.36934694647789
1789223987388339200,5.058339111328125,-0.7856050729751587,-0.5635870099067688,0.7918078303337097
1789223987398333200,5.068333251953125,-0.6963748335838318,0.4850188195705414,0.3956024646759033
1789223987408327400,5.078327392578125,-0.3316357433795929,0.9582316279411316,-0.5766353607177734
1789223987418320400,5.0883203125,-0.08623476326465607,0.6951166391372681,-0.1681397557258606
1789223987428314400,5.098314453125,0.008456258103251457,0.5425357818603516,-0.33095479011535645
1789223987438308400,5.108308349609375,-0.007336554117500782,0.30583620071411133,-0.23962754011154175
1789223987448301300,5.11830126953125,0.10945111513137817,-0.41719943284988403,0.23062066733837128
1789223987458295300,5.12829541015625,0.11267140507698059,0.16094912588596344,-0.40006592869758606
1789223987468289300,5.138289306640625,-0.06936807185411453,1.1440720558166504,0.09765508025884628
1789223987478282500,5.148282470703125,-0.2459753304719925,1.0086404085159302,1.3690422773361206
1789223987488276500,5.1582763671875,-0.15735220909118652,0.2801746726036072,0.698475182056427
1789223987498270200,5.168270263671875,-0.04753730073571205,-0.37381938099861145,0.6955044269561768
1789223987508263400,5.178263427734375,0.15695755183696747,-0.5701963305473328,0.4145083725452423
1789223987518257400,5.18825732421875,0.4527657628059387,-0.04368060082197189,-0.44606441259384155
1789223987528251400,5.19825146484375,0.5924038887023926,1.008420705795288,-1.0148388147354126
1789223987538244600,5.20824462890625,0.7481103539466858,1.5458133220672607,-2.2732560634613037
1789223987548238300,5.21823828125,0.6851604580879211,0.10375503450632095,-0.5939525365829468
1789223987558232300,5.228232421875,0.20068135857582092,-0.6259372234344482,1.7400972843170166
1789223987568225300,5.238225341796875,-0.1838749647140503,-0.1356944590806961,1.349611759185791
1789223987578219500,5.248219482421875,-0.4157886505126953,0.017567001283168793,1.4974251985549927
1789223987588213500,5.258213623046875,-0.4163672626018524,0.14463387429714203,0.7477273344993591
1789223987598206200,5.268206298828125,-0.5133830308914185,0.8299317955970764,0.4003819227218628
1789223987608200200,5.2782001953125,-0.5512644648551941,1.0855827331542969,-0.4591902792453766
1789223987618194400,5.2881943359375,-0.43109145760536194,0.04324192926287651,-1.0894696712493896
1789223987628187400,5.2981875,-0.384317547082901,-1.1149550676345825,0.0997486263513565
1789223987638181400,5.308181396484375,-0.25683867931365967,-0.4942460358142853,-1.2114472389221191
1789223987648175400,5.31817529296875,-0.26537129282951355,0.38698911666870117,-1.9418729543685913
1789223987658168300,5.328168212890625,-0.45720916986465454,0.033446747809648514,0.3111109733581543
1789223987668162300,5.338162353515625,-0.669075071811676,0.09525282680988312,0.5825855135917664
1789223987678156300,5.34815625,-0.9236578345298767,0.6211645007133484,0.2647585868835449
1789223987688149500,5.3581494140625,-0.9458476305007935,0.40349096059799194,0.08061348646879196
1789223987698143700,5.368143798828125,-1.0437617301940918,-0.2760593295097351,0.7901304960250854
1789223987708137700,5.3781376953125,-0.9451205730438232,-0.7331022024154663,1.1278358697891235
1789223987718131000,5.388130859375,-0.6501967906951904,-0.1101435124874115,-0.46989190578460693
1789223987728125000,5.398125,-0.4716910719871521,0.2232700139284134,-0.18553905189037323
1789223987738118700,5.40811865234375,-0.29115962982177734,0.3644085228443146,-0.11289519816637039
1789223987748111600,5.418111572265625,-0.1952824890613556,0.029598480090498924,-0.9414423704147339
1789223987758105900,5.42810595703125,-0.36070287227630615,-0.34429895877838135,0.09471902251243591
1789223987768099800,5.438099853515625,-0.44321271777153015,-0.24587441980838776,0.5957794785499573
1789223987778092800,5.4480927734375,-0.3695046901702881,0.9945189356803894,-0.5463852882385254
1789223987788086500,5.45808642578125,-0.5615230202674866,0.5458384156227112,0.1499558538198471
1789223987798080800,5.468080810546875,-0.8441057205200195,-0.08572624623775482,0.6695029139518738
1789223987808073700,5.47807373046875,-0.9618589878082275,-0.9023877382278442,1.6172915697097778
1789223987818067700,5.488067626953125,-0.8146730065345764,-0.21064336597919464,1.09244966506958
1789223987828061700,5.498061767578125,-0.20586156845092773,1.0111781358718872,-1.3827056884765625
1789223987838054700,5.5080546875,-0.13428431749343872,-0.1621754914522171,-0.5556570291519165
1789223987848048600,5.518048583984375,-0.2756427228450775,-0.9637826681137085,-0.35145822167396545
1789223987858042600,5.528042724609375,-0.42712095379829407,-1.6883424520492554,0.3852485418319702
1789223987868035800,5.538035888671875,-0.48644834756851196,-1.7506297826766968,1.0516198873519897
1789223987878029800,5.54802978515625,0.0002438030205667019,3.521683931350708,-1.7630672454833984
1789223987888023800,5.55802392578125,0.1874861866235733,0.3342430591583252,-1.4670395851135254
1789223987898016800,5.568016845703125,-0.34268710017204285,-0.726204514503479,0.011544506065547466
1789223987908010800,5.5780107421875,-0.7731865644454956,-0.6627336740493774,0.5709569454193115
1789223987918004700,5.588004638671875,-1.0126279592514038,-0.5435193777084351,1.5658491849899292
1789223987927998000,5.597998046875,-0.6550726890563965,-0.5047121644020081,1.1302659511566162
1789223987937992000,5.607991943359375,0.016060978174209595,0.5418062806129456,-0.8702290654182434
1789223987947985700,5.617985595703125,-0.00926980935037136,0.7100986242294312,-0.8345359563827515
1789223987957978600,5.627978515625,-0.23571012914180756,0.6859432458877563,-0.6727976202964783
1789223987967972900,5.637972900390625,-0.3832606375217438,-0.4214525818824768,-0.09974926710128784
1789223987977966800,5.647966796875,-0.2986655831336975,-1.794211506843567,0.38587576150894165
1789223987987959800,5.657959716796875,-0.0974445715546608,-0.6148992776870728,-1.1126208305358887
1789223987997953500,5.66795361328125,-0.24579143524169922,0.6267673373222351,-0.7214447855949402
1789223988007947800,5.67794775390625,-0.41220298409461975,0.9122951030731201,-0.18216387927532196
1789223988017940700,5.687940673828125,-0.4021764397621155,-0.8919855356216431,0.4935368001461029
1789223988027934700,5.697934814453125,-0.5323135256767273,-2.505397319793701,2.090850591659546
1789223988037928700,5.7079287109375,-0.48584431409835815,-2.3177919387817383,1.6146774291992188
1789223988047921700,5.717921630859375,-0.2641933560371399,0.6062333583831787,0.04036230593919754
1789223988057915600,5.72791552734375,0.265338659286499,4.865245342254639,-3.7472481727600098
1789223988067909600,5.73790966796875,0.46405699849128723,-0.5783802270889282,-3.2603201866149902
1789223988077904000,5.74790380859375,0.022037513554096222,-2.306105375289917,-0.12722770869731903
1789223988087896800,5.757896728515625,-0.33015915751457214,-1.49019455909729,0.7447454929351807
1789223988097890800,5.767890869140625,-0.5049666166305542,-0.8258395791053772,0.9536446332931519
1789223988107883800,5.7778837890625,-0.7315900325775146,4.072551727294922,1.513822317123413
1789223988117877800,5.787877685546875,-0.15042942762374878,-0.9692120552062988,-0.8266852498054504
1789223988127871700,5.797871826171875,-0.43006646633148193,-3.2513985633850098,0.4928162693977356
1789223988137865700,5.80786572265625,-0.8359508514404297,-2.8484420776367188,3.5782523155212402
1789223988147859000,5.81785888671875,-1.2034845352172852,-0.1714135706424713,4.3383564949035645
1789223988157852700,5.827852783203125,-1.0187381505966187,0.4331921637058258,2.115372896194458
1789223988167846700,5.8378466796875,-0.40375497937202454,-1.261873722076416,-1.3738577365875244
1789223988177839900,5.84783984375,-0.10761385411024094,-0.9363368153572083,-3.167788505554199
1789223988187833900,5.857833740234375,-0.01332340482622385,3.9553282260894775,-4.879009246826172
1789223988197827800,5.867827880859375,0.26766884326934814,1.6249761581420898,-7.725193023681641
1789223988207820500,5.877820556640625,-0.0722336545586586,-2.696812152862549,-4.539614200592041
1789223988217814800,5.887814697265625,-0.5713220238685608,-2.8522493839263916,-1.1586850881576538
1789223988227808800,5.897808837890625,-0.8475502729415894,-2.424118757247925,1.626676321029663
1789223988237801700,5.9078017578125,-1.0210343599319458,-1.984014630317688,3.9168448448181152
1789223988247795700,5.917795654296875,-1.1435953378677368,5.939148902893066,4.973091125488281
1789223988257790000,5.9277900390625,-0.43217983841896057,5.066823959350586,4.103143692016602
1789223988267782700,5.93778271484375,-0.5383535027503967,0.454001247882843,2.134552478790283
1789223988277776600,5.947776611328125,-0.585641622543335,-2.617043972015381,-0.029766492545604706
1789223988287770600,5.9577705078125,-0.3879714012145996,-2.705552339553833,-0.4173770248889923
1789223988297763800,5.967763916015625,0.23783628642559052,-1.7511745691299438,-0.8432074189186096
1789223988307757800,5.9777578125,1.4447730779647827,-1.7676740884780884,-1.7693839073181152
1789223988317751600,5.98775146484375,1.9040347337722778,-0.24869568645954132,-0.9861942529678345
1789223988327744800,5.997744873046875,1.6600273847579956,2.2005128860473633,-0.8870624303817749
1789223988337738800,6.00773876953125,1.122779369354248,2.1154539585113525,-1.6005240678787231
1789223988347732700,6.017732666015625,0.4858347177505493,-0.5439466834068298,-0.6101990342140198
1789223988357726000,6.027725830078125,0.10589616000652313,-2.6318185329437256,-0.042353175580501556
1789223988367719700,6.0377197265625,-0.3768000602722168,-2.0253398418426514,3.2451627254486084
1789223988377713700,6.047713623046875,-1.0982317924499512,0.7712545990943909,8.074068069458008
1789223988387707000,6.057706787109375,-0.6428760886192322,4.054038047790527,6.107339382171631
1789223988397700900,6.067700927734375,0.7188908457756042,0.792011022567749,-3.3444008827209473
1789223988407694800,6.07769482421875,1.06802499294281,-2.726417303085327,-3.7003722190856934
1789223988417687600,6.0876875,1.1408907175064087,-2.6300718784332275,-1.5501158237457275
1789223988427681800,6.097681884765625,1.8568267822265625,0.5112107992172241,-4.328617095947266
1789223988437675800,6.10767578125,2.2013511657714844,1.4290224313735962,-4.082234859466553
1789223988447668700,6.117668701171875,1.5553393363952637,0.8888646960258484,2.018042802810669
1789223988457662700,6.127662841796875,0.29684382677078247,1.558578372001648,4.244460105895996
1789223988467657000,6.137656982421875,-0.5391913056373596,1.6573837995529175,1.060947299003601
1789223988477649700,6.147649658203125,-0.7066154479980469,-1.118120551109314,-0.3283432126045227
1789223988487643600,6.1576435546875,-0.5348807573318481,-3.5493505001068115,0.8096797466278076
1789223988497637600,6.1676376953125,0.30540379881858826,-1.4321895837783813,-1.5934315919876099
1789223988507630800,6.177630859375,1.360145926475525,1.7760893106460571,-2.986924886703491
1789223988517624800,6.187624755859375,2.1165177822113037,1.376437783241272,-0.892541229724884
1789223988527618600,6.19761865234375,2.333787679672241,1.1437982320785522,-1.1453808546066284
1789223988537611800,6.20761181640625,1.703538417816162,0.5928940773010254,-0.42330262064933777
1789223988547605800,6.217605712890625,0.7330199480056763,-0.865516185760498,2.3829121589660645
1789223988557599700,6.227599853515625,-0.22620511054992676,-1.2443774938583374,2.2821829319000244
1789223988567593000,6.237593017578125,-0.6666645407676697,-0.981972336769104,0.6444275379180908
1789223988577586700,6.247586669921875,-0.8832669258117676,-0.1639065444469452,0.6925332546234131
1789223988587580700,6.25758056640625,-0.7431153059005737,0.8151648640632629,1.0372490882873535
1789223988597573600,6.26757373046875,-0.03502573445439339,0.9859778881072998,0.07932046800851822
1789223988607568000,6.27756787109375,0.7668208479881287,0.739039421081543,-1.0594089031219482
1789223988617561900,6.287561767578125,1.3884785175323486,0.4072398841381073,-1.79674232006073
1789223988627554600,6.297554443359375,1.6600497961044312,0.3469056189060211,-2.4000706672668457
1789223988637548800,6.307548828125,1.4549288749694824,-0.2180861085653305,-1.1390570402145386
1789223988647542800,6.317542724609375,0.9727733731269836,-0.5179570913314819,0.5233268141746521
1789223988657536800,6.327536865234375,0.4845227301120758,0.054706692695617676,0.6387447714805603
1789223988667529700,6.33752978515625,0.12648999691009521,0.45194244384765625,0.4478810727596283
1789223988677524000,6.34752392578125,-0.2492799162864685,0.9457918405532837,0.4337058663368225
1789223988687517700,6.357517578125,-0.42468374967575073,0.7620334625244141,0.6642990112304688
1789223988697510100,6.36751025390625,-0.259501188993454,-0.12169390916824341,0.9518349766731262
1789223988707504400,6.37750439453125,0.14215900003910065,-0.411813884973526,0.6769962906837463
1789223988717498000,6.387498046875,0.6454381346702576,0.05112527310848236,-0.30644491314888
1789223988727491000,6.397490966796875,1.0094305276870728,0.44885924458503723,-1.096419334411621
1789223988737485000,6.407485107421875,1.0055454969406128,0.6491633057594299,-1.0843243598937988
1789223988747479300,6.417479248046875,0.7437591552734375,0.5269150733947754,-0.6334404945373535
1789223988757472300,6.42747216796875,0.3770200312137604,0.2895723283290863,-0.24571943283081055
1789223988767466000,6.437466064453125,0.09338364005088806,0.15952274203300476,0.1799342930316925
1789223988777460200,6.447460205078125,-0.049810271710157394,0.41390228271484375,0.8152492046356201
1789223988787453200,6.457453125,0.037913255393505096,0.7237540483474731,0.9233955144882202
1789223988797447200,6.467447265625,0.2605133056640625,0.08139213174581528,1.2707854509353638
1789223988807441200,6.477441162109375,0.4556009769439697,-0.6277904510498047,1.4926847219467163
1789223988817434000,6.48743408203125,0.5873721241950989,0.07534348964691162,0.4403686225414276
1789223988827428000,6.497427978515625,0.577846884727478,1.4366410970687866,-0.7860761284828186
1789223988837422000,6.507422119140625,0.5517535209655762,1.5999165773391724,-1.972579836845398
1789223988847415300,6.517415283203125,0.4027945101261139,0.8534488677978516,-2.3251659870147705
1789223988857409300,6.5274091796875,0.17743436992168427,-0.13053268194198608,-0.7054281234741211
1789223988867403300,6.5374033203125,0.1124425157904625,-0.45441925525665283,0.4347924590110779
1789223988877396200,6.547396240234375,0.2868095338344574,-0.09182720631361008,0.6982771158218384
1789223988887390200,6.55739013671875,0.4210107624530792,0.549630880355835,1.2585170269012451
1789223988897384200,6.56738427734375,0.39703112840652466,1.5911096334457397,0.824195146560669
1789223988907377200,6.577377197265625,0.27457183599472046,1.4405914545059204,0.6879957318305969
1789223988917371400,6.587371337890625,0.1335955411195755,-0.14831863343715668,1.6782546043395996
1789223988927365000,6.597365234375,0.03224295377731323,-1.107582688331604,1.5253748893737793
1789223988937358000,6.607358154296875,-0.019906537607312202,-0.050140250474214554,0.055896345525979996
1789223988947352000,6.61735205078125,-0.036558713763952255,1.3437031507492065,-1.2096812725067139
1789223988957346300,6.62734619140625,-0.058099959045648575,1.764093041419983,-1.935786247253418
1789223988967339300,6.63733935546875,-0.1369839459657669,1.0080337524414062,-1.4681673049926758
1789223988977333000,6.6473330078125,-0.16984017193317413,-0.4841570258140564,-0.20125077664852142
1789223988987327000,6.657326904296875,-0.18620061874389648,-1.004190444946289,0.1881375014781952
1789223988997321200,6.6673212890625,-0.3520558774471283,0.07344332337379456,-0.06675764173269272
1789223989007314200,6.677314208984375,-0.7533931136131287,1.0215760469436646,0.38244521617889404
1789223989017308200,6.68730810546875,-1.18058180809021,0.2247554212808609,1.4906240701675415
1789223989027302100,6.69730224609375,-1.589807391166687,-0.530023992061615,1.878115177154541
1789223989037295000,6.707295166015625,-1.8614705801010132,0.16373878717422485,0.8677537441253662
1789223989047289000,6.7172890625,-1.733311653137207,0.863805890083313,-1.019656777381897
1789223989057283000,6.727282958984375,-1.6315137147903442,-0.5677459836006165,-1.7031834125518799
1789223989067276300,6.7372763671875,-1.785912275314331,-1.4269121885299683,-0.8712157607078552
1789223989077270300,6.747270263671875,-1.9706677198410034,-1.6200050115585327,0.5691213607788086
1789223989087264000,6.757263916015625,-1.849975824356079,-1.218429684638977,0.465669184923172
1789223989097257200,6.76725732421875,-1.6799079179763794,-0.13604886829853058,0.30720365047454834
1789223989107251200,6.777251220703125,-1.8891104459762573,0.0962357223033905,0.24831002950668335
1789223989117245200,6.7872451171875,-2.3037009239196777,-0.1605404168367386,0.9352018237113953
1789223989127238400,6.79723828125,-2.6635444164276123,-0.777958333492279,2.176121473312378
1789223989137232100,6.807232177734375,-2.582103729248047,-1.0392972230911255,1.7485862970352173
1789223989147226000,6.81722607421875,-2.043991804122925,-0.1582656055688858,0.0651140883564949
1789223989157219000,6.827218994140625,-1.419189691543579,-0.24325135350227356,-1.0155836343765259
1789223989167213300,6.83721337890625,-1.161086082458496,-0.427021861076355,-0.6745540499687195
1789223989177207300,6.847207275390625,-1.2122371196746826,-0.05551622062921524,-0.09761959314346313
1789223989187200000,6.857199951171875,-1.2694422006607056,0.013870691880583763,-0.23200060427188873
1789223989197194000,6.867194091796875,-1.2261260747909546,-0.6554133892059326,-0.8381541967391968
1789223989207188200,6.877188232421875,-1.211272120475769,-1.258310317993164,-1.0930386781692505
1789223989217181200,6.88718115234375,-1.2423114776611328,-1.249635100364685,-0.5698444843292236
1789223989227175200,6.897175048828125,-1.2471963167190552,-0.8205317258834839,0.3684898614883423
1789223989237169200,6.907169189453125,-1.1521952152252197,-0.3786698877811432,1.1806095838546753
1789223989247162000,6.917162109375,-0.920478880405426,-0.016210362315177917,1.5513783693313599
1789223989257156000,6.927156005859375,-0.5672488808631897,0.021511714905500412,1.3511115312576294
1789223989267150000,6.937150146484375,-0.1801745593547821,-0.2544806897640228,0.6783246994018555
1789223989277143300,6.947143310546875,0.03376355022192001,-0.7090124487876892,0.48873645067214966
1789223989287137300,6.95713720703125,0.15557053685188293,-1.512795329093933,0.9129391312599182
1789223989297131000,6.967131103515625,0.2797423005104065,-1.5730693340301514,0.4827478229999542
1789223989307125000,6.977125,0.40954068303108215,0.38479435443878174,-0.8348475694656372
1789223989317118200,6.9871181640625,0.49414825439453125,1.2665255069732666,-1.5685219764709473
1789223989327112200,6.9971123046875,0.1952780783176422,0.5907348990440369,-1.1134141683578491
1789223989337106200,7.007106201171875,-0.008182368241250515,-0.9268013834953308,0.058340225368738174
1789223989347099100,7.01709912109375,-0.04626527428627014,-1.5616967678070068,0.5434017777442932
1789223989357093000,7.027093017578125,0.32444462180137634,-1.1494722366333008,-0.1509612500667572
1789223989367087000,7.037087158203125,0.9869405627250671,-0.2522769570350647,-1.1449339389801025
1789223989377080300,7.047080322265625,1.0249364376068115,-0.02211645059287548,-0.6313769221305847
1789223989387074300,7.05707421875,0.7823342084884644,0.09362936019897461,0.6214100122451782
1789223989397068300,7.067068359375,0.5733455419540405,-0.41346073150634766,1.4294633865356445
1789223989407061000,7.07706103515625,0.5619781017303467,-0.7178388237953186,0.8301293849945068
1789223989417055200,7.08705517578125,0.7494337558746338,0.21174904704093933,-1.1619383096694946
1789223989427049200,7.09704931640625,0.7082582712173462,-0.2365553230047226,-0.9698069095611572
1789223989437042200,7.107042236328125,0.5250021815299988,-0.6138408184051514,0.5609450340270996
1789223989447036200,7.1170361328125,0.521772027015686,0.1885526031255722,0.5347204208374023
1789223989457030100,7.127030029296875,0.7648531198501587,1.3363546133041382,-0.3465627133846283
1789223989467023000,7.137023193359375,0.8417752385139465,1.5177483558654785,-0.8780813813209534
1789223989477017000,7.14701708984375,0.7899983525276184,0.0657639428973198,-0.022198384627699852
1789223989487011000,7.157010986328125,0.5470954179763794,-1.055430293083191,1.6263195276260376
1789223989497004300,7.16700439453125,0.13892363011837006,0.13327568769454956,1.2865971326828003
1789223989506998000,7.176998046875,0.08792588859796524,0.07890386879444122,-1.2189483642578125
1789223989516992000,7.186991943359375,-0.1589920073747635,-0.799626350402832,-0.8868786096572876
1789223989526986200,7.196986328125,-0.2503296732902527,-2.502293586730957,0.3209717869758606
1789223989536979200,7.206979248046875,-0.2765817940235138,-2.6145682334899902,0.94692462682724
1789223989546973200,7.21697314453125,-0.04673774540424347,-0.22104032337665558,0.034389011561870575
1789223989556967200,7.22696728515625,0.5162840485572815,1.9549548625946045,-0.9792739748954773
1789223989566960000,7.236960205078125,0.5516552329063416,0.1507517695426941,-1.2089725732803345
1789223989576954000,7.2469541015625,0.149622842669487,-0.9604966640472412,-0.8831067085266113
1789223989586948000,7.256947998046875,-0.29995080828666687,-0.7971810102462769,-0.5058522820472717
1789223989596941300,7.26694140625,-0.0348360501229763,-1.3870539665222168,-0.6718391180038452
1789223989606935300,7.276935302734375,0.3057924509048462,-2.484593391418457,-0.56975257396698
1789223989616929000,7.286928955078125,0.20913754403591156,-2.1872377395629883,1.290477991104126
1789223989626922200,7.296922119140625,-0.04738077521324158,-0.14101077616214752,3.1504697799682617
1789223989636916200,7.306916259765625,0.22528164088726044,4.21381139755249,1.7546906471252441
1789223989646910200,7.31691015625,0.9068476557731628,1.386885643005371,-1.2497549057006836
1789223989656903200,7.326903076171875,0.806644082069397,-1.1047699451446533,-1.8132814168930054
1789223989666897200,7.336897216796875,0.7045319080352783,-2.183501958847046,-1.1705726385116577
1789223989676891100,7.34689111328125,0.5098828077316284,-1.1516433954238892,0.3336223065853119
1789223989686884000,7.356884033203125,0.38165491819381714,1.1049405336380005,1.1319606304168701
1789223989696878600,7.366878662109375,0.6394110918045044,2.9891514778137207,-0.28729358315467834
1789223989706872600,7.37687255859375,0.7424866557121277,1.4293303489685059,-0.9948627352714539
1789223989716865800,7.38686572265625,0.5559839010238647,-0.7128698229789734,-0.9205512404441833
1789223989726859500,7.396859619140625,0.46478235721588135,-2.213876485824585,-1.0884337425231934
1789223989736853500,7.406853515625,0.5477065443992615,-2.448725461959839,-0.583288311958313
1789223989746846700,7.4168466796875,0.7189868688583374,-1.681650996208191,0.4453602433204651
1789223989756840700,7.4268408203125,0.7941220998764038,-0.14319881796836853,1.194094181060791
1789223989766834700,7.436834716796875,0.7257604598999023,1.381871223449707,1.3221315145492554
1789223989776828700,7.44682861328125,0.5340778827667236,1.9576005935668945,1.0222856998443604
1789223989786821600,7.456821533203125,0.2584112882614136,1.7219384908676147,-0.38285014033317566
1789223989796815600,7.466815673828125,0.08225195854902267,0.09887760877609253,-1.7803376913070679
1789223989806809600,7.4768095703125,0.03374277800321579,-1.9695093631744385,-0.9587828516960144
1789223989816802800,7.486802734375,0.23274029791355133,-2.8483452796936035,-0.11171198636293411
1789223989826796800,7.496796875,0.7343133091926575,-1.6557626724243164,-0.46164456009864807
1789223989836790500,7.50679052734375,1.1029305458068848,0.83841472864151,-0.1902085542678833
1789223989846783700,7.51678369140625,1.1260308027267456,2.6490097045898438,0.3839593529701233
1789223989856777700,7.52677783203125,0.9155875444412231,2.271496534347534,0.3526482880115509
1789223989866771700,7.536771728515625,0.6349117159843445,0.10367465019226074,0.6663774251937866
1789223989876764700,7.5467646484375,0.4073185324668884,-1.6569647789001465,1.4027705192565918
1789223989886758700,7.556758544921875,0.40579450130462646,-1.493478536605835,0.7687690258026123
1789223989896752600,7.566752685546875,0.8078404664993286,0.035659611225128174,-0.8923590779304504
1789223989906745600,7.57674560546875,1.4624232053756714,0.7762707471847534,-1.6450155973434448
1789223989916739600,7.586739501953125,2.0934269428253174,0.3414559066295624,-1.7009265422821045
1789223989926733800,7.59673388671875,2.152972936630249,0.9504055976867676,-1.7235246896743774
1789223989936726500,7.6067265625,1.5916072130203247,1.6480308771133423,-0.26902666687965393
1789223989946720500,7.616720458984375,1.1952241659164429,0.3356093168258667,1.4967206716537476
1789223989956714800,7.62671484375,1.1159164905548096,-1.3095653057098389,2.199723243713379
1789223989966708700,7.636708740234375,1.2848726511001587,-0.6657036542892456,1.7626718282699585
1789223989976701700,7.64670166015625,1.5655688047409058,1.9257365465164185,0.9435087442398071
1789223989986695700,7.65669580078125,2.072795867919922,3.482450008392334,-0.22364050149917603
1789223989996689700,7.666689697265625,2.3616487979888916,2.5544261932373047,-1.4867311716079712
1789223990006682600,7.6766826171875,2.1840479373931885,1.236114501953125,-1.8644734621047974
1789223990016676600,7.686676513671875,1.970715045928955,-0.48461320996284485,-1.2464507818222046
1789223990026670600,7.696670654296875,2.0901689529418945,-2.304917812347412,-0.3269818127155304
1789223990036663800,7.706663818359375,2.07783842086792,-1.0631359815597534,0.17098458111286163
1789223990046657500,7.716657470703125,1.7816226482391357,1.7757041454315186,1.3506295680999756
1789223990056651500,7.726651611328125,1.552385687828064,3.4801034927368164,1.6210099458694458
1789223990066644700,7.736644775390625,1.2237548828125,3.227684736251831,1.177795171737671
1789223990076638700,7.746638671875,0.7546377778053284,1.4614827632904053,0.5774518847465515
1789223990086632700,7.7566328125,0.3458790183067322,-0.8657897114753723,-0.09825783967971802
1789223990096625700,7.766625732421875,0.29232126474380493,-2.4766390323638916,-0.580255389213562
1789223990106619600,7.77661962890625,0.516544759273529,-2.191943883895874,-0.5614262223243713
1789223990116613600,7.786613525390625,0.6307589411735535,0.22578668594360352,-0.3085358440876007
1789223990126606600,7.796606689453125,0.5611858367919922,2.5235180854797363,-0.40604862570762634
1789223990136600800,7.806600830078125,0.2844915986061096,2.068840980529785,0.30001288652420044
1789223990146594800,7.8165947265625,-0.3261049687862396,0.5980998277664185,1.4464101791381836
1789223990156588500,7.826588623046875,-0.9906933307647705,-0.7527960538864136,2.242596387863159
1789223990166581500,7.83658154296875,-1.1403262615203857,-2.4485020637512207,1.9564709663391113
1789223990176575700,7.84657568359375,-0.6988468170166016,-2.612851858139038,0.49511387944221497
1789223990186569700,7.85656982421875,-0.1465463787317276,8.429647445678711,-1.553626537322998
1789223990196562700,7.866562744140625,0.4885706901550293,0.4826059937477112,-1.455298900604248
1789223990206556700,7.876556640625,0.05053181201219559,-1.2513318061828613,-1.7095286846160889
1789223990216550700,7.886550537109375,-0.6999472379684448,0.24322088062763214,-0.6912623643875122
1789223990226543600,7.896543701171875,-1.148177981376648,0.4373980462551117,2.2570369243621826
1789223990236537600,7.90653759765625,-0.7208631634712219,-1.506517767906189,2.924376964569092
1789223990246531800,7.91653173828125,-0.07485590130090714,-1.9751957654953003,2.0179481506347656
1789223990256524500,7.926524658203125,0.2751673460006714,-0.5848272442817688,2.2133915424346924
1789223990266518500,7.9365185546875,0.31079956889152527,2.6440024375915527,1.6613224744796753
1789223990276512500,7.946512451171875,0.33016902208328247,6.466549873352051,-0.8708521127700806
1789223990286505700,7.956505615234375,-0.1345776468515396,2.678701639175415,-3.411818504333496
1789223990296499700,7.966499755859375,-1.0698318481445312,-0.8318054676055908,-4.522290229797363
1789223990306493700,7.97649365234375,-1.7030904293060303,-1.540462851524353,-4.09924840927124
1789223990316486700,7.986486572265625,-1.6615880727767944,-2.3275716304779053,-1.3197098970413208
1789223990326480600,7.996480712890625,-0.9949918389320374,-1.2385512590408325,0.9861901998519897
1789223990336474600,8.006474609375,0.1400436908006668,4.359991550445557,2.05544114112854
1789223990346468600,8.016468505859375,1.480057716369629,2.3034515380859375,2.472917318344116
1789223990356461800,8.0264619140625,1.5950684547424316,0.28483495116233826,2.1716654300689697
1789223990366455600,8.03645556640625,1.0482326745986938,-0.8255758881568909,1.7034128904342651
1789223990376449500,8.046449462890624,0.3812520503997803,-1.4802008867263794,1.1583837270736694
1789223990386442800,8.05644287109375,0.1604411005973816,-1.5509227514266968,-0.07273954898118973
1789223990396436700,8.066436767578125,0.15656273066997528,2.8417487144470215,-1.3894082307815552
1789223990406430700,8.0764306640625,0.07080009579658508,4.677653789520264,-0.7528657913208008
1789223990416423700,8.086423583984375,-0.1450384557247162,2.9224300384521484,-0.27019211649894714
1789223990426417700,8.096417724609376,-0.3592618405818939,0.07894477248191833,1.1980817317962646
1789223990436411600,8.10641162109375,-0.6269196271896362,-1.7260677814483643,4.473823070526123
1789223990446404600,8.116404541015624,-0.7176811695098877,-2.3167598247528076,5.462528705596924
1789223990456398800,8.12639892578125,-0.45471853017807007,-2.9166083335876465,3.721585512161255
1789223990466392800,8.136392822265625,-0.3535858392715454,-1.105332374572754,2.1581127643585205
1789223990476385500,8.146385498046875,-0.41378286480903625,10.329132080078125,-1.7000458240509033
1789223990486379500,8.156379638671876,-0.45588433742523193,-3.6963281631469727,-2.8092598915100098
1789223990496373800,8.166373779296874,-0.8277987837791443,-5.567485332489014,-3.1720340251922607
1789223990506367700,8.17636767578125,-0.9937394261360168,-0.6012675762176514,-4.0915751457214355
1789223990516360700,8.186360595703125,-1.5132099390029907,3.8026928901672363,-2.2405130863189697
1789223990526354700,8.196354736328125,-1.5223838090896606,1.2131025791168213,-0.5356432795524597
1789223990536348700,8.2063486328125,-0.9708806276321411,2.403635263442993,-2.9607207775115967
1789223990546341600,8.216341552734375,-1.2500494718551636,2.871128559112549,-1.6592859029769897
1789223990556335600,8.226335693359376,-1.9304836988449097,-0.402052104473114,-1.8441334962844849
1789223990566329600,8.23632958984375,-1.988796353340149,-0.860954225063324,2.0118162631988525
1789223990576322600,8.246322509765625,-1.6412849426269531,-5.471920013427734,8.792996406555176
1789223990586316500,8.256316650390625,-2.188699722290039,-5.329988956451416,12.589314460754395
1789223990596310500,8.266310546875,-2.1348483562469482,-3.6796071529388428,9.153059959411621
1789223990606303700,8.2763037109375,-1.5097564458847046,-3.1851966381073,2.7832260131835938
1789223990616297700,8.286297607421876,-1.2537529468536377,-1.0249534845352173,-0.04710637778043747
1789223990626291700,8.296291748046874,-1.1772602796554565,12.142860412597656,-4.689578533172607
1789223990636284700,8.30628466796875,-1.6442456245422363,6.65601110458374,-13.94534969329834
1789223990646278700,8.316278564453125,-1.6420509815216064,-3.8402905464172363,-13.035917282104492
1789223990656272600,8.326272705078125,-1.94865882396698,-1.236282229423523,-7.081252574920654
1789223990666266600,8.3362666015625,-1.1733044385910034,-2.464062213897705,-2.6036083698272705
1789223990676259800,8.346259765625,0.03771471977233887,-4.742663860321045,-1.4634342193603516
1789223990686253800,8.35625390625,-0.08134625852108002,14.042553901672363,3.0134341716766357
1789223990696247800,8.366247802734375,0.7487291097640991,5.293240070343018,5.0275702476501465
1789223990706240800,8.37624072265625,0.2937629818916321,-2.0704848766326904,5.2368903160095215
1789223990716235000,8.386235107421875,-0.9522712230682373,-2.437770366668701,8.087903022766113
1789223990726229000,8.39622900390625,-2.5757224559783936,1.4695799350738525,9.852395057678223
1789223990736222000,8.406221923828125,-3.3131563663482666,-1.8010718822479248,5.549865245819092
1789223990746216000,8.4162158203125,-3.1946756839752197,-9.066152572631836,-1.1464734077453613
1789223990756210000,8.4262099609375,-2.225052833557129,-6.610179424285889,-4.052636623382568
1789223990766203000,8.436202880859375,-0.29280030727386475,-3.041943073272705,-6.524543285369873
1789223990776196900,8.44619677734375,1.1817455291748047,-0.5595981478691101,-7.474310874938965
1789223990786191000,8.456191162109375,1.5632201433181763,2.1992504596710205,-6.375547885894775
1789223990796183800,8.466183837890625,1.1558433771133423,5.056519985198975,-4.671370506286621
1789223990806177800,8.476177734375,0.04586738348007202,5.585623264312744,-1.6751630306243896
1789223990816171800,8.486171875,-0.9410225749015808,-1.6638457775115967,2.460179328918457
1789223990826166000,8.496166015625,-2.292588710784912,-4.509011268615723,6.337022304534912
1789223990836159000,8.506158935546875,-3.3218302726745605,-3.5410125255584717,6.969008922576904
1789223990846153000,8.516153076171875,-3.2800779342651367,-1.5176916122436523,5.695572376251221
1789223990856146700,8.526146728515625,-2.2315924167633057,-0.058518435806035995,3.731053590774536
1789223990866140000,8.536139892578126,-0.8801715970039368,0.04306624457240105,1.7740883827209473
1789223990876134000,8.5461337890625,0.2554820477962494,0.870821475982666,-0.23330147564411163
1789223990886127900,8.5561279296875,0.9526348114013672,1.3248794078826904,-2.289790153503418
1789223990896121000,8.56612109375,1.3704136610031128,-0.3247441053390503,-4.9148454666137695
1789223990906114800,8.57611474609375,1.2378560304641724,-2.3848180770874023,-5.939450740814209
1789223990916108800,8.58610888671875,0.572687029838562,-2.9221737384796143,-4.232402324676514
1789223990926102000,8.59610205078125,-0.46101802587509155,-1.4598371982574463,-1.5377801656723022
1789223990936096000,8.606095947265626,-1.324419379234314,0.3656305968761444,-1.2345407009124756
1789223990946090000,8.616090087890624,-1.4329594373703003,0.5856609344482422,-0.7615071535110474
1789223990956084000,8.626083984375,-1.3102576732635498,-1.8108079433441162,1.5107085704803467
1789223990966077000,8.636076904296875,-1.5424789190292358,-1.5055596828460693,3.7848944664001465
1789223990976071000,8.64607080078125,-1.573194146156311,0.10329344123601913,4.801194190979004
1789223990986065000,8.65606494140625,-0.9786388874053955,0.6582591533660889,3.4512293338775635
1789223990996058000,8.66605810546875,0.02888447418808937,-1.3281382322311401,0.0773010328412056
1789223991006052000,8.676052001953124,0.49595484137535095,-1.083450198173523,-1.3761907815933228
1789223991016045800,8.6860458984375,0.688305139541626,-0.9179813265800476,-0.9171191453933716
1789223991026038800,8.696038818359375,0.7658887505531311,-1.0782458782196045,0.44975101947784424
1789223991036033000,8.706032958984375,0.9253055453300476,-1.9757682085037231,1.1831562519073486
1789223991046027000,8.716027099609375,1.1212421655654907,0.4032483994960785,-0.7278068661689758
1789223991056020000,8.72602001953125,0.9817663431167603,4.522889614105225,-2.789895534515381
1789223991066013700,8.736013671875,0.43814173340797424,3.085367202758789,-2.5452005863189697
1789223991076008000,8.746008056640624,0.028651416301727295,-1.016987681388855,-2.8940956592559814
1789223991086001000,8.7560009765625,0.22480767965316772,-4.632911682128906,-1.5484306812286377
1789223991095995000,8.765994873046875,0.5841948390007019,-2.4846229553222656,1.418615698814392
1789223991105988900,8.77598876953125,1.2694381475448608,-2.2957820892333984,3.790363073348999
1789223991115983000,8.785983154296876,1.822292447090149,-1.6845202445983887,4.364736557006836
1789223991125975800,8.795975830078126,1.9102410078048706,3.2075250148773193,3.271263837814331
1789223991135969800,8.8059697265625,1.6701490879058838,4.798619747161865,1.6575740575790405
1789223991145964000,8.815964111328125,0.7859735488891602,1.6501774787902832,-0.3516632318496704
1789223991155957000,8.82595703125,0.15061017870903015,-1.920913815498352,-1.2457484006881714
1789223991165951000,8.835950927734375,0.13479359447956085,-4.23237419128418,-0.896717369556427
1789223991175944700,8.84594482421875,0.45835646986961365,-2.9132745265960693,-0.8705390691757202
1789223991185938000,8.85593798828125,1.1117440462112427,2.041905403137207,-1.1305937767028809
1789223991195932000,8.865931884765626,1.482979655265808,4.854441165924072,-0.5250378251075745
1789223991205926000,8.87592578125,1.572310209274292,4.000325679779053,-0.6761243343353271
1789223991215919000,8.885919189453125,1.4852298498153687,-0.006872781552374363,-1.8720993995666504
1789223991225912800,8.895912841796875,1.214604377746582,-3.028101921081543,-0.5452645421028137
1789223991235906800,8.90590673828125,1.0741024017333984,-3.54460072517395,0.5378792881965637
1789223991245900800,8.91590087890625,1.3304295539855957,-2.6130404472351074,0.48942458629608154
1789223991255894000,8.92589404296875,1.3523402214050293,0.08614861965179443,1.5939162969589233
1789223991265888000,8.935887939453124,1.0686466693878174,3.1239190101623535,2.6162033081054688
1789223991275882000,8.945882080078125,0.7806790471076965,3.6805269718170166,1.3292275667190552
1789223991285875000,8.955875,0.4164888858795166,0.9823238253593445,-0.34292420744895935
1789223991295869000,8.965868896484375,0.045809097588062286,-1.3481606245040894,-1.2175774574279785
1789223991305863000,8.97586279296875,0.0692155584692955,-0.0662217065691948,-2.6494503021240234
1789223991315856000,8.98585595703125,0.7954925894737244,0.3094903826713562,-3.238783836364746
1789223991325850000,8.99585009765625,1.4410680532455444,-0.2698301076889038,-1.7714335918426514
1789223991335844000,9.005843994140625,1.5888314247131348,0.5950871109962463,0.8140801787376404
1789223991345836800,9.0158369140625,1.4130222797393799,2.198991298675537,2.3966317176818848
1789223991355830800,9.025830810546875,1.213968276977539,1.946886420249939,2.3882687091827393
1789223991365825000,9.035824951171875,0.9547826647758484,-0.35630595684051514,1.350963830947876
1789223991375819000,9.045819091796876,0.6272208094596863,-1.93045175075531,0.06760570406913757
1789223991385811700,9.055811767578126,0.47514861822128296,-2.036905288696289,-0.3700058162212372
1789223991395806000,9.065805908203124,0.5337333679199219,-0.46663525700569153,-0.07581573724746704
1789223991405800000,9.075800048828125,0.8839557766914368,1.5065973997116089,-0.15663708746433258
1789223991415793000,9.08579296875,1.2003989219665527,3.154741048812866,-0.8636198043823242
1789223991425787000,9.095786865234375,1.1007561683654785,3.371514320373535,-1.1200041770935059
1789223991435781000,9.105781005859376,0.8668712377548218,1.226623773574829,-1.2593003511428833
1789223991445773800,9.11577392578125,0.5779238343238831,-1.4736772775650024,-0.8544391989707947
1789223991455767800,9.125767822265624,0.3165452182292938,-2.4891374111175537,0.31689727306365967
1789223991465761800,9.13576171875,0.2888999283313751,-1.4327025413513184,1.1785097122192383
1789223991475755000,9.145755126953125,0.5608970522880554,0.5944674611091614,1.0477917194366455
1789223991485749000,9.1557490234375,0.8639068603515625,2.6098577976226807,-0.00980358012020588
1789223991495743000,9.165742919921875,0.568956732749939,2.876230001449585,0.21174879372119904
1789223991505736700,9.17573681640625,0.026037059724330902,1.53769052028656,0.9930415749549866
1789223991515730000,9.18572998046875,-0.3365912139415741,-0.8577804565429688,0.8808274269104004
1789223991525724000,9.195723876953124,-0.28229448199272156,-2.4122812747955322,-0.03722582012414932
1789223991535718000,9.2057177734375,0.09752901643514633,-1.7279760837554932,-0.5005378127098083
1789223991545711000,9.215711181640625,0.7785847783088684,1.6617257595062256,-1.4986627101898193
1789223991555704800,9.225704833984375,1.3447500467300415,2.727293014526367,-2.482889413833618
1789223991565698800,9.23569873046875,1.1403154134750366,2.5316672325134277,-1.3695670366287231
1789223991575692000,9.245692138671876,0.5052535533905029,1.9023844003677368,0.3866285979747772
1789223991585686000,9.25568603515625,0.026617959141731262,0.33450326323509216,0.6819868087768555
1789223991595680000,9.265679931640625,-0.05539408326148987,-2.506075859069824,0.7589631080627441
1789223991605674000,9.275674072265625,0.06110256910324097,0.41414523124694824,0.4436644911766052
1789223991615667000,9.2856669921875,0.3552684187889099,-0.6109041571617126,1.0120608806610107
1789223991625661000,9.295660888671875,0.2581675946712494,-1.4319621324539185,2.8692452907562256
1789223991635655000,9.305655029296876,0.022132933139801025,-0.7184930443763733,3.7777035236358643
1789223991645648100,9.315648193359374,-0.33052682876586914,0.7717520594596863,3.8324544429779053
1789223991655642000,9.32564208984375,-0.5596644282341003,1.2020634412765503,2.1492185592651367
1789223991665635800,9.3356357421875,-0.7220981121063232,0.6619343757629395,-0.49398162961006165
1789223991675628800,9.34562890625,-1.1216233968734741,0.24691273272037506,-1.3601218461990356
1789223991685623000,9.355623046875,-1.2122095823287964,-0.4610067903995514,-1.7959396839141846
1789223991695616800,9.36561669921875,-0.8597527146339417,-0.43028509616851807,-3.5750582218170166
1789223991705609700,9.375609619140626,-0.7201106548309326,8.92910385131836,-6.182041168212891
1789223991715603700,9.385603759765624,-0.7508938908576965,-0.10592354089021683,-3.6227526664733887
1789223991725598000,9.395597900390625,-1.3969533443450928,-3.901747465133667,-0.42625102400779724
1789223991735591700,9.405591796875,-2.2199981212615967,-6.255605697631836,1.6567007303237915
1789223991745584600,9.415584716796875,-3.16789174079895,-4.295217037200928,2.696647882461548
1789223991755579000,9.425578857421876,-4.022328853607178,4.644052982330322,3.413343906402588
1789223991765572900,9.43557275390625,-3.718756675720215,5.1106858253479,1.791374921798706
1789223991775565800,9.44556591796875,-3.4726150035858154,1.1617482900619507,0.9090906381607056
1789223991785559600,9.4555595703125,-2.908303737640381,-3.169248580932617,1.0777745246887207
1789223991795553800,9.4655537109375,-2.052572250366211,-4.791281700134277,-0.09812477976083755
1789223991805546800,9.475546630859375,-0.7322645783424377,-1.9612128734588623,-2.81842041015625
1789223991815540700,9.485540771484375,0.007294165436178446,-2.801990270614624,-2.923135757446289
1789223991825534700,9.49553466796875,-0.45995068550109863,-1.3315740823745728,-1.6509079933166504
1789223991835527700,9.505527587890626,-1.7657406330108643,2.02639102935791,-0.9390321969985962
1789223991845521700,9.515521728515624,-3.2672319412231445,4.351117134094238,-0.3569953739643097
1789223991855515600,9.525515625,-3.9884183406829834,1.6744320392608643,-0.23427854478359222
1789223991865509600,9.535509521484375,-4.201025485992432,-1.9820590019226074,0.1823035031557083
1789223991875502800,9.5455029296875,-3.956184148788452,-2.8838651180267334,1.6690629720687866
1789223991885496800,9.555496826171876,-2.9868762493133545,-1.3444664478302002,2.4733521938323975
1789223991895490600,9.565490478515626,-1.0285992622375488,0.3423107862472534,1.3524283170700073
1789223991905483800,9.57548388671875,0.699936032295227,0.9586018919944763,0.4976079761981964
1789223991915477800,9.585477783203125,1.3756200075149536,0.406575471162796,1.1516445875167847
1789223991925471700,9.5954716796875,1.3465914726257324,-0.7498884797096252,2.147156000137329
1789223991935465000,9.60546484375,0.5819777250289917,-0.9224045872688293,1.1798840761184692
1789223991945458700,9.615458740234375,-0.2508314251899719,-2.1661934852600098,-2.2070419788360596
1789223991955452700,9.62545263671875,-0.8718169331550598,-1.5892795324325562,-3.217794895172119
1789223991965445600,9.635445556640626,-1.2840954065322876,0.2215886116027832,-3.100238084793091
1789223991975440000,9.64543994140625,-1.4350430965423584,1.897200584411621,-1.7350846529006958
1789223991985433900,9.655433837890625,-0.9170398116111755,0.8982044458389282,-0.016502130776643753
1789223991995427800,9.665427734375,-0.05866437405347824,-2.040687084197998,2.6028847694396973
1789223992005420800,9.6754208984375,0.33727943897247314,-2.8655924797058105,4.944535255432129
1789223992015414800,9.685414794921876,0.709303617477417,-2.381192207336426,4.053374290466309
1789223992025408800,9.69540869140625,0.6894915103912354,-1.8565336465835571,3.0378994941711426
1789223992035401700,9.705401611328124,0.11595875769853592,-0.34310320019721985,3.1059656143188477
1789223992045396000,9.71539599609375,-0.3299711048603058,1.2200467586517334,1.0083166360855103
1789223992055389700,9.7253896484375,-0.3885422646999359,2.199599266052246,-5.290403366088867
1789223992065382700,9.735382568359375,-0.838541567325592,-0.7225213050842285,-5.965203285217285
1789223992075376600,9.745376708984375,-1.550399661064148,0.49471405148506165,-4.143993854522705
1789223992085371000,9.755370849609376,-1.7240238189697266,-0.30376502871513367,-1.9740514755249023
1789223992095364900,9.76536474609375,-1.381049394607544,-3.0628435611724854,0.17717331647872925
1789223992105357600,9.775357666015625,-0.8777080774307251,-2.8223185539245605,2.7772133350372314
1789223992115351600,9.7853515625,0.1565513014793396,3.089902639389038,4.450291633605957
1789223992125345800,9.795345703125,0.4274510145187378,-0.09623446315526962,3.3102498054504395
1789223992135338800,9.8053388671875,0.13092906773090363,-0.35834863781929016,3.4674136638641357
1789223992145332700,9.815332763671876,-0.378091037273407,1.1365660429000854,3.993525505065918
1789223992155326700,9.82532666015625,-0.7847064733505249,-0.5339654088020325,2.5136380195617676
1789223992165319700,9.835319580078124,-0.5776295065879822,-6.148838043212891,-1.0056684017181396
1789223992175313700,9.845313720703125,0.07979865372180939,-5.400317192077637,-2.5282561779022217
1789223992185307600,9.8553076171875,0.8280897736549377,-0.6370356678962708,-3.600233554840088
1789223992195302000,9.865302001953125,1.656144618988037,5.3485541343688965,-5.615550518035889
1789223992205294800,9.875294921875,2.0915207862854004,1.0939514636993408,-4.378404140472412
1789223992215288600,9.88528857421875,1.2501049041748047,-0.8825058341026306,-0.757411003112793
1789223992225282600,9.895282470703124,-0.12282954901456833,-0.453269362449646,3.0464072227478027
1789223992235275800,9.90527587890625,-1.0447123050689697,-0.8864820599555969,4.827384948730469
1789223992245269800,9.915269775390625,-0.7989630103111267,-5.629154682159424,3.334855079650879
1789223992255263700,9.925263671875,-0.06195687875151634,-0.6090033054351807,1.2722378969192505
1789223992265256700,9.935256591796875,0.6161573529243469,1.0009278059005737,0.9134385585784912
1789223992275250700,9.945250732421876,1.365097999572754,0.669614851474762,0.864066481590271
1789223992285244700,9.95524462890625,1.8615796566009521,0.27236297726631165,-0.377313494682312
1789223992295238700,9.96523876953125,2.077470302581787,-0.2029801309108734,-3.1051337718963623
1789223992305232000,9.97523193359375,1.8376038074493408,-0.6495592594146729,-3.4036660194396973
1789223992315225900,9.985225830078125,1.435671091079712,-1.1495558023452759,-1.4351338148117065
1789223992325219800,9.9952197265625,1.267810583114624,-1.637263298034668,0.402734637260437
1789223992335212800,10.005212890625,1.5442386865615845,-1.6387019157409668,1.2726408243179321
1789223992345206800,10.015206787109374,1.8537838459014893,-0.537559986114502,2.366062641143799
1789223992355200800,10.02520068359375,2.0976932048797607,1.1453883647918701,2.4980204105377197
1789223992365193700,10.03519384765625,2.313866376876831,2.026900053024292,1.3633419275283813
1789223992375188000,10.04518798828125,2.1804046630859375,2.230199098587036,0.8714404106140137
1789223992385181700,10.055181640625,1.96183443069458,1.648971676826477,0.26947811245918274
1789223992395175700,10.06517578125,1.9748975038528442,0.04539027065038681,-1.2215808629989624
1789223992405169000,10.0751689453125,2.212148904800415,-1.5772932767868042,-1.925216555595398
1789223992415163000,10.085162841796874,2.582160472869873,-1.3271092176437378,-2.150151491165161
1789223992425156900,10.095156982421875,3.0533010959625244,0.4236835241317749,-2.6976044178009033
1789223992435149600,10.105149658203125,3.2622389793395996,1.2804248332977295,-2.001556158065796
1789223992445143800,10.115143798828125,2.9885106086730957,0.9700517058372498,0.37780728936195374
1789223992455137800,10.1251376953125,2.4547154903411865,0.15745680034160614,2.9289603233337402
1789223992465130800,10.135130859375,1.8520493507385254,-0.30075356364250183,4.113118648529053
1789223992475124700,10.145124755859374,1.3446124792099,0.45395007729530334,3.9931540489196777
1789223992485119000,10.155118896484375,1.050277590751648,2.1152918338775635,2.7950494289398193
1789223992495112700,10.16511279296875,1.0752146244049072,3.378342390060425,0.16357392072677612
1789223992505105700,10.175105712890625,1.190466284751892,1.9754904508590698,-2.079627275466919
1789223992515099600,10.185099609375,1.4149774312973022,-0.46535199880599976,-2.4726123809814453
1789223992525094000,10.195093994140626,1.8516496419906616,-2.483792781829834,-1.7782983779907227
1789223992535086800,10.2050869140625,2.254383087158203,-1.9178107976913452,-1.3488404750823975
1789223992545080600,10.21508056640625,2.274541139602661,1.599097728729248,-1.2424124479293823
1789223992555074800,10.22507470703125,1.8432761430740356,4.715701580047607,-0.9318150877952576
1789223992565067800,10.23506787109375,1.3190586566925049,3.3429646492004395,-1.366169810295105
1789223992575061800,10.245061767578125,0.8453883528709412,-0.5035748481750488,-1.2029294967651367
1789223992585055700,10.2550556640625,0.47144609689712524,-3.810941219329834,0.8220685124397278
1789223992595050000,10.265050048828124,0.2107473909854889,-3.852518320083618,2.220848321914673
1789223992605042700,10.275042724609374,0.3291711211204529,0.3110446631908417,1.7328155040740967
1789223992615036700,10.28503662109375,0.8182196021080017,6.505257606506348,0.49083399772644043
1789223992625030700,10.29503076171875,1.2477446794509888,3.9151272773742676,-0.13971750438213348
1789223992635024000,10.30502392578125,0.97966468334198,0.7171058654785156,-0.7176607251167297
1789223992645017900,10.315017822265625,0.4598325192928314,-1.5624536275863647,-0.44278600811958313
1789223992655011600,10.325011474609376,0.20495069026947021,-2.6952264308929443,-0.3134605288505554
1789223992665004800,10.3350048828125,0.4432773292064667,-2.2464675903320312,-0.7806728482246399
1789223992674998800,10.344998779296875,0.8422116637229919,0.18003885447978973,-1.2473387718200684
1789223992684992800,10.35499267578125,1.001843810081482,2.8050944805145264,-1.0465015172958374
1789223992694986800,10.36498681640625,0.7696595788002014,4.271940231323242,-0.2912512421607971
1789223992704979200,10.374979248046875,0.5282489061355591,3.0882325172424316,0.38873305916786194
1789223992714973200,10.38497314453125,0.2508002817630768,0.039101749658584595,0.5939959287643433
1789223992724967200,10.39496728515625,0.014492595568299294,-2.1313512325286865,0.9125896096229553
1789223992734960400,10.40496044921875,0.07910860329866409,-3.787348747253418,2.0594027042388916
1789223992744954400,10.414954345703125,0.3518814444541931,-2.7891128063201904,2.5718369483947754
1789223992754948000,10.424947998046875,0.8980350494384766,3.634653091430664,0.6597935557365417
1789223992764941300,10.43494140625,1.1785600185394287,6.242377758026123,-1.1545517444610596
1789223992774935300,10.444935302734375,0.9028826355934143,4.499427318572998,-2.4164953231811523
1789223992784929300,10.45492919921875,0.4180728793144226,1.1434108018875122,-2.8746485710144043
1789223992794923300,10.46492333984375,0.11271936446428299,-1.913180947303772,-1.8689693212509155
1789223992804916200,10.474916259765624,0.1317136287689209,-3.003221273422241,0.017214499413967133
1789223992814910200,10.48491015625,0.4631647765636444,-2.6014397144317627,2.4917361736297607
1789223992824904200,10.494904296875,0.6050079464912415,-0.6663094162940979,4.6723761558532715
1789223992834897200,10.504897216796875,0.5525455474853516,1.9840434789657593,4.699450969696045
1789223992844891400,10.514891357421876,0.34905731678009033,3.7649588584899902,2.573046922683716
1789223992854885400,10.524885498046874,-0.06856680661439896,2.920640230178833,0.11562014371156693
1789223992864878000,10.534878173828124,-0.40814706683158875,0.8098310828208923,-2.323762893676758
1789223992874872300,10.544872314453125,-0.38277778029441833,-0.26367345452308655,-4.605896949768066
1789223992884866300,10.5548662109375,0.046476587653160095,-0.12698477506637573,-5.058199405670166
1789223992894860300,10.5648603515625,0.768783688545227,1.2105779647827148,-2.913928270339966
1789223992904853200,10.574853271484375,1.3709126710891724,4.337612152099609,0.05319071561098099
1789223992914847500,10.584847412109376,1.637078881263733,1.2546405792236328,1.5638049840927124
1789223992924841200,10.59484130859375,1.0124751329421997,-1.3816986083984375,3.0235958099365234
1789223992934834200,10.604834228515625,0.10010809451341629,-2.6271660327911377,3.6738927364349365
1789223992944828200,10.614828125,-0.7224917411804199,-1.7305201292037964,2.909471035003662
1789223992954822400,10.624822509765625,-1.0201048851013184,0.9529062509536743,1.1782562732696533
1789223992964815000,10.634815185546875,-1.039674997329712,1.7389816045761108,0.6589401960372925
1789223992974809000,10.64480908203125,-0.929105818271637,1.6361217498779297,0.831486701965332
1789223992984803000,10.654802978515624,-0.7079595923423767,1.932732343673706,-0.09251446276903152
1789223992994797300,10.66479736328125,-0.5997422933578491,2.7477097511291504,-1.6069780588150024
1789223993004790300,10.674790283203125,-0.5567041039466858,1.9782811403274536,-2.265838146209717
1789223993014784300,10.6847841796875,-0.365181565284729,-0.6324622631072998,-1.9918830394744873
1789223993024778200,10.6947783203125,-0.131483793258667,-3.0869266986846924,-0.8145468235015869
1789223993034771200,10.704771240234376,-0.08409177511930466,-2.7815823554992676,0.47392162680625916
1789223993044765200,10.71476513671875,-0.3537375032901764,0.15526993572711945,1.2600854635238647
1789223993054759200,10.72475927734375,-0.808539867401123,2.687252998352051,1.1522256135940552
1789223993064753400,10.73475341796875,-1.4028126001358032,3.084113121032715,0.2886327803134918
1789223993074746400,10.744746337890625,-2.0280280113220215,1.5691282749176025,-0.1930505335330963
1789223993084740000,10.754739990234375,-2.21280574798584,-0.7828144431114197,-0.417551726102829
1789223993094734000,10.764734130859376,-1.9658522605895996,-2.3446671962738037,-0.481023907661438
1789223993104727300,10.774727294921876,-1.6495331525802612,-2.5083072185516357,0.3671373426914215
1789223993114721300,10.78472119140625,-1.4247239828109741,-1.3074793815612793,1.5781381130218506
1789223993124715300,10.79471533203125,-1.3371411561965942,0.5842042565345764,2.156078338623047
1789223993134708200,10.804708251953125,-1.3895766735076904,2.099545955657959,1.3096672296524048
1789223993144702200,10.8147021484375,-1.686567783355713,4.436678409576416,-1.0954660177230835
1789223993154696200,10.8246962890625,-2.1038167476654053,1.113060712814331,-2.4681828022003174
1789223993164690200,10.834690185546876,-2.176060199737549,-2.0104403495788574,-2.7678399085998535
1789223993174683400,10.844683349609374,-1.5745983123779297,-4.449230194091797,-1.7843061685562134
1789223993184677400,10.854677490234375,-0.9862552285194397,-3.221270799636841,0.6564260125160217
1789223993194671000,10.864671142578125,-0.7686525583267212,2.476346492767334,2.6082701683044434
1789223993204664300,10.874664306640625,-0.6065491437911987,4.404970645904541,3.28290057182312
1789223993214658300,10.884658203125,-0.8527602553367615,2.23184871673584,3.0978245735168457
1789223993224652300,10.89465234375,-1.4399486780166626,-0.7408285140991211,2.1638264656066895
1789223993234645200,10.904645263671876,-2.0044021606445312,-1.3547638654708862,0.21512220799922943
1789223993244639200,10.91463916015625,-1.4853215217590332,-1.1967183351516724,-3.875736951828003
1789223993254633200,10.92463330078125,-0.24118775129318237,-2.4181439876556396,-4.3075456619262695
1789223993264627200,10.934627197265625,0.5261877179145813,-1.6902886629104614,-2.547286033630371
1789223993274620400,10.944620361328125,0.34451723098754883,1.1304972171783447,0.8360050320625305
1789223993284614400,10.954614501953126,-0.31604254245758057,3.1279704570770264,3.6890454292297363
1789223993294608400,10.9646083984375,-1.165032982826233,2.53971791267395,3.860405445098877
1789223993304601000,10.97460107421875,-1.8856300115585327,-1.9959379434585571,1.70016348361969
1789223993314595300,10.98459521484375,-2.2767860889434814,-2.597944736480713,-0.36203962564468384
1789223993324589300,10.99458935546875,-1.8362637758255005,-1.9702881574630737,-1.5894153118133545
1789223993334583300,11.004583251953125,-1.2042032480239868,-1.475777506828308,-0.843778133392334
1789223993344576300,11.014576171875,-0.6582177877426147,0.15622977912425995,1.261763334274292
1789223993354570200,11.0245703125,0.04898781329393387,2.9045493602752686,1.1615525484085083
1789223993364564200,11.034564208984374,0.6611321568489075,5.087628364562988,-1.063544511795044
1789223993374557200,11.04455712890625,0.4957554340362549,-0.18512530624866486,-1.3313195705413818
1789223993384551200,11.05455126953125,-0.3471624255180359,-2.434361457824707,-1.5037198066711426
1789223993394545400,11.06454541015625,-1.053740382194519,-3.0697474479675293,-1.1813654899597168
1789223993404538000,11.0745380859375,-1.514332890510559,-1.8659379482269287,0.49755948781967163
1789223993414532000,11.084531982421876,-1.5259525775909424,0.3072161376476288,1.6646360158920288
1789223993424526300,11.0945263671875,-1.3870989084243774,2.189098596572876,1.629974603652954
1789223993434520300,11.104520263671875,-1.433461308479309,2.259474277496338,1.450684666633606
1789223993444513300,11.11451318359375,-1.562885046005249,0.6036202311515808,1.1805236339569092
1789223993454507300,11.12450732421875,-1.6103942394256592,-1.3164904117584229,0.32574883103370667
1789223993464501200,11.134501220703125,-1.4148106575012207,-2.4608309268951416,-0.806886613368988
1789223993474494200,11.144494140625,-0.9743845462799072,-2.2906599044799805,-1.636555790901184
1789223993484488200,11.15448828125,-0.4381600618362427,-1.5576574802398682,-1.8818140029907227
1789223993494482200,11.164482177734374,-0.005763112101703882,-1.0547362565994263,-1.7161264419555664
1789223993504476400,11.174476318359375,-0.025868980213999748,-0.348865270614624,-1.0704857110977173
1789223993514469000,11.18446923828125,-0.5110242366790771,0.41639164090156555,-0.039146944880485535
1789223993524463000,11.194463134765625,-1.2580925226211548,0.8072656393051147,1.161790132522583
1789223993534457000,11.20445703125,-1.9449002742767334,0.805671751499176,1.8353155851364136
1789223993544450300,11.2144501953125,-2.302184820175171,0.4273925721645355,1.817594289779663
1789223993554444300,11.2244443359375,-2.133622407913208,-0.6358861923217773,1.3593031167984009
1789223993564438300,11.234438232421875,-1.5560393333435059,-1.7721525430679321,1.0077567100524902
1789223993574431200,11.24443115234375,-0.8716084361076355,-1.7854769229888916,0.8228294849395752
1789223993584425200,11.25442529296875,-0.2042279988527298,-0.6264326572418213,0.19381141662597656
1789223993594419200,11.264419189453125,0.23550596833229065,0.5092766284942627,-0.6503459215164185
1789223993604413200,11.2744130859375,0.27786874771118164,0.8921058773994446,-1.6070168018341064
1789223993614406400,11.284406494140624,0.00813659280538559,0.3179749846458435,-2.498500108718872
1789223993624400100,11.294400146484374,-0.4039566218852997,-1.384036660194397,-1.8067803382873535
1789223993634394000,11.30439404296875,-0.7684727907180786,-2.505650520324707,-0.45506227016448975
1789223993644387300,11.31438720703125,-0.809499204158783,-2.3033812046051025,0.47341957688331604
1789223993654381300,11.32438134765625,-0.5024745464324951,-1.3477556705474854,1.4046189785003662
1789223993664375300,11.334375244140626,-0.06568276882171631,-0.030110573396086693,1.7178815603256226
1789223993674368300,11.3443681640625,0.22729024291038513,0.6585139036178589,1.4833472967147827
1789223993684362200,11.3543623046875,0.16543257236480713,0.6129630208015442,1.2752653360366821
1789223993694356200,11.364356201171875,-0.1537933647632599,0.3731732964515686,0.6997376680374146
1789223993704350500,11.3743505859375,-0.39491382241249084,-0.18175241351127625,-0.4556006193161011
1789223993714343400,11.384343505859375,-0.49925991892814636,-0.8182670474052429,-0.8875970244407654
1789223993724337700,11.394337646484376,-0.49202707409858704,-0.609108030796051,-0.7437629699707031
1789223993734331600,11.40433154296875,-0.37140050530433655,0.2750036418437958,-0.5864124894142151
1789223993744324400,11.414324462890624,-0.10930109024047852,0.5273116827011108,-0.2467726618051529
1789223993754318600,11.424318603515625,0.12762437760829926,0.023490071296691895,0.049355398863554
1789223993764312600,11.4343125,0.2188730537891388,-0.410633385181427,-0.29888805747032166
1789223993774306600,11.444306640625,0.22707480192184448,-0.8666131496429443,-0.6336474418640137
1789223993784299500,11.454299560546875,0.15100552141666412,-1.2732465267181396,-0.12841355800628662
1789223993794293800,11.464293701171876,0.04845705255866051,-1.5817393064498901,0.8703379034996033
1789223993804287500,11.47428759765625,-0.02070493996143341,-2.019926071166992,2.039691209793091
1789223993814280400,11.484280517578124,-0.11426950991153717,-1.4563937187194824,2.3149285316467285
1789223993824274400,11.4942744140625,-0.21692651510238647,0.019704006612300873,1.6100281476974487
1789223993834268700,11.5042685546875,0.13818657398223877,3.8355653285980225,-2.034834384918213
1789223993844262700,11.5142626953125,0.3763557970523834,-1.5560526847839355,-3.1604714393615723
1789223993854255400,11.52425537109375,0.04801173880696297,-1.2561973333358765,-2.1518099308013916
1789223993864249300,11.534249267578126,-0.14587461948394775,-0.4974764883518219,-0.19493958353996277
1789223993874243600,11.54424365234375,-0.30718815326690674,-0.11616697162389755,1.7606966495513916
1789223993884236500,11.554236572265625,-0.3745666742324829,-0.35471105575561523,2.562337875366211
1789223993894230500,11.56423046875,-0.09046678245067596,0.01927185244858265,1.5867159366607666
1789223993904224500,11.574224609375,-0.2547062933444977,-1.0469577312469482,0.37875938415527344
1789223993914217500,11.584217529296875,-0.5727404356002808,-1.2940902709960938,0.3711264729499817
1789223993924211500,11.59421142578125,-0.7831205725669861,-1.0144635438919067,1.713804006576538
1789223993934205400,11.604205322265624,-0.7727707624435425,-0.7125486731529236,2.2695059776306152
1789223993944199700,11.61419970703125,-0.09123855829238892,2.5715792179107666,-1.2968950271606445
1789223993954192600,11.624192626953125,-0.07999841868877411,1.0634678602218628,-2.537174940109253
1789223993964186400,11.634186279296875,-0.5017147660255432,-0.6683719158172607,-1.8690185546875
1789223993974180400,11.644180419921875,-0.8586595058441162,-2.1746249198913574,-1.1147795915603638
1789223993984173600,11.654173583984376,-0.8455408215522766,-3.2826333045959473,-0.3462470769882202
1789223993994167600,11.66416748046875,-0.5873819589614868,-2.2174911499023438,0.909884512424469
1789223994004161500,11.67416162109375,-0.43264394998550415,-1.2555052042007446,1.5164239406585693
1789223994014155500,11.684155517578125,-0.519859254360199,-0.4355519711971283,2.34163761138916
1789223994024148500,11.6941484375,-0.4559747576713562,0.27485454082489014,1.886286973953247
1789223994034142500,11.704142578125,-0.35677042603492737,2.2800779342651367,0.5171929597854614
1789223994044136400,11.714136474609376,-0.27400094270706177,1.29709792137146,-1.2931630611419678
1789223994054129700,11.724129638671876,-0.42013099789619446,-0.11675853282213211,-3.0296151638031006
1789223994064123600,11.73412353515625,-0.37489956617355347,-1.8012657165527344,-2.1637074947357178
1789223994074117600,11.74411767578125,0.0058523016050457954,-3.6031367778778076,0.7684199810028076
1789223994084111400,11.754111328125,0.552743673324585,-2.9445459842681885,2.0070831775665283
1789223994094104600,11.7641044921875,1.0852587223052979,-0.5282788276672363,2.1881368160247803
1789223994104098600,11.7740986328125,1.3582764863967896,1.2653414011001587,2.6855976581573486
1789223994114092500,11.784092529296874,1.3536309003829956,2.0988352298736572,1.7546359300613403
1789223994124085800,11.794085693359374,1.1146713495254517,1.9784657955169678,-0.9118092656135559
1789223994134079500,11.80407958984375,0.7444823980331421,0.19595010578632355,-2.242204427719116
1789223994144073500,11.814073486328125,0.5500656962394714,-1.213521957397461,-1.8504087924957275
1789223994154067500,11.8240673828125,0.6489699482917786,-1.9595366716384888,-0.732761025428772
1789223994164060700,11.834060791015625,1.1445019245147705,-1.3711048364639282,-0.08982951194047928
1789223994174054700,11.8440546875,1.780322790145874,-0.10649561882019043,0.8463488221168518
1789223994184048600,11.854048583984374,2.0461466312408447,1.4376808404922485,1.5776963233947754
1789223994194041600,11.86404150390625,1.891440749168396,2.2638871669769287,0.8783400654792786
1789223994204035600,11.87403564453125,1.5215519666671753,0.8218446373939514,0.4764890968799591
1789223994214029600,11.884029541015625,1.3839166164398193,-3.5157294273376465,-1.0363355875015259
1789223994224022500,11.8940224609375,1.5886890888214111,-0.08881736546754837,-3.041329860687256
1789223994234016800,11.904016845703126,2.0327675342559814,-0.49296140670776367,-1.6919676065444946
1789223994244010500,11.914010498046874,2.259371280670166,-1.4253641366958618,0.618238627910614
1789223994254004500,11.92400439453125,2.3654632568359375,-0.5336225032806396,2.5790855884552
1789223994263997400,11.93399755859375,2.3082687854766846,1.9613280296325684,3.757434368133545
1789223994273991700,11.94399169921875,2.070905923843384,4.271366596221924,3.4010422229766846
1789223994283985700,11.953985595703125,1.5872668027877808,3.7917304039001465,1.0944427251815796
1789223994293978400,11.963978271484375,1.0564192533493042,0.822424590587616,-0.939835786819458
1789223994303972600,11.97397265625,0.709464967250824,-1.215735912322998,-1.5672143697738647
1789223994313966600,11.983966552734374,1.1327896118164062,-1.8875046968460083,-4.531765937805176
1789223994323960600,11.993960693359375,2.461805820465088,-0.6430937051773071,-5.490578651428223
1789223994333953500,12.00395361328125,3.082812547683716,-1.007341980934143,-2.324235677719116
1789223994343947800,12.01394775390625,3.131531000137329,-0.4149834215641022,1.2891709804534912
1789223994353941500,12.02394140625,2.859786033630371,0.259063720703125,3.405273914337158
1789223994363934500,12.0339345703125,2.118187189102173,1.6194769144058228,3.7141034603118896
1789223994373928400,12.043928466796874,1.193119764328003,4.786810874938965,1.0876535177230835
1789223994383922700,12.053922607421875,0.06693542748689651,0.6743215918540955,-0.7214502692222595
1789223994393916700,12.063916748046875,-0.553523063659668,-0.7424153685569763,-0.9556856751441956
1789223994403909400,12.073909423828125,-0.2742093801498413,-2.655062437057495,0.4020586311817169
1789223994413903400,12.0839033203125,0.47449520230293274,-2.7542169094085693,1.8937712907791138
1789223994423897600,12.093897705078126,1.6637611389160156,-0.41593462228775024,1.5929235219955444
1789223994433890600,12.103890625,2.632126569747925,4.835115432739258,-0.4239251911640167
1789223994443884500,12.113884521484374,2.705693483352661,8.007962226867676,-2.600660800933838
1789223994453878500,12.12387841796875,2.1910595893859863,-1.398721694946289,-4.792910099029541
1789223994463872500,12.13387255859375,1.1814212799072266,-1.1990199089050293,-3.0995864868164062
1789223994473865500,12.143865478515625,0.6465888023376465,-2.5205483436584473,0.6074963212013245
1789223994483859500,12.153859375,0.37800440192222595,-3.6024298667907715,3.6380584239959717
1789223994493853700,12.163853759765624,0.06347202509641647,-0.8625385761260986,5.042061805725098
1789223994503846700,12.1738466796875,0.052535586059093475,16.87554931640625,2.0407559871673584
1789223994513840400,12.18384033203125,0.22572414577007294,2.0212490558624268,-1.13372802734375
1789223994523834400,12.19383447265625,-0.2148432582616806,-1.5665230751037598,-1.4631922245025635
1789223994533828600,12.20382861328125,0.2834639847278595,-4.970930576324463,-0.5324667692184448
1789223994543821600,12.213821533203125,0.9062100648880005,-6.166101455688477,0.7953426837921143
1789223994553815600,12.223815673828126,1.4941990375518799,-2.703737735748291,1.0867846012115479
1789223994563809500,12.2338095703125,1.9727853536605835,13.846762657165527,-0.1768474578857422
1789223994573802500,12.243802490234375,2.181318521499634,3.6656808853149414,-1.3104137182235718
1789223994583796500,12.25379638671875,0.6593583226203918,0.816474199295044,-1.8277363777160645
1789223994593790500,12.26379052734375,-0.3814716041088104,-0.43146687746047974,-0.22275322675704956
1789223994603784400,12.273784423828126,-0.9427950978279114,-1.5944929122924805,1.5994080305099487
1789223994613777700,12.283777587890626,-0.9352272152900696,-2.5010552406311035,1.1899638175964355
1789223994623771600,12.293771728515624,0.02846357226371765,0.7240279912948608,-0.8299033045768738
1789223994633765400,12.303765380859375,0.9094231128692627,4.034412860870361,-0.47592926025390625
1789223994643758600,12.313758544921875,1.3826391696929932,0.2853752672672272,0.8118289709091187
1789223994653752600,12.323752685546875,1.0452525615692139,-2.169992685317993,2.0514442920684814
1789223994663746600,12.33374658203125,0.312252402305603,-2.453169822692871,2.4755213260650635
1789223994673739500,12.343739501953126,-0.19173191487789154,-1.603371500968933,1.0365071296691895
1789223994683733500,12.3537333984375,-0.3017127215862274,5.81551456451416,-2.1996660232543945
1789223994693727500,12.3637275390625,-0.37098634243011475,4.374589443206787,-3.3239712715148926
1789223994703721200,12.37372119140625,-0.6185121536254883,0.3730311393737793,-2.0989649295806885
1789223994713714400,12.38371435546875,-0.7735545039176941,-1.6473827362060547,-0.12475564330816269
1789223994723708400,12.39370849609375,-0.6245001554489136,-3.6667582988739014,1.6629669666290283
1789223994733702400,12.403702392578126,-0.6152999997138977,-2.6375999450683594,2.4208357334136963
1789223994743695600,12.413695556640626,-0.1798975020647049,7.862956523895264,0.1478733867406845
1789223994753689300,12.423689453125,0.12958179414272308,6.549564361572266,-1.1704851388931274
1789223994763683300,12.433683349609375,-0.3394899070262909,0.346428781747818,-1.2417503595352173
1789223994773677300,12.44367724609375,-1.0191017389297485,-4.220479488372803,0.12017267942428589
1789223994783670500,12.45367041015625,-1.7375637292861938,-4.850625991821289,1.4952467679977417
1789223994793664500,12.46366455078125,-2.059438705444336,-2.7605037689208984,1.8758752346038818
1789223994803658500,12.473658447265626,-1.7317328453063965,1.1266523599624634,0.6530399918556213
1789223994813651200,12.483651123046876,-1.3932400941848755,3.281384229660034,-1.202978491783142
1789223994823645400,12.4936455078125,-1.724897861480713,3.4767236709594727,-1.4655286073684692
1789223994833639400,12.503639404296875,-2.3455169200897217,2.077075958251953,-0.6685174703598022
1789223994843633400,12.51363330078125,-2.731212615966797,-0.9250442981719971,-0.9934036135673523
1789223994853626400,12.52362646484375,-2.6471941471099854,-4.381870746612549,-0.33637216687202454
1789223994863620400,12.533620361328126,-2.762539863586426,-4.528192043304443,1.7957209348678589
1789223994873614300,12.5436142578125,-3.025336265563965,-1.5936707258224487,2.9555630683898926
1789223994883607300,12.553607177734374,-2.823058605194092,-0.022787373512983322,2.8669893741607666
