seconds_elapsed,z,y,x
0.0,-2.9001205532491205,0.2562865451425313,0.4330457453880458
0.01,6.6071425372641315,2.6492426108849254,-0.8226839612548427
0.02,4.384841978523577,-1.893542583982352,-0.8959588405877535
0.03,-3.744974442687005,0.308744171071091,0.03984806542944711
0.04,-4.970444386043021,2.9885091838139926,-0.08602153652395796
0.05,0.4920678756273388,-0.057551028032677365,-1.7207238365686404
0.06,3.713019709444093,1.36653146350246,-2.166433819061084
0.07,-0.3076722730976244,2.018891033057985,-0.4865660997434324
0.08,-2.301425472554949,0.10417503030479223,0.2140106916111724
0.09,-1.4274559854773854,0.3692018805787924,0.09182869812806811
0.1,-2.3744311724786127,-1.2712050783362225,0.4278465754007539
0.11,-3.620223321802965,-1.079663127863183,1.1218500642991667
0.12,0.4422762454894152,-0.875889240009064,0.10847750336832737
0.13,4.4353827352140485,-0.31510611188033366,-0.5050824254905834
0.14,3.8919309071378674,2.3471995708865174,-0.44636357769114643
0.15,-0.8154935803059831,0.5671232972968989,-0.14356135868650985
0.16,-2.3439264016635777,1.0340969910405107,0.6148704619062885
0.17,-0.18395307108585388,0.9028783653809574,0.4060685941751783
0.18,0.5526582603562483,-0.6088452317050314,-0.7002089222777215
0.19,-1.4552794115786143,-0.33995547041293017,-1.3315293590839132
0.2,-4.524620853920719,-2.776370590684037,-1.4856546406767623
0.21,-1.6664293166198525,-1.3809134773086402,-1.2036286870137702
0.22,1.9861048762852411,-1.341982172011615,-0.8502000596346858
0.23,3.5403157358193407,1.0294823965999667,0.3675614019490103
0.24,5.14826494286917,1.7848702021272103,1.970814919574618
0.25,4.584193423846961,1.7467524594830914,1.1392344766366689
0.26,-0.3693826879191059,3.652418070927661,-1.2449325894170606
0.27,-8.145832721170143,1.5590821730045752,-2.4092091949952215
0.28,-9.087551656591787,-3.623776490993634,-2.603972976430812
0.29,0.7119295666628354,-1.2144598775669977,-3.6553971524807816
0.3,9.021795313247353,5.434957936869358,-3.4556998982191796
0.31,3.4007059355778346,0.4721004649994779,-0.2837187343005728
0.32,-5.251171366870917,-3.533676178195523,3.4529450401884665
0.33,-2.082505548163556,2.6594461866563814,3.534158439259566
0.34,0.9906306171503616,0.22882294017040605,0.6136977408249997
0.35,-1.2978998128253978,-5.072777922890549,-0.3529007326122741
0.36,-0.1879481706429358,1.9012854466468396,0.04271843342270852
0.37,2.6050616323340954,2.668082992306174,-1.2080511253137198
0.38,3.076138383331955,-3.417062877748557,-3.003280564869328
0.39,1.8728918657637483,-1.0002367143566935,-1.9672989288959915
0.4,-2.3216082019571207,3.242033949716226,0.24110017761471855
0.41,-4.632472260753912,-1.54143873734137,1.0223157571330717
0.42,-1.2516453952971778,0.040240545305452464,1.2051353040753328
0.43,1.3034251729974806,1.6196847607267144,1.3974021226725308
0.44,-3.4040809898364657,1.4473545571681832,1.204283582936464
0.45,-7.306548307865335,-2.8745501514952827,0.1602909304645337
0.46,1.1045110682122201,-1.7706967901377528,-1.8218188397195452
0.47,6.793487208935571,4.540422628167003,-2.5363716700376417
0.48,1.5570282440991405,-0.7794849963314228,-2.1239442005864895
0.49,-3.845929913686239,-4.246275783312348,0.7233621005214277
0.5,-0.22539519384041887,3.9853814468345843,2.894986391752708
0.51,4.62459896748713,2.4780678631450894,1.9791764524028117
0.52,2.0383494235392443,-1.4617669656628498,0.7756361167287232
0.53,-4.904882221361058,0.8243782856092227,0.8988239074458714
0.54,-8.862628254145964,-0.8979672898259083,0.5462265998697562
0.55,-2.320238273428768,-3.5490954931928522,-1.6650929051684213
0.56,7.744225843060316,1.7197046014543722,-2.147847985942191
0.57,4.501948190573732,2.1242665498205167,0.20509730043044597
0.58,-3.9966308952864567,-1.7632330802773675,2.471198858460253
0.59,0.4069885489705797,1.4661757626107288,1.4068981751953502
0.6,7.570828134710253,1.1226981900509738,-0.49516879676526754
0.61,5.419772355787179,3.2260797028987067,-0.05037993990674477
0.62,-4.993717012457013,-0.8540202516738151,0.6249203250752513
0.63,-11.336063567206406,-3.6604004394163874,0.7773177304269803
0.64,-5.7603363224395085,1.7731422790258495,0.93108072279214
0.65,4.554530548404748,-1.8622981688656026,-0.07142339641509916
0.66,9.712758407327197,1.683141938144209,-0.31567929958602536
0.67,0.39413686239800805,2.2718509742255284,1.481428101017526
0.68,-8.31321417519195,-3.6971231112952228,2.8360932153945053
0.69,-0.6921807269507317,1.2133474387818524,1.1394327567905385
0.7,7.277739408113094,0.4679954921584585,-1.3212553155778313
0.71,4.764167329609904,1.9518958264103232,-0.6481213220054529
0.72,-2.5723246588294093,1.5330214382165248,0.3189081023154845
0.73,-6.122794661061325,-0.6919656975033177,-0.011829210508935636
0.74,-4.416901020628999,0.5351901152772363,0.940737351011625
0.75,-1.855830609959985,0.2413276801785135,2.213710220240981
0.76,0.31658839352251866,1.5215198858224925,1.4355048738519276
0.77,0.3568229295890107,0.18373358460115147,0.6789732607705882
0.78,1.2965241421510916,0.12203294820916277,0.9813872726690873
0.79,1.954146537438849,-0.4569462515541912,0.9131371976188324
0.8,-0.39836550869271614,-0.5504417177586494,0.4091990747541904
0.81,-2.969887767158642,-1.971847896818545,1.4962052720356274
0.82,1.3264212974601537,0.4269022167553609,1.836673773404126
0.83,4.789063150485276,3.73087065100247,-0.20350153304947316
0.84,1.0658441225090127,0.46113965675054375,-1.3670746003813206
0.85,-6.476380408774639,0.37508755869104227,0.05301937376493418
0.86,-7.191293771058002,0.9751917999632158,0.6599082825978607
0.87,-0.7438642966022794,-0.11664667221778255,0.41144850804399485
0.88,3.8511622956656413,0.17368234578525607,0.9229714942267777
0.89,2.8460565246081435,-1.8067696022631734,2.3007802398029527
0.9,1.6174543615636026,0.01854026920827539,2.791693378059831
0.91,1.3268155229943404,0.06003261385646355,1.400773184804985
0.92,2.5303898557672406,0.6047297777163847,0.22442783323514665
0.93,1.3977746138772416,3.317605692334845,1.4782073506472835
0.94,-2.327670946537784,-0.12364446843610546,2.0478047299830124
0.95,-1.3869960785055668,-0.6078437111422802,0.8211710341602262
0.96,-0.9995787668791133,1.7177040193259692,-0.07043648952659907
0.97,-1.486209257051487,-0.8097616440356958,0.39751214967617343
0.98,-0.871208120540089,0.5903784064128438,0.3720576183348087
0.99,0.7917080317763987,1.2697326523023136,0.5447683838092202
1.0,1.4065998048418256,-0.09017834140619198,2.6469281068318553
1.01,-0.9363735247062221,0.009344346918706212,3.5811008783502754
1.02,-4.689160262705651,-1.4560605588704707,2.4239174739223315
1.03,-3.6023877713090844,-0.6223259597778751,1.6992548927884596
1.04,-1.9694205328372545,-0.18606524650244205,0.6101981431859853
1.05,0.7419220625879712,0.38193981739962224,-0.8945746940562442
1.06,2.458497964916203,0.6925118395264561,-0.28912034509918394
1.07,-0.399067212422319,-1.3752649951861833,1.317920055554355
1.08,-1.0843363760590137,1.1706559262280303,2.445507402672679
1.09,1.868282162660264,2.5771615358864373,2.1035505295317036
1.1,3.5491474151311073,0.6654664517835419,1.1652052974048086
1.11,5.677052964777247,2.3783653143061017,1.0369594610271358
1.12,12.758244670611562,8.723182164026642,1.218146321897153
1.13,20.188620814961702,8.592551154226472,0.493469193645498
1.14,13.629239601600501,7.536524110675343,0.35003100664162456
1.15,-42.28798471880179,-6.9876839665559105,3.2942805903113768
1.16,-73.14497357891365,-21.899016341200927,4.410720697132163
1.17,20.480706315812935,3.165684007923707,3.796677873229744
1.18,41.615166141240785,16.27628369557341,4.078725111026056
1.19,26.192664934159314,5.473305497141435,1.7502959906015256
1.2,-23.213856793178234,-18.341899794792457,-0.3057403577984812
1.21,-48.04068609800734,-7.32359979837288,-0.4562754152726224
1.22,17.775513703490137,6.700223067642913,-4.561518721037021
1.23,35.74193360464252,0.9135062622555412,-1.3169521223717477
1.24,15.768567218126199,-0.6832271531739296,1.348566022850674
1.25,-18.779319741052525,3.5611207456830227,0.25660349495639434
1.26,-26.49076488389826,-7.804347258462912,-1.7520548511778398
1.27,7.653657619939612,-2.161364758644906,-0.06664252387523606
1.28,22.122399335305484,4.736397226148528,3.337380147427824
1.29,8.565280342442051,0.03494422043261769,2.2373882022726237
1.3,-17.23249724040715,-7.510379943991374,1.4835103860022538
1.31,-19.77502352420959,-1.967954847968322,1.3153610503420083
1.32,4.804003862106418,-0.5830680191070423,-0.6328732321404995
1.33,16.515786634237323,-0.49883595953240234,0.07569541341019433
1.34,15.9992396405055,9.31282408748852,-1.2129682163348527
1.35,3.522004567569122,7.125631237639909,-3.424103344985469
1.36,-13.557159172035286,-2.047142004115334,-1.7834565506120024
1.37,-20.8156248113143,-3.3730033997123448,2.132873504139627
1.38,-10.429987547287197,-2.3649650901120434,2.0640042705488257
1.39,3.8761237887882776,1.7548932256010437,-0.12468830936034157
1.4,8.801024523337954,7.697392955927851,-1.516899157344902
1.41,1.384593073120689,3.415264892589382,-1.7381057223808267
1.42,-3.333463412971051,-4.25473716496306,-0.7322620777745943
1.43,4.641499130808938,-7.302682921800444,0.15724269123890078
1.44,13.481443097803696,-5.7983078520585485,0.5486942861821689
1.45,6.567749517017148,6.66160278155689,2.5234839933612223
1.46,-9.803512115732714,2.835279442593199,4.271048951009301
1.47,-6.058465785695756,-17.78901395039863,1.987909403053791
1.48,11.929270685013988,2.901886557816276,1.2560616856415727
1.49,13.609276958566142,16.482753685753885,2.0435484011688327
1.5,-7.283184428824895,-2.728433400235537,-0.5948624502587996
1.51,-24.643929942167233,-12.95028102696176,-1.9726713853999562
1.52,-16.806526098683246,6.592589219273002,0.3479238036046943
1.53,1.3061745783806957,-0.2728555341841845,-0.6297340415893764
1.54,11.2415705635094,-7.840560565492395,-1.6627321083158018
1.55,11.531637616795104,3.121029002048725,0.5378184975471458
1.56,3.365728938107197,5.059994712658153,2.8270952145301753
1.57,-0.7177925934360805,-1.8086912110713014,1.4645610542530991
1.58,1.8224254646390372,-0.11912770661107341,0.1557850207753113
1.59,2.491200912847079,6.319559195329558,1.197100471184192
1.6,-3.002107667345441,1.8699926615183644,2.696014018650541
1.61,-7.750473646596293,0.36083692693992675,2.964807437741151
1.62,-6.0403545740783935,3.6441802144035647,0.8857290138349704
1.63,-3.3148135468460294,-1.3926046060753916,-1.5739979251108696
1.64,0.505789242941815,-4.487982924572635,-1.7771984940530026
1.65,1.9479204351042327,-0.7524427940995952,0.011080280018489791
1.66,2.1017577560208904,-1.8608503027130605,1.9869252804019362
1.67,4.739759006611145,-0.49057383793804,3.3310943364881527
1.68,7.213474169140297,1.0285561886251529,3.491181020023225
1.69,5.5201325261816026,-1.6308920704658605,2.3012141526703527
1.7,-0.7318027122110735,1.5618258724281782,0.7890758732384003
1.71,-4.98815263887361,-0.05320426092124231,-0.9147787117005782
1.72,-3.078300071077332,-2.1265386579164884,-2.5543762143858935
1.73,2.554601443155373,0.41798418094770046,-2.3454655231621877
1.74,3.295286411306996,1.54429149583433,0.31717588318980044
1.75,-0.07001681494772038,-0.8994476387597676,2.861097626604351
1.76,1.0553615997405201,-1.029091119089044,2.9607085104170077
1.77,2.493054437703421,4.8791529031598095,2.543008970234274
1.78,-2.0819113159969773,0.4888615442539081,2.3168904790617555
1.79,-5.9521117062642475,-2.844430573168877,1.5789444186536097
1.8,-4.934774255593165,2.538274246799976,0.3547084578065709
1.81,-1.9297547168070321,0.1885668110177714,-0.8563351675121821
1.82,-0.9923736831044936,-0.5592158574858814,-0.8511958330522593
1.83,-2.309647062324231,-0.7202981109431791,-0.14638485982327304
1.84,-1.3196749144546345,1.7285796863389447,0.5764434722295825
1.85,0.522921845921245,1.7314697914551012,1.6573220027222486
1.86,1.7649633600873436,-0.24876718521203703,2.5076664306573204
1.87,0.5742655671746091,1.1544698982105734,2.487034483566178
1.88,-1.0548646830334882,1.5374019834353303,1.9617908016888075
1.89,-2.1480460212607526,-1.661003912096612,1.6548752935408366
1.9,-0.46711977231371493,-2.713630720011219,0.3104941551654078
1.91,1.6777222231399411,0.6950063678384616,-0.4871699188915632
1.92,3.279904280117307,0.6393589843420084,0.22825010807280516
1.93,3.0502551914247444,0.16794385143875534,1.6903664819560817
1.94,1.0661055516369249,1.8366593241238187,3.017937429627948
1.95,-1.5035145043148783,1.4515432945399185,4.101830333294565
1.96,-0.8138496304024284,-0.12527350810808,4.3090000548555345
1.97,0.33864265991660636,0.898117180835009,3.1057619419764197
1.98,-2.5532475142783326,0.6777926845246488,1.2694815017185315
1.99,-5.7049106342884,-0.060080826877219634,0.018708247389498528
2.0,-3.5828113160606785,0.12847511977173265,-0.14147386897496855
2.01,1.1820479316272747,0.6507205258644452,0.31107187975262224
2.02,2.9911860301426567,2.035296927827594,1.1057571450661674
2.03,-0.8058249226761167,2.4904671307013135,3.432943791179272
2.04,-3.3114497430524947,0.5851039550307888,4.818787804159767
2.05,1.8639332251672789,0.23598736196371214,3.047908880190336
2.06,3.5272967914913886,1.4703442607117228,1.24418316802906
2.07,-2.3966308723789735,-0.7060852458904013,2.4824968651660795
2.08,-5.632010887678672,-1.744371904604067,3.78754616272223
2.09,-0.11533340973276263,0.8866315227545156,3.0990891530956413
2.1,4.979718980919885,0.6006760073603957,1.9701445848066446
2.11,2.4702064137693167,0.32742016036394683,1.7012934476559154
2.12,-2.0973569517655326,-0.4672836638117156,1.5072879238009067
2.13,-1.9863423452458375,0.4824025359091835,0.6008959097735354
2.14,-1.5074861884049109,-0.746307656569507,0.573553031652924
2.15,-5.442111316636653,-3.4421371717368365,2.1787623555673394
2.16,-3.8571483602363577,-0.21357453288487643,3.1510566112041847
2.17,4.107069684994635,1.138076629501594,0.9943175056867362
2.18,7.277552251341753,0.46559699322689746,-0.7532925540343791
2.19,2.313690937340029,2.222348179622812,0.5523298766207861
2.2,-2.020666801554944,2.361807053897399,1.2613359317995108
2.21,-2.2972160689668435,-0.9263804477353302,0.9264005133555834
2.22,-2.0540210477766037,-0.7167279266835076,2.3978387972688484
2.23,-2.6084246767086743,-1.4293553977501894,3.4376405464913766
2.24,-0.8144425842387055,-1.6439845389885324,1.6368349837582903
2.25,1.3339462344237805,-0.14235674978254165,-0.1973179559903496
2.26,-2.080244123457482,-1.8687595655634457,-0.3112036747815552
2.27,-3.3741713122165806,-1.2541147696499368,-0.2875514359091413
2.28,2.474173354609766,0.14959779199847242,-1.0165755145950857
2.29,6.127841737040322,-0.7509337274088937,-0.8049135346473764
2.3,2.7569644623649623,1.7182600589568486,0.4429788201213844
2.31,-5.15709507623748,-2.5950079353827205,1.116020069451539
2.32,-5.710321648658358,-3.9860800294851444,0.6287841986910323
2.33,1.3637429688173088,0.009918246729334973,0.172116758040683
2.34,7.530915962757226,0.6198282611520528,-0.9570637656369532
2.35,5.335067471131398,1.3727242112001152,-1.838104412975952
2.36,-3.611209417451164,-1.2347836247985637,-1.1297100124698805
2.37,-5.872338235865105,-0.4641410428715995,-0.11471064492577837
2.38,-0.727796285006719,0.26077670316863194,-0.8220476295727421
2.39,3.590045480058326,-2.171122486349196,-1.6239020633435697
2.4,2.934003527345268,1.3761814267525638,-0.11672706037118993
2.41,-1.3441472220295905,1.1722172614494832,0.4223913873658689
2.42,-0.3270405883979276,-4.513648044165519,-1.070558644126137
2.43,4.27693185675952,2.3863341167659153,-1.4140660502667872
2.44,1.3593144194096272,3.255575997886329,-0.6256628318009093
2.45,-0.8426926051572,-2.810277893786024,-0.8999875883645634
2.46,2.1434497899336074,4.014415365159246,-1.2351979270286433
2.47,0.30449579972220725,2.0719222524866936,-0.533964095554739
2.48,-1.826508337259738,-3.2736327065088147,-0.5025076856747744
2.49,-1.666917869711539,2.490972809418404,-1.4473572612668875
2.5,-1.3605148665441549,-1.2845183259095052,-3.004656942841508
2.51,-2.387650778350415,-2.7144160998701645,-1.477395187538384
2.52,-3.584197255228089,0.5621521582775542,0.9214926074303305
2.53,1.9626351108518238,-2.6644093904695234,0.5894901645357331
2.54,10.712555361593292,2.531172577486472,0.025508639207678173
2.55,6.300645696213143,4.928737826377655,-0.06615084062368994
2.56,-7.838776400761134,-4.818899941791133,-0.1779491742256885
2.57,-12.005408935187232,-1.9108718319919287,-1.02055251965306
2.58,-5.341300434708812,0.35002481790997053,-3.3848839578100316
2.59,0.6787341358854254,-4.48960870145018,-4.266601419568353
2.6,5.934873792973396,2.5288165078768716,-2.2959914240851464
2.61,4.166779672973519,4.094010036115007,0.12661060192067253
2.62,-0.5360184236646858,-1.5621759130081885,1.2558239125465989
2.63,4.072219156396232,1.8050414074792782,1.6356440690941068
2.64,1.537185029342512,0.49728403359546136,1.3502056903382293
2.65,-5.254762384116984,-4.869648118375903,0.36437893706101226
2.66,-1.5306626797342628,0.928869064083378,-0.12026165327397526
2.67,6.194610053642054,3.4819372066695884,-1.5877681074758923
2.68,5.5741406806686635,-0.024423862771991767,-3.220826887700589
2.69,-1.4742479130938784,1.445614840548458,-2.0167121424732493
2.7,-6.916833750977261,1.8995641538109196,0.17483637747899844
2.71,-5.337896657146685,-1.256199259251302,-0.28423381878116
2.72,2.4299376446575707,0.08404853524198586,-1.3525993389093143
2.73,4.916043446743678,1.7315864407658417,0.07921576619443457
2.74,2.4902901084418385,0.5574766758443247,1.4976872292978727
2.75,0.1206846109265857,-0.16444355037875072,1.0508719401254314
2.76,-1.2230947276129989,0.6584680968249986,0.03316838033337656
2.77,-1.1991670935413292,-0.39028860482445177,-0.0413011014925502
2.78,0.6425075941187147,1.175258994471887,-0.07206349082301683
2.79,5.733877701159073,1.7582533850863598,-0.5234470036738215
2.8,7.542598836204696,3.4335774762041895,-0.1781445810818049
2.81,-1.0282231931235382,1.4534390808133697,0.7629751411203132
2.82,-10.23705373114412,-2.548211595336732,1.4669888945250802
2.83,-6.050731622550844,1.180038088520508,0.5502101434674994
2.84,3.494622956453582,-0.5371442992045928,-1.2909605913987696
2.85,1.7647584247031265,-2.0054661848931343,-1.199447898085431
2.86,-10.25336109521714,-2.096788450300952,1.4999816736404257
2.87,-14.820229282391624,-3.279842036375632,3.1675768177866646
2.88,-4.189733091193854,1.401806234753752,1.0318195832651567
2.89,9.345934869791147,-0.04190825000055336,-2.182180214977511
2.9,10.600564972462713,0.9028809316881347,-1.5229942325469867
2.91,0.04914462366930006,3.9563549820875963,1.2493262575200135
2.92,-6.041455860064252,-1.9821423237210753,1.5803639062187467
2.93,0.25916697875608835,1.5224334396034578,-0.10172155216009303
2.94,3.62900603309748,1.263894937673093,-0.9814803391399212
2.95,1.0469549184149183,-1.5584158552426775,0.31111761678515587
2.96,-1.0909210030851109,2.9429345842610775,1.0345980550570368
2.97,-2.9030078244319633,-1.3866916835656,0.6263646430882612
2.98,-0.07563891072331463,-3.094194865380528,1.4695249047074495
2.99,5.007537195838021,0.5064658873633687,1.9240094552856104
3.0,5.136022899974916,-1.5189276753910395,0.7796289934962246
3.01,4.348577662157804,-0.22987507825360554,-0.2502414848916654
3.02,1.9790798826135105,3.0102785787311737,-0.2501819147242543
3.03,-1.5183200721443215,-0.2623326482505405,-1.064953179079748
3.04,-4.132042135370938,0.8478071371002117,-1.8975002689122595
3.05,-2.911065891344182,2.8020573114868728,-0.9976723808819801
3.06,-0.712490910628668,0.581421292037748,-0.5085506505026796
3.07,-2.0499276057731683,-0.08606947059253667,-0.8194670760427101
3.08,-2.618830882318904,-0.7910907265466751,-0.09172419887783667
3.09,1.621053488595502,-1.1867671603079883,0.8512427257376659
3.1,4.546357440302756,-1.745181527645471,0.6217301279075992
3.11,0.9140085122120811,-0.4846866931009064,0.9815369854986074
3.12,-4.102917898004549,-1.0461868391836,2.581638043521591
3.13,-0.1366799035197488,-1.7704875619179767,1.7585633758515746
3.14,7.407903182519774,2.126516113751364,-1.1182499423972079
3.15,4.497546042891205,3.6599888748679827,-2.4193921237273397
3.16,-7.75607777060789,-0.026726949833376534,-1.5743070613262784
3.17,-9.316906785862557,-0.5855571111944335,-1.4647712417211944
3.18,0.8903983762848762,1.7112447196056155,-2.4770218694602324
3.19,5.714635364601693,2.1146331628486243,-1.7747685186572104
3.2,1.3072691437775426,0.22683102367449137,0.6419482368317971
3.21,-3.0800706088789167,-1.5260377506076512,2.5833280948386723
3.22,-3.5574572895084233,1.1644811532436263,2.4507758668376463
3.23,-4.099720184935894,-3.7026453616281243,0.6115387661983065
3.24,-0.9268386983946859,-2.7235396240828154,-0.9305512815813503
3.25,2.645334271637935,2.4352263521848965,-1.5792318861389136
3.26,1.2509874428757426,-2.3597026528466722,-1.7380860647159964
3.27,1.8507314349049286,0.9385512692459766,-0.9460209118796185
3.28,1.0389044634775106,2.410953120511562,0.3794556681043112
3.29,-0.7203228071928066,-1.6329982054030794,1.834615634240068
3.3,1.796080393952538,0.5328251614765587,2.261914456220797
3.31,2.2331165242811686,-0.5893840548429811,1.333550860069143
3.32,0.944877736052923,-0.6092385107557805,0.8881452564146811
3.33,0.11918336972616664,-0.9779671111952034,1.1233538986439917
3.34,0.4386970417353599,-1.5265461227533705,0.5162909882558725
3.35,0.6402957349078433,0.47223885500134294,0.03480218660700937
3.36,-0.6653179604334137,0.21843938023062445,0.10369959520916319
3.37,2.430452839003394,-0.07753973932564626,0.1701796917104446
3.38,3.3187148526636037,0.6126212175335968,-0.42567050943823226
3.39,0.2940124447038579,0.6766383005431346,0.253497737891468
3.4,-2.320432747091454,0.5833710418927108,1.1887423050971322
3.41,-2.0883872133199852,-0.010385029780923316,0.4874579938690534
3.42,-0.3964329432651742,1.547133629453778,-0.5701453709618011
3.43,0.5275298946149621,1.3512713950809037,-0.4792301169478516
3.44,-0.20127984760846895,0.5660165958467158,-0.18032998710607986
3.45,-2.295821738056883,0.8556442186814579,-0.33169235973244093
3.46,-2.5097515559868464,-0.754754738620921,0.4298194460819745
3.47,-0.4584152511140363,1.6200295077958413,0.987019770636863
3.48,-0.5752040825748013,-1.59259619850767,0.5143902051407735
3.49,-0.7731996717949412,-2.1011239287244545,0.40110623870927203
3.5,0.299612092571001,0.7987019389025811,0.5752658413588846
3.51,2.4607717102165036,-2.12228027685024,-0.1741832175817002
3.52,4.423774811500051,1.339390783517109,-0.8558603692483289
3.53,1.096911796214055,0.42130177287953685,-0.7073105847109603
3.54,-3.615881352794215,-1.9720191098507256,0.20868950347246987
3.55,-5.312042173834182,0.5389847095284901,0.6599875138676685
3.56,-1.0127438665169306,-2.7180610453367695,-0.46313874809186756
3.57,2.904528991838395,-0.30876160833635286,-1.2599051054099424
3.58,2.8519055597539262,-0.4223752070941739,-0.9154279826056333
3.59,-2.142532982777026,-1.05596315478059,-0.2622190357099339
3.6,-4.947373318743949,-1.7103784608062593,-0.04196913810051453
3.61,1.9671156367184985,-0.4178639347464539,-0.6334060635835836
3.62,8.042766827556616,3.786136449354698,-1.0002532968970381
3.63,4.504566515237974,0.47814713415840243,-0.841511957360547
3.64,-4.077198112980633,2.095373587678947,0.01842918326421525
3.65,-6.637369220265362,1.7638234888759974,0.1691632727516486
3.66,0.7033217724292131,0.03544403549571801,-1.2032679954266952
3.67,6.780524889440797,2.038579242337943,-2.0311503788679315
3.68,4.036410645534665,1.6061028058685312,-1.1578146433571717
3.69,-1.7151464618337946,0.5577855609938462,1.4050616550111226
3.7,-0.24574846764546399,1.1761202350130442,2.2976187731696567
3.71,6.197457928312167,2.4903262001269857,0.37696854058912926
3.72,-3.17803832827188,0.06869828495269359,0.6537229889481007
3.73,-22.113510041447224,-5.151892283790487,3.3703406105198335
3.74,-14.875778459422875,-4.163897629158179,2.002124719479265
3.75,10.211815050802867,0.6224148519262158,-2.5887559918065537
3.76,18.855262543590253,2.091311349127936,-3.2490248611129435
3.77,8.289959858359481,2.182021967437305,-0.172606700880788
3.78,-6.121820880175105,-1.053181831414087,1.6519178137047628
3.79,-8.063204650465702,-0.6731447460483913,0.42542100877667155
3.8,-1.3347418703409804,1.7542697218993366,-0.15442203886973963
3.81,3.0178436519035174,0.8674040905100404,0.8888214784931431
3.82,2.0726622925906053,1.852050626834043,0.9992587234267694
3.83,-2.0047722505186063,2.908181770022243,-0.5086933590481215
3.84,-6.897199518532286,-0.3345618565432539,-0.5526485926391296
3.85,-4.583576738778033,-2.523546692441396,0.3595159646534204
3.86,3.139875368583883,0.554431599065185,-0.21445112045449122
3.87,6.305954819529374,-1.701161294146349,-0.48756982192624204
3.88,2.5464968321904227,0.42758035697780805,1.4076813961541776
3.89,-3.0283793112560704,2.5909401628466844,2.8881008479597323
3.9,-2.2392493818989347,0.6442295947062447,1.2324154068733417
3.91,1.075224438121727,0.7517308655023358,-1.0956122797544934
3.92,-1.5078298402569092,-0.012493195656806656,-1.9179605505666908
3.93,-6.650237842877329,-0.47229856328006914,-2.001459074198132
3.94,-3.226499634355981,-1.331630901151247,-2.303562548104033
3.95,4.858444883234503,-0.40198869322050623,-1.9794764399932485
3.96,5.195743952784641,2.3358101662211226,-0.2775546625548886
3.97,-1.4383785555382267,-0.7289135317200113,1.6089619536057742
3.98,-3.404862601816948,-1.4696956213878916,2.308801723114876
3.99,1.5563642632978572,2.171574420371747,0.9886278899006242
4.0,6.743871862496296,-5.1201538805339455,-1.4453105728806372
4.01,8.15724849851037,-3.6870890410240835,-2.143694453098302
4.02,1.9190658234837064,4.103226342439703,-0.596276830705226
4.03,-6.441086065234365,0.870354805569624,0.19720388796578325
4.04,-5.4377796387829544,-3.285114216168129,-0.11299262348279848
4.05,2.8954769734627543,0.47807431461702454,0.22794590365985692
4.06,2.9260896894226947,1.6182973629164457,0.5850357552512935
4.07,-5.163587408518523,0.7181797778937956,-0.6594625135304776
4.08,-7.717485186640001,-2.0174992496509487,-2.6237356632986097
4.09,-2.4982728993016012,0.14554277368044566,-3.4122801336294586
4.1,1.790712540623118,2.105811123293213,-2.945950246032046
4.11,1.2666032784408896,-1.9356981881295163,-1.3190738167717078
4.12,-0.5279276348800253,-0.9763573416653075,1.2778413590873503
4.13,-0.15478726525152023,2.8348881438260323,2.469160930698738
4.14,-0.606738024466885,-0.6695424296150634,2.0591243228603524
4.15,0.03987922402742888,0.050490281058136965,1.3481132166208254
4.16,-1.0692859624832642,1.01075802461239,0.7062679704740529
4.17,0.1731580218644212,0.1285864256606976,0.16149444982887223
4.18,4.187577333430128,1.4655226593009398,-0.03997697700922315
4.19,4.632877426096058,-0.5440152028528815,-0.26605275512163956
4.2,1.252931576395222,0.5512818692941639,-0.016029289851406364
4.21,-1.102016663107444,2.454018426421211,0.6083158807621271
4.22,-1.9201410765379578,-0.12073800080157612,0.43025109381706983
4.23,-2.709677516295184,-0.15968984032884703,0.122974571826283
4.24,-1.8300398149414598,-0.4394622075638857,0.6156622946251702
4.25,0.425686079792775,-0.4585667427126757,0.827147281250444
4.26,2.979192076621871,-0.2445799837202762,0.21276556720526166
4.27,0.30593724483485163,0.2887165041922257,0.4551758877224643
4.28,-6.369995546006628,1.4559846061096295,2.118005919546111
4.29,-6.572594185947002,0.033399985784008344,1.909753672236856
4.3,2.1288768783153755,1.1923285418741556,-0.6556940937756042
4.31,5.674514688106085,3.4680919518349156,-2.094618434095786
4.32,0.4358368585159661,0.0495508544332508,-1.397575117381225
4.33,-1.5150580193910874,-0.9035789259019649,-0.488815419996363
4.34,-0.1191954006542181,2.2258997377808623,-0.020513017132642586
4.35,-1.8224626345398118,-0.36690386800486785,1.3318894283894518
4.36,-3.0613981041904275,-1.288139297336393,2.592538133713198
4.37,2.0738197153036473,1.2544383189264516,2.2899687648009506
4.38,5.292003274671754,1.685543161908934,0.7804366119948527
4.39,3.51876187324202,-1.1786597253938988,-0.24295668044389557
4.4,-1.7942549512789094,-1.4115234648426846,-0.11314639837694704
4.41,-5.591712022032494,0.2536478105008071,0.31082367377672077
4.42,-1.5733496949304724,-2.3599668996077066,-0.8057888893529983
4.43,3.3864504036913106,-0.4557485247076933,-1.7793007249491917
4.44,1.243119243452012,0.41334155566910397,-0.603579872231126
4.45,-4.497767496654874,0.4236599623232771,0.9321083680857952
4.46,-3.577855480924028,-0.5721083320247782,0.94467847904424
4.47,4.9162280629171615,-0.3974117969329223,0.044308891415152166
4.48,6.521440846674324,2.649314335083874,-0.11921270221440113
4.49,-1.1897705086800396,-0.013043371423001382,0.2808209680405147
4.5,-4.468702479353697,-2.6296316357915495,0.7576598240730062
4.51,0.7182406504019769,1.5648524870264566,0.0971789721689793
4.52,3.1776751898294178,1.1993192474644117,-0.5758533385823906
4.53,1.110803139869934,-0.057476700118064494,0.21987890904481433
4.54,1.1143642204809225,1.376234662768162,0.7739423487719094
4.55,2.3522479503521834,0.03616891663382921,-0.08346505275247376
4.56,-1.0576685677764515,-1.73023391037267,-0.652121623519295
4.57,-6.997158222228775,-2.57706859498186,0.3198014519107498
4.58,-5.4298042980032655,0.09523553061338497,1.4267464239055043
4.59,4.117908891766405,2.3321062360634963,0.20624745619570461
4.6,7.854830764347808,-0.2795088456808814,-1.2218966663097857
4.61,-0.1238763115781727,1.0715443993968778,0.3302399502724996
4.62,-9.089826641079366,-1.4229183650942778,2.4340941157346734
4.63,-4.852286983524571,-3.2022325018812445,1.4255292877126386
4.64,4.694827511285776,1.196732922562229,-0.48846011763577135
4.65,6.305185187381132,2.4969833383548976,0.2418998698110671
4.66,-0.41783079978006255,1.5159256849853717,2.3054870447100027
4.67,-4.341351065323362,-0.32673564215713796,1.7951557948381383
4.68,0.9088912153912109,1.1984403125870218,-0.1977089082342703
4.69,1.422001858798217,1.5225087305232146,-0.8906039391284178
4.7,-4.8639863251888915,-2.261385085768366,-0.012852940808267599
4.71,-4.530476911724219,-1.8201427770230123,1.6866236405538033
4.72,4.193422449071942,0.7787742360404012,2.179797410434417
4.73,8.737897583831307,0.5492070446326472,1.1787724929271024
4.74,2.509831317192947,-0.3772040980468385,1.4927248657180228
4.75,-6.03272453532478,0.28307328313324115,3.0230292592575423
4.76,-4.013012016993377,1.1945265169563308,1.9593196153663432
4.77,5.092145003712188,1.7687525362824204,-1.2662087450408939
4.78,5.143031316209332,1.1201134648382518,-1.6162192113245717
4.79,-5.246244560407703,-1.1480479848257972,0.8718525413123381
4.8,-9.906723927450434,-2.254734674091015,1.5609817355057047
4.81,0.7492670669680934,0.5728105763966118,-0.463464198855831
4.82,9.610893593272312,0.727413491422259,-1.0578099200151916
4.83,4.099209557113101,-0.6907065310077728,0.9680003281125387
4.84,-5.531446372483825,-0.9982102043564047,3.0183040185110936
4.85,-3.9778952793678637,-0.9523121412941924,2.8868732080959085
4.86,3.4889117018688913,0.8535557136133913,1.5784388406995435
4.87,2.0595050843243676,0.6153747409324275,0.752932122042596
4.88,-6.257027955866132,-0.33970779154160036,0.22829650450115851
4.89,-6.115245084079029,-0.9247786852856186,-1.4675513247039844
4.9,3.9762092425766835,-0.6746915706586785,-2.917398151214762
4.91,10.129925038702368,2.3107926518975708,-1.4544060887438803
4.92,3.413640841036905,3.314906759149003,1.9411422892732457
4.93,-7.3511683123087925,-1.7403143971359356,4.832231035910407
4.94,-4.524255068146774,-0.010327479819959295,5.43612270769792
4.95,6.68464522903724,3.154692182734699,3.0155731729799946
4.96,5.53584841084656,-0.623714333931426,0.3352319256454581
4.97,-5.072421183379927,0.19128665995519567,-0.31721568285817997
4.98,-9.639673888302514,-0.5214982077313146,-0.3844572332592125
4.99,-2.0256808941361997,0.5848767278307436,-0.48619641133185315
5.0,7.849908427108387,2.5008026442699682,-0.3820092194069149
5.01,3.229661734214183,-0.07087227735621052,2.066001224436822
5.02,-11.359931425547769,-0.7113832633450565,5.136768152268368
5.03,-12.41282954069343,-2.3988360213627575,4.242881661291682
5.04,4.525775547984811,-1.333821332507929,0.4587337466440409
5.05,13.865367276285719,2.8528695908047133,-1.170341592475323
5.06,4.3991715044214175,0.5721605706528892,-0.04188523782672127
5.07,-7.344224828461052,-5.096993193754264,1.759541662984592
5.08,-2.816187639948449,-0.24067715987921456,1.7913666356488334
5.09,8.846963051019545,4.047376638164411,0.39720238745211955
5.1,7.9998555631011135,-1.399846051048684,0.6602279198992788
5.11,-4.125768056557427,0.14804303802697283,2.421793678140187
5.12,-14.18457537581362,1.4184085168652358,2.9480766758929358
5.13,-9.236233453777535,-5.275121183205779,1.3762638050145162
5.14,4.511256065716557,-2.0354864544886038,-0.39732003642520347
5.15,9.553104182910044,0.924817034990344,-1.0886213580982105
5.16,4.333766023599951,-2.25586627294272,-0.11610737419431871
5.17,-1.0816238633332245,1.3750262587822029,1.4391190699085423
5.18,0.27206288004557444,3.5399740295735156,1.519939563638822
5.19,0.13669301467970896,1.882625397617915,1.4804356162226733
5.2,-5.29537072604149,0.44826087844839924,3.0163611890547086
5.21,-5.973368532124002,-0.6791323538553863,2.885112279762759
5.22,0.3794214159188509,-0.124754159906308,-0.4025120886240807
5.23,4.217404317998553,-0.38639810636037086,-2.8287044005725965
5.24,1.6555106144151868,-1.3764824680000518,-1.3630606901861901
5.25,1.0524683622018862,1.3321376217019743,0.6305369764942979
5.26,2.860785411102565,0.16912593421413358,0.4752013657815081
5.27,1.8574107558272828,-0.24722153663923718,1.0829439723407601
5.28,-1.8163525293023632,0.9618041946082485,2.715160600534462
5.29,-2.857609072817607,-1.8159988733801113,2.534196969249858
5.3,0.36977562055180646,-0.4941353257618203,0.6533878473464457
5.31,0.43577561077819893,-1.1597340342161726,-0.6300204721363348
5.32,-1.8937426351136735,-1.7262238546552438,-0.5384053818580596
5.33,-0.8335780573167875,-0.8811477261038174,-0.08074544259975255
5.34,2.889732761857954,1.0520489379391629,-0.42818058727626485
5.35,2.8249501999335274,2.874629562935005,-0.05259717915502715
5.36,-5.416455723084718,-1.0525631265641002,2.038299525132933
5.37,-9.884177002564696,-1.6291892401199992,2.8600761692227294
5.38,-1.1077261507945702,-0.43702247299667757,-0.1467951158807348
5.39,9.733061309088951,-0.7728950509102837,-3.3324744118624707
5.4,8.532598417797606,0.8931614737268749,-2.884152860462959
5.41,-1.698261983121625,-0.9975100221763714,-0.9028208153904714
5.42,-6.369398846881978,-1.276398400460911,0.7805131821288555
5.43,-2.7040809190737445,0.8306603188721987,2.3514973242381125
5.44,2.4839336210881866,1.398238091959105,2.570541633915772
5.45,3.4819095436468928,1.8076999474219517,0.8553732178551847
5.46,0.306686580361315,0.24152264399421514,-1.2857742850619056
5.47,-3.9381446904822965,-0.8952865666358271,-2.2377463529494572
5.48,-4.926921790606056,-3.1367962987587275,-2.26470803686581
5.49,0.9794104917102016,-1.6280722187378147,-1.4472759192221967
5.5,8.366460908888914,1.7750666676385218,-0.0186122265754666
5.51,9.142075126268397,0.3428233836563452,0.5250076997781494
5.52,4.0608313891062,1.4648109334846404,0.9503777257480948
5.53,-2.7692165878197015,3.0372187949444793,1.59489058789074
5.54,-5.223632368487458,-1.46129735664202,0.9753000539491989
5.55,-2.6041427074809835,-2.0515394546538355,-0.267221144027152
5.56,0.3365944389110195,-0.30520833378779016,-0.9509332382866972
5.57,1.6039468289739016,-1.021718906045564,-1.0846072367212152
5.58,2.018052109429076,-0.6847460504380813,-1.5944362116131383
5.59,0.46106023809607755,-1.1357694605592137,-1.5481919535696584
5.6,-3.216229278886112,0.7828475080963035,0.5437821330546174
5.61,-3.2599957418279137,-0.5426428599043707,2.2477561003424533
5.62,1.855188016023115,-0.14961953869222888,1.5075981299755434
5.63,5.229993466541884,1.1681005413904,0.08155977339746578
5.64,3.6623581193707597,0.8600658109905273,-0.12673941965880808
5.65,-0.23799610626837253,0.9525602131017807,-0.174738405105312
5.66,-1.68380309817016,-0.029261140909549455,-1.1850838225812097
5.67,-2.0246711161358153,2.277790045023049,-0.952763586272944
5.68,-5.127053902541955,1.659461338709816,1.0294259478255725
5.69,-4.694997602462902,-1.4408123615754556,1.9043720290528943
5.7,1.3953631766496033,2.277688384994324,0.5416829448379139
5.71,2.234009071735505,0.8984972839020675,-0.6537122544910005
5.72,-1.4428697161410162,-2.3925785381880265,0.16927037628911282
5.73,-2.466599539832265,1.2086676166469754,0.7180219512266109
5.74,-0.17916970965243317,-1.6567227862186789,-0.03617430631912488
5.75,4.045823192957511,-0.4400682492999506,-0.0004823145725479372
5.76,3.850584202335516,2.9643697219085823,0.7247127920980428
5.77,-0.8255616689997759,-1.528460112484211,0.7356675641050616
5.78,-0.610542452990692,1.050836349645482,0.4148673352638001
5.79,2.7679352344084807,2.266314745923618,0.11729136848558647
5.8,2.615773691406886,-2.0468333083803087,-0.5667998720427263
5.81,-0.2740058878402334,-1.334394062897664,-0.7868828263577732
5.82,-3.4164105572598396,-0.4506756021592132,-0.15537350869215227
5.83,-2.2064533017984185,-1.4339343891902918,-0.12054448168154508
5.84,3.211778985399909,-0.8154169346372189,-1.3260914060009288
5.85,4.719063483666759,2.014219207697862,-1.284299470161417
5.86,-0.5329365622773057,0.6026935119464407,0.4867129466627747
5.87,-3.8224173591934747,-2.4722292709989606,0.8596385202169831
5.88,-0.9068341046293324,-0.8696638915491104,-0.7500538173682572
5.89,1.9731100520532021,-0.9639085741925593,-1.7107660347448805
5.9,-0.2766445539765878,0.8193892176168093,-1.1336152377843507
5.91,-3.5750894012122023,1.021587193301917,-0.9821172861148452
5.92,-1.3494610727712444,0.08344477630864522,-1.5878478677791736
5.93,2.9082834999535074,3.4596526692192584,-1.6548081444890719
5.94,0.6444421521518313,1.8799377809380227,-1.2274242695637845
5.95,-3.7633642395473137,-1.4856039133329668,-1.0313796035052578
5.96,-4.234739808291122,-0.4092550675020697,-1.3719817059771293
5.97,-1.1801105408062633,-1.2075927405712708,-1.6064059663787174
5.98,2.7109322432688905,-0.780531979027857,-0.9261059149727842
5.99,1.3831697271614418,-1.0278192762369558,0.7338117309168005
6.0,-1.8263955485026209,-0.689518082047936,2.471076035466974
6.01,-0.5722863470184383,0.3013048250961028,2.384557834833779
6.02,3.3161983990023343,0.1479897182947133,0.6255864200043733
6.03,3.844233712686953,1.5397542997930287,-1.2366855573150555
6.04,-0.08279761160633403,0.8567655554367596,-2.4583318878643943
6.05,-3.4634297001846464,0.0022853797606359194,-2.3544525089827326
6.06,-2.117090869589094,0.8541658070931045,-1.2633460984158478
6.07,1.911722272566377,0.24400786890503848,-0.5462611818932211
6.08,2.422617991985126,0.135797980117725,0.4596660617109346
6.09,0.8451088383640694,0.08381096126190374,1.9707814455690769
6.1,-0.4901069271489581,0.44569273335849063,2.566522134491456
6.11,-1.552955850579694,0.6934238071002073,2.073721771064449
6.12,-1.8875636427179172,-0.7149742039616196,1.6569100279301043
6.13,0.024070773601623463,-1.047815441174247,1.0702844733981522
6.14,2.462026216150682,0.18806103612941735,-1.0340040389321343
6.15,0.6317620719633814,0.06444469782851558,-2.316082471430904
6.16,-2.1164213873666147,-0.7440032656959266,-1.2987395073643515
6.17,-2.685356075364228,0.6148316567715579,-0.6478084754574792
6.18,-2.765805267929977,-0.8974138586085106,-0.7915422921480123
6.19,0.7520922130581382,-0.507684985777112,0.15993116268844354
6.2,5.396377022940203,2.6057099428454755,1.3946129467094877
6.21,5.389448355002828,0.695490614710133,0.4383057968566365
6.22,-0.658536042059322,-2.7719629931479273,0.10870129672115258
6.23,-7.352772479487042,-1.6417767504324319,1.8984266670860157
6.24,-5.430648528427541,-0.18560939861931436,1.6549345914005742
6.25,5.053602432391551,-0.8115523151450272,-0.9364869170657755
6.26,11.168985813444166,2.6138972835942123,-1.6578221756156806
6.27,0.3257412144734557,-0.12534930094011631,-0.2425055441358226
6.28,-13.002183148907967,-3.621394013483767,1.0631557610589402
6.29,-9.048304059942682,0.14484618772234206,0.9531298157712915
6.3,5.894037810175545,-0.19119570598454516,-1.1249988298467515
6.31,10.076807749182237,0.22905246780503918,-2.198912712741649
6.32,-0.7710062986363333,1.1595109264481422,-0.6345826019575792
6.33,-8.56803333172931,-0.9502468866178846,1.1712037281855954
6.34,-1.4647849896229062,0.9541487424051063,0.38638751176040076
6.35,7.353348128746266,0.12003610884150162,-1.6513550408430158
6.36,4.934502766941331,-1.2789252681709442,-0.4544520090939821
6.37,-4.022580236589811,-0.5186578543262106,2.048934138367284
6.38,-6.302772925299868,-1.630650280492222,1.1691033416740344
6.39,3.1893591927780918,0.3087064781476214,-1.6259686528416737
6.4,8.864772308553807,2.8706887545323947,-2.7343389934516082
6.41,0.25205409727731,0.3495144902211367,-1.9625402952016306
6.42,-8.177077240103177,-0.3677375160767199,-0.3186805295686219
6.43,-3.8097436542251595,0.2061518114241433,0.44456352690717255
6.44,7.551796195602694,-0.4293618800241066,-0.46773212741080794
6.45,9.197669669857548,0.529719981222661,-0.5563909035464979
6.46,-1.882876789942844,-0.8057493312941426,0.8448636437400348
6.47,-9.872501657667321,-2.498237102330317,1.4522639402949324
6.48,-2.982436103701943,0.8826497039806702,0.0464619837993947
6.49,7.353975958675055,0.8636771778393655,-2.029498286875847
6.5,8.042967630845911,0.8669022145885148,-1.9318228611856423
6.51,-1.1031589389914758,2.6642809730128585,0.799239937370211
6.52,-7.66800203534844,0.16861742870844904,2.1488191265154435
6.53,-3.9922099183269135,-0.7388493963828358,0.1173464341066639
6.54,2.4850867344493133,-1.8284066517853554,-2.026074848898222
6.55,2.658412703026017,0.261653665611475,-0.9121848037816366
6.56,-2.0153005121508203,0.15921503230438694,0.5828285361441404
6.57,-4.549557521976507,-0.6730324622202154,0.8958128791426747
6.58,-2.325218091723863,0.1510545320121186,1.3013200836811682
6.59,0.4472269428655443,0.01561573409860978,1.0919260136779805
6.6,-0.004553712926899878,1.0670316143677967,-0.28875580290872804
6.61,-2.3502562975443073,0.8892859583594914,-1.5778223162014888
6.62,-2.5800762467545173,-0.8875689146048213,-1.1496943123024947
6.63,1.091436851731612,-0.8153485455780194,0.22181742568196927
6.64,5.4567515976424525,1.1493327601841008,1.4042405539499965
6.65,4.387334260872111,1.2595854548351073,2.3739422484970603
6.66,-2.037384660502816,0.31567142490326844,3.121424712450889
6.67,-4.238004660638991,0.2842082054648824,2.7361092824520057
6.68,1.331129333366687,1.2102984568222355,0.9411561010345164
6.69,5.503059815267758,2.71320856368245,-0.9258860682165109
6.7,1.6882304810332855,0.24640138479854484,-1.0768394392438372
6.71,-4.622619732507754,0.15914996006990134,0.8216815036495542
6.72,-5.261251551837806,-0.4690890367962972,1.5092765436069102
6.73,-1.6255319933280854,-3.033253346254791,0.4035903878613177
6.74,1.1083772634473235,-0.6896340146719722,0.4827730707303189
6.75,0.26993530871503635,1.4291646062083392,2.276481392393228
6.76,-0.37922278832557454,0.10725302987860874,2.902566883582275
6.77,1.089409561907844,-0.06295177246237948,2.021325654605867
6.78,-0.9341158861524885,0.3269981967686441,1.33506768882077
6.79,-3.293307406315214,-0.8701013379165482,0.7693949097058903
6.8,0.8957832407889721,-0.9898976237453503,-0.5797823078661279
6.81,6.20403977567152,1.0343251770321176,-1.5570545547676748
6.82,3.577312850037567,1.5876721691392484,-0.2472205935129954
6.83,-5.1478132336554,-0.881130947119027,2.0813604067139293
6.84,-4.961961289504015,-1.3959357102545187,2.4418323365757346
6.85,5.375505541605445,2.1037566261954463,0.5732637593582185
6.86,7.301417541400889,1.885775294541954,-0.39853226509820533
6.87,-4.566702498224316,-0.5030682099948842,0.7442284701219798
6.88,-12.974368476052879,-1.3089495554191015,1.5662087047252344
6.89,-5.048614463953862,-0.46940274963732476,0.3536953022550433
6.9,6.843859600595842,-0.22473196873295742,-1.4675534323488297
6.91,7.569469080587178,0.6229890301290192,-1.4866298794795556
6.92,-0.8522450769162653,0.4770231153121678,0.5236968469975746
6.93,-4.143489751505118,-0.2581659183424416,1.6095511269445089
6.94,2.8220179783034602,0.556411502012471,-0.1541580040166438
6.95,6.297587296600385,1.9692009169521016,-1.5716865406986
6.96,-1.7521427630368342,2.4301199706581658,-0.11091909556717894
6.97,-9.49209378567951,-1.0953315093985128,0.5346467316626488
6.98,-3.7333687002956424,-1.513908371968948,-1.358141065785873
6.99,5.9818741990604245,-0.7970219593587241,-2.2050068886413605
7.0,6.215024124483346,-0.5378745958620311,-0.5893948131675146
7.01,1.9920443804969237,-1.4752718089441768,0.5122473237497783
7.02,2.440295467534717,-2.5829678208062714,0.37934481149530985
7.03,3.3293021831204808,2.131507467329706,0.9166946753508083
7.04,-0.44097528432025324,0.7225455501061666,0.826545077314959
7.05,-2.7374022660703083,0.11776316517960117,-0.22961391747311624
7.06,-1.7894541886171473,3.690352907273471,-0.7326708382054617
7.07,-3.74465155877758,0.2589738632042513,-1.199321686142295
7.08,-5.474243282875925,-2.4376353028726996,-1.4326175100019798
7.09,-0.672845408633826,-0.876180842518927,-1.0009222656335108
7.1,5.3234945827087135,-1.2449103446365548,-0.5185826000762973
7.11,4.653119443504732,-1.0757383320725715,0.3708952962376278
7.12,-0.01076990617450746,-0.5689357770774024,2.470487785296799
7.13,-0.8445600538423741,0.5625729104154824,4.064043730159376
7.14,3.22764706291709,1.7691967386998004,2.67083039872613
7.15,4.265148879995378,1.9878810182114661,0.013604574381885115
7.16,-1.7564845423308828,1.352206092714401,-0.8666051258298174
7.17,-7.939126129157335,-0.27579437847474714,-0.9867444442932547
7.18,-7.225339461174892,0.24540103161216326,-1.5346912729666835
7.19,-0.6266772144339909,-1.1581704840757139,-1.1720516934004732
7.2,5.797727449268978,-0.9822962247729694,1.0253417384952166
7.21,4.54853882642688,1.9779717918389956,3.3301920331733355
7.22,-1.2617120773491268,-1.7020376468323541,4.15305685147001
7.23,-1.9067502861146501,-1.5541563530128495,3.396830685531678
7.24,1.119781861869719,1.1551799053234992,1.6101143799441826
7.25,2.8164111004529695,-1.1012687137710369,-0.4168059821135181
7.26,3.471543107368751,0.9882540698515081,-1.2159047133291991
7.27,1.7515998624300535,3.4327992989278897,-0.8852996896003078
7.28,-2.4480796851922237,-0.2702267252210626,-0.884072056123141
7.29,-3.4815464697149157,-0.3860976764609827,-0.3438297115578812
7.3,-2.2194596379917493,2.2229961970943775,1.2569583621892688
7.31,-1.558836284524971,0.1799834518421034,2.4043490560107923
7.32,0.9371374937634225,0.25660621465298716,2.8914297131757087
7.33,4.352576430259722,1.0000935445335577,2.9837564871852944
7.34,5.461970930543493,0.30186241563743194,1.9867803180136612
7.35,1.8448354331861352,-0.6628428229152977,0.1551038668642003
7.36,-4.155598101859974,-1.171646240035195,-0.7766218235357664
7.37,-4.3805369764206095,-0.4793705494451145,-0.6567843442928906
7.38,0.7188589864901391,-0.5440928365270792,-0.6197166655482002
7.39,2.832221804495434,0.40229545907262754,0.1729622749920492
7.4,-0.8516196644355032,0.3122032546138182,1.942318497171503
7.41,-4.29950873440322,0.2041111081617343,2.9192951629201183
7.42,-3.1912659669790058,-1.1423178002367453,1.1521397158035394
7.43,-0.2248594983713028,-2.49980219725456,-1.5330318084483703
7.44,0.17212641684551677,-0.5780962701798066,-1.3155536999176343
7.45,-0.9353786038361362,-1.8071541287070403,0.42355192145335585
7.46,2.0839987861239906,-1.5987573029448563,0.4746062981177489
7.47,4.675158109514237,1.4010409788791875,0.6176814162254476
7.48,0.6212410754521813,0.26490079667220123,2.708897042658464
7.49,-2.663558154016142,-0.3156790055831451,3.2188430535297745
7.5,-1.0784231667111017,2.077048078008707,0.7445501985534386
7.51,-1.1190334357938396,2.0840801837000145,-0.5196066192096739
7.52,-2.8669789431037347,-0.5688244904837213,0.6143146815584232
7.53,-0.9329274191803851,0.8318181260154506,0.549459075358303
7.54,1.8439069335974398,1.218804085693204,-0.6475495579980746
7.55,0.9394083133125534,-0.5302546896515559,0.2946524711767676
7.56,-0.4294028081099882,-0.0661656624719303,1.553722676125563
7.57,0.4310526161333149,-0.12299724483863916,0.6887598258377996
7.58,2.7414229549498472,0.511141218689744,0.18704321600907955
7.59,4.84383068947602,2.526401262232894,0.8533505516044341
7.6,7.633376165255116,4.637949658667135,0.23255939406284365
7.61,7.707697874348768,3.459153738523778,-0.9665016394324445
7.62,-9.050966098252982,-0.9064334144830786,0.5636439077544797
7.63,-30.00667953227986,-5.461496468704324,2.7174339490901076
7.64,-14.782123307424492,-4.985020893658023,0.3541290816053513
7.65,18.78251065119615,1.7890742821299623,-2.689640504636751
7.66,22.46925768920304,3.692540963126781,-3.087124436865495
7.67,2.470994030861359,-3.0746574133030062,-3.2832465429899256
7.68,-10.988943906462472,-5.280556619448088,-2.4757421816864245
7.69,-0.9765536837015336,0.5570723350023435,-1.2787062685947896
7.7,11.296298017603895,-0.6337980074585885,0.8087700146289633
7.71,7.968815976325443,-1.1776991683245157,3.1260013817597327
7.72,-3.5122047482742484,5.277361131609712,2.1560971883976343
7.73,-12.337299582621231,1.922301563062348,-1.3721673345120329
7.74,-10.600765503877152,-5.268191989139342,-3.8955252683339814
7.75,-3.744039462576363,-1.2139911824835559,-4.677658091217195
7.76,-1.140838730553065,0.1254455603078446,-4.026323221519205
7.77,0.1206768763309285,-4.323797309256529,-0.7911340632552015
7.78,6.309257669169606,-0.8997407865320941,2.061061698523713
7.79,11.437173272409687,4.906412404653622,1.5166883866359746
7.8,6.594975150988315,2.728964821521471,0.033699029932740765
7.81,-2.619186461131749,-0.03073031213983457,-0.5525803833884876
7.82,-6.614355595383612,1.5162913700510539,-1.031195653045658
7.83,-5.650655689783938,0.5969538732403876,-1.826674905361029
7.84,-2.759192250203629,-3.0557173102727377,-2.132281170047625
7.85,1.2091445551433924,-1.3662062438353408,-2.13156889756092
7.86,2.1598753449032824,2.2942044796676546,-2.264405628445936
7.87,-1.6700439178228943,1.7265350078950752,-1.1816721971984365
7.88,-2.7713891114377653,-2.526168370655573,0.8049115007280774
7.89,5.0676313794381915,-4.877356216424402,1.4517107977092687
7.9,11.431449978139117,0.5931042466018384,1.6625637232543695
7.91,5.101675544884789,6.824160238943151,2.9175011418898733
7.92,-5.386345855290089,2.0671303954182365,2.1560031179041546
7.93,-2.9694450941072184,-5.005051539560632,-2.021322413158489
7.94,7.621832873101638,0.4253798224049019,-4.735354322006167
7.95,4.02880447394094,4.898427736945585,-3.4758886453753837
7.96,-11.413400039208216,-2.3672121554497196,-1.6500824291962437
7.97,-14.529844723311301,-4.772151677650812,-0.5998240853503114
7.98,1.6650669860110217,2.2147250763490627,0.08346180404620097
7.99,13.44052310277002,2.5947971752205854,0.8357258010315585
8.0,6.095060365717629,-1.5661491829561154,2.135319304577271
8.01,-6.2132328582586815,-1.9682435952138206,2.399001917781504
8.02,-6.705098775009124,-0.16400058292239428,1.2322917259369435
8.03,2.143685662887683,0.009547085720161053,-0.2220176163553887
8.04,4.784580064138088,0.32831577963668734,-0.35079637391008117
8.05,-2.1805230981104295,2.465821983528632,1.0151476187805308
8.06,-6.15410240264416,1.4409907530535184,1.4735575752931651
8.07,0.8670171512659381,0.9172373315703031,-0.42075887794540234
8.08,5.412853469616069,2.4793476328187793,-1.9273409374283685
8.09,-1.3524919859518922,-0.46010877015680385,-0.47663030770663006
8.1,-6.493173473902643,-1.3156749268254981,2.222751593397839
8.11,0.12269303363274009,1.2408164791899172,3.0929652289827874
8.12,8.936531022172531,0.7602812738296739,1.9346765908141668
8.13,6.697330743016453,-0.6576507320057126,1.3416220753897108
8.14,-2.723122901264517,-0.6861419477755573,1.2819534970011466
8.15,-6.48501991041437,0.10035247018802568,-0.3635193911580451
8.16,-2.1316697451183733,0.02590686514387186,-2.6990308496908546
8.17,0.7871399670373735,-0.04319309847578967,-2.7642088923501036
8.18,-1.29716691389699,0.6932987297282484,-0.24132302308990927
8.19,-2.32674276020589,-0.15703748566970177,1.704773679510045
8.2,1.5681087699245826,-0.5741555624174576,0.7855501721167155
8.21,5.0946874948842265,0.48916298931724833,-0.8118891921898241
8.22,3.024309702981811,-0.7092243084930474,-0.5835982697044615
8.23,0.09101984764841631,-2.226181234245988,0.3000807195411106
8.24,0.578892384409959,0.57350535705996,0.40059245408381683
8.25,1.7522473287798424,0.35450272975894714,0.6993217898475155
8.26,1.693053036303573,-0.4164173288659492,1.1887923548344277
8.27,-0.8989517802288824,1.4895254923402654,-0.11959563530407813
8.28,-5.065473342737873,-0.7940478035198859,-2.4207232566863803
8.29,-5.351174805581597,-0.6507138567969355,-3.312584267212418
8.3,-0.59281503454977,0.4872115538133026,-2.938965452368025
8.31,2.955508183498856,0.936592389094808,-2.0716495882504335
8.32,-0.2599167960626434,0.3220778194882832,0.4021170578204556
8.33,-3.3813725456146835,-0.8576609199359551,3.1629628952263795
8.34,0.4903981867243701,0.8896948717534285,2.689084954998674
8.35,3.7432193145511485,0.6330213834437886,0.46840346565813307
8.36,0.9229176094927936,0.3294392747429374,-0.17099183139760965
8.37,-3.3261518810071538,1.2403837783940803,0.22418622675095606
8.38,-3.3006476338590636,0.324856448298269,0.1867993751295799
8.39,-0.4483406746562486,-1.652690459268392,-0.13463575227272634
8.4,0.9008902253313452,-0.19214144442659142,-0.13665423819016584
8.41,-1.399372233950186,0.4373406984199586,0.6422646964579847
8.42,-2.968262567947307,-1.1715551863611366,1.2395228820025377
8.43,1.834038287728394,0.09594484168758122,0.6929977670935231
8.44,6.465420512768698,2.398769031853758,0.6320290713874304
8.45,4.229141674128502,1.1241641843427312,1.4236135008375084
8.46,-0.7587367979542594,-1.1535477593901537,1.3708398253908465
8.47,-5.053138546077771,0.3415407864369546,0.9470074747961867
8.48,-6.807770966299744,-1.88356187807129,0.8287962622560604
8.49,-2.036111473995148,-3.324496752887465,0.24195207260707802
8.5,3.643858857329607,1.5193266136982342,-0.4410112741610086
8.51,2.032097397457078,0.5156602038414313,0.1362495013517092
8.52,-2.467396485254935,-1.5145893189222073,1.9344425435904307
8.53,-1.245734014295234,0.8083640195799526,2.314495032420111
8.54,4.852957436370926,1.3878737611972467,0.625486583761165
8.55,6.7096910391256355,2.549320835517222,-0.2650874871713612
8.56,-0.1266903060378457,1.4074612402665196,0.368172279154259
8.57,-7.754829108250305,-0.5559239815009035,1.0965545504917928
8.58,-4.753142722937189,0.5675072339130547,0.7847339257813915
8.59,5.602362628913178,0.5006535890853013,-0.16892391029160084
8.6,8.692026408445063,2.1290873186624086,0.11583135818303525
8.61,-1.3235004231600742,0.9809316638731813,1.2978236782931476
8.62,-10.796003384290948,-1.5403206789508816,1.5366036797995166
8.63,-5.073668905359887,0.4912330481010889,0.15502399304089076
8.64,6.346416077246208,0.8400972448657475,-1.439992972368025
8.65,7.49920724404378,0.37379745541140846,-1.1116281237776588
8.66,-2.702972767768193,-1.1876637769106044,1.1777179478804347
8.67,-8.223267256690042,-3.222252629652882,2.74851597414298
8.68,0.9596347544371859,-0.6322011500333713,1.3018003171512074
8.69,7.724629377029415,1.895372655427054,-0.4012333374467051
8.7,0.80154452379705,-0.09605245153944408,-0.2608356834309702
8.71,-7.934353454752794,-0.9495739512344787,0.16554182231031803
8.72,-7.372822129413223,0.15635170050941688,0.16852527287665864
8.73,0.24878952353886685,-2.78554971777968,-0.43240699941610816
8.74,5.946230424779001,-2.072661059415399,-0.7340020694536823
8.75,4.817957150987925,1.8667555425570055,-0.2098811297575019
8.76,1.3786828780461982,-1.0835156292438854,-0.254927152895443
8.77,1.171011397797811,-0.5876621713685877,-0.7496466444352283
8.78,2.030027380466036,2.695969901694598,0.06299430443187581
8.79,1.2866366078661897,0.903265293154728,1.831298286357816
8.8,-1.2325045046850471,0.7993798637603462,2.607005928378135
8.81,-3.789460650759855,0.9583342490331785,1.7557290266916443
8.82,-2.309061332994744,-0.22332680614274847,0.05121394080673536
8.83,1.104281142125609,-0.6312076306285299,-1.830965915538104
8.84,-0.37190831692802995,-0.7453980527816704,-2.8739589236294756
8.85,-5.754608447587898,-1.551023364163413,-1.1359619539478665
8.86,-4.4473822320431236,-1.6230438146285426,1.7878112205064092
8.87,5.049449331507042,-0.03874356807691104,2.408800357838714
8.88,10.016007957197983,0.5984646053408119,2.032179546325638
8.89,5.546683291824726,1.797901977404181,2.2952888427904266
8.9,-1.7757063693520447,1.811561243177201,1.4035915729751969
8.91,-3.9411443819678147,0.06265467455773155,-0.3378969589585386
8.92,0.8123272246019448,-0.222425575124655,-1.1470923283876777
8.93,2.911885481007251,1.8663862603474917,-1.1484926525861652
8.94,-1.602965438388586,0.3663865779932114,-0.22916158354580762
8.95,-3.8647884080732045,-1.873846200711723,0.99157678336577
8.96,-0.5767140858610356,1.503514583436384,0.9999351510709593
8.97,-0.20370436576750528,-0.6246488413036357,0.6249309551736857
8.98,-2.8190344225782007,-3.2409035664023724,1.376716370681323
8.99,-0.2548756443942515,0.8753915934780827,1.956215474627324
9.0,3.8559299253785566,0.37662765956185407,0.846272700047405
9.01,2.5987360751610056,-0.45713514887697615,-0.35438536514207597
9.02,-3.5066569678700437,0.29707875403404804,-0.22672506446859686
9.03,-5.001987896836219,-2.528033972451312,-0.5199506396105056
9.04,-0.4917330890333269,0.5760499917532718,-1.4821767847893343
9.05,-0.10814433376560162,1.2087672638031828,-1.3828363749974248
9.06,-1.5888072761879386,-3.4024434222457645,-0.18738589687924845
9.07,0.6992995869613032,1.490446582922301,0.7895613348240638
9.08,3.975764613491033,1.400652323965767,0.08582282171380928
9.09,5.723678269633434,-1.3909766036335376,-0.8886067990918893
9.1,4.70349462995788,3.133105893373193,-0.2511974629697239
9.11,-0.032965642063510714,-0.21142331491299693,0.29758231599713725
9.12,-3.8053164129148325,-2.365181893801023,-0.019502448935764333
9.13,-2.7554236525714417,1.9092498308387866,0.08763464356139655
9.14,0.26204745602113877,-0.6530746514809014,0.19657019518640576
9.15,1.6284777895787137,-0.08725503700469339,-0.5934033279576612
9.16,-1.8615940258574293,2.593840646422103,-1.543454212361711
9.17,-6.166154697439728,-1.688248093896052,-1.2744359841712458
9.18,-3.2603065683670756,-0.10049791740552205,-0.8259235636503086
9.19,1.9806159152523248,1.1805182978651705,-1.293882053766148
9.2,3.4222602061360043,-1.6629965538464877,-0.6342455060590773
9.21,2.5285085829638185,1.7699108422785657,1.1627621556450536
9.22,0.5783660587123758,0.7626833959997112,1.2538565049580033
9.23,0.43637890320126427,-2.5303667280740587,0.07931002269000731
9.24,1.071078111480389,0.9797812852412449,-0.013024291743538474
9.25,-0.23016789262745196,1.9105594842420044,0.12292193347897828
9.26,-1.8087042278521357,0.20971841686855092,-0.16643284843016076
9.27,-2.1908763064929286,-0.6380777216893337,0.2959522934832443
9.28,-1.8966223491644283,-0.5749246738421832,0.5184470219938393
9.29,-2.6891876923657447,0.05175736562049099,-0.4515955256253355
9.3,-1.4315921158910343,-1.492702794063805,-1.3751162404283863
9.31,3.1002763544013923,0.6987362655047211,-1.5252858657086672
9.32,4.221842274498089,2.5822169630377534,-1.0034003164759382
9.33,0.982853576840276,-0.9391864485902102,0.423034529788173
9.34,-1.6307125634644017,1.3091111770055992,2.087784130109182
9.35,-3.496992247965842,1.6100469679846179,2.6551266021604145
9.36,-2.3441963955889618,-0.9888642148291277,1.7858873201222019
9.37,1.6021393630875087,1.377566445645249,-0.25479457974110087
9.38,0.3731086898333067,1.0005617139113783,-2.122020391985273
9.39,-3.405935203740225,-1.2529064721808938,-1.9436218383185828
9.4,-1.2341260379600456,-0.43354780281989935,-0.5214203847341935
9.41,3.2366210746796473,0.3324200379277604,0.6039242293977877
9.42,2.3364418311760025,-0.6995148259579441,1.950613004126124
9.43,1.0711397470351862,-0.7651550995293953,2.760847755894851
9.44,4.106467708506979,1.3592252257612505,1.6069452200820715
9.45,3.772837531786715,2.522961722777101,-0.0847283540630781
9.46,-1.8944512736175898,-0.10975789993805396,-0.8779868452876975
9.47,-5.456605795778553,-1.1410594682155517,-1.0771550995928805
9.48,-3.6356373397182784,-0.31397042345630966,-1.095852428095669
9.49,-0.2753271234903041,-0.7813959624119695,-1.1117471222199016
9.5,1.1669743293882835,-0.37753246974545984,-1.1072925086669012
9.51,0.5355223755907189,0.12271969980177355,-0.5982669309191451
9.52,-1.0837445776828676,0.5135711094473941,0.8067913799107846
9.53,-0.4583901499316423,-0.4359970546527685,1.4602088102854172
9.54,2.664402691537828,-0.11426743108282733,0.5528419971229152
9.55,2.335368368625373,0.594214427320467,0.1831559588556234
9.56,-0.25864740049740187,-1.0023772607341606,0.01001733330254967
9.57,-1.518092835148968,0.4411386607236978,-1.20165829591079
9.58,-4.143813574277909,0.3162909656727422,-1.794611442870809
9.59,-4.402658325883664,-3.161122992827698,-0.9834838698544744
9.6,2.4611079962605715,-0.20840985267469936,-0.7733472510636359
9.61,7.784458423668428,3.319801331781364,-1.4390579647731614
9.62,4.471032432717193,-1.0092087451053078,-0.993223435016973
9.63,-2.0746504435512776,-1.2501892764623643,0.5045360293431329
9.64,-3.7304510238299216,1.071545970330427,0.7358617094440102
9.65,0.6424825421538052,-0.4309726236755912,-0.20473285127612773
9.66,2.475373478095565,0.5842093660260259,-0.650563558152119
9.67,-1.3888131945848916,-0.5454573918278567,-0.9356437721767762
9.68,-3.163490548225698,-1.5530025331946462,-1.0365971705638484
9.69,-0.26951284492691796,1.5549347177022605,-1.1076550034014692
9.7,0.4026972372582569,0.3108789625379038,-1.1079242984539721
9.71,-0.3440417844858008,-1.3259802191057317,-0.42162775877401404
9.72,0.9865125051009226,1.5394091523968012,-0.07980220336113732
9.73,2.2862674953787954,0.9800123592958436,-0.1668541049038387
9.74,4.00222745168908,0.9502091165202107,0.08938513776978349
9.75,1.7307958136010475,1.4200082590355023,0.6071664566364194
9.76,-3.0485047724608165,-0.966186887366249,1.5000344745401326
9.77,-1.9804348671690177,-0.07991552966651883,1.8258542265361264
9.78,1.6069739782706824,-0.38349873102570653,0.8735626802911046
9.79,1.3590533594535075,-0.9133690210281,0.7072648956332699
9.8,-2.3839812393479565,1.7962442515126886,1.6406159554134598
9.81,-3.1971375231495225,0.2666561622090087,1.3530290140335746
9.82,0.5624284381472844,-0.1373150063777877,0.3400428814778386
9.83,1.2571113546480914,2.025602176179829,0.471251465933502
9.84,-1.0634045810698596,-0.6427514949030866,1.2864580696393846
9.85,1.0664033137527589,0.17966387621482705,1.0920004182560592
9.86,2.211725631113821,2.8589778522954186,0.6833983834435603
9.87,-2.5712860672425997,0.5106214471953985,2.2870350450069665
9.88,-4.45011512896609,0.17523338090285256,3.7826198296754345
9.89,-0.1749725300851548,0.9069939877789823,2.6143893985185906
9.9,4.200107883417301,1.142404529633898,0.8550670254615286
9.91,1.9222419138811366,1.7848325394518603,0.6910110380347795
9.92,-2.725383237213154,-1.2760245238341137,0.9942522116398713
9.93,-2.228873582423911,0.3117886162777799,0.052626725284036446
9.94,0.623374899614074,1.5526116787274629,-0.9538961318100533
9.95,1.0714918174443797,-1.1301731946402007,-0.2235685548434595
9.96,-2.873520905764115,0.06549773510274992,1.1420719641562602
9.97,-7.084569247147809,-1.3618515382927983,1.5006776123949954
9.98,-4.502433486913281,-2.7498742942926198,0.9213001117257711
9.99,3.0976739715822754,-1.0018527607083505,-0.01647049143943402
10.0,6.875894266116272,2.110338955957625,-0.18485501617736672
10.01,3.0687212282047893,-0.08883369288044873,0.674782249222197
10.02,-0.4481185188982604,-1.7059222809271546,1.2211542396844688
10.03,-1.1461803314286076,2.6077893482162433,1.3720106599569757
10.04,-3.5032172429670574,-0.45157779044554847,1.4019599217775283
10.05,-3.347900647281606,-2.123669663642483,0.8873323586110944
10.06,-0.03620331148840128,0.3664209914815769,-0.040103778260510814
10.07,0.8834086388229008,-0.6230728639476915,-0.22529533588931977
10.08,1.1759911431907755,-1.28581614337007,0.5623987382229486
10.09,2.3487686475537095,0.10438497321301843,1.15065695413879
10.1,2.6904411528134164,1.7859244070697657,1.1697179521167567
10.11,0.9408780794852745,1.6466002475923185,1.302414172342101
10.12,-1.474603196578687,0.10675040202307284,1.391437249624837
10.13,-1.6919728851833957,0.502070234177654,0.6206084811374672
10.14,-1.761480275175325,0.32583960919853094,-0.28512202934890407
10.15,0.14684656766384707,-1.2712880149290946,-0.7749173911699903
10.16,1.8810170485962645,1.161192087157877,-1.111886659363021
10.17,-1.6271048975742353,-0.07071430908803666,-0.5391238542217003
10.18,-4.018670067550175,-2.3391873891794797,1.2505596101275085
10.19,-0.18083485121352627,1.1090840672418159,1.8583600299614897
10.2,2.5660908515937244,1.7121644912352305,1.1980475413214953
10.21,3.038613988448033,-0.18571461104082426,1.012521149354784
10.22,5.6451119830074035,0.4643098878880545,0.4813757624129631
10.23,3.7299858262240764,2.2706204070592695,-0.5093592683718979
10.24,-5.372931072178534,-1.4678950809344982,-0.8596259233373624
10.25,-8.691378669515517,-3.3364519133944355,-0.6393446142644114
10.26,-1.3619295886497484,1.6779412733574715,-0.7206051765593875
10.27,3.0953690394087032,0.6862143712805562,-0.9420123725568439
10.28,-0.851405750506292,-2.720204482494727,-0.4818810303585015
10.29,-4.6267427857467025,0.5584212455977347,0.020536535205345735
10.3,-1.8164016783138406,-1.3084223662671248,-0.5756993791741299
10.31,3.9232325003690294,-3.378489349748186,-1.3180027227857967
10.32,5.033484085764941,0.48458932893908413,-1.066013436807453
10.33,2.407144797840486,0.16201210602411287,-0.4078648098039386
10.34,1.4935831204320933,0.9528207284166401,-0.36615871670124067
10.35,0.8345163939891735,2.005624121725483,-1.1288224790257262
10.36,-3.275693360838611,1.0038435085322839,-1.0379084530860434
10.37,-5.705810151035072,0.6069856583396472,-0.682307503829434
10.38,-2.8408546558133736,-1.9472396596383805,-1.8009956421369315
10.39,1.4538542577676878,-1.299443120355865,-2.5459736661578543
10.4,3.0498735896235725,0.1910869945251521,-1.7832378139488867
10.41,3.4836572188961954,-2.2480533473212567,-1.4720411570421086
10.42,5.023531246789627,-0.0901340071640977,-1.39594387638462
10.43,4.017120379674979,3.4345888369217055,-0.2692065535400615
10.44,-1.7326199133769151,-1.2725970027101008,0.6086496101311704
10.45,-4.600327626905649,-2.452991429954614,0.5223596492232957
10.46,-0.433449687649639,1.8997927458914583,-0.5427379060242403
10.47,2.4162808120917716,-0.03870911698179125,-1.9948661066085143
10.48,0.9425209117374809,-0.25322935912399824,-2.7598065597985757
10.49,-1.6841673788405163,1.0667238555834722,-2.6729651211037355
10.5,-3.9989318687290862,-1.2022981176398146,-1.4468121932572788
10.51,-3.5327296092470393,-2.259212530525706,0.3625653303637404
10.52,-0.1488289843816859,-0.7589371616966281,0.7423617436247606
10.53,2.030781752342832,0.16939500490697626,0.32953241858634824
10.54,2.5026900560312697,-1.0622743849895107,0.2368809856452429
10.55,2.5368941573359094,0.41779988561855075,-0.2639589167554074
10.56,-0.006212313465864483,1.7401247231882913,-0.5825390875390127
10.57,-1.787568956922446,-0.30164117911411936,-0.11200354426579495
10.58,0.9099325487843324,1.1013447538745975,-0.2888642155055069
10.59,1.3002740943963758,2.583465264237226,-0.5674671549109079
10.6,-1.1692858659214442,0.9774128985966768,0.07009284273604488
10.61,-1.4240868120765096,1.0172077212250028,0.27971363450261433
10.62,-1.4470531245202318,0.13058183411677238,-0.21026176666450236
10.63,-1.5346855884110202,-0.9482302776191255,0.04004180532646817
10.64,1.7562916860933195,-0.03083404969676895,0.21836008607609192
10.65,4.212976661885097,0.676799522654792,-0.7605460400583329
10.66,2.8912743657044118,0.4904417486016807,-1.4637346389741006
10.67,-1.9410630661892208,0.8776704847594822,-0.4977213665517748
10.68,-7.489065060922916,-1.1118621601915941,0.6535719997512324
10.69,-6.190838942695464,-2.0259791118536734,-0.1337497066654305
10.7,2.980458901589762,-1.0393021773967113,-2.0165789475738585
10.71,8.745288673348004,0.5748487243239834,-2.6760659414664523
10.72,3.188531413401477,1.6145976717185853,-1.526367824378383
10.73,-5.423752087532005,-2.2340544212247995,-0.08441024265185759
10.74,-3.7191784720248124,-1.7706559714034498,0.15538470097603022
10.75,5.881946405022012,2.41293336228276,-0.8929581471189694
10.76,7.789065723515716,0.2114665859238416,-1.9237451006035666
10.77,-0.32932917620617896,-1.530791831966595,-1.8353324105268727
10.78,-7.1348457287177816,0.6923577306616124,-1.7043686033917549
10.79,-7.156633952720975,-2.35518599277727,-2.2693729337001596
10.8,-0.6725139622642802,-1.7474983564442321,-2.5136917924241766
10.81,3.528141861596632,0.5129557159294154,-2.7782326152471577
10.82,-0.10452237444959955,-1.3039768483638166,-3.4379729515594235
10.83,-2.438077626761706,0.9679768132472941,-3.1377796431689164
10.84,0.773689995609681,2.230653820232704,-2.741568113153488
10.85,3.9217572067359505,-0.4566815443720733,-3.215049821077758
10.86,1.7060578834678632,0.1951745118911936,-2.6780118793647225
10.87,-3.462169991166513,-1.701600366399406,-0.8506331629650379
10.88,-1.9175813755454718,-3.2752678308402854,-0.8103050029691797
10.89,3.8313662999886744,-0.07438523292420296,-2.75464455926903
10.9,4.045569391222425,0.06291677355981196,-3.6134070620115524
10.91,-3.4483655117597323,0.28133391863609636,-1.773615576111919
10.92,-7.261801833138707,-2.1445705713255836,-0.73544851571272
10.93,0.6432850894205142,-3.145467669446224,-2.7424625085077294
10.94,7.81582660222092,0.5318097810479934,-3.798076338519612
10.95,3.4809856818470415,0.47079243881373634,-2.9277502574837553
10.96,-4.393057043032087,-0.6686600592900288,-2.4067290817113105
10.97,-4.8611675489555,2.0891288384383424,-2.2895746502689307
10.98,-0.060739284017815365,0.12064952597578538,-1.4986346448532926
10.99,2.4215009563368883,-1.556074743270539,-0.278801657980855
11.0,-1.1325004432107684,3.557936439576528,-0.37822573667829196
11.01,-7.590279426420677,0.17434377639759102,-1.5311655822262045
11.02,-6.222947350428716,-1.3067858791076667,-1.995630753046942
11.03,1.162280163106744,3.164516268199189,-2.8010371161246703
11.04,3.845888332399097,0.07992183858604118,-3.513783586638864
11.05,-0.2415128409623235,-0.1681184888859364,-0.7304851895005453
11.06,-4.782554908856553,0.7926428878875436,3.0635536137749426
11.07,-2.671233141076762,-0.5671999815570283,3.2713142294811033
11.08,2.8906587479157517,2.2261044863427406,1.7869322167212414
11.09,3.133351340145059,3.6066602640566314,0.9605314210405942
11.1,-3.069236376785428,0.7626334815789861,0.6320797452439748
11.11,-4.016590306419842,-1.828955389001448,0.5318852330786724
11.12,1.2948402933104979,0.8642096652245184,-0.23373464157145707
11.13,3.5597142859065984,0.4017323505226065,-1.0604315245746057
11.14,0.4494176040930209,0.649223814226884,-0.42461954609538877
11.15,-3.4545631291524983,2.9689646204033275,1.1600744092902053
11.16,-0.557934822804933,-0.8805886235408131,1.1478917441447185
11.17,5.701449512672989,1.479693515212928,0.568671193801026
11.18,2.987096661578553,5.25829618012827,1.5374921508449937
11.19,-6.237231232197549,-1.214782212904029,2.4804239948010856
11.2,-5.302789883649526,-0.14580274652279446,1.8085681051473825
11.21,2.9722145597451495,3.2184594677185006,-0.01461015610490346
11.22,5.1713187567557135,-0.10912486555915368,-1.0530985214700082
11.23,-0.20551874888561006,1.108480771124721,0.4764882022388497
11.24,-6.982864548557007,0.7161204385198676,2.79123257657422
11.25,-6.041206462425999,-1.310505192591683,3.2418150793343443
11.26,1.949384482833544,-0.19161448491697208,1.4984419263005084
11.27,5.0327360438912345,0.20151801529306862,0.12483632019691471
11.28,1.9341667947060612,1.3528424410740525,0.6991121249060559
11.29,1.5256088531840737,2.178457439593616,0.9801669349003116
11.3,8.078062308114134,4.351619969569411,0.735530515131675
11.31,7.791688120025496,5.4006779466885035,1.729856831643349
11.32,-16.461215383837153,-2.103275002209738,4.8115491558998364
11.33,-29.106183396722113,-6.58407442312599,4.741730859153829
11.34,-2.167925118895507,-2.435099973643343,-0.008396975744090707
11.35,21.151510017808995,6.710633674950099,-2.15060991981267
11.36,16.243519237413896,7.295439942369662,-1.305732886398221
11.37,-0.7544035144614192,-1.5779468080699504,-0.9960046884761515
11.38,-7.792068963129589,-0.5080039381452277,0.09887232920104472
11.39,-3.4387434339176393,1.737748691712671,3.486529521119135
11.4,1.4282574050570696,-0.7601304540878735,6.946280221707636
11.41,0.7563192199577868,1.773818635489893,7.139568245189438
11.42,-4.707562652221977,1.2224053335390446,4.125954603615238
11.43,-6.276182660367811,-1.7138990687661,1.7586707104528037
11.44,-3.436451974298743,0.3653401974444299,1.1151932582722175
11.45,0.5318726053204506,-0.021724617707052474,0.8433943594976258
11.46,2.805775590586205,-2.250944706083808,1.7551102006004387
11.47,1.3411035277123953,0.4743204821607647,4.278264829648192
11.48,-0.3810620420429957,1.5940532808915882,5.074860848683955
11.49,-1.9514458858730697,0.007462536768136241,3.039588239633278
11.5,-2.296090929487926,-0.03852157011394586,1.071366671566734
11.51,-2.1491831088537565,0.37401830625496074,0.2420834698076722
11.52,-0.2719984102146391,-2.2504277370847756,0.48575465817888747
11.53,6.6240010607369255,-1.7169151641762923,0.9784271754821481
11.54,8.22707924710809,3.260152952643507,2.6718360219531094
11.55,-0.03605117794932866,1.4138393374554443,5.000713522754851
11.56,-6.605064827443018,-1.2989311082106267,4.807494200367033
11.57,-7.055165337377572,4.368234516895211,2.7497195192640147
11.58,-4.749263995343422,0.02059531467590503,-0.39074623758190064
11.59,0.5678047459188664,-9.98357950858888,-3.994574671870625
11.6,2.3643370300045574,-4.563501395012473,-3.460397632030098
11.61,-4.5667538191172365,4.758157456945497,1.8999324128549637
11.62,-4.59128496315801,-1.6348441208310973,3.292083873318008
11.63,7.6107680832041265,-5.915865275155341,0.2408540201302234
11.64,12.062898715139495,3.24770076849289,1.6268244211881098
11.65,-0.3979147307723796,4.3778969271321255,3.977889146569763
11.66,-10.34267946451111,-3.9360072675116204,-0.538793883680607
11.67,-6.18369242528749,-0.7693229177106442,-4.482689494698177
11.68,1.4256029876764647,3.9584317647028726,-2.7120777602286963
11.69,4.267780730834909,-1.003332617717156,-0.994660777058459
11.7,4.845167546100043,-3.6808162202220953,-1.9295210039775363
11.71,1.6051279237126734,0.7158353494134624,-1.4644502704488538
11.72,-4.383182391778772,0.35807268032083917,1.0663579115444402
11.73,-2.522609255930769,-3.847700102761723,1.1889769353209667
11.74,3.039789572102589,2.0295159637534095,0.8016241265035616
11.75,-0.07785725930008613,3.8169576160699257,2.6911513663652484
11.76,-5.393991157551071,-2.5835814767524323,3.1288778605866816
11.77,-1.4965500144679593,0.6145967032551303,-0.17790061855874129
11.78,2.4982468566200127,2.7379996207893456,-3.9570104467992984
11.79,-2.0364576610119958,-0.05528331660247954,-5.280471662539366
11.8,-6.665866380096242,-0.8860884869832646,-4.265228552811155
11.81,-3.1735321637764073,0.6116934121732088,-2.2002031084522082
11.82,3.135988956127089,1.5181927254686103,-0.23174953514585384
11.83,4.447715843431199,-1.5214671004052407,1.7272631090744905
11.84,2.1287170591664286,-0.6721582665827981,3.475518378734959
11.85,2.061915083625453,1.6040186813569517,3.0321324150003357
11.86,4.2055144058448,-1.6122337192101468,0.7270495459429398
11.87,3.517182689145778,-0.5651887330430978,-0.39862852974424795
11.88,-2.908552884704639,1.4710426442788682,0.5173268260389771
11.89,-5.326263912841438,-3.270976173097332,0.29709497063820123
11.9,1.9276193858150172,-1.1843352024619085,-1.5600051375081587
11.91,4.4492899387111216,2.005221415675373,-2.889113226139721
11.92,-3.841350803556821,-1.8997330588016323,-3.530982361457667
11.93,-8.265062313206471,-1.557096207520832,-2.9847395928809703
11.94,0.22212836124489144,3.4398719842981085,-2.702116329898112
11.95,9.750740709302878,4.060489216747813,-3.700171044564593
11.96,7.252462520472823,-0.4269078290540622,-3.862146092458687
11.97,-4.686342115173889,-1.4525694224724033,-0.6463191685887342
11.98,-9.764789839957972,-0.6385382757311815,2.545560125253484
11.99,0.21921963646073017,-1.8751962091242358,0.09463989445804977
12.0,9.269009854969969,-1.1687799338536884,-3.2231401043360797
12.01,1.3349675728487487,1.3552321598705954,-1.3371297354631282
12.02,-9.03516383992678,-0.9337703987548367,0.6216798370596742
12.03,-2.8382440390537127,-1.246618351818724,-1.6483708586104484
12.04,6.932896555396809,3.7673456830264773,-2.8436897250910222
12.05,5.325298303654299,1.2002218615098208,-0.8591886627664176
12.06,-1.9493635292115705,-3.081945117599715,0.5635908375234759
12.07,-3.6136552400103223,1.4797513101444402,-0.30381504956586436
12.08,0.013638118847482783,-0.5924079659905344,-1.943492498425298
12.09,3.4558587221391726,-1.6209835182471528,-1.535127416433665
12.1,3.1709312048538694,3.5519800421437804,-0.11938172268036296
12.11,-1.6512835365248533,0.15255325138871623,0.5747811088820654
12.12,-2.5031454022797295,-1.4845502707711296,0.96755489746744
12.13,2.3017892361853467,1.3845126710842985,0.5566926055019571
12.14,3.341718555903999,0.2535411562484362,-0.753856567003982
12.15,-1.219375736476096,0.15826349283855456,-1.1727600614492244
12.16,-4.3002667332295355,0.41769355887437826,-1.0565187773041032
12.17,-0.5151581996003589,0.18741147443115816,-0.9689540458252984
12.18,2.3172367595942465,1.4694968698324211,-0.4286184304330607
12.19,-2.9032467384090532,-1.4109169309655378,0.9965354212932636
12.2,-5.999481223695953,-1.3883232528238767,2.4323810320393826
12.21,0.425550863955821,2.0454397281363788,2.0543343141687243
12.22,6.3168708205371775,1.560712420509911,1.1677328556174733
12.23,3.8697036933183955,0.7744536732039562,1.5377421252542924
12.24,-1.6705459226024635,0.354939280491778,2.1105618743957906
12.25,-0.7185460285367489,1.4464690499233845,1.4128997546280821
12.26,5.536280872159878,2.524513703105455,-0.10893669072593082
12.27,5.65799484448622,2.663690745935842,-0.8249324873156778
12.28,-7.749101219018436,-0.76471966111446,0.696969654853116
12.29,-19.10387549510591,-3.2283050415617307,3.343398477757232
12.3,-6.921637406915147,-1.048768191855462,2.8509178759591514
12.31,11.34891825915225,1.9933521670599645,0.4642197993280297
12.32,12.037539210490813,3.574780867412407,0.5978510714351788
12.33,-2.383372350533259,-1.9193109994789608,3.0744227028663866
12.34,-10.413222882626897,-1.3367718056389442,3.881266488185291
12.35,-1.7006835179171436,3.077165581200212,1.7823212862680835
12.36,10.241687148845994,1.1913980633303072,0.13162060562188194
12.37,10.346670026162776,3.3685695487859806,0.7747038929033725
12.38,-3.8546141002047403,0.8124027004574339,2.3091892976278814
12.39,-14.001241486277912,-2.985724913829923,3.169773050077464
12.4,-7.516834463110603,-0.5571814622465379,2.0053905896318436
12.41,5.660780269329546,-0.9041506681362462,-0.3594075651543678
12.42,8.990720052137979,0.8591078999465527,-0.5704418268007196
12.43,1.3329605343229396,-0.6158819608267885,1.5061862949373857
12.44,-4.366123673525166,-1.8700658222729207,2.8725002086364135
12.45,-0.8571395520288752,1.6037757115885343,1.5670050245042149
12.46,3.672773572630967,-0.3658936566050066,-0.48330588977641786
12.47,1.5517650454856957,-0.27889276430430865,-0.1624405848829582
12.48,-4.397907434823252,-0.003737777445006918,0.7213385493387704
12.49,-5.867954877098667,-2.1500666773937875,-0.09598868646724223
12.5,-0.8245483970614886,-0.39544491512034297,-0.9440327315974681
12.51,3.1812089399248897,0.10835348959009194,-0.9573093341786968
12.52,0.7520802369442396,0.9569093180050858,-0.009823000196670262
12.53,-2.9298351927682096,-0.5304612106199014,0.4152266671095356
12.54,-1.191886857325505,-0.7064988960980871,0.06717338490523711
12.55,3.744568823077032,2.1207648004139967,-0.033584981876675926
12.56,5.674296365174751,-2.303006978929963,-0.7799347873507744
12.57,4.073738572194105,-1.470104584584532,-1.0368332850020723
12.58,-1.5568572551971283,2.9361258663001935,0.048531820731924746
12.59,-4.307632064216213,-0.3666143506220667,0.2561282023143448
12.6,1.8606429180127124,-0.13372248463721892,-1.2572424940409053
12.61,4.533029510691491,2.3122828174021457,-1.9776733502108874
12.62,-3.2645100048302824,0.4104608327441248,-1.1399653475554756
12.63,-10.523922708886804,-1.3734650412704696,-0.4792733776383249
12.64,-5.8061183201692135,-2.1175881375254946,-1.6203289693753158
12.65,2.9525704255654697,-1.8856842686059005,-2.8591636094983435
12.66,8.119549167861122,-0.6802286963596433,-2.4326641032910654
12.67,6.665554906146818,-0.6204026014306474,-0.8584244233190215
12.68,-0.43585233273755275,0.5252886562316823,0.951410778780365
12.69,-4.3046448491143305,-0.5195412397536749,1.3687162857055575
12.7,0.9704197078823267,-0.878492182018245,-0.060247752514790864
12.71,5.41273420047178,2.3017529682264777,-1.7403737501655365
12.72,-0.24152011292860642,-0.3737553057582659,-2.9221091454286503
12.73,-9.451910745663131,-3.113547664754047,-3.3689421531773935
12.74,-7.395266095014404,-2.975803099224036,-3.5361423229225997
12.75,1.7232288280577892,-0.32762780285771287,-2.9096406135520025
12.76,3.513358941242127,-1.0082607037970048,-0.7038657580761167
12.77,1.6571489563061945,-2.9378978392725354,1.4630155250645196
12.78,2.1616754435106627,2.066389640045022,2.3515177559259826
12.79,2.4730264616171787,2.404226422006581,1.2439952557848015
12.8,1.1462000291584196,-0.8099602834343695,-1.157028851910418
12.81,-0.37660364233861243,2.2100973659419427,-3.124211654447631
12.82,-0.6738784054036127,3.012501530364603,-4.267408754267514
12.83,0.16674262648515303,-1.047456420814083,-4.8548387979606415
12.84,1.197016715016384,-0.794777300145814,-4.534527985683121
12.85,-1.8715153634504704,1.9040201423819358,-2.080476098876408
12.86,-7.65216759540736,-2.396972242293264,1.4883211331873551
12.87,-3.243172737740524,-2.323977131194403,2.1652276882959365
12.88,7.16243884698172,2.7271258066301094,-0.05948722822415142
12.89,10.205640526160062,2.5640956489959414,-0.8531618785625004
12.9,4.77056203023998,0.25570970782529345,-0.3265055116903155
12.91,-1.7706422142863798,-0.6304555664424604,-0.9425341439112991
12.92,-1.214362949042286,-0.12261438162986493,-2.0705431454985463
12.93,1.5822256873633744,0.05159497800696279,-2.409475795868973
12.94,-0.9208223921070213,-0.10721975050882576,-2.378021884584273
12.95,-5.364553181594168,-1.3852069615824112,-1.9685321666763484
12.96,-4.113535888965214,0.21585670999957363,-1.8884106002687537
12.97,-1.488510037541848,0.3066580125894096,-2.2482025138936557
12.98,-0.03224503366587306,-2.9344862509050618,-1.6187097109203004
12.99,2.2277024180986498,-0.4287652661609762,0.042839464727496335
13.0,1.9841913636698802,0.3764720917636861,0.7495803809331892
13.01,3.5093581112369217,-2.8145611563347916,0.5186104102878648
13.02,5.284039864926423,2.4073489266248735,0.3649208846457985
13.03,-0.5543348529067016,1.3647845371910297,0.6512803908463884
13.04,-5.408397080839685,-0.3172312315456713,0.9647143090488095
13.05,-2.926502459968065,2.449701630882725,0.013376492962191566
13.06,2.2758424615654755,-0.3075770331738763,-1.3506374794104663
13.07,0.7435039543290398,2.3430761308044534,-1.1668551405857608
13.08,-8.46082448889826,-0.003091848538849362,-0.04629760922677906
13.09,-8.578148148022471,-3.2036422263919313,-0.02810130112126663
13.1,2.057853827850713,0.6952771830075637,-0.5598072307075784
13.11,9.1469506324133,1.5821866845368702,-0.17324719778338304
13.12,6.528727779682868,-1.220874449235473,1.3342570563027052
13.13,0.34330357493795827,0.09666006737245647,3.2026218817841934
13.14,-1.0689409983638878,2.477808297752626,3.325895021934745
13.15,2.8059113484652443,-0.5565378229427744,1.7714837034610795
13.16,3.8049491968862403,2.474104567036293,0.5171766622681014
13.17,-3.7826016992793363,2.850719973933834,0.03340014139081521
13.18,-10.82812716388425,-0.15087094970192405,0.1566093829242845
13.19,-6.309596917998156,-0.711441066072646,0.0602182148885117
13.2,3.9138478828065972,-1.9786995359692987,-1.3431560866367516
13.21,6.546104503957591,0.8144000489595347,-1.4775831705456905
13.22,-2.639101615006977,-2.860008090611004,0.7262727407767964
13.23,-4.388483491981836,-5.9614825104416465,2.08927370317223
13.24,4.3084928474338655,1.304337236691686,1.0604476547136799
13.25,5.889422190089174,1.9984071417481513,0.5685193569402287
13.26,0.814137311979076,-2.504147061637891,1.029549611367036
13.27,0.028987377972285122,3.570790860282378,0.5010845456593697
13.28,0.6246706201382166,3.6770954477324818,-1.219946951153158
13.29,0.07361217647731422,-1.3663592635261392,-2.813900452158183
13.3,-2.7827290617146287,2.8773486902561176,-2.44544045709001
13.31,-6.69739488513712,0.9885066543526189,-0.07202131141174828
13.32,-2.2960844952761104,-1.6672878817339636,0.5716872903114564
13.33,5.063566997171803,2.836307339575365,0.06302918407791558
13.34,4.245195306875873,0.19020044380457168,1.087208706438146
13.35,-3.066632203681484,-1.5605791833273541,2.3652830326811
13.36,-6.1632444524809,-0.4041395298919337,1.557171362781951
13.37,-0.8326392384519075,-1.2056200532969188,-0.24553565413860978
13.38,6.422306933864027,0.8672892469743183,-0.9592844029734926
13.39,6.584539822148717,2.072952257163407,-0.9600123354489974
13.4,-2.2695023841703534,1.0304538134185033,0.21312212449965484
13.41,-8.689152634816066,-0.6756399243651597,1.551686720258159
13.42,-1.8543826434686697,-2.1709025219767946,0.19698181590600905
13.43,5.606417039864161,3.0194007160090086,-1.4186639359525965
13.44,2.3277164398126855,-0.29813025971047136,-1.4397617255552746
13.45,-4.226041427196917,-4.05203863994596,-0.4503128463603917
13.46,-1.154231178227656,1.8281075942807545,0.20960956252871174
13.47,5.681922634685169,1.3692044525543272,-0.6601044013015994
13.48,5.213362047917039,-1.2687837004922593,-1.1325831853582853
13.49,-3.1433526273047994,0.05121662535434224,0.574062402239601
13.5,-8.263440482726851,-0.597490397214791,1.085624412951067
13.51,-4.23382975465242,-0.48843130327941575,-1.1300533418185819
13.52,0.8945386457782112,-1.5989890822758197,-3.0421042651308414
13.53,-0.6839113719064285,-0.5892539516362414,-1.8775826857493
13.54,-2.736141791532914,1.814297755661305,-0.398441989487336
13.55,2.405812987870608,-1.3119726565525869,-1.5983235994282425
13.56,6.495046489366586,-0.08578767366463591,-2.01471899312853
13.57,0.7932462791933181,2.041505353463264,-0.02968079230729237
13.58,-4.498476335751658,-0.8242637444738539,0.7601516945527893
13.59,-0.1043411076378229,-0.8041079631983623,-0.231459435573785
13.6,3.827963206921248,0.8768310735910925,-0.24576098821219644
13.61,-0.8187400248591432,-0.29933792896736744,0.7972417875316558
13.62,-5.037499356527988,-3.6362259930050334,0.6834905690622441
13.63,1.6340303858116378,-1.8424403619386531,-0.955163178467742
13.64,5.684843277450326,2.3321831565771234,-1.8574195446915032
13.65,-1.6475274057207319,0.6813617314682574,-1.253080169537094
13.66,-6.306611450596077,-2.6572848677659233,-0.35655996253532785
13.67,0.8659809437136845,0.2052743207223724,-0.36777746642619347
13.68,7.691454546462625,3.5602668583228843,-0.742840513469474
13.69,3.594316064453836,-0.38978828831260603,-1.1852504184138075
13.7,-1.6622398117339847,-1.8235285463462239,-1.2339356068979304
13.71,-0.13704051346965107,1.532420454139991,-0.9483183104942443
13.72,0.9680191674169137,1.6441899543349292,-0.7430759026907439
13.73,-1.218867760336358,-0.06883453771298353,-0.891311490838807
13.74,-0.6841139771069278,-0.4799014298374364,-0.9278726561067059
13.75,1.4574502781817156,2.207878400135905,-0.5425363979274966
13.76,-0.7270176386896825,-1.04982022823418,-0.8093012262388133
13.77,-3.4831902459926196,-3.957930112446012,-1.4231720463660151
13.78,-1.967259185169719,0.05521434601616004,-1.3578816086750438
13.79,-0.06626499579606815,-0.3021679759548723,-0.9031644143922264
13.8,2.704303476074915,-1.188152389695245,-0.5172010517994463
13.81,3.013620474673243,2.3572967526073545,0.27531293037432025
13.82,-0.23107020366576636,1.5859576066578982,1.0095100484430468
13.83,-0.6514797314428219,0.27282558518621525,0.22544353382077753
13.84,-0.10089529928105795,0.3879499380965469,-1.7356041097156034
13.85,-4.3997691553707305,-0.7008716061280027,-2.544358635968265
13.86,-6.1568319052119405,-1.4562932420575807,-2.1165919748597983
13.87,1.2776475039612034,-1.783546207639162,-2.2404776010011593
13.88,7.5956670538077224,0.689868159133207,-2.1524269881129516
13.89,4.3251830659006485,0.7533370265458765,-0.1230440569870781
13.9,-3.867396645344048,-1.196803131623576,1.5429083367144576
13.91,-4.8043734464784915,-1.8950053959402764,0.8052911314603175
13.92,2.4416941548061875,0.5905397054805099,-0.9684608239533636
13.93,4.470730619409742,2.033220085034167,-2.0582982340950093
13.94,-0.2857087959907645,-2.296817938548513,-2.3676917849533368
13.95,-4.969143910405357,0.43602864848983236,-1.8277961182472344
13.96,-3.971271635742415,0.09172782584520034,-1.2772583314516637
13.97,2.970603568980131,-2.1104545734657414,-1.6015500673193455
13.98,8.83622313680555,3.631897177334575,-1.539738126917285
13.99,2.8809808554159098,2.1134909333016587,-0.3747512348578541
14.0,-8.345178943895846,-3.8416004815641305,1.9339164643245321
14.01,-9.18554244580718,-2.0885238573113782,2.4414274660723994
14.02,1.4647898697811552,-0.9664967930477163,-0.12074029155793742
14.03,9.094564777078205,-0.04620864654797796,-1.6818106806563273
14.04,3.8572412486531906,1.4309196771364716,-1.3814712078315392
14.05,-6.593427843176667,-2.5555017873948724,-0.8607275591460943
14.06,-4.142598361240914,0.14253090838369786,-0.16750808444747045
14.07,7.059539998211772,4.915132580092507,-0.27840133862752153
14.08,8.114027347175584,1.5694463013476811,0.17064776569551943
14.09,-2.05156237752099,-0.64955188943038,2.123190993307012
14.1,-7.946220920572635,1.162551238317337,2.2576989765929136
14.11,-1.3366359532815526,-1.582313197275101,-0.08549353542722438
14.12,4.837300168752025,0.7449171038300935,-1.0559301878816616
14.13,-0.19942739791234754,1.8114436984525757,0.07379642895956762
14.14,-8.117618046463178,-3.6330629118228046,1.727500937574857
14.15,-1.580148715957046,2.1694825470075436,2.344735033897553
14.16,8.941333499544475,3.535542537666664,0.8381096656568394
14.17,6.372346978197219,-0.026799482637962058,-0.30061755127613415
14.18,-4.055770307693684,0.022847294480575542,0.34689515984362457
14.19,-7.493470489107697,1.1775007322041808,0.13579907694217752
14.2,-2.721698138408354,-0.8863012933922052,-1.6134959442979528
14.21,1.4096842328679233,-2.0063627303275506,-2.283586203178962
14.22,-0.7178990751986443,1.4928639919926026,-1.2448063927895647
14.23,-2.1464275430628414,-0.03329542728665569,-0.3481360890406918
14.24,0.04785045801996057,2.1599376078209556,-0.2017353956154468
14.25,2.5111467989683303,-0.2642643721146989,-0.4181060792423592
14.26,4.800038379844882,-0.18611496250617865,-0.6713953297012705
14.27,3.6134844267031188,2.3653370217443,-0.057625394595280044
14.28,0.848743376712906,-1.5168403565619117,0.20264614386105484
14.29,-2.7424495645887417,2.911843600939064,0.3165641545107416
14.3,-5.9158245165991294,-0.49350460286872444,0.9364881641243806
14.31,-3.7421976348013626,-4.2060775619897735,1.741699420702433
14.32,1.4555832797401402,3.495265216536156,1.5177650349143819
14.33,-1.3370207542236598,1.8977474086708588,1.507350260959847
14.34,-1.2557474909171848,-1.2914168588716533,2.9735450221656716
14.35,3.238209969847373,5.064812311110653,4.098139327290884
14.36,1.1636251152537755,1.8590331134911722,4.295860372617199
14.37,-0.11417466348268901,-0.20892736257611555,4.257174215468739
14.38,2.2048847518541925,6.392262881173017,4.4405386644357545
14.39,-1.1740543783060589,2.7749597006368107,4.833039042487314
14.4,-6.368210037193201,0.6808225326403874,5.447378892913688
14.41,-7.750573988697844,2.8130208894137265,4.676376896850074
14.42,-2.9876069319774636,-0.4388723672352963,3.305169790283216
14.43,2.938264922182304,2.434731179847934,3.6226193454374753
14.44,0.9650272672217675,2.188401136492117,5.369422529802164
14.45,-1.9939207598341315,-4.277745249937542,5.5907379681385985
14.46,1.954163387845393,1.6018563524864131,4.709821254992601
14.47,3.624420390019307,3.7639783075566298,3.5015366329033757
14.48,0.04628975376877609,-4.0291395409355495,0.9302856526015786
14.49,-1.490648705896749,-1.582838273949828,-0.19243703079640356
14.5,-3.41771644634356,2.681450594707932,0.4080043386266752
14.51,-5.7589966412199445,-2.7484701008227983,0.8248703123558339
14.52,-2.1584552209856165,-2.1612854136079864,-0.8483356774451355
14.53,2.483191423937562,1.4473916525391568,-2.8507899576758287
14.54,2.135937484680929,-0.05688158269193666,-3.740041095087326
14.55,-0.41368345001076956,-1.3796086773830254,-3.858650817450863
14.56,0.38889522522614894,-2.8110619589013353,-3.992846230103441
14.57,-0.2991442028984359,-2.149408236141977,-2.4938617263651413
14.58,-3.1223532768687683,-4.5628803091547265,0.13790012783961236
14.59,-1.139880627498032,-3.354930365177238,0.8234801478659126
14.6,1.5548058774429443,-0.10505794349362496,-1.0567076944757705
14.61,-0.07219832382743263,-2.7238337619392006,-2.233172934584201
14.62,1.101735917740588,-1.1230500074289633,-2.236145395406168
14.63,3.5009202632664884,2.376181290512913,-2.6228711696247142
14.64,2.076118955668864,0.05462246662473458,-2.4212353181007082
14.65,1.0210669401255712,-0.0881807730680827,-0.5546298425755234
14.66,0.9138626207648957,2.5189570606517457,0.48841255491180835
14.67,-1.5089685492175697,-1.4475607254351939,-0.05765431734068416
14.68,-3.8484855348951132,-1.0931825162141096,0.14182597571485273
14.69,-1.5535506808688142,0.23543787623919166,0.24322364382615444
14.7,1.3917883689412878,0.858423496262784,0.015236860658633083
14.71,1.5400285257277144,-0.19987606667380153,1.3490082883437138
14.72,2.7141215875157845,0.07072591095353442,1.9150846107181172
14.73,3.576625196412299,1.640557665752406,0.5883997484740122
14.74,-0.5269422673109152,1.1227620538670315,-0.021172619131860637
14.75,-3.6588785035381974,0.7248176527404867,-0.07717604187984783
14.76,-0.09835663513144688,0.15568814039688839,-0.8574795578606476
14.77,0.8701254084963477,0.7396131109612972,-0.9480486438474373
14.78,-3.4848294789860312,-1.6194061796780792,-0.49764693376239244
14.79,-3.709210990931332,-2.1269200092953784,-0.5434763820591649
14.8,1.946680285902664,0.3246496863309245,-1.4123682638091473
14.81,3.5156160341711886,-0.717084179122669,-1.5091107731178817
14.82,1.3198413129245723,-0.2198982947203063,-1.1714447209568095
14.83,-0.8004726362579769,-1.5656331999423745,-0.6022437007635513
14.84,-0.00013552038426190016,-2.734373284056841,-0.49226756103811703
14.85,0.9467143420836678,-1.388920904136972,-1.1919772771474904
14.86,2.176048892718767,-0.9247966122602903,-2.313938985845573
14.87,1.559252431868961,1.0095597529533231,-2.947328137800413
14.88,-1.318103435733123,0.3854169013710209,-3.60431957801463
14.89,-1.2478372119421333,-1.288719646576891,-3.5502983441073366
14.9,4.37483264552094,2.71930073830045,-2.912615447143563
14.91,-1.365754923894392,-0.5643048906396775,-2.5414045082156913
14.92,-13.49513949263031,-6.0746631486354,-1.4369754727117112
14.93,-8.676852330749643,-1.0158656738156875,-0.07239072809012326
14.94,12.735522045374847,1.8079572441781067,-2.0979666621696333
14.95,23.348558355739023,6.34066732374397,-3.4995442535799537
14.96,10.450291101780648,9.756372795160729,-1.2092593704656207
14.97,-10.630914745059915,-3.145073370399425,0.20082985168244127
14.98,-8.928469482083635,-1.3616553178420876,-1.1072949340341687
14.99,5.209773925529238,7.9002700164603175,-2.4975616156664433
15.0,3.4454847221300353,-2.9340129763773817,-0.9243246033162822
15.01,-7.286366723273563,-1.890465553868447,1.5068289040695158
15.02,-11.730955826073414,2.7561469300316475,0.4670437566480339
15.03,-5.999294291354629,-3.4575923053715494,-1.6369378686303353
15.04,4.102425406528413,-3.2037406522399694,-1.0173844740891949
15.05,5.978758987657555,1.0151848452768437,0.7325414776255885
15.06,1.82006362033552,0.5199567201611064,1.3647021270230808
15.07,2.590405817332671,-1.4030242271738451,1.0770308547012326
15.08,6.125039082989346,5.125875047351117,0.6533079919569218
15.09,1.4438632470942743,2.479513698856845,-0.4007834833117764
15.1,-9.176449160186953,-3.8888109191059645,-1.9612300495842274
15.11,-11.735592620422395,0.9832240462579129,-2.0189976386334414
15.12,-4.178235977603449,-1.5942069879489198,-2.0714256467211425
15.13,4.393507032674671,-2.1195110568770303,-1.8795118929177534
15.14,4.828144607567758,4.624007333869083,0.5627812614053429
15.15,-2.2932029013819157,0.28837680476768845,3.273575368471681
15.16,-3.080473968929927,0.42764023254562256,3.4614454443935756
15.17,0.8164731165167178,3.7704668269568624,0.9207751166269893
15.18,0.11628214031325701,-1.2588619710344506,-1.279589097124289
15.19,1.3945583706323377,-3.5127887520893877,-1.4140984119128923
15.2,-0.524799599936769,0.7172970421186902,-1.080539637475829
15.21,-4.590161624855261,-1.2432762955186505,0.07176074638841268
15.22,-2.6929944127315824,7.424373542107614,0.8428277777716267
15.23,-0.061961900655662205,-1.6630352355306446,0.8291215126011849
15.24,2.8405527958511194,-4.102023754671748,0.5733036730963192
15.25,-0.37834165341632975,7.1447258525718205,0.89800375884197
15.26,-5.640795817863065,-1.3472839027277246,0.19554052778854591
15.27,1.8605060804862514,-4.937369332895484,-1.0312735667585637
15.28,9.627280326416443,2.3427699872494454,-0.2682739074562044
15.29,4.838523160839632,-0.339437141985492,1.6025633361467158
15.3,-1.935018536839456,-4.234882935864034,2.2877476189882175
15.31,1.2466884113904082,1.0718773082573545,1.9000602449549941
15.32,5.145227376264216,2.1499015665344716,2.166382857581856
15.33,1.5020893052463187,1.1102702366444102,2.4616974317259777
15.34,-3.9870857813814906,2.137988271121145,0.7347970794562149
15.35,-4.544746113488681,2.01624934815071,-2.0024285870112077
15.36,-0.21907002034774692,-0.47008056089547257,-3.700274628946353
15.37,1.878090404402953,0.23436884503784805,-3.889984697983801
15.38,-0.784344894341706,1.5601133362943773,-1.4071566338515566
15.39,-2.473067601794641,-0.8778769352071323,1.3164810511927834
15.4,4.519651815626238,0.07380107383204426,2.1475529352013587
15.41,9.110424656666698,3.169831134450227,2.381398220947162
15.42,2.3863023744076344,3.845302917190296,2.4019641125648
15.43,-5.729649020330719,0.10682234982770789,1.2833645440767958
15.44,-6.7606429055079875,0.3180616025331825,0.3320765374560949
15.45,-5.561302107107684,0.15963677398044684,-0.1238094196747894
15.46,-1.4160916976476279,-1.3968364396528892,-0.5610607095203156
15.47,5.400437469968375,1.7125359572746808,-0.9707785262269892
15.48,1.7068383360425416,-0.6539897851000838,-0.10505208092153207
15.49,-9.031573217989267,-3.032466349499721,2.043482158311555
15.5,-9.931037473775493,-2.04218074446102,2.453833455835674
15.51,2.0650924038724003,-1.3019615502215958,0.5900115000020918
15.52,7.609981330303183,2.5319484142748676,0.6964877119070936
15.53,3.262055815894737,-1.8912525560330034,1.9614727467974378
15.54,0.6032457703281795,-0.12169209662384173,1.5394240889408235
15.55,1.4310408454260086,1.5881045265938154,0.39283532238262286
15.56,1.7383513693364336,-1.8540921652867983,-0.37639206798250596
15.57,0.33786325612643164,0.6192432342086596,0.21082135116299744
15.58,-1.970979762311465,-0.15871274448510375,1.3013263573845384
15.59,-2.2213324172036706,1.6468154075842463,2.340923966105413
15.6,1.8915412032771886,-0.9901319890228057,2.4480461236852227
15.61,4.006137713212612,1.3145205741801835,0.9605676871604871
15.62,-0.6956548122511785,0.8949392969577359,0.3079010150785964
15.63,-4.380790056758007,-2.984570322748209,0.6917210433200183
15.64,-0.19277209505252202,1.6043323018379958,0.43637887326178404
15.65,0.8325176984591598,0.2577555809310512,-0.3690427073283392
15.66,-3.3750291116405076,-2.424518476370648,0.5693159806014012
15.67,-1.8274219608923272,1.9748364327297185,1.7692363477273094
15.68,2.7805335738931234,2.138333705296758,0.8095910533017594
15.69,4.071384175571784,-2.394360589430726,-0.654225741715836
15.7,2.350310677828039,0.3316606299663287,0.12472371920921022
15.71,-0.6678904649631066,1.5751388770486385,2.7785593967476236
15.72,1.1165136258870985,-3.3191734765642256,2.1274220647421735
15.73,4.110257347545277,-1.1079398575759205,-0.3039444309405923
15.74,-0.937276515836281,1.8134401805871967,1.5525363019593748
15.75,-4.273754097033493,-0.9335226322395997,2.6843763237337477
15.76,-0.18801146290419268,-1.6126605119309672,-0.40698758409453095
15.77,1.2425502946282312,-1.4431548372258127,-1.4898612779937523
15.78,-0.9450894296909766,-0.5977392634267709,0.24551900383190928
15.79,-4.095373817251495,1.4026559576677056,0.6783354999797051
15.8,-2.8696082946686214,-2.5291584465308024,-0.18984802629032915
15.81,0.9338833768861252,0.49703617546845713,-0.29178590040806185
15.82,-1.418864646907853,2.4824606064414776,1.496889101853231
15.83,-2.771264960628056,-1.5184764957631711,1.993837901446335
15.84,-0.6577135264997227,0.41501600470707434,1.4232929370650198
15.85,0.2307655482195164,0.04960134445123232,1.6413770662415943
15.86,1.3196340524328563,0.11995403897860055,1.1727468625362625
15.87,0.8020627918059106,2.05413037651499,-0.07115039256387967
15.88,2.034169492657886,-1.2127784576032377,-1.2565811812066048
15.89,3.9762578801673554,1.657796026481202,-0.6310636487975709
15.9,-0.8567519063489444,3.809023431650148,0.40281842003062984
15.91,-7.554791848688216,-4.462048360584953,0.24000519870684717
15.92,-3.9929621762424787,-1.0347852556746,0.22903525784198928
15.93,3.8822407191439043,0.7722922643135195,-0.1524401540309029
15.94,5.444329291439964,-1.197490178825628,-0.9659685122025299
15.95,-0.051684535815587296,0.6244260314798402,0.21356413733412372
15.96,-4.170720973101024,-1.3093004529200323,1.8721093477155903
15.97,1.3530482231098029,-2.6019201142355914,1.3806804821812881
15.98,7.760349626501725,1.6101411299275101,0.1664421319751861
15.99,3.6931866611696886,2.477364452902528,0.4912582649141208
16.0,-3.6694457157919884,-3.1874817845430874,0.7061888734058857
16.01,-4.135856871723136,1.6830471303450767,0.585244799651871
16.02,-1.2903684595404226,2.960130848027981,0.22699608406527194
16.03,1.649805651035937,-8.054252579594092,-0.5273216463469732
16.04,3.8793913653389778,4.3358001362303575,0.489363484143418
16.05,-2.8902574224397766,1.7971386477343785,2.0467157127641418
16.06,-3.1648394381281126,-7.229102610418391,0.6247068448147244
16.07,2.517093129640804,10.546036802063046,0.6052449936246825
16.08,0.3595947076036192,-1.430652088771735,1.2285508145444575
16.09,-1.3765359316469594,-4.1871501382986125,0.8897145576289218
16.1,-2.4284434122869145,9.210476350946418,0.9285755614651454
16.11,-7.45932106894635,-3.052240636693739,-0.10432634706298394
16.12,-3.5387016111656706,-1.9307245276975222,-1.0988491982628035
16.13,3.3770210338966837,3.6749688502757802,-1.625229925687975
16.14,3.7672227192450807,-2.771925863064758,-1.4226867318148604
16.15,2.7498368890667266,2.1063843783586456,-0.37360984310884127
16.16,-0.5553562948102488,-0.45644988958239807,0.9922216520125735
16.17,-0.4573206110621363,-3.8832368181241046,2.5132509495793065
16.18,1.1678352498075066,2.637145388436773,1.8112580186517544
16.19,-3.0824094646182814,-2.4029509030876537,0.3053729157490337
16.2,-2.2280908787507165,-1.037769867692752,-1.3696317135430731
16.21,-0.4565480287155941,-0.9223132046899756,-2.5464285082362457
16.22,-0.49812973009006334,-3.634462590125156,-2.853225321853283
16.23,0.7881979555267891,-0.7667946086086417,-1.8071295661822981
16.24,2.960607036016995,0.13116889290890255,-1.0326668633887888
16.25,4.427308780509839,0.1607910852610911,-0.9193537789390779
16.26,3.5194050670787376,2.7481966048179935,0.09725722111807822
16.27,2.3540939276583894,0.649330967104151,0.23294612895797098
16.28,0.3408804975539812,0.35161199435309376,-0.69800474704557
16.29,-1.1985322210166356,1.7317666616187206,-1.4305510883159314
16.3,-3.06740368363861,-1.7800023737249624,-0.8287536445682329
16.31,-2.285634593317119,-2.3816907463044354,-0.9964448959500003
16.32,-1.4319596003417745,0.06930558083580562,-1.5729031369571036
16.33,-2.301412500737447,-1.588459752881732,-1.2636573561382343
16.34,-0.7219326788751408,-1.4602508013913478,-0.2833050383870872
16.35,3.9181739367560717,0.5783553465133524,-0.6329994258691715
16.36,5.675979816025874,2.5219721757933082,-1.4589251073734815
16.37,1.4188771204462958,0.6857238554099423,-0.6358115607010016
16.38,-3.52941491998999,-1.3003981813121235,-0.09372431110786927
16.39,-1.5519461501851577,-0.333065743678679,-1.2338427469566333
16.4,2.388046427135225,2.1103482980307673,-1.9978679498235588
16.41,-1.1129374472667957,-1.5559686590159516,-0.9441091410759046
16.42,-3.0546932650153025,-0.6595228866681355,0.12115137503900308
16.43,0.9380077721151383,1.7809481897858457,0.16673317638100973
16.44,2.354528811568934,-1.3419385003794342,0.8255654931334779
16.45,1.8504177371071604,-3.302621258071361,0.9549221928366884
16.46,1.7489260729322873,3.0260627151734845,0.46986288223269224
16.47,-0.37653018809908323,2.222657797982798,-0.15701739272761606
16.48,-2.349669760007285,-4.917187536601245,-1.0586829325434948
16.49,-0.5134350478801464,3.06244032901931,-1.2836971531442214
16.5,-2.365566065320747,1.4543803223670775,-0.400794629134526
16.51,-1.3015099008266764,-1.5256725072043877,0.28545935700689995
16.52,2.4386597076674557,2.2051911793450225,0.6242025572342638
16.53,2.3551241821655116,-0.41946030965056025,0.9548781868211376
16.54,2.084838097252658,2.5619546075540196,1.6214916638749868
16.55,1.357643284406927,-0.7027659894252896,0.5770129940307229
16.56,-1.8837264133803002,0.032561826111723646,0.08199229147628206
16.57,-4.265461690686527,2.1269002157051116,1.035620416971816
16.58,-4.019077996266898,-4.149884303036712,0.4208051454012569
16.59,2.2502521179698274,1.39318218641374,-0.8982314721744499
16.6,2.29185236885044,-0.8098992524072988,-0.8009268823083094
16.61,-3.2849823303263537,-1.6681046671110902,1.2504896544664863
16.62,-2.971472644361103,0.9376914467327557,1.048020963757856
16.63,1.8429038202651773,-2.5826557933387124,-0.8206207255119147
16.64,6.450375351476867,1.3028681984036226,0.4290916557050124
16.65,3.3304355563647077,2.5864745719740094,2.096280360001586
16.66,-0.6883560622190119,-2.740928178175409,1.1136328349673803
16.67,0.7269532334349355,2.6101915799028266,-0.2986036923061417
16.68,1.1063766593413853,1.5486951967094926,-1.0368007609571916
16.69,-1.204263577807723,-0.19300895598128665,-1.833472932864146
16.7,-2.3192862381216157,2.2605615122098186,-2.6879919840297353
16.71,-2.4034265148793366,-1.8747870979498362,-1.8703984927571722
16.72,-0.9926378489031913,2.6549903616359742,0.9925800849523732
16.73,-0.49997444310936623,-0.8217480731786537,1.4367449503882317
16.74,1.6435782191604125,-1.1807626750118076,0.6913931806461869
16.75,1.0296319198954524,3.5410393564136156,1.5881865764743495
16.76,-0.6881023029813936,-2.6404242586719393,0.7404809171005652
16.77,1.182268163926596,1.058165169334523,-1.2197135842968665
16.78,3.3829181234350774,3.7449296207646023,-1.2650650806491812
16.79,1.4134071910131412,0.33146824570957545,-1.3395842945023593
16.8,-5.352298135654151,0.040322255319889644,-1.4037595787063302
16.81,-7.507806803007107,-0.9933422258204656,-0.9217387408062256
16.82,-2.247060229701413,-3.690584932181297,-1.3815061141465006
16.83,4.3523926011494725,1.4359751855306189,-1.674233167372465
16.84,4.9882535481917705,1.3373745184104977,-0.009219111019068027
16.85,-0.3859919061433663,-2.5712923414718794,2.0340247844942394
16.86,-2.305778168077321,0.501679720099018,2.570351593380341
16.87,-1.055884237537743,-0.6540785558079136,1.1119675558605642
16.88,-0.43395107464143523,-3.1939590596490035,-0.9414428894502938
16.89,-1.0325075616904633,1.0929511089597854,-2.7057246049470063
16.9,-2.4302891284556427,-1.0263419531298177,-3.22396865191433
16.91,-1.1674669388485643,-0.779967949604887,-2.5774661523275384
16.92,-1.0869138238751153,-0.8053717345957511,-1.49352115729892
16.93,-0.8315142997275929,0.12173734004690706,-0.09033476781421723
16.94,3.059160615432636,1.3195412273699163,0.2447238041918589
16.95,2.273950352955131,-0.47487646596230504,-0.19297093253546121
16.96,0.5033609586776961,-0.35500789160435087,-0.693340577410978
16.97,0.7297173718359726,2.399465414412572,-1.1155587083459033
16.98,-0.6990834128739224,-3.245341954746008,-0.8213445848503385
16.99,0.3090793515366921,-2.1301718593838066,-0.7947942893251185
17.0,4.014635791669309,2.5362692266045843,-0.96421159294107
17.01,1.1799961767389675,0.30948662976820307,-0.6919303526227052
17.02,-0.4674719515067549,-1.025292370265579,-0.22146305221120016
17.03,5.873262369090779,5.3504209119175945,-0.5662590250273428
17.04,8.71360425125558,5.287518229930449,-1.8388763403816673
17.05,-3.5230557181531044,-1.1565695629803798,-1.7568600703263115
17.06,-18.997188390858003,-4.194673264747665,0.5585689448949103
17.07,-11.96535344145075,-4.128233360622819,-0.5965815258083724
17.08,8.865617136893015,-1.8533748178404106,-3.6415519516560226
17.09,13.718700535922967,2.6031643813356147,-2.803538441744085
17.1,-0.0011246253909327208,-1.175185043701763,0.02472688528891931
17.11,-8.481165458827585,-1.2117302806844585,1.2179747490239494
17.12,2.470152556200391,2.5117880575962617,0.3975708993037671
17.13,10.406071034491015,1.7895005260875778,-0.6824223579054627
17.14,3.44141247171129,2.8989328858882777,-0.8676149534368831
17.15,-9.968173412746841,-0.8690735941191718,-0.9416335479335659
17.16,-9.816360925765698,-2.1435862659504537,-1.1129372569497773
17.17,-2.763004728862951,-0.4935412057711477,-2.14063407446827
17.18,0.4658472990499236,-3.533779701050632,-2.1169265562713826
17.19,0.9949062061953098,0.174203295852549,0.016920743033523866
17.2,1.674966802212623,1.5262705281297042,2.2520943147408765
17.21,7.780625026586266,0.478282534972972,1.7651442958348338
17.22,5.152096307480305,2.887222127312102,1.1940950107576846
17.23,-4.812997467683555,-0.740214308786018,2.2995584539762337
17.24,-4.032953634314859,0.25849365076124753,0.7768219698532732
17.25,3.244642044715404,2.6571590457888643,-2.424543942438432
17.26,2.193442989003896,-0.2879650701335712,-2.962613871428178
17.27,-5.853346081710212,0.9146583360431608,-0.9707297524131939
17.28,-7.210105291750899,0.31113296541824564,-0.4294380741502825
17.29,-1.9124420194355265,-0.7200275675294097,-0.1874902197718216
17.3,3.6700729849613603,1.6247966281372652,1.0111281479179108
17.31,3.4830030108093615,-0.9137985498039982,1.472052162848327
17.32,1.4905077153236808,-1.0521640201728801,2.089461713793522
17.33,3.0448416827785434,-1.4676592520502862,1.5144216462961069
17.34,2.663837230101066,-0.7194078360450337,0.7675020547793844
17.35,2.5147140161278663,2.226026807205544,0.2465511195658015
17.36,1.7304274419330095,-0.029605656339418474,-0.4074183277784569
17.37,-1.3965738223413837,-0.12621898081185123,-0.6986480271522945
17.38,-5.786013681519234,1.1916156384539518,-0.2453072043800955
17.39,-6.240984608807965,-0.9269458795177612,-0.6453631319004558
17.4,-0.11572256459333552,-2.089380888832981,-1.7273099849505709
17.41,3.53044252102228,2.2340578131354247,-1.085107375933985
17.42,2.4481992575808365,-1.5347210623580385,0.3866870491566976
17.43,0.10893758629163264,0.46950357272026655,2.0778416468391683
17.44,-0.6625426722065016,-0.02149220894082393,2.9914632750159584
17.45,2.1369213554400566,-0.17382790022805292,1.362739057482713
17.46,0.6110572006786386,2.2322877435572734,0.512272621502449
17.47,-3.838265502346492,-0.6512399403188667,0.6536328367022244
17.48,-1.725967783299998,0.20081187492911368,-0.09667690630271297
17.49,1.6778674986791928,2.672627550010607,-0.9610848910016543
17.5,1.4963741879180088,-1.9133459178085728,-0.7881660528904288
17.51,-1.8838648461668819,2.096636717647877,0.033690161293946086
17.52,-4.280818917322167,0.25426136472432925,-0.012074683107406024
17.53,-2.328223248123626,-3.976854220041079,-0.33709465882175554
17.54,2.2784130265698463,2.0367232387506933,0.2996844702876859
17.55,5.140052817401427,0.8597406519492394,0.1565097650383834
17.56,3.7198928809911145,0.01920130721163149,0.818931324367435
17.57,1.4994968510798623,1.1074352196017745,1.44953668668739
17.58,-0.35208349723980414,1.397264733394048,-0.29802349004077655
17.59,-4.428715118718165,-0.5420469678390998,-0.8438395855495402
17.6,-1.4282127230694575,-1.346180555065922,-1.1457330651398292
17.61,2.558051295986161,1.5956658765342868,-1.660716065241583
17.62,-1.2610367927949317,2.109418228577166,-1.110318709561878
17.63,-6.28738626856463,-5.142293141038702,-0.13872911354816286
17.64,-1.7435134400112746,-0.34262948139839633,-0.31918877073071616
17.65,3.033680404149443,0.5245176801670549,-0.4765773895860477
17.66,0.4560690370318965,-3.946417442665095,0.16621686139601144
17.67,-4.17485049157421,-1.1740965808130301,1.4347430589574586
17.68,-0.5083283719615679,-0.9676540595819683,1.5514368269715717
17.69,9.38389311462041,2.1470581443557997,-0.1549829746136966
17.7,8.327265594782029,1.9375871205605713,-1.5930816168338287
17.71,-1.2113692283501365,-0.8231400149275447,-1.6463210736721339
17.72,-9.958629337242106,2.40466731961133,0.12992189238700425
17.73,-9.512623812185264,-3.529362794099761,1.2002785053402583
17.74,3.068805211697317,-1.741793304326983,-0.9597614779045718
17.75,9.014973480379116,7.775845124543555,-1.217491750789076
17.76,1.3901252861196376,0.37633458147084475,0.22492199710718652
17.77,-2.400012487305644,-4.664097468068949,1.0086355803836802
17.78,4.795689054546145,7.998472490198197,1.2789168828200748
17.79,0.6066965144185312,1.976366174208838,1.4230141827087963
17.8,-9.09518697104663,-10.338778283572848,2.3967397697103845
17.81,-2.8336690510206726,6.895843054170058,1.5555458285827952
17.82,1.180426514365808,4.303868720034129,-1.3651525100110165
17.83,1.661007383029967,-9.066526017492098,-4.253340692362749
17.84,-3.306717253178718,3.6721771913393866,-1.4798094693489796
17.85,-5.966856976803587,2.891689763517843,2.538562874251083
17.86,2.8251601355726397,-5.258762061161436,1.6829864763776614
17.87,9.566992287372447,3.118289120999491,0.6475390368470244
17.88,0.4352651157478089,1.584155562425755,3.4979319952279373
17.89,-3.7840594244976096,-2.8772879762557073,4.194506435664534
17.9,4.421020911480511,1.6475336950644435,-0.11615165615606315
17.91,7.229624487093272,1.335473567100293,-1.9885849163252332
17.92,-0.6923131704743284,1.6914254133469924,0.4125192181751396
17.93,-8.387790090049215,-2.2140927942385895,1.6980085216278595
17.94,-4.4753570905726425,-1.3048051290524032,0.3594165125679911
17.95,2.224665522722352,1.1729619456046043,-0.4410301279010528
17.96,0.6620683762799516,1.8095353148126314,1.0499749919338075
17.97,-2.0833721677523864,-0.14139294820515222,2.023873790040658
17.98,-1.4925976324849202,-1.6453962107496274,2.104416293011814
17.99,1.8354458405023872,2.8850471096885224,2.6157319733940136
18.0,5.370783075240363,-1.2172693772617182,1.7890206309121435
18.01,4.994029395140075,0.15724134756660385,-0.14687717353541202
18.02,-3.6841522256313315,2.682528225195975,-0.20081549906235696
18.03,-12.741928872787947,-0.2625496029476919,0.7273190024183306
18.04,-8.393094615668739,-2.6606549381580065,-0.06449317724249747
18.05,3.531998366073812,0.4414124020259703,-1.0284711468405852
18.06,8.38600771150163,1.5943296801692481,0.16447834813226186
18.07,1.224075829705833,-2.6981186636281773,3.6325164729291544
18.08,-0.20849044364570354,-2.1638353507964494,3.700428107134609
18.09,6.530159107651522,0.860304849032785,-0.1209639266070205
18.1,4.618128182012645,3.587514794988687,-0.6402840358544333
18.11,-4.905722468181524,-1.857751540040259,0.9225277379560486
18.12,-2.7482270239885946,-5.9561657490219,-0.3588744488227556
18.13,2.397544939332307,9.467271102362025,0.4040037817496347
18.14,-2.417146075954837,-4.03041742922345,1.8750252413085449
18.15,-3.958974768026518,-9.011378864040672,1.0011196791126606
18.16,0.6193844323346869,7.458073369262078,-0.41376192760178654
18.17,0.975572510140485,-1.3529858270998076,-1.6313435600230515
18.18,4.425041721270306,-4.238928659617952,-1.7067928630623082
18.19,4.9817578001812395,5.990318708864209,-0.5964116406745047
18.2,-3.8551368387370415,1.5256696897713267,1.5736542853970223
18.21,-6.235688976473056,-3.9520453999656353,2.284543574039777
18.22,1.3905861798623502,1.2488194142404412,0.5368278276756109
18.23,3.1400676678974673,-0.09350714928658709,-0.444805003286539
18.24,0.7657209514569397,-0.5029851574667786,-0.42815197165515484
18.25,1.1964755784248537,-1.3910847643615896,-0.19766733136680273
18.26,2.0878170528535267,-0.2824125506779116,0.21481986824360094
18.27,-0.5062556022304548,2.0091152843447864,0.824063237038745
18.28,-1.5312128756670587,0.19787805104156392,0.8806477270506843
18.29,3.730053503536666,0.7530659270336947,-0.43876858279386993
18.3,4.819306273467896,0.0645101772174653,-1.5769107253674215
18.31,-0.6115000066512674,0.7548101886973133,-1.6056922456885347
18.32,-5.754250898888743,-2.8742624826880716,-0.29961119662670455
18.33,-5.580245794825873,-1.1091244284671353,0.7538386662442659
18.34,-0.4553578056890893,-0.9822450076943412,0.7878346242685684
18.35,7.303358893574399,0.8427199029694415,1.3989232257139732
18.36,5.933177892532681,3.883191151779118,2.550606541719082
18.37,-3.6809455664663018,-2.392429669725184,1.6098533104369932
18.38,-11.973037732255822,1.221174846199359,1.5430113614878433
18.39,-5.575965325789836,0.6759638947097714,0.051253940474682666
18.4,3.0172452573137094,-3.194708347508339,-2.7997614054251643
18.41,4.563232478794622,1.7599897459514653,-1.462959538987264
18.42,2.3154325364713473,0.4858694687804832,1.7062686751108802
18.43,-0.4795420664579648,1.9233472407290877,3.2750606316341377
18.44,0.3863217750795085,2.387389082707354,3.3921828437976744
18.45,1.4555938982076118,-0.5654719305181655,2.736150933727579
18.46,-4.359614726466435,3.9653873791928502,3.1911150005505955
18.47,-6.494065781591018,-2.5466593178960104,2.9592610610556833
18.48,1.4420819279530688,-2.710540175381109,0.742683035755019
18.49,5.657840381109642,3.0782652439324085,0.24362188610519864
18.5,1.7770418579096683,-2.0224206795756197,1.4165825159023449
18.51,-0.2417650051047336,-1.4507253115198964,1.3577788814336411
18.52,0.04184131144948676,0.9628599387768029,0.663085694387382
18.53,-1.4575440354352924,1.7657777123854432,1.8708801118719158
18.54,-2.7697009330884788,-1.715085519545681,2.6546842662475756
18.55,-2.8015994258067045,-0.7590757238292001,1.113220238358321
18.56,-0.9174963433572035,0.8414327108049672,-0.13061313573322775
18.57,-0.07463570816145898,-3.238294565031991,-0.6365917740977198
18.58,1.341271991179421,-0.5376985915679424,-0.7142056451667631
18.59,2.134015446327057,2.2285911967122303,-1.066799154969849
18.6,1.145981339529504,-2.9181522354920197,-0.5228432362821147
18.61,1.904764229401707,3.262812999953477,1.315726043139543
18.62,0.8173182632694322,1.397816821070175,1.5603160365979838
18.63,-3.340747324613583,-4.210702940900046,-0.03835736385665633
18.64,-5.640338509835707,1.0104177535593797,-0.14060259571026626
18.65,-3.6437094653992443,-3.503145402302602,-0.5118245639538459
18.66,4.641142925225549,-3.0043561192536634,-2.461912898385675
18.67,4.266783039656493,5.146136171919985,-2.3591087492862517
18.68,-3.7549581669498617,-8.095914141157472,-0.4272633412431734
18.69,-1.1042873163984377,2.780788139600921,0.6122368602437666
18.7,1.703701539689564,5.2053324664254434,0.526557956197703
18.71,4.491295125129767,-7.208588816993174,-1.0864322753046394
18.72,6.29587801843196,6.67979529698787,-0.2833085652190852
18.73,-2.323769982629777,4.453176299923434,0.0021955079024600505
18.74,-7.450902011940466,-8.584857532365639,-1.992790753111317
18.75,0.10790614701575066,3.681229173018693,-2.735505948513139
18.76,1.7034308866539274,1.3492815625495824,-2.721440311588441
18.77,-1.21448083648275,-4.452450669907303,-2.1748100857165795
18.78,0.2556292435957662,4.874751992280868,0.05132824604046153
18.79,-0.16495922294494392,-2.2226016291608057,1.8328400865645178
18.8,1.439005830973888,-5.363720337096905,0.5931760309885407
18.81,3.628122076676849,1.7823695272560367,-0.6027776549182767
18.82,-0.1472460159768903,-0.8142124446294139,-1.0542055217327526
18.83,-0.355716431680501,-3.266199426483732,-2.3767620570771264
18.84,2.637477185452581,2.5099242821091345,-3.491000590778919
18.85,-2.5321252315406,1.6121831859954272,-2.5388337625125676
18.86,-4.200750447028608,-5.527786830124985,-2.1443656910818762
18.87,-0.27139145373974594,4.1482588937338445,-2.3992833854496602
18.88,0.4948473717025442,0.3764610801728229,-2.2759660064302234
18.89,-0.0639254126372986,-4.157433140638859,-1.6173847122626663
18.9,0.3675136724163878,2.968878828464205,0.17719739198099016
18.91,2.4693198105527463,-1.3241273876008026,0.7221541812774585
18.92,6.374048577248035,-0.2831662043517795,-0.3348237766627994
18.93,1.8512126430115108,1.934341889770431,0.650274722443603
18.94,-3.71822473356044,-1.4391001102740988,0.8065203834413013
18.95,-0.06307202931927647,3.44674567502891,-1.3836562712581366
18.96,9.179893196680693,5.920294847539442,-3.0454407452093046
18.97,15.644144187531671,7.10145942108163,-2.3322585851039817
