seconds_elapsed,z,y,x
0.0,-0.8875885009765625,0.0048675537109375,-0.1277923583984375
0.01,-1.515640883719917,-0.1499722630270125,0.08888525623233882
0.02,-1.1978893650497218,-0.48214546661648616,0.09139391700967321
0.03,-1.217298248683935,-0.3481500375117367,-0.06959665715948848
0.04,-1.2978409411825431,-0.33137825525436576,-0.1828088588009916
0.05,-0.8003264692295868,0.040575108718327105,-0.11713968376380168
0.06,-0.8527300016820478,-0.7245042511639357,-0.08392234294818497
0.07,-0.5230442965430735,-0.5624684136779226,-0.030617876148290896
0.08,-0.4472474342033685,-0.7873976255940183,0.027413370868001642
0.09,-0.19117899036453373,-0.5922915979018968,0.08506915904692179
0.1,-0.7882815620987759,-0.21760707609639773,0.012467425713035215
0.11,-1.2941432714982666,-0.5091596740397863,-0.3346370494298158
0.12,-1.4279569654623265,-0.7024971559337894,-0.28269027625769544
0.13,-1.0866865457824706,-0.9972838098123937,0.07341419240179858
0.14,-0.5423768904013964,-0.5689345972197098,-0.0042886537548502855
0.15,-1.0130550934451097,-0.10797287917637176,-0.043748880009225916
0.16,-0.39171737302673043,-0.07002960393679165,-0.030265266997734023
0.17,-0.6790101199329981,-0.18587452957894535,-0.032715354920928114
0.18,-0.9442281313262745,-0.6130010572301815,-0.03984531000687307
0.19,-0.9208366239675744,-0.7158452201575972,-0.02697909094959531
0.2,-1.4797405358460376,-0.8818946487549084,-0.17506671542993335
0.21,-1.2769266462467646,-0.40901550836308953,-0.11186354096636994
0.22,-0.9699799238868748,-0.31500219442144684,0.08727464143812576
0.23,-0.6572045409869047,-0.7716243056098404,-0.012429976617670114
0.24,-0.4725438732247169,-0.7737822402615856,-0.09071968891397832
0.25,-0.33485009348904254,-0.6987292832525619,-0.07544415919060854
0.26,-0.7011973320114944,-0.2982844402188762,-0.10343891716818063
0.27,-0.6957413702051823,-0.616876440744073,-0.36344889235600336
0.28,-0.8637659879684605,-0.44766103170839233,-0.2720609048407533
0.29,-1.2075745985043826,-0.7389028402130944,-0.17027411143736945
0.3,-1.0894860125084742,-0.26083191741253325,-0.02103690198271654
0.31,-1.2374296164731697,-0.19101382463122923,0.027785823033844886
0.32,-1.2882691267897954,-0.46267549317514933,-0.07068033908549295
0.33,-1.0286415931800454,-0.7099048592516104,-0.12395189164825994
0.34,-0.5558849122914478,-0.9554882105692928,-0.16108127254959861
0.35,-0.15728076607758806,-0.4123154053249364,-0.17406344624249345
0.36,0.05565295352981934,-0.47227342631490904,-0.26723285887795567
0.37,-0.32727441793324186,-0.9554719425357241,-0.3298046062664987
0.38,-0.7968826855260159,-0.5411218823183136,-0.2511676270423313
0.39,-1.075267341198943,-0.6859983036700084,-0.2325566126970233
0.4,-1.6526839167761613,-0.36647475157829906,0.02900651942283998
0.41,-1.2423559319441162,-0.42378690725962803,0.13322995376516827
0.42,-1.4737511893593933,-0.539508783655911,-0.06530661355610451
0.43,-0.9456176851369535,-0.534509943453997,-0.1788252240525746
0.44,-0.3232013967333397,-0.3733471583591274,-0.07095339832901268
0.45,-0.3302906860387161,-0.10337945145898038,-0.12514455659445656
0.46,-0.5944657725213625,-0.8226741489906225,-0.3915998594700623
0.47,-0.7218423097050809,-1.0336827441975796,-0.25943883768413967
0.48,-0.5966973153547481,-0.657273486915588,0.07116632349050352
0.49,-0.9309502148466596,-0.181096218350067,0.17520595716597762
0.5,-1.4400369911965836,-0.06220527241956293,0.05905360742850399
0.51,-1.3896020279693837,-0.4182368284677445,-0.12271013871723205
0.52,-1.3405176353193402,-0.5521076360309539,-0.0196191070359116
0.53,-0.9053282525367562,-0.36760951314038265,-0.02955752689508267
0.54,-0.9108367968571321,-0.37098504754683265,-0.15414291147950854
0.55,-0.5756091528928774,-0.3221541904855214,-0.04886490835126648
0.56,-0.5577021301879983,-0.559633009148847,0.06624901217527929
0.57,-0.6013958714039491,-0.5806565051427662,0.03818942595669814
0.58,-0.5972655208198452,-0.3929230688318168,-0.008079029238166752
0.59,-0.981540953479149,-0.5882712014871373,-0.06589990899868892
0.6,-1.2141687416763618,-0.6982762252721121,-0.12642292960475882
0.61,-1.2435831152370251,-0.4823607668692417,-0.09025220009779589
0.62,-1.0777724930088601,-0.46969824976744723,-0.04138954503877963
0.63,-0.6851944581934771,-0.6833671332575195,-0.002425574171140882
0.64,-0.35330098250499603,-0.5727545218859597,-0.01843740080961649
0.65,-0.15753963954606395,-0.38479338682777725,-0.0984813996577452
0.66,-0.21270724336414498,-0.257673080561024,-0.19085054133759946
0.67,-0.67472874755716,-0.46773773636421145,-0.3542563730486209
0.68,-1.289469506072441,-0.6020845167392173,-0.3166016815017906
0.69,-1.4197416426456313,-0.7501770217109387,-0.0068055722216857194
0.7,-1.1659895868260404,-0.6025351893310601,0.16770015601950977
0.71,-1.1363910688520724,-0.3234836506520983,0.04063795088601537
0.72,-0.8733210485893235,-0.26726944690098825,-0.02406457205187769
0.73,-0.5108157152846238,-0.38032217401832447,-0.04087593388457424
0.74,-0.5411964882021107,-0.6451989395234383,-0.14250522289459225
0.75,-0.7191074616919233,-0.6829084535525081,-0.1472084772331166
0.76,-0.8088526341394325,-0.7583226892143776,-0.028322032327233983
0.77,-1.0006438816054055,-0.8153647043309092,0.12143874270719611
0.78,-1.0159881192140972,-0.5815925317487445,0.2274385107623175
0.79,-0.9263456276123879,-0.33058681903416065,0.13666412543616976
0.8,-1.0622613005225592,-0.19477848579220927,-0.0076207010443214655
0.81,-1.1713811332907809,-0.5155222104860864,-0.09600102015048248
0.82,-0.9823217524352336,-0.8140727884370648,-0.07752663422494024
0.83,-0.6259227965699871,-0.825157141391368,0.025590951192969804
0.84,-0.37033929783902897,-0.4837795955020885,0.1445107285659078
0.85,-0.2843309402091261,-0.04017832701587356,0.09621720578783254
0.86,-0.8038104339652005,-0.5110474036958799,-0.12637171184918447
0.87,-1.3522149972547393,-0.752598840279628,-0.21309536520503689
0.88,-1.342143818610355,-0.8015525848556293,-0.11239846191948709
0.89,-1.2322766962759526,-0.5263973806301707,0.03987139993617176
0.9,-0.9234165074057964,-0.2550888546113204,0.022595679376721068
0.91,-0.6188395454225256,-0.4100725970335838,0.029498984818055216
0.92,-0.3045786089403408,-0.24687636365491533,0.037233067178671024
0.93,-0.5524501615773815,-0.3214320809515741,-0.1446080049607326
0.94,-0.9372527477421352,-0.7205823790492775,-0.3384396611160308
0.95,-0.8461198932123127,-0.9331175968977758,-0.23776286991297965
0.96,-0.8624578288472718,-0.5591466812755239,0.07115838498205092
0.97,-0.9125428516911089,0.07488081177841209,0.16296884455541408
0.98,-1.1273173344166456,0.06551464097940012,0.02544528470628086
0.99,-1.4952365934369052,-0.5586754235889153,-0.09661840536510799
1.0,-1.4000650667457373,-0.8802068754110077,-0.00997024006255655
1.01,-0.9841065057848879,-0.5860992799863797,0.058769405695065
1.02,-0.7836578758328653,-0.41144697178805445,-0.11535194233249944
1.03,-0.6365739812377617,-0.4990864407234213,-0.15590418376224094
1.04,-0.5157590574633049,-0.5994315423957577,-0.09370300710576888
1.05,-0.5147906827195896,-0.6682319118141811,-0.13611225963148588
1.06,-0.4232881522445512,-0.7161738029152065,-0.19008119278896743
1.07,-0.2872252689756252,-0.6038499315369706,-0.13723272713163145
1.08,-0.6054434007635914,-0.46097086912864926,-0.0759695189456711
1.09,-1.1311621917610726,-0.44735743219721225,-0.19332006498249038
1.1,-1.4589181787386756,-0.37668676827266895,-0.19627207336368133
1.11,-1.5011260878555803,-0.44783845377219783,0.05205057648224675
1.12,-1.1516298837855148,-0.48264059566123513,0.07508740039783879
1.13,-1.0100724140007704,-0.513703039213041,-0.05472099816117549
1.14,-0.6388175179264198,-0.4926396104806733,-0.022227845426791626
1.15,-0.4289661172179806,-0.21115048537736297,-0.05463405475812408
1.16,-0.6701059152454129,-0.44932564684313686,-0.30001743564368977
1.17,-0.6495188465534181,-0.8534580168593804,-0.3598360986318904
1.18,-0.6395955616196888,-1.1193166578987088,-0.18487697015308274
1.19,-0.7118223671880987,-0.9093991884084857,-0.01620186081264067
1.2,-0.8611915806168515,-0.05966763779884916,0.056461632848138085
1.21,-1.0316349674678995,0.05691795281773759,-0.16159053987342756
1.22,-1.3476655568321836,-0.3643419081677743,-0.37074194912234654
1.23,-1.1497013869650188,-0.8733706115997468,-0.27832931150333895
1.24,-0.6904363514326239,-0.7916640965921137,-0.17907087068967617
1.25,-0.7606662752488904,-0.30021527376231255,-0.26395873843813983
1.26,-0.7472490160279949,-0.2353970428597562,-0.31198339521921986
1.27,-0.6741287384122925,-0.43887071121149107,-0.1809596027466639
1.28,-0.7309444087707404,-0.929621648386054,-0.12129054893715861
1.29,-0.5004348455500645,-0.8794509386978431,-0.13006796911465038
1.3,-0.82391860846642,-0.4096732952559449,-0.08887633843261125
1.31,-1.3409715240459994,-0.3526896633352148,-0.2288628140921029
1.32,-1.2017147285389418,-0.5651905284736429,-0.24915914536460265
1.33,-1.1415055655380368,-0.744853264149659,0.031660796913271304
1.34,-0.5664249994205497,-0.6343809744880318,0.13564432259048317
1.35,-0.3685310188638579,-0.38984102245781566,0.03464587538857744
1.36,-1.0159640447845248,-0.3620560398891306,-0.13128793382259402
1.37,-0.6814443024824395,-0.26806886225082777,-0.18489049372389882
1.38,-0.8687521826173545,-0.4174606584440051,-0.04478658945957086
1.39,-1.0232765316753192,-0.6036068705079108,0.014489318521349397
1.4,-1.1552306638677992,-0.572794213403181,0.019861964746745637
1.41,-1.3784999461975502,-0.43607015312247505,0.007940695382630708
1.42,-1.1037674848300454,-0.33419189318410775,0.02163066493544904
1.43,-0.8469003980852783,-0.44828417686141886,0.02420867282268343
1.44,-0.5689905335259324,-0.5183985632376629,-0.07332384887168268
1.45,-0.530588505898146,-0.3942715867678888,-0.139709272828077
1.46,-0.6640650371441291,-0.5820379461146039,-0.14119232376814303
1.47,-0.7871910809037974,-0.6351265837706258,-0.04137303954030916
1.48,-0.9252020884545755,-0.4309900644309599,0.05980633670801917
1.49,-1.1375226597226962,-0.4960520050965141,0.05421922750374752
1.5,-1.0961210979412828,-0.3070449554051021,0.04902474726729919
1.51,-1.06299764458932,-0.6150448022743741,-0.13352707985053008
1.52,-0.9016978978783697,-0.8034770779219594,-0.26340656531237283
1.53,-0.4752787050603986,-0.4636389298465169,-0.1523982918634698
1.54,-0.4303839118812316,-0.13369453509700552,-0.14970007713405775
1.55,-0.6275183662728191,-0.2469220290419707,-0.2909847399565768
1.56,-1.102849673815434,-0.9443185044970418,-0.29310776870139504
1.57,-1.1396648994038945,-1.0210983940606462,-0.08429534369492998
1.58,-0.9253229804210031,-0.6901809592848692,0.06348813400404614
1.59,-0.7972373774357386,-0.11590111241919905,0.13732377155800682
1.6,-0.7525164567258122,0.3349721294738761,0.022781106013531133
1.61,-1.1967563313402116,-0.4701674208180443,-0.28535842568061426
1.62,-1.2324632262248254,-0.9234003175773885,-0.17994779754024384
1.63,-0.8425492786583297,-0.9510576399177558,0.08179933377124181
1.64,-0.7947868588340276,-0.5198492092316174,0.1924195964459614
1.65,-0.5981855688791349,-0.3235855998794211,0.18567031345800558
1.66,-0.532500999165339,-0.6058228440930113,0.1832064929730598
1.67,-0.5555024376582481,-0.6716740429043375,0.07019043193273952
1.68,-0.6247103213854508,-0.8697185025662107,-0.14509210208817325
1.69,-1.0056598997124537,-0.4478979808620743,-0.1466824960212927
1.7,-1.1496347320949465,-0.4679666936652815,-0.18069561217474212
1.71,-1.2818481915308555,-0.6117634354967796,-0.051875194075570195
1.72,-1.1234834637059818,-0.508626120083621,0.062183869056346784
1.73,-0.8957449862856423,-0.47205975652398824,0.038233965155107776
1.74,-0.5853290467585813,-0.3932347592234842,0.007373261516624803
1.75,-0.3771977708209643,-0.764208103088701,-0.07388283210908474
1.76,-0.5040572213031813,-0.4948971340276469,-0.1389677329509603
1.77,-0.6301319510744393,-0.37789301940546993,-0.30898409598896787
1.78,-0.9404890102710398,-0.618047443679519,-0.24060646253215504
1.79,-1.154180586000333,-0.6758101277494639,0.03715258422321359
1.8,-1.1686649133996858,-0.7891347759534331,0.09588150894473776
1.81,-1.2205603864505852,0.0011054245582376237,0.057280389125448784
1.82,-1.0568939732891667,-0.12288189671063872,-0.06497246083269471
1.83,-0.9985098858452252,-0.4241236641239207,-0.11414261043877783
1.84,-0.9044033856585688,-0.6042027135724949,-0.20137595419370827
1.85,-0.8108349190249562,-0.6794385813438777,-0.2338344695128064
1.86,-0.5919470922700026,-0.5657598537769462,-0.11744324300768044
1.87,-0.5665586994329028,-0.42709815467087314,0.013407556968993862
1.88,-0.7430816984934052,-0.5338608414513301,-0.0056096706199453925
1.89,-0.8825899424690268,-0.6244525734008529,-0.1474873929283871
1.9,-1.069098541636943,-0.4904045298073084,-0.16619013561228638
1.91,-1.0708473778856238,-0.5323947803960503,-0.06470038204632227
1.92,-1.1213526793947024,-0.5683170691419384,-0.009499064526777401
1.93,-1.0953620794063925,-0.5773844788521302,-0.020284400040411356
1.94,-0.8264210517439136,-0.3098049781265347,-0.027915650731281102
1.95,-0.6658272768484581,-0.4726754814029205,-0.022422763584221572
1.96,-0.5687038157338625,-0.5018468748054057,-0.03194012574664097
1.97,-0.7733083384069737,-0.5328941304051668,-0.10894462925230211
1.98,-1.1377627859401214,-0.6951472915011453,-0.08971510107479906
1.99,-0.9842958934919666,-0.5081666939301426,0.04728390493647434
2.0,-0.9673078489040459,-0.495429809495467,0.17958907847165712
2.01,-0.6441091230998022,-0.4617393273616884,0.1654878122001568
2.02,-0.6152420807333809,-0.6629991626795135,0.09233927899819472
2.03,-0.6204738371361984,-0.4930710652794266,-0.010729993566409983
2.04,-0.7929076879005873,-0.22876164303688476,-0.1452601247378927
2.05,-0.87747446209489,-0.5512528332490069,-0.24805576623080566
2.06,-1.1310733221127467,-1.0223080045876485,-0.07396655861997474
2.07,-0.7744381173121772,-0.5821690019694641,0.18787349736001702
2.08,-0.9374332461657181,-0.4216510090894527,0.22329237789926937
2.09,-0.981980509212576,-0.1770301124314426,0.09264752779240581
2.1,-1.0926452580585753,-0.4354175205101794,-0.06797152670666337
2.11,-1.12426602852117,-0.7371574141404561,-0.10823267367345152
2.12,-0.8284601297990908,-0.6965452163902951,-0.07462749290354678
2.13,-0.4828947885658627,-0.7891470707232187,-0.01609845467355565
2.14,-0.384878747730733,-0.4669293721828716,0.04982783819838407
2.15,-0.6267162605152111,-0.6617139232890444,-0.12041934565137201
2.16,-0.6856921807630092,-0.46060209104031347,-0.2594833673391159
2.17,-0.8032856560571884,-0.33252433248272273,-0.23208300264827827
2.18,-1.1059770413840204,-0.9763427545023279,-0.12337710526685627
2.19,-1.150796526377362,-0.7575649266620356,0.0581099066158184
2.2,-1.4183020955654564,-0.5133965327409508,0.0019058091326723432
2.21,-1.0665646392320873,0.041998530763847346,0.06769742926165849
2.22,-0.831081429672915,-0.15415303464345886,0.06774483378179096
2.23,-0.8294071315760271,-0.6278627435670259,-0.09724287549863572
2.24,-0.7417778100271541,-0.6984305320379464,-0.20564840554167316
2.25,-0.8075470470648036,-0.8209065375011485,-0.2640465864930653
2.26,-0.5875560168497977,-0.38840165792177966,-0.0022158713487780823
2.27,-0.3724595439075803,-0.2708287788358303,0.13392162666812293
2.28,-0.6700633169433043,-0.45181664518469894,0.042169957238517346
2.29,-0.938535861279003,-0.6153175882588476,-0.09908541007541433
2.3,-1.1458158004698,-0.6734824593170434,-0.12742990228463147
2.31,-1.0724940053821725,-0.19961971879369927,0.07999001208878849
2.32,-1.0676583718008508,-0.2879753793855122,-0.02302602162093146
2.33,-1.2770392073821948,-0.32776760694815804,-0.16945193752673646
2.34,-0.8661701943814761,-0.31679623471081364,-0.06850284541335346
2.35,-0.7243320438800561,-0.6537587075346307,0.026790525439817046
2.36,-0.62862581946522,-0.570971219397818,0.00988831277428509
2.37,-0.7715492009970475,-0.6526904678578836,-0.16344626384012972
2.38,-0.7142893826303477,-0.5038848524455884,-0.12518149228877917
2.39,-0.6744431757485501,-0.5459666095661858,-0.14966174781643485
2.4,-0.9060070763060838,-0.5793253520855917,-0.2885144252227172
2.41,-0.9415132501299043,-0.40478884156096323,-0.2006461789372776
2.42,-1.0984444483863856,-0.4399848988692183,-0.11349333919750784
2.43,-1.0011396135603248,-0.5150985244386297,-0.06992587839730456
2.44,-0.7469989863149477,-0.4188145034200953,-0.10582228089313747
2.45,-0.7639792447209788,-0.34073481882614687,-0.15068010155773917
2.46,-0.771738536841685,-0.6530821743514327,-0.30215492945518324
2.47,-0.8943805853635125,-0.6502021659312966,-0.2837674992248308
2.48,-0.7943571841709507,-0.5828666012481911,-0.09133042532562435
2.49,-0.7796737312039574,-0.336942066570848,0.07292947044852764
2.5,-0.968076066719324,-0.35926813047257167,0.0404975184774704
2.51,-1.2858194729522505,-0.4070208068452428,-0.05629735164181328
2.52,-1.2848520580411178,-0.4568201809993562,-0.058934055611379044
2.53,-0.8621968577511342,-0.6251460519378483,0.09959239072838379
2.54,-0.4028531890863326,-0.7297582426139888,0.10537790227737959
2.55,-0.25587985302471467,-0.9424427171400185,0.016472145141374794
2.56,0.049200905408070955,-0.5155930548458202,0.031429795662006016
2.57,-0.14330672048317644,0.12512361396698307,-0.0016934823433602938
2.58,-1.052884738796465,-0.5472134990184582,-0.26802032675039417
2.59,-1.7177808799721022,-0.9487071129794536,-0.11473312368578421
2.6,-1.312677737051284,-0.9636476773808175,0.11292296258616441
2.61,-1.4608725513550915,-0.2009348091904069,0.02648848319768267
2.62,-1.1716687677830042,0.2368842241298918,0.07536918410925755
2.63,-0.7656978991116971,-0.3144645990284917,0.12356684660245172
2.64,-0.8314493855021137,-0.7831762833772584,-0.004923350172156897
2.65,-0.6437239295748344,-1.132093674713875,-0.1738891354590118
2.66,-0.2890230015346123,-0.6925850383260684,-0.08128146846919428
2.67,-0.28588180137837743,-0.48098213326021466,-0.0302679141596245
2.68,-0.7560958128852967,-0.7258444687467496,-0.13265821469257721
2.69,-0.810087606966813,-0.6390161660461599,-0.1856753538167966
2.7,-0.9891108220432494,-0.5698135069873564,-0.15100949620277887
2.71,-1.2623876736077824,-0.2258385579327801,-0.00021328924334892505
2.72,-1.326361640495871,-0.16559857064116854,0.05274688004486079
2.73,-1.4116711822942294,-0.5578800779735176,-0.08568826275756657
2.74,-0.9723965931295524,-0.4424837526677645,-0.04390783162127161
2.75,-0.552356217113655,-0.21594593789528416,0.0439935306476704
2.76,-0.4937310363228555,0.037297740610539316,-0.09077123792623976
2.77,-0.8181425901747813,-0.4852150821274946,-0.3558399668681229
2.78,-0.9823104598316362,-0.9164487654207937,-0.2893940814385501
2.79,-0.9026536288531664,-0.9086827754694433,-0.01380295629057786
2.8,-0.9639618507446044,-0.3862435851340278,0.13678473196024232
2.81,-1.0323088778592189,0.003587784897283035,0.05124018307831673
2.82,-1.1524328857116555,-0.48253865211124264,-0.0767234714680868
2.83,-1.0869435858020438,-0.8153589726523508,-0.13659032335555002
2.84,-0.8913525113703279,-0.6016088193594348,-0.19086143170889536
2.85,-0.6415747675635051,-0.15460172970901115,-0.14624279022965336
2.86,-0.4633298009101743,-0.3843364292717643,-0.12867140924321005
2.87,-0.5401478368032834,-0.7097047357892706,-0.07647754737018257
2.88,-0.6250880396503787,-0.6437609053041534,-0.043774590764466825
2.89,-0.7852392752356943,-0.653225757852604,-0.09798811743581212
2.9,-0.9746910845131433,-0.559651284445185,-0.0678434358850941
2.91,-1.1795958626920413,-0.43243320486141074,-0.05005428311869954
2.92,-1.274710291667357,-0.4156145002646389,-0.0694605494471635
2.93,-1.1315461267834939,-0.5948780636846527,-0.0553331186146191
2.94,-0.9163188937600839,-0.45445516037840283,0.04847970519308132
2.95,-0.7085770948835609,-0.4184706805615798,0.03721949042400599
2.96,-0.5984544265684572,-0.6225556389874197,-0.08875046090701445
2.97,-0.44510912544380843,-0.6183035949503615,-0.19561856677537773
2.98,-0.5493880802665969,-0.5947724009951691,-0.24860659223401096
2.99,-0.7897994415839916,-0.6185965905686827,-0.2525635338166491
3.0,-0.9357657893769737,-0.5917195126849187,-0.1942301456989553
3.01,-1.0101135363175988,-0.928281694621443,-0.10399271662107053
3.02,-0.7181057202253962,-0.5851189478273904,0.0648816703828933
3.03,-0.7139035756853117,-0.1116369111598698,0.02114709798373624
3.04,-1.0310991858650251,-0.07812754612517106,-0.27608198106391885
3.05,-1.1155760120833225,-0.648368776509505,-0.4607715236680327
3.06,-1.1022570993425602,-1.120349467537482,-0.2735088801931852
3.07,-0.6326788669711464,-0.7090265043160809,0.004084496351212357
3.08,-0.584496059172107,-0.32180172375860755,0.0708995115091935
3.09,-0.7273730127769715,-0.13062153158173467,-0.019285965040611648
3.1,-0.9377001028376031,-0.555714770955442,-0.18863994784741478
3.11,-1.142745708984286,-0.9743433161439763,-0.2296765031640962
3.12,-0.9617862041387253,-0.5592217186812488,-0.06756183261747652
3.13,-0.990235088226804,-0.4246217444343775,-0.05411507781229627
3.14,-0.9425361084134907,-0.5934549498426351,-0.16692952411589312
3.15,-0.4779578815509813,-0.6380845360489876,-0.04279023358168224
3.16,-0.15735130018176743,-0.35795331614057035,0.023393076776373038
3.17,-0.43478316018358437,-0.007208749502806356,-0.2010002981944955
3.18,-1.2763228301373293,-0.35818613466618815,-0.409165730961917
3.19,-1.5395465918657623,-0.8250142124720883,-0.17850447626078086
3.2,-1.3056310751961195,-0.9037057667174679,0.20686186385788785
3.21,-1.0757543758203647,-0.43587911843250304,0.22293128204815787
3.22,-0.852299036070584,0.3897998464843143,0.10259673721215533
3.23,-0.7642542922197579,0.2226729888263405,-0.10936703998270385
3.24,-0.7587864662942995,-0.6823191372516761,-0.3405026926686473
3.25,-0.7535414176861943,-1.1090246582031305,-0.33779057037899246
3.26,-0.6163937825121684,-0.7981997585239354,-0.10783145719776467
3.27,-0.6405430994029768,-0.47606365281410384,0.10802760817529523
3.28,-0.6983279757613665,-0.4159973268023722,0.1540246222780796
3.29,-0.8579113597095105,-0.42932534849312937,0.079456340572013
3.3,-1.0703653030816258,-0.6150932359724354,-0.0937183668743209
3.31,-1.2285597338871759,-0.6102800939933302,-0.19975067050358175
3.32,-1.2761685422104523,-0.3604539459959539,-0.18199830095465275
3.33,-1.1136949265303289,-0.2592323090853105,-0.08292148049811372
3.34,-0.8512388465538019,-0.45686265417011923,0.07053818765725073
3.35,-0.6495591091247435,-0.6320256228654456,0.11607366902196165
3.36,-0.6212216759513679,-0.5085280584733112,-0.008950564822424284
3.37,-0.573533874174957,-0.41705920679592146,-0.200717724788956
3.38,-0.45599823529426403,-0.6611794327107943,-0.25997844948263477
3.39,-0.46509162187340836,-0.7854299004554751,-0.18820819663890606
3.4,-0.7336836789970629,-0.37225197572796537,-0.16624494242711502
3.41,-1.2266922956894901,-0.289412429457397,-0.16277956240495053
3.42,-1.6517005232782058,-0.5469681409207731,0.0847564723460615
3.43,-1.3781201813720587,-0.6550136863284823,0.30957060887435706
3.44,-0.9123085295894686,-0.8273218524252273,0.11822892058618337
3.45,-0.46090014152668596,-0.39207669411237495,0.013951854731053549
3.46,-0.08134622198675324,0.11126321189874068,0.05240335149175397
3.47,-0.7029351677311491,-0.21161171649504218,-0.21450520965047498
3.48,-1.4611215080633262,-0.8967486488740762,-0.48210039413836087
3.49,-1.1213016804240703,-1.370120486990904,-0.19509226150566664
3.5,-0.3465418812807317,-1.0282253593190154,0.17641708526697816
3.51,-0.0958338124586696,-0.2679130676757846,0.2218258406910005
3.52,-0.7605942468098555,-0.06297125660698467,-0.010226792777173538
3.53,-0.8953067422630224,-0.3043681289606894,-0.29458072253047435
3.54,-1.4399607080043118,-0.9209680779904981,-0.15458192875840426
3.55,-1.103707895621607,-1.048529029383734,0.0458176575245753
3.56,-0.7702853092307729,-0.46414712144591963,-0.05671610427002103
3.57,-1.0314937533175579,-0.30442434089751025,-0.10712342152812616
3.58,-0.5617620303590525,-0.34910379187427737,0.10630629766477906
3.59,-0.5774528450091125,-0.5736930266192194,0.18963620539606765
3.6,-0.8176596841012956,-0.5976067364886898,-0.034607721286572135
3.61,-0.8882015805972318,-0.5119394113621363,-0.199817241806686
3.62,-1.0655580939370493,-0.7475562227550403,-0.1738615659070635
3.63,-0.9786880145897439,-0.627260309540853,0.03307242390683907
3.64,-0.7502600595206129,-0.39354990509555415,0.1629989695871722
3.65,-0.6982155445877661,-0.20078055432649408,0.08100260666148963
3.66,-0.8458029607027486,-0.09527789332836831,-0.08461093624258949
3.67,-0.9839092853079275,-0.2949872961646542,-0.15329682241429743
3.68,-1.0932675026823788,-0.7070409164568056,-0.1421031981374114
3.69,-1.2535018933995716,-0.9201768264442869,-0.17317198921169608
3.7,-1.0882258419315711,-0.3183996045198855,-0.05110211571316652
3.71,-0.6500851749295844,0.10719940808962787,0.08866293930761936
3.72,-0.6542970070993628,-0.24072768351105897,0.0412479271997033
3.73,-0.9327764557884507,-0.8238293574981972,-0.08095895409092282
3.74,-1.0951868453539444,-0.9239961333384272,-0.09040521326452278
3.75,-1.0021231593653241,-0.38943575336926617,-0.07093231818633729
3.76,-0.9744077315394987,-0.15734165903398292,-0.09860453232376519
3.77,-0.991135691717041,-0.5573173168945854,-0.046467123766949475
3.78,-0.8926656658284424,-0.9648171141026683,-0.0276088400263141
3.79,-0.756413097463469,-0.7422304768331915,-0.06718347938859726
3.8,-0.43651214159546187,-0.41967115202024713,-0.019406497349867685
3.81,-0.14426894970969506,-0.13991985130206436,0.07392402590546085
3.82,-0.23717306000255242,-0.214841902853831,-0.04858776286650197
3.83,-1.2152811502832952,-0.8798693297117071,-0.3644938409994444
3.84,-1.448866999287331,-0.885285659095545,-0.3345655613795243
3.85,-1.1156250319576169,-0.5078379111078407,0.08704709567007095
3.86,-1.0771875306859642,-0.40012068981776483,0.17068141392300032
3.87,-0.8987832249364525,-0.31871652466333494,0.027723686999800372
3.88,-0.7059810224447787,-0.5249056559643822,-0.023096375596954002
3.89,-0.420888000525751,-0.43997578165418816,-0.07615201630816479
3.9,-0.6548998121568144,-0.5515312822576447,-0.2532782903000653
3.91,-0.7620156250538834,-0.6332440547482756,-0.3832339518252911
3.92,-0.9363037769480852,-0.7588500460152168,-0.27879190023965095
3.93,-1.0595963955194359,-0.8967356755154254,-0.05938400414893132
3.94,-0.7584392060386488,-0.2840447372518456,0.11778974841802196
3.95,-0.9739499360596977,-0.16487651089252678,0.048854763890967316
3.96,-1.1304461101421766,-0.3637084590469056,-0.19272991851746996
3.97,-1.1032797078425696,-0.7319906584401463,-0.30627008434600544
3.98,-0.9473182449206206,-0.6877614021862672,-0.25944257694669165
3.99,-0.7756947978983273,-0.4298421086249292,-0.2315568091332845
4.0,-0.8248195541072936,-0.7177220201520836,-0.26957443190526437
4.01,-0.675076722864906,-0.6983179639128304,-0.15250280311771014
4.02,-0.5157559046634378,-0.6183689847889853,0.0005503133017857037
4.03,-0.5593154900490619,-0.39992335265076245,-0.006413167332668755
4.04,-0.8363376713324581,-0.16070562253918924,-0.08822880317503462
4.05,-1.156088094279021,-0.5060230724385337,-0.2209855540490247
4.06,-1.3147466351570596,-0.841162023905319,-0.13252212871685576
4.07,-0.8694746003189918,-0.6049651478406053,0.05838467895579131
4.08,-0.7227981615654873,-0.38084247721114967,0.034480675225075814
4.09,-0.5444488892125706,-0.14081780336009903,-0.06418171127757796
4.1,-0.5808722219304203,-0.4995923752359867,-0.226360471477323
4.11,-0.763789655906474,-0.4622877943058093,-0.3355336169856792
4.12,-0.8530713358836544,-0.6662421081494806,-0.3443526570554204
4.13,-1.0289242115585369,-0.6452137017357795,-0.08969134098184706
4.14,-1.0358258124000117,-0.3949707547672936,0.1300545649057506
4.15,-1.2590037247026784,-0.2694481751606495,0.14513850692126853
4.16,-1.1284031571968443,-0.2609520148430971,0.04410656366723298
4.17,-1.1691669548682702,-0.4822391280244445,-0.10022250320106191
4.18,-1.0060990755138801,-0.6042670777938732,-0.14744446062734137
4.19,-0.7272751603268554,-0.5962804574515316,-0.03509361101882029
4.2,-0.5839446853085977,-0.6421164391363751,0.020725063228071407
4.21,-0.5503306088427129,-0.4836135039104591,0.07660017414665483
4.22,-0.5904597910521211,-0.4295789955502918,0.07753420016427433
4.23,-0.7380278738709359,-0.5550580951824717,-0.020813729217157913
4.24,-0.9739506201157305,-0.6667814129400286,-0.07689290891470667
4.25,-1.1270250705178502,-0.4927702266990443,-0.053336035320910885
4.26,-1.1457673178129095,-0.4171674620670509,-0.05429215789861513
4.27,-0.9016792653807778,-0.3958825717273527,-0.07342880651308582
4.28,-0.6214969858138184,-0.45539441434390815,-0.04948641254886003
4.29,-0.44689550927639515,-0.4192144370205973,-0.12631724695062937
4.3,-0.549711347494545,-0.5450201015600569,-0.2729896310587059
4.31,-0.5804014911318478,-0.5271572811313157,-0.308941257919113
4.32,-0.8166985066681344,-0.7414550863579763,-0.20837902612286632
4.33,-0.9319893581372397,-0.5004314165625251,-0.028343755436409827
4.34,-1.2649399965661108,-0.20108349564473402,0.0024113639302920406
4.35,-1.623690721054515,-0.328590057953056,-0.011885798470068678
4.36,-1.1730893095289483,-0.2865443631122761,0.06246096673255753
4.37,-0.906721192154708,-0.9333556432857985,-0.08673424604404201
4.38,-0.4247384815093647,-0.5056416195516253,-0.06882798664706458
4.39,-0.20724051146816733,-0.43866617104003547,-0.08302955489901961
4.4,-0.3977435265164488,-0.4941654719380682,-0.19894927410477983
4.41,-0.5252533045054426,-0.454378629552314,-0.2527740426124777
4.42,-1.3539891391728707,-1.075363482497116,-0.21097133607286603
4.43,-1.091922855903497,-0.7840986787666189,0.05464141452770222
4.44,-0.8704881785966604,-0.7869510751673223,0.1667061177613488
4.45,-1.0499831919433582,0.04342187709559995,0.18224033002546947
4.46,-0.9028564661927995,0.18091075517513233,-0.007845809116604272
4.47,-1.3521163822550897,-0.5210713451205056,-0.19081661633669808
4.48,-1.135994048826834,-0.7969957261499576,-0.016421836896436184
4.49,-0.6146334445497661,-1.164992019806034,-0.013198295714501908
4.5,-0.49301129386157916,-0.662362835929257,-0.05728224594710283
4.51,-0.09390628134382702,-0.06880880763339307,0.14240331801338257
4.52,-0.14781409871855877,-0.44084707080403635,0.030761671223047272
4.53,-0.815255054687372,-0.646350151765666,-0.191669142205
4.54,-1.394445960947173,-0.8535266640931193,-0.3687701086703336
4.55,-0.9576485405393986,-0.45031092656646066,-0.05010426135681002
4.56,-1.2984402727467832,-0.5238873012304063,0.06158875436769819
4.57,-1.3401852886637626,-0.45467523608747373,-0.09239873440555126
4.58,-1.013856995215665,-0.019115800503917972,0.05567290732877878
4.59,-0.7059110500949868,-0.3068800590977206,0.06904073464650493
4.6,-0.6791573769237976,-0.19233785604699752,0.13858669297381737
4.61,-0.6687912441980787,-0.7164818628663184,-0.008705940924845557
4.62,-0.991052685704958,-0.6680195316781314,-0.11586749743412884
4.63,-0.9152918737845531,-0.5096984234593123,-0.076914819545517
4.64,-0.833787259106912,-0.4200013025802882,0.004312514884583474
4.65,-0.8680842906464491,-0.45112981229324384,-0.021000912078599585
4.66,-0.94513232908646,-0.8005002758796673,-0.09097364132653636
4.67,-1.0482400761551416,-0.43673511909753115,-0.007069637782743319
4.68,-0.9294824403759404,-0.38070367181068754,0.036908707105118815
4.69,-0.9360414811483249,-0.4348378393821698,-0.03316871750836813
4.7,-0.7701054841678346,-0.5157195708123813,-0.1432529766145829
4.71,-0.7149208507421929,-0.9087004800953484,-0.17850410262346433
4.72,-0.4638095531646952,-0.3665743478494767,-0.058597405283784536
4.73,-0.621290777513913,-0.28278830778009995,-0.04447480527907135
4.74,-0.9090023725575964,-0.3114328143033473,-0.13455981545899723
4.75,-0.9208090252470549,-0.5452642405245347,-0.1378332665323692
4.76,-1.152888873008487,-0.7569458609542975,-0.030434688353361803
4.77,-0.9435344459819033,-0.5326809196542549,0.0919076667191559
4.78,-0.9422904862734499,-0.4085707833819733,0.06620729336770059
4.79,-0.9124645235399839,-0.4769291757063471,-0.11071031917326586
4.8,-0.7845157479684801,-0.5943236515085056,-0.14180441476901653
4.81,-0.6557888246945961,-0.5565017480138094,-0.19270806886559705
4.82,-0.7488886515299477,-0.5388575661105187,-0.2720072302650839
4.83,-0.7851760531958848,-0.3624021093447509,-0.2571796284766055
4.84,-0.9939961902237738,-0.7604896089798526,-0.1686261970525198
4.85,-0.7915571121835623,-0.6503912076450642,0.0023330252896037722
4.86,-0.7837226965718372,-0.5543252613022286,-0.013803797514709695
4.87,-0.9293978554327575,-0.3474861131548657,-0.13455480441219358
4.88,-0.8684266195758654,-0.1905617599439266,-0.17088381675472197
4.89,-1.057483914087046,-0.7413450947972389,-0.1606167476505287
4.9,-0.8725749863954725,-0.5831050412523509,-0.09979805095958273
4.91,-0.9896469148019724,-0.7283874773672746,-0.06444353974867437
4.92,-0.7682392273039486,-0.18076507114816928,-0.03683985058454944
4.93,-0.5611740192761597,-0.375646091369752,-0.18804493130528582
4.94,-0.5572305446937155,-0.9156932235817117,-0.3000628924355821
4.95,-0.3581344501581563,-0.5598520883527991,-0.2877365028105202
4.96,-0.6874606360961564,-0.7031391608568299,-0.34869923964888555
4.97,-1.209006998617151,-0.3237428446248564,-0.32962165085596623
4.98,-1.2357318684046328,-0.3886487134491683,-0.2833221888352336
4.99,-1.6492780895026133,-0.77676222575035,-0.12976523708844462
5.0,-0.8773785179601334,-0.48800981981195163,-0.0031578283818482853
5.01,-0.8541455687039626,-0.335459407741365,-0.07335152045075431
5.02,-0.7625447485855861,-0.060212591088438606,-0.13558833612129623
5.03,-0.6374410768104106,-0.4907245860511624,-0.18116622357502177
5.04,-0.7979027398409071,-1.0322389331359152,-0.14485435530747953
5.05,-0.5487628743675653,-0.8149325655375912,0.01308621119720297
5.06,-0.3778067931567415,-0.4324548616766684,0.20323353480295012
5.07,-0.7285176816583429,-0.17122920026771862,0.32362370213178354
5.08,-1.377569389081325,-0.4049499014767272,0.11360863888995959
5.09,-1.3667405755880637,-0.6506485466223516,-0.08726376438203307
5.1,-1.2096264913522552,-0.547955570884694,0.102637518117885
5.11,-0.7045070638369821,-0.3878700354580633,0.19790748694424762
5.12,-0.8317245204986372,-0.26350189195506507,0.10547833838417042
5.13,-0.6611830720135934,-0.6654898361308348,0.062591343171576
5.14,-0.5284815646884222,-0.7827256291224904,0.18883582194108103
5.15,-0.5528533431111728,-0.4975587804808547,0.17680522079724625
5.16,-0.6954138872156784,-0.2934800550880683,0.020466895369511136
5.17,-1.062339904143008,-0.3969429622879664,-0.11491270743779293
5.18,-1.2589012934662884,-0.7094809294886877,-0.19521762419888447
5.19,-1.2223077930841946,-0.6536303395403689,-0.12562307320741492
5.2,-1.0141011448217088,-0.3712449578039548,-0.11499436266028908
5.21,-0.9577853997918852,-0.3412885419610532,-0.18723888516499237
5.22,-0.7608844641438307,-0.4195771967242676,-0.15760019400234976
5.23,-0.5868267474241832,-0.6922471434348823,-0.16369162367135065
5.24,-0.4954110684020938,-0.715647501671649,-0.25542082991083503
5.25,-0.49236954455717974,-0.41672583135045843,-0.2765426671292987
5.26,-0.7540504353780575,-0.26582788396693646,-0.28680415206828175
5.27,-1.15729219755886,-0.1784776993778761,-0.2996863709805804
5.28,-1.496560795724581,-0.6093220696604564,-0.19190200217051012
5.29,-1.2660406329484686,-0.6750793311085961,0.045202089236004904
5.3,-1.0722158747987978,-0.48937892144331835,0.05479042413410177
5.31,-0.9459074389769585,-0.194580252128464,-0.03973435708924882
5.32,-0.5460571150601441,-0.2906521627025497,-0.07701797045642221
5.33,-0.5063837226147783,-0.7945010563381105,-0.15842576052174537
5.34,-0.3977401373391009,-0.7018844216043242,-0.20419210855995976
5.35,-0.36112206062538105,-0.7228530029883155,-0.15834472961593535
5.36,-0.6517553267251714,-0.6146213529436501,-0.04915573203197166
5.37,-0.9516234827655451,-0.6002502871757402,-0.015207717493213573
5.38,-1.0407021977152457,-0.7348091025764713,0.024274305957332588
5.39,-1.0811786255406814,-0.5867153262681887,0.11693466775918698
5.4,-1.1594092227066635,-0.5201933581805805,0.10320995526148546
5.41,-1.2610510672923256,-0.2997982312107033,0.03100207003358803
5.42,-1.0597950616615417,-0.6239326874264197,-0.008978856809392711
5.43,-0.6901809724191938,-0.6720597980623939,0.08942710029791781
5.44,-0.4934800828885437,-0.5567029399546346,0.09485524734936755
5.45,-0.513955301693051,-0.5358232120591139,-0.04056112893029185
5.46,-0.6065536351206678,-0.3963653740335892,-0.16269773594370807
5.47,-0.7715697963026464,-0.5580602383552585,-0.21587523381243384
5.48,-0.8284619245406579,-0.5131983922494486,-0.09492401066917437
5.49,-0.8773958023893622,-0.60125908707897,0.04980078046865104
5.5,-1.1523138622327715,-0.4983425864028649,0.08969231320772289
5.51,-1.3662077043251237,-0.1728333354767999,0.07920507573605039
5.52,-1.446661596090509,-0.28618223292459555,0.12093139747224933
5.53,-1.3434247544673346,-0.29069753940382753,0.17932047176770222
5.54,-1.23603874649607,-0.552233080221153,0.009485507446478457
5.55,-1.0490797782660766,-0.6176321210407629,-0.1446956067967525
5.56,-0.5842784446012605,-0.5244946763260595,-0.048656131324561695
5.57,-0.24279569189038847,-0.5988878057488237,0.04544756524423331
5.58,-0.06507802807726114,-0.540810240389439,-0.038554532947412436
5.59,-0.14731409747566204,-0.6516838792213215,-0.20497891592792167
5.6,-0.6013255088332196,-0.6039069378150038,-0.24766727636959454
5.61,-0.9955437666859958,-0.7221835011134091,-0.17585354100193293
5.62,-1.3108733201321032,-0.6763603789727043,-0.013613652780740452
5.63,-1.3644540201853308,-0.4325721341066473,0.10082263059654856
5.64,-1.2752772272181294,-0.23250543628277728,0.13711220035517338
5.65,-1.031640818990475,-0.09205179287448467,0.18714533868153327
5.66,-0.7546982940141005,-0.27555173290506607,0.16785693004923538
5.67,-0.8299541297509495,-0.5835911790272075,0.047325503996903905
5.68,-0.749349712884099,-0.7518709966026735,-0.005101035075423319
5.69,-0.5959571649777075,-0.7634448503685535,0.09859358593132357
5.7,-0.6851641883423185,-0.6543604360741271,0.2020984512697216
5.71,-0.8639329789826138,-0.5448348727714643,0.15909060087036783
5.72,-1.0062514378646663,-0.3367896863052578,0.08445931491325562
5.73,-1.1737984119734304,-0.3559548840326579,0.043750776411025344
5.74,-1.1447107278765563,-0.7669256673223701,0.013662872254585505
5.75,-0.7873911083654346,-0.7717424825776377,0.0016764961100846929
5.76,-0.49690847413691924,-0.6204626612132853,0.007683922923122087
5.77,-0.4228999957585552,-0.46837021571554543,-0.028789778468597094
5.78,-0.38941166674850014,-0.3218686805598879,-0.1496695037972638
5.79,-0.8911549323255007,-0.4772410925074742,-0.22187316981347785
5.8,-1.2081794910906163,-0.5657183740895461,-0.050340594089103304
5.81,-1.0977122103701653,-0.5895051090730983,0.18359548051699587
5.82,-1.2649569565557515,-0.31919286375916794,0.21272819813742375
5.83,-1.3083967950172866,-0.10751887249064558,0.1059586276301199
5.84,-1.0669736048276268,-0.549628499678137,-0.032680730013254326
5.85,-0.7787292080812974,-0.8212652560049359,-0.09354931414302481
5.86,-0.4301740299040845,-0.789024625646064,-0.12784552409851188
5.87,-0.1375246558770843,-0.7824965606653485,-0.15822824048181613
5.88,-0.205127431664774,-0.7122156814147305,-0.06952294747645343
5.89,-0.5090475791308726,-0.6399629567869638,-0.048082498425281915
5.9,-0.6167965552749325,-0.43923170042198534,-0.08481612419740439
5.91,-0.9887472642550433,-0.5305545186444264,-0.14029264908479983
5.92,-1.4443525973314715,-0.5903651847637307,-0.20662849071518005
5.93,-1.3894220775275041,-0.2988127999742203,-0.10795299387361937
5.94,-1.207901099768041,-0.28856181031886935,-0.06690934323225713
5.95,-1.0543247789454648,-0.21802019385328766,-0.05561942335716312
5.96,-0.7477868382750038,-0.43382175988370386,-0.10210712545316049
5.97,-0.5968474271608739,-0.5527261106021569,-0.1219506269111928
5.98,-0.4203097896881917,-0.41139966616970447,-0.16850003645583272
5.99,-0.49549839565369724,-0.4411489570142932,-0.2011638051602346
6.0,-0.7509132732001511,-0.46797197990364403,-0.19994837618310557
6.01,-0.970026398808932,-0.6474268586521011,-0.22618959311204243
6.02,-1.0817437905054792,-0.5950356743191227,-0.11599692938156006
6.03,-1.064806611735285,-0.19700357648810113,0.03340939127102688
6.04,-1.2455656614072859,-0.28384808500484265,0.01818122212645669
6.05,-1.232347752595639,-0.4524418413814244,-0.055962081139789406
6.06,-1.0025041668888428,-0.5055681280652844,-0.08510844698601305
6.07,-0.6722448389930114,-0.3352703674055041,-0.0767911486973617
6.08,-0.5622722325342695,-0.29234574895113385,-0.12774543323455856
6.09,-0.7111219844665687,-0.5324795736175438,-0.2836449244795304
6.1,-0.6801014309993801,-0.7690805171589656,-0.295806890004701
6.11,-0.6255314340305168,-0.8252466402733023,-0.13903065075798948
6.12,-0.6307082098559912,-0.4172160373333706,-0.02913214361899119
6.13,-1.0215602636757057,-0.05460383673621702,-0.1156680851981475
6.14,-1.5327704852843886,-0.18498918506422457,-0.27583697985020356
6.15,-1.6783369405648962,-0.5341569136347143,-0.12353275724823143
6.16,-1.3177763541647072,-0.6815749558870308,0.00878341403494962
6.17,-1.2111488237875445,-0.5449580292064214,-0.043993709214477185
6.18,-0.6942712972926837,-0.4847600609323618,0.08970891906342876
6.19,-0.2971457716505247,-0.5841141121316903,0.2391597845480957
6.2,0.02176982418880439,-0.6718530535390941,0.1538353163709273
6.21,0.07474921548681028,-0.7933801396765534,0.01054498481870191
6.22,-0.23471877123354412,-0.6959066845879589,0.05565331769606153
6.23,-0.6453534429515776,-0.823366014397539,0.05292361317347759
6.24,-1.0446747751218841,-0.5437226825914212,0.11312388868595168
6.25,-1.312575733739064,-0.33688488799473193,0.20885044493166866
6.26,-1.7643527097739942,-0.4201882437020251,0.20688042239346394
6.27,-1.5554567142073574,-0.12584578357127554,0.30020077536798745
6.28,-1.3914134282732578,-0.2616652415150897,0.11809634827896424
6.29,-1.2963984637928585,-0.622253740904069,-0.03633110491123168
6.3,-0.6632596549311736,-0.6470870314925062,0.05111957000410447
6.31,-0.4848603814963361,-0.7963957637810989,0.08750846485588598
6.32,-0.22160824256859404,-0.7104327119704417,0.057683332120301634
6.33,0.11107984925248891,-0.756308746805658,0.016230421224161712
6.34,0.1732451424122502,-0.9273909152852055,0.010371563129151886
6.35,-0.045326447524820124,-0.6687330927753157,0.007668147177729162
6.36,-0.8788432607665527,-0.7009021203251143,-0.16729464059563645
6.37,-1.1210160944781624,-0.48737642963290057,-0.23675617875788263
6.38,-1.4796556214946375,-0.655514883812558,-0.011689750217926726
6.39,-1.5634675696376967,-0.5264052875081856,0.17838806302027008
6.4,-1.3190759932495209,-0.05950546423693996,0.10378333204770034
6.41,-1.3029487610798816,0.35026473690288545,0.06008636904961857
6.42,-0.9250557618630725,-0.0932251150195619,-0.04878596499874328
6.43,-1.02524588017784,-0.5429303448223918,-0.21956861854090043
6.44,-0.7187403391564404,-0.6712553599420014,-0.3745100564681603
6.45,-0.36686410318297397,-0.5688668966340299,-0.24879756655816096
6.46,-0.23674907223569205,-0.5010227624833573,-0.1192721552003952
6.47,-0.3244971064303586,-0.5597693911072755,-0.18870044463804425
6.48,-0.43299491503424764,-0.6965883884862298,-0.3559924608296852
6.49,-0.6956348378025747,-0.3848096418316006,-0.3680397581534921
6.5,-1.1551136314715997,-0.5829054338687882,-0.39372545750860505
6.51,-1.5848757857855047,-0.3352726538849556,-0.32835013290770676
6.52,-1.5837877500705082,-0.49324611029905735,-0.06726933405029574
6.53,-1.2381969763996445,-0.21399406716016361,0.07993219206089448
6.54,-1.1594685776598226,-0.13031535591125865,0.04608203393234842
6.55,-0.8228847048518453,0.3070460346532368,-0.038099645524565656
6.56,-0.8301527172035315,0.086907320653522,-0.14455594527837917
6.57,-0.8716513888377869,-0.6965776263484544,-0.25104605031286986
6.58,-1.177786902116453,-0.9013518329131256,-0.2699049526227289
6.59,-1.8333697933669586,0.017971853847682937,-0.15888656652137137
6.6,-1.7482713478931249,-0.5348218918220011,-0.08079698924484362
6.61,-0.8662989270062955,-1.6894285536195535,0.1642273821876503
6.62,-0.0015789184946850548,-1.0066177059435075,0.06713296952241542
6.63,0.8334853781334751,-0.10609731055156056,-0.10539440264757893
6.64,0.7039985440628683,0.3532556620120282,-0.14163198465211096
6.65,-0.23468836499401108,-0.8029436646944755,-0.6544195455454215
6.66,-1.6041429192967966,-1.238750531857255,-0.8637149355003032
6.67,-1.7125939348060706,-0.8248765244540084,-0.05350692865786892
6.68,-1.1075336467992372,-0.5114448218987533,0.2620802820744957
6.69,-1.375156746010786,0.05381509107464198,0.20922007477586432
6.7,-0.7758697745524542,-0.1613257838845431,0.31228207156091287
6.71,-0.19574468017428234,0.10980321120515345,0.1658014189195792
6.72,-0.2886103943840338,-0.40046431968207363,-0.36978504090339104
6.73,-0.5628411643386261,-1.2068898106471635,-0.7570428388656273
6.74,-0.6669235961088898,-0.3923041564827173,-0.6061285860680522
6.75,-1.7056524787835587,-1.4475500625398656,-0.4422681107448704
6.76,-1.9705691278650619,-1.2479822743704976,0.11259418238319789
6.77,-0.44118117163502,-0.6531231052997628,0.3561012039049823
6.78,-0.49052302416852145,-0.08568092811712588,0.35421995567486525
6.79,-0.6885686915319817,0.45659213741456695,0.043918174121542766
6.8,-0.8438163470677976,-0.930584704896824,-0.5500602759588601
6.81,-1.304660864476976,-1.4745186956720477,-0.6634863415068006
6.82,-1.1393215667332517,-0.8395108150105672,-0.4262610963486387
6.83,-0.4398218460769678,-0.6844101339446429,0.09855878059897183
6.84,-0.31786656232932886,0.32815712746935793,0.3986274402087692
6.85,-0.6110053239252601,-0.7487067076092728,0.19049886097645097
6.86,-0.8049722116026947,-0.468090513452827,0.16424526492929772
6.87,-1.0577367401271784,0.013508308534885466,-0.11422333353424521
6.88,-2.33225630815768,-0.024857855039604755,-0.4168845890128499
6.89,-1.7136366669581777,-0.08795389424468572,-0.10109598857946403
6.9,-1.3703183376507817,-0.9069943708257846,-0.01493122434283443
6.91,-0.9619814936545131,-0.32541161489083076,0.0011289153866745393
6.92,-0.4194441868881616,-0.39779444397585634,0.3268834204446351
6.93,-0.16564090244614485,-0.16316703716864223,0.365089955192521
6.94,-0.19299346866184464,-0.3548733114648006,-0.013466068635138847
6.95,-0.8727103703333386,-0.9309253779166016,-0.23194214129141996
6.96,-0.8332958135367544,-0.732275694707995,-0.1771043953718943
6.97,-0.7558655503656087,-1.2098673250630636,-0.013311034108489186
6.98,-1.2621299271201816,-0.692744793263508,0.25387083089844464
6.99,-0.876383148456769,-0.10971324921402284,0.10377779282006222
7.0,-1.0779878336838047,-0.17947038922986938,-0.11793551746137444
7.01,-1.0276439354384523,-0.37957581885093494,-0.06094036256189636
7.02,-0.9061311487212736,-0.29085324491480796,0.023706909404243463
7.03,-1.1656378913866032,-0.36297487974019976,-0.1511876834288056
7.04,-1.0500505973901921,-0.571127777967829,-0.002694141731532272
7.05,-0.7296306366397193,-0.4721994271151681,0.3045222253290771
7.06,-0.696843517932891,-0.9583833760693784,0.2197772137015606
7.07,-0.7023306803933903,-0.4947234321561133,-0.09876802726284356
7.08,-0.8119383446063343,-0.6194838483938201,-0.30659564800432076
7.09,-0.7746314210032219,-0.6751755350137304,-0.155178144070231
7.1,-0.8038544934568058,-0.8718395117148773,-0.03441749424567889
7.11,-0.8934756239581778,-1.1427047682714886,0.15761989722143327
7.12,-0.6386644617064775,-0.4476069904963001,0.39808096627131434
7.13,-0.6815804606518369,-0.25111371309893343,0.37520452540323435
7.14,-0.9152033099391083,-0.3578726684645832,0.2028467234711977
7.15,-1.21826422926351,-0.24924685039000968,-0.01786855165374703
7.16,-1.6645565285089419,-0.6511873964909852,-0.08647919131524938
7.17,-1.370624179252559,-0.3214126506084707,0.07683048469071835
7.18,-1.3173646224517994,-0.40406421055603325,0.21002262492034474
7.19,-0.8327279449187418,-0.6161690604015476,0.3537674530220914
7.2,-0.41256162829373083,-0.5385825919052396,0.4849071004506228
7.21,-0.2832555961492328,-0.7520959214445072,0.3308143732666701
7.22,-0.16706838041105818,-0.71261380803203,0.07443353531480203
7.23,-0.3480786989774306,-0.7547014954249245,-0.03310381919162433
7.24,-0.5463954917303803,-0.7983037990894956,-0.08655081642876941
7.25,-0.8668477629266688,-0.5857271943252386,0.02413968832227298
7.26,-1.223976671923786,-0.5437310891613351,0.12246458109163491
7.27,-1.156674026311506,-0.3254768728026715,0.23437642165880673
7.28,-1.0909250374282051,-0.1581990416198569,0.3932085372149546
7.29,-0.9490044623560837,-0.6032305667512037,0.26554157510798293
7.3,-0.9011015472318757,-0.5449210532144665,0.09887027518292417
7.31,-0.7452460497249865,-0.7277977647607947,-0.09421310514614588
7.32,-0.44862154475904353,-0.43631453672558923,-0.08282598948056112
7.33,-0.3159053506964817,-0.46943748371766647,0.005899247225775157
7.34,-0.5207438976817373,-0.6658942346438766,0.038364136191247955
7.35,-0.8425336137621416,-0.6898002811616029,0.020030434234078638
7.36,-0.8569149715610022,-0.6765628543021504,0.05700776772050089
7.37,-1.018187720639552,-0.11902262544431608,0.1841098394809312
7.38,-1.5547005475275457,-0.09129362872291182,-0.00860009301585271
7.39,-1.573602035369894,-0.4545385515266082,-0.09853939170910084
7.4,-1.022839968873903,-0.6523028862623597,0.040719425769476215
7.41,-0.6712095259450813,-0.5315800931686948,0.009273251662710947
7.42,-0.5248900437559199,-0.08481787493806504,0.13472796978756615
7.43,-0.5738358567782693,-0.1737373828044596,0.04847427422059786
7.44,-1.0773299196454995,-0.6381741703924517,-0.2917017743052573
7.45,-1.241571843505754,-0.7627288249546326,-0.32559630973442594
7.46,-1.0824429723639815,-0.6432232174753191,-0.05152066137041983
7.47,-1.0577209462178407,-0.4550748603915798,0.05866083688123273
7.48,-1.0493507053134343,-0.30298044884153996,-0.01361801587168057
7.49,-0.8551966547615485,-0.3378998324383113,-0.03715976724817296
7.5,-0.49976691840465826,-0.4257054425277534,-0.055918445628320185
7.51,-0.4231085942870652,-0.45058047343450963,-0.10888930641249434
7.52,-0.5210291208422053,-0.5252234784844392,-0.20376717030085068
7.53,-0.7334658312334236,-0.7667546802720151,-0.28607668997330227
7.54,-0.8034756297290658,-0.6343327747365977,-0.1645133946722026
7.55,-0.8400483539891982,-0.1928083716134488,0.05077097992747491
7.56,-1.1604367728229115,-0.4624742003123649,0.017864027840998706
7.57,-1.263543697579532,-0.7192012771148587,-0.034335247366860215
7.58,-0.9227384969389308,-0.5317135787181423,-0.008414757727737662
7.59,-0.6231822637749359,-0.4431928661540089,-0.046837439615958994
7.6,-0.36339937350618284,-0.5523822245134302,-0.20338316290268293
7.61,-0.25781603075843074,-0.5544829513952043,-0.3670062079976158
7.62,-0.3015280913314828,-0.7432598373427909,-0.3924438456355751
7.63,-0.5252281240419605,-0.7299980357233251,-0.25941020317711505
7.64,-0.8007850212888582,-0.648450553569144,-0.1171491928654549
7.65,-1.026152450429734,-0.7773172652836613,0.013414681179924478
7.66,-1.1503917588842671,-0.6032302820894735,0.1578039689242215
7.67,-1.199070113767504,-0.3471987797088577,0.1350078227264291
7.68,-1.2347635203910696,-0.18749277345244222,-0.045486877179399914
7.69,-1.163691470852049,-0.5392406252292369,-0.21444574283997492
7.7,-0.9777518390630039,-0.7689770137335612,-0.22825426841937616
7.71,-0.7695929119581083,-0.7464996896960173,-0.12967857351861167
7.72,-0.5734733175899734,-0.6038066275756189,-0.058385672371881955
7.73,-0.4361056247245731,-0.3092978273879646,-0.07548175262132154
7.74,-0.6829796219095224,-0.5077711497891477,-0.18447595319019142
7.75,-0.9299945326115225,-0.553456569714405,-0.3028951289023518
7.76,-1.1148478535666557,-0.6410131318565058,-0.35770454864265516
7.77,-1.2997684945130419,-0.6143578701149313,-0.2585248472587305
7.78,-1.2299840252423675,-0.11215690446652757,-0.030347728673169372
7.79,-1.1912882061876398,-0.0017927954517986402,0.03418187588039878
7.8,-1.0084954932177828,-0.05596150859842969,-0.0661501615964532
7.81,-0.7755998599522033,-0.46971195859450715,-0.19792277305129094
7.82,-0.6331268678769832,-0.38719455171910294,-0.27025362583195467
7.83,-0.575839799877596,-0.02479908422835824,-0.3233670722462732
7.84,-0.7228432495940058,-0.38023316327802015,-0.36856963718397806
7.85,-0.8118780404417023,-0.7195732044850747,-0.2454224845253345
7.86,-0.951820591325405,-0.8165018703976351,-0.1132687753337214
7.87,-1.012282677063521,-0.5117290392796857,-0.03033796179078955
7.88,-0.9180225211868184,-0.24094867493461844,0.013012294523707085
7.89,-1.2407432969279064,-0.06466321774930486,-0.134071313425024
7.9,-1.5830311328961948,-0.39849689050301745,-0.37722253602976585
7.91,-1.2818272065912863,-0.7730031602065348,-0.27600762232185494
7.92,-0.6299366403708447,-0.6569789507026275,-0.03771641255832734
7.93,-0.3169360160242958,-0.7487658023283948,0.010174458075603385
7.94,-0.12241000616483176,-0.545009814736338,-0.02213530440365057
7.95,-0.011338317609138365,-0.3855808451247138,-0.18006671954630257
7.96,-0.40103982555306794,-0.4849731336042974,-0.3673366092339518
7.97,-0.85908192242965,-0.8545687613543204,-0.40618586114558913
7.98,-1.0266162564713868,-1.0915143943099612,-0.2953562969456773
7.99,-1.3502565852854211,-0.38553473345720857,-0.04637925868969421
8.0,-1.490068492923106,0.06877704618115808,0.0386987891598694
8.01,-1.5661742072117122,-0.08370313069990166,-0.06054361151410662
8.02,-1.2512515533841262,-0.3394668019643359,-0.08141717757571369
8.03,-0.7275333894756728,-0.70576830155381,-0.21651855851938354
8.04,-0.4373568017880463,-0.6550601721980368,-0.35854860499998453
8.05,-0.0906138114188304,-0.5771136988324927,-0.28601853324077503
8.06,0.011702329260233485,-0.35622652148558165,-0.1530269601752931
8.07,-0.6282550964444439,-0.6238775494660831,-0.19921347812878157
8.08,-1.2931638425392995,-0.9506070640523443,-0.20725825966305322
8.09,-0.9365794573755736,-0.6243967972993365,0.05434429700496413
8.1,-0.9383505026361826,-0.36407054571344993,0.161263623451039
8.11,-1.3695866033004138,-0.30179278018406847,-0.07063369571348303
8.12,-1.285700220441438,-0.20943816231586196,-0.23236532288017114
8.13,-1.2324618725321292,-0.48799359783813584,-0.1674623141815236
8.14,-0.761550133944542,-0.4108780278443368,0.07347899959531216
8.15,-0.3282532762120256,-0.5419184621324458,0.04166450073890689
8.16,-0.3583889098783841,-0.6636125178427674,-0.05715462521493563
8.17,-0.583049391352963,-0.8056226890882185,0.0035200562457109686
8.18,-0.5546028271174646,-0.8229593640335668,0.05758506343811577
8.19,-0.8253873372652145,-0.4376366966867092,0.0675693857732972
8.2,-1.058893261973159,-0.5207783112562562,0.029099156270380483
8.21,-1.174214575340193,-0.4854281610448426,0.1130939706946812
8.22,-1.297010191187083,-0.4847360875020224,0.031026171246343125
8.23,-1.2234122536739596,-0.677313015000464,-0.05659406015288794
8.24,-0.6971102282888013,-0.3332037698388229,0.06582571998490827
8.25,-0.4763239212939992,-0.5156966470371539,0.11923736242188036
8.26,-0.36053905980562984,-0.6311661097785586,0.02976964186921147
8.27,-0.22132942054699906,-0.5632250520015221,-0.023600127069875576
8.28,-0.6332014239906435,-0.6714034055245766,-0.018675361260591588
8.29,-0.9094197237891187,-0.7698679627075399,-0.07733818744240745
8.3,-1.0604398763715353,-0.36937058306405157,-0.00852432535376325
8.31,-1.5592849325416336,-0.01826486219157548,0.1449573146836141
8.32,-1.3745329849600285,-0.32000763368273283,0.20767554569802457
8.33,-1.3945434768648355,-0.5052071382018359,0.1726597575568451
8.34,-0.9854572101732614,-0.5593070675148158,0.18461682909096697
8.35,-0.626834475257724,-0.40940185991427697,0.27838891736573057
8.36,-0.4796894612830023,-0.35898711016834617,0.1626492180465074
8.37,-0.3399240023392751,-0.44703172725250295,0.002557990268972537
8.38,-0.4076607181775981,-0.6038684190554877,-0.05690501313060533
8.39,-0.8704598770903854,-1.0172991379349001,-0.02806354453102941
8.4,-1.019476899732086,-0.6861292596003741,0.1109370605276282
8.41,-1.2312572026034516,0.028103078720135764,0.19430962046753666
8.42,-1.5480016000865457,-0.35183473663042825,0.16847062775725205
8.43,-0.9745652971722804,-0.4225534312229743,0.19265013094717137
8.44,-0.8707731537709291,-0.8415609976811896,-0.022672481809951205
8.45,-0.5878534777541136,-0.5012880678254378,-0.14421064441147521
8.46,-0.33333146482366455,-0.180529430264178,-0.10951120687314791
8.47,-0.33173784827833624,-0.43929820347813653,-0.10446452409193237
8.48,-0.6391058231956445,-0.6414706256544778,-0.10009085086600464
8.49,-0.9515832497077329,-1.0053493624650511,-0.08681636583432695
8.5,-0.9226597274591862,-0.6973464779464635,0.11766070095908154
8.51,-0.9915334747565743,-0.24058607706546517,0.2308724650172711
8.52,-1.3887857641316814,-0.0008134691529745787,-0.024224264868753797
8.53,-1.3483896350680653,-0.6126919341395775,-0.3540061151577241
8.54,-0.9270243823290076,-0.9971815959430176,-0.16725775404712845
8.55,-0.451385718836279,-0.44123719833448083,-0.031393517190747434
8.56,-0.5635038042433261,-0.19024712276478142,-0.10470960166890357
8.57,-0.581666396455513,-0.4845286230571769,-0.10522620291772108
8.58,-0.7516086262621289,-0.7700445362046093,-0.06479091174175057
8.59,-0.8195713966646956,-1.0693892233302535,-0.1001907940992668
8.6,-0.48602145054438023,-0.4029876726200358,-0.02018729410872495
8.61,-0.5813556454562822,-0.07018544733275348,0.01859688857666578
8.62,-1.0465639876644708,-0.5375758536496499,-0.20882354251346505
8.63,-1.135384918311682,-0.7591766498124846,-0.3438324137764952
8.64,-1.5530856246526263,-0.8380696627057161,-0.2596154059171173
8.65,-1.6543211327923686,0.0948613784066378,0.11888521616184157
8.66,-1.3120678187030954,-0.2651189785131818,0.2164147140905148
8.67,-1.2290080677379347,-0.947830163149321,-0.2016923865454588
8.68,-0.6814920049558854,-1.0065862801351257,-0.18937335006742156
8.69,-0.23652735143791886,-0.10831923145239564,0.054765168044533706
8.7,-0.7320242382763902,0.37292036056877736,-0.24614704911173893
8.71,-1.626415774253557,-0.7363886549602376,-0.72926626199595
8.72,-1.5932353174824432,-0.7777142059763252,-0.044678779169472355
8.73,-0.8233182509092776,-1.0396511422562227,0.344260231571216
8.74,-1.1505082297543683,-0.45591434668219977,0.14121156656256736
8.75,-0.668637450947564,0.28072139849885835,0.09389261906459993
8.76,-0.2944003631491503,-0.13688320483959104,-0.13673376106191162
8.77,-0.8921929868021535,-0.405284152519109,-0.46711081574393576
8.78,-0.8676496586611628,-1.0588809476741998,-0.5989132214221218
8.79,-0.8040383969136942,-0.6770258694760208,-0.3033709510977012
8.8,-1.1405085604261371,-0.389281710152636,0.0029422014583266225
8.81,-1.3490103399236697,-0.07243144121594701,0.18401815808471933
8.82,-1.5783202271778822,0.058599110316161454,0.11409265533395399
8.83,-1.5558059869010008,-0.2723896879061134,-0.12700763393290065
8.84,-1.2462310791016178,-0.5549774169921373,-0.38008117675776754
8.85,-1.0849769001955305,-0.9709695174488199,-0.6364875427658097
8.86,-0.4394877469140863,-0.8054224174819257,-0.3982176721763509
8.87,-0.139356109472534,-0.5698379279352459,-0.16630030417406885
8.88,0.08497556081810446,-0.5498226678115392,-0.24031324975099688
8.89,-0.23170244788766156,-0.5102849009575597,-0.24314343366499624
8.9,-0.8081802358808001,-1.2143057555967038,-0.2860764120489203
8.91,-0.9863140258593683,-0.6750989515838952,-0.23179092966656434
8.92,-1.3448591087054962,-0.031800770622181514,-0.260571349685938
8.93,-1.701674399058712,-0.011903585816004026,-0.5264609458284049
8.94,-2.0069209036018774,-0.16683080171525783,-0.58398771939733
8.95,-1.0107788630789303,-0.4504270952122032,-0.0643434575054995
8.96,-0.5361291073553784,-0.5887186426738605,0.044104912136451
8.97,-0.5812332770018644,-0.6952689516794717,-0.19397275728971705
8.98,-0.23677012170556283,-0.4544590094380897,0.006131139436794668
8.99,-0.26317712499640167,-0.581389012339656,0.07489283596205047
9.0,-0.9120443500160784,-0.46500517673190983,-0.11460704103690664
9.01,-1.286335694221666,-0.9668128590082551,-0.23610425683037273
9.02,-0.8186964147670571,-0.46804627030645163,-0.05276260241261043
9.03,-1.3272306744208344,-0.695781498107271,-0.05441934535287071
9.04,-1.0038644163225303,-0.2514684443781078,-0.14561719098196832
9.05,-0.8668297020528716,-0.32784183675073386,-0.2040879663261938
9.06,-0.8936107441657469,-0.8029255761290688,-0.2072269727090754
9.07,-0.728752217997371,-0.40591190228203317,-0.08034738658762951
9.08,-0.722760678553829,-0.7994645006263353,-0.01483941335455538
9.09,-0.7646014217490325,-0.2958968568367019,0.016386837778791945
9.1,-1.014009055880704,-0.34431626853759323,-0.15239121970910516
9.11,-1.1646649882866997,0.032538373399713855,-0.3083485413794941
9.12,-1.1100215900638737,-0.3040069189401625,-0.4073598209446267
9.13,-1.1709807327990664,-1.0264826251508599,-0.36231226768469926
9.14,-0.7121780584488464,-0.5123076393412453,-0.27226898324338006
9.15,-0.6801810591085856,-0.6324640861183626,-0.12735436312096568
9.16,-0.27803370277624595,-0.1484995825701996,0.07382379411739125
9.17,-0.4087568437210399,-0.09707013287443036,-0.0008092764006134966
9.18,-0.9984132161593782,-0.9822417287117639,-0.2724108585711552
9.19,-1.0834297701276223,-0.9296346594965306,-0.25102899360778236
9.2,-1.0664224399149778,-0.47292642173305116,-0.09236965817535833
9.21,-1.228407561339021,0.16575884512053532,-0.014553631303649318
9.22,-1.1981744122375606,-0.1932847795523423,-0.07575918943648074
9.23,-1.2481857851779434,-0.7225158616562021,-0.03504927007796011
9.24,-0.6912291563631922,-0.8591561509815943,0.13718992568905003
9.25,-0.4565349441896575,-0.720694577294044,0.058612437301561036
9.26,-0.4295343380711319,-0.2438485405831063,-0.03631668734458585
9.27,-0.5448724433489425,-0.5492416952130683,-0.13044541411147034
9.28,-0.8186857375770654,-0.8812100330121694,-0.2063350188666432
9.29,-0.9742365102335835,-0.7085115523672508,-0.148516253628009
9.3,-0.9697669756887238,-0.5041797496488144,0.031205686045690684
9.31,-1.1908866559559723,-0.1859361659083984,0.14628931322690358
9.32,-1.3092882808620245,-0.35266663519708985,0.07205196153844798
9.33,-1.1948715847615354,-0.4039492413462947,0.011302459279729338
9.34,-0.8564884214979563,-0.43830348885431086,-0.06945255182993933
9.35,-0.7660357478601858,-0.439234388496178,-0.1502587656208272
9.36,-0.8503659125880016,-0.5117549119677642,-0.1936826703125735
9.37,-0.7283199954692546,-0.9677358832761553,-0.16844286814793283
9.38,-0.691602175905018,-1.1488550001669442,0.020583980710795466
9.39,-0.5078101267016503,-0.37594115350233054,0.15051432279192675
9.4,-0.7660285859147612,0.15195916497486714,0.00980360021030172
9.41,-1.0910181704515782,-0.4831521661228849,-0.2690387742295237
9.42,-1.1945690416515526,-0.948655268273251,-0.29086018106823475
9.43,-0.9232223506626509,-0.7711009122798644,-0.19164052294797546
9.44,-0.8151668452690155,0.010009662714697665,-0.1222052933758859
9.45,-0.9018391591791116,-0.08112050955104692,-0.2392026898625277
9.46,-0.9660881662748706,-0.6604467380507029,-0.2838109475889606
9.47,-1.0085400807195493,-1.002641708541671,-0.1286011464412857
9.48,-0.6689618952442323,-0.9311624201040732,-0.04884002338279803
9.49,-0.554272722142514,-0.5290520222359323,-0.08654735459935287
9.5,-0.6166336677375727,-0.19743743072491995,-0.17260174225409425
9.51,-0.7479398501454091,-0.4608399927073644,-0.3507529121419067
9.52,-0.8403513629412609,-0.8424119887596536,-0.4467919109989127
9.53,-0.8986741962818307,-0.6624173417083512,-0.30659575611452067
9.54,-1.0197230013799534,-0.5113115034461416,-0.07714569685281976
9.55,-0.9695383040324751,-0.6109415022746626,-0.0015315558119533953
9.56,-0.8688003572969486,-0.4467950034707606,-0.020448170901979784
9.57,-0.9597056244596852,-0.2888592949610037,-0.12365812915710386
9.58,-1.1059702517668863,-0.2998818248940563,-0.35407375159163135
9.59,-1.3208314687194425,-0.5616739631191346,-0.3996965843532284
9.6,-1.2598819214841341,-0.47271899346693586,-0.20048007424811565
9.61,-0.9187655000797259,-0.7044663229993426,-0.05469739860432292
9.62,-0.6286366181863727,-0.3677464111521071,0.16341143438386066
9.63,-0.27069338968675566,0.022276316443392383,0.1752497202337156
9.64,-0.43482023467023484,-0.49069174275757493,-0.15908334338006622
9.65,-0.7165642402114326,-0.7202772125908774,-0.37751695925940837
9.66,-0.970307082785559,-0.7172600003534897,-0.35758348284971714
9.67,-1.3263121528640944,-0.5755431115421956,-0.2392107921060914
9.68,-1.3933426526006532,-0.3924789054500172,-0.043344581877990375
9.69,-1.1228997835067083,-0.37758750084792597,0.06913805372790652
9.7,-0.8549626121947975,-0.17483985501219282,-0.015984184021114553
9.71,-0.7176084932646539,-0.3010106400256492,-0.18587619503168368
9.72,-0.7231659109928628,-0.3284184525287624,-0.3977327367383159
9.73,-0.7870480344883808,-0.41558149231857255,-0.538090775287542
9.74,-0.6739459298571319,-0.7077771343676862,-0.36011343834516785
9.75,-0.6599362403101597,-0.9614369334578934,-0.03621480042547633
9.76,-0.8012636887083947,-0.8664329660533227,0.03409732199660135
9.77,-0.9351052124640029,-0.294256486868461,0.015213857661622492
9.78,-0.9479959112058639,-0.28305027665270777,-0.11329197961367364
9.79,-1.0103612558874386,-0.5289473171581764,-0.2857009726036328
9.8,-1.06158936283322,-0.571476279040386,-0.273063837043554
9.81,-1.0958201729209103,-0.4626659070335729,-0.11081854836065043
9.82,-1.0477904936640934,-0.48047684623296766,0.03972057574075814
9.83,-0.7560730130153004,-0.4704969708115856,0.14986060623188147
9.84,-0.5135090801560368,-0.24756717513490945,0.16418003264142836
9.85,-0.648301262121694,-0.41165148858420747,-0.11094850803283032
9.86,-1.000142798555677,-0.6306560576979509,-0.41721024269070817
9.87,-0.9247852076215977,-0.8460144962027202,-0.4038598799860452
9.88,-0.8471991752657254,-0.9378711888016937,-0.07737479672412573
9.89,-0.6415594885671142,-0.5989997774707854,0.23321841552205733
9.9,-0.6323568850421127,-0.2572402486340152,0.34526814061657474
9.91,-0.8227489745357567,-0.17590569130731687,0.26725490518433226
9.92,-0.9359911402100055,-0.7409681968289845,0.05286116646232659
9.93,-1.00487793404323,-0.8734395168679652,-0.049344391985006224
9.94,-0.8670502000875443,-0.6627689640833112,-0.11510456471117188
9.95,-0.8955410177865285,-0.38456584615890893,-0.08237734241837004
9.96,-0.8113963717416934,-0.23226395633846922,-0.0065813898209862816
9.97,-0.900950881543015,-0.683028439125764,0.005532406134015172
9.98,-0.9207404466321387,-0.8983049624014455,0.11278972614038392
9.99,-0.8331302884661362,-0.9394187615708549,0.18525878868828094
10.0,-0.9126912970764652,-0.5157087250086416,0.13769977720013749
10.01,-0.9217177711563117,-0.10460844146566663,0.005629184177321703
10.02,-0.9720182735030679,-0.21201438147902674,-0.11721741435151502
10.03,-0.9221512186973398,-0.5357476754249049,-0.15372512602206767
10.04,-0.8821811455241305,-0.6288951449425695,-0.08552302494692658
10.05,-0.9846708856424972,-0.2123811986368791,-0.021401289142252783
10.06,-1.1778356259999114,-0.21352654097490525,-0.12480934503252224
10.07,-1.2880535428842548,-0.5454442030030928,-0.2119058538283093
10.08,-1.156601103703574,-0.7113728368892387,-0.11207183155336232
10.09,-0.8288870177738628,-0.4676617956733465,0.029797232382546238
10.1,-0.6459453795600896,-0.21757277366503036,-0.016007004860032974
10.11,-0.7313440478238589,-0.4234860984814643,-0.1449141740851349
10.12,-0.6984043585358906,-0.5205985797675114,-0.19966891122046074
10.13,-0.8549977217043864,-0.5912210128810915,-0.2807708064410895
10.14,-0.910937784780876,-0.367128773028075,-0.2892705303405143
10.15,-0.9647706136390344,-0.5293543222300776,-0.21869918826238002
10.16,-1.0659091516127595,-0.764702916496158,-0.1559772255702911
10.17,-1.2036934109423667,-0.4356838579488794,-0.1714910697819939
10.18,-1.2126230930783546,-0.232745284841465,-0.30772229191901274
10.19,-0.6964477763595137,-0.716403312378939,-0.3689821263166554
10.2,0.14145962350474195,-1.0719133537611243,-0.2970976355217653
10.21,0.7849375663864728,0.3265609383830718,-0.02716612572031088
10.22,-0.9640215506427702,0.3123703766319753,-0.28156732114261424
10.23,-2.4139763089472064,-0.7673094212271442,-1.0226571283457673
10.24,-2.2685848514410636,-0.611730704433437,-0.3042458932436918
10.25,-1.3258135374662523,-1.1846245464694387,0.08100027014936576
10.26,-0.475920642570787,-0.8877060904981989,-0.19699334415327072
10.27,0.1878877923794501,0.07845749161799605,-0.0006220639629995361
10.28,0.7769378879155839,0.9228326490858394,0.020260101449362487
10.29,-0.9915407458018375,0.21107342884208705,-0.9041289190534905
10.3,-3.2783929293669227,-1.6787092987937309,-1.453366356433916
10.31,-1.8016794454316096,-1.085394296689522,-0.2847522625581443
10.32,-0.5129809051208853,-1.3402782168506848,-0.1691376280264177
10.33,0.013152455701022093,-1.369632141080503,-0.11432480013340103
10.34,1.5200450224377144,1.621706556378305,0.6305227685676404
10.35,1.2545552587834599,1.6091271935240132,0.12495721589011151
10.36,-2.913361655438949,-1.379205896588463,-1.5899129824002305
10.37,-2.818681723702005,-1.9062106695591345,-1.1212209882802546
10.38,-0.5386268620402052,-0.5298496903561678,0.2712600867049964
10.39,-0.962954307577682,-0.9861699114318614,-0.2912416498359822
10.4,-1.1650132538657338,-0.9010683506816686,-0.44413367930794057
10.41,0.21188212101710666,0.8295401784958619,0.3160397168594342
10.42,0.6812828306272009,1.0692917732694207,-0.043903472918823606
10.43,-1.0682030162863656,-0.2172970337594377,-0.87141147348471
10.44,-1.7447374998054048,-1.9330115550660483,-0.8034008976173175
10.45,-0.5510309132172833,-2.1784957670946303,-0.6088252435227531
10.46,-0.9278798456148896,-0.05943300472947477,-0.1220947460220215
10.47,-0.47042153921612956,0.4847964587030355,0.05322150820171623
10.48,0.10605937571833163,0.5244728059376319,0.0878792913964133
10.49,-0.7710884360866801,-0.9555315350049514,-0.13829223932181425
10.5,-1.4225865530663697,-1.6457890809615432,-0.31698620559964186
10.51,-1.2788236976123206,-0.08100244836685155,-0.1515590171416508
10.52,-1.1282951002474857,-0.16340968008694606,-0.16153998896023752
10.53,-1.4256839052423063,0.48823069721534335,-0.08698526831128449
10.54,-1.3212552398676984,0.1408552287832519,-0.06025381912321545
10.55,-0.77237811492614,-0.42871708667027425,-0.06535956555243039
10.56,-0.2288229442565412,-0.7358022951391602,-0.28976551121014305
10.57,-0.8405189480479421,-0.70460303914486,-0.1669156948491971
10.58,-0.9877362939962129,-0.283487835854322,-0.0940545680492247
10.59,-1.077861273757073,-0.5934379122199789,-0.15103598937223414
10.6,-1.2438304159701,-0.9252481354152376,0.2828781867012017
10.61,-0.3759523570971016,-0.75134778411011,0.27093532390868735
10.62,-0.635459019551456,-0.4984574799389169,-0.08230895397332902
10.63,-1.0612601565001991,-0.17441766089050956,-0.0508622446567223
10.64,-0.17390693669238863,0.40325357761061786,0.10844412854518887
10.65,-1.2336792926215119,-0.32303675067216875,0.23288808683799414
10.66,-1.7729166160734628,-0.9429617319150007,0.26435278760982234
10.67,-1.1196333007634476,-0.85325879298175,0.27844266612424634
10.68,-1.3377916294194547,-0.5847578790361312,0.14840085720150734
10.69,-0.7397168327692475,-0.49563617792367265,0.08589160238875683
10.7,-0.7400123142648274,-0.5624003037064512,0.1541273106961441
10.71,-0.5880462508023523,-0.7685149566444284,-0.02387435043023368
10.72,-0.9213965788106125,-0.7782586486708658,0.10931297468393693
10.73,-1.0060618264802323,-0.3420235957198781,0.4146182447441734
10.74,-0.8391592853348878,-0.6489679020488365,0.507260898723209
10.75,-1.1613962774317983,-0.9362681690920271,0.5479924358318834
10.76,-0.676634577645938,-0.5326153128574221,0.47708616954617283
10.77,-0.5081339808616376,-0.06610595092423834,0.39185595049306976
10.78,-0.9254888942210481,-0.28628147632775797,0.13620153337080318
10.79,-1.0105764457518416,-0.7234580212300056,-0.039863988327316045
10.8,-1.1996532074956092,-1.0730689929843946,0.1545669566141433
10.81,-1.010860092820303,-0.717243682972179,0.4217271740251553
10.82,-0.8652687242087751,-0.19826506651508247,0.5931902425030839
10.83,-0.7105796885813144,-0.5203109009256156,0.3711800420894651
10.84,-0.4980743959041,-0.6751392514934003,0.06475657267932847
10.85,-0.5829545624096258,-0.5915604700452193,-0.09966753846826701
10.86,-0.7803898533599078,-0.21976279440583302,-0.29916403166429384
10.87,-1.0846128013512348,-0.3952601167923056,-0.2997582468936825
10.88,-1.352004921059795,-0.9608050505975871,0.07131766711639363
10.89,-0.9274394580647349,-0.9412112555863507,0.47740236395780355
10.9,-0.6365799723313492,-0.8704128291575618,0.5100142321961751
10.91,-0.3710015293006962,0.08937168813621368,0.3774536563902551
10.92,-0.6213555821536012,-0.1911161769622126,-0.038745197567809184
10.93,-0.7923054351899798,-0.5929847725704108,-0.413879024054123
10.94,-0.9469068368727851,-0.9556357399539193,-0.45086733843221916
10.95,-0.9355024427953147,-0.4474319434057502,-0.17478912036180935
10.96,-0.9971098582698537,-0.08183737401741122,0.11582098518009837
10.97,-1.105085089219831,-0.3055376826788117,0.2189690080615622
10.98,-1.107928587669686,-0.44107667924141836,0.14720258365447064
10.99,-0.9585204778016138,-0.7013699803107663,-0.040661175570159046
11.0,-0.860160111942447,-0.12708783456698255,-0.2772751369043535
11.01,-0.956357242314013,-0.3041568686499749,-0.4792861698981408
11.02,-0.8763253427332971,-0.6479206425736271,-0.37033743556162635
11.03,-0.8840792219803013,-0.8736752919269593,-0.17292067610283418
11.04,-0.4069446257329615,-0.3107843148555927,0.08035010678715146
11.05,-0.47778315036138974,-0.13332050698445047,0.12988616130574687
11.06,-0.9233160488109885,-0.2921845940415927,-0.16087069581348454
11.07,-1.2065839933060443,-0.7178624584549745,-0.38285620565985173
11.08,-1.0045904605230231,-1.1355902170559813,-0.2818021948299834
11.09,-0.6907036081351137,-0.709519523065302,0.04716149035074241
11.1,-0.6864268934294917,0.0823038440098505,0.14051652095571565
11.11,-0.8482145324790563,0.08136694782612439,0.03418659691440585
11.12,-0.972905572685778,-0.6698786986442363,-0.020801172224680947
11.13,-1.0335191157169714,-0.741787684175735,0.07297739932903918
11.14,-0.63009648980732,-0.789019987867299,0.16012197348190146
11.15,-0.6815612864817074,0.017291275033586254,0.17226600197925443
11.16,-0.6704013694238289,-0.844587156906942,-0.047234966120176844
11.17,-0.41697184007783544,-0.41396501102600236,0.04291158389636339
11.18,-0.630480243280475,-0.38591601615485827,-0.001798395557761422
11.19,-1.3461764187698684,-0.6742474881656573,-0.22329598899855438
11.2,-1.4027583884688957,-0.9567945883223156,-0.19836139108237025
11.21,-1.0187776083978561,-0.9420287640617451,0.03488614454801427
11.22,-0.8508605212353237,-0.15685370110146196,0.03371928078252921
11.23,-0.7564538117671212,-0.07330965660745879,-0.07489857536236681
11.24,-0.46068801702118506,-0.3214825252342503,-0.22193814949484614
11.25,-0.9727565525137938,-0.8313897084039034,-0.46137122703763034
11.26,-1.0372125409691346,-0.9359801690766117,-0.4626765536495099
11.27,-0.8149127660836967,-0.7841617198045839,-0.13403875453118827
11.28,-0.8501476583006624,-0.2972578288907435,0.03608753945769677
11.29,-1.017426772002524,-0.46907735745623486,-0.028058622920406482
11.3,-1.0887785311514306,-0.5535074720107859,-0.09586666527041074
11.31,-1.0169876792808772,-0.2997697477730628,-0.15428940782948192
11.32,-1.1818450952432615,-0.7466901225718727,-0.19695083950465625
11.33,-1.0098475962687634,-0.5359593951572035,-0.08048353042684718
11.34,-0.7884012090942786,-0.6172354834581137,-0.06985746880994166
11.35,-0.47707157399305405,-0.36468671863025964,0.04616456163360685
11.36,-0.2580923986406863,-0.3415520877400297,0.009638345683583209
11.37,-0.5083860951543903,-0.6308176984781435,-0.24900686448523665
11.38,-0.7005806889794723,-0.5197048595144179,-0.24014519775103343
11.39,-0.9565840954432311,-0.876517037977003,-0.2020364523957384
11.4,-1.303189287191285,-0.44501401696553355,-0.007436317861472009
11.41,-1.2365205011485667,-0.12312917389409865,0.16118511134833916
11.42,-1.1693660700066466,0.10688489922128257,0.26493686397703653
11.43,-0.8205487131794807,-0.08919758778786227,0.08263018544228154
11.44,-0.7760874285636948,-0.6904247821141435,-0.19150945845237066
11.45,-0.775291137515656,-0.4108672913836115,-0.10352973870625659
11.46,-0.8670620377643989,-0.668918644515044,-0.23334987843860844
11.47,-0.8638761979435079,-0.8738808271576405,-0.2663818150550609
11.48,-0.636773384884772,-0.7671583861182099,0.05096308387179516
11.49,-0.7830441695511542,-0.6827818459100476,0.1976959650624514
11.5,-1.179152712655317,-0.5837481210452474,0.0725192749098275
11.51,-1.2251405665424338,-0.2517973825186385,0.010620443872879994
11.52,-1.1509803411233697,-0.258159083620297,-0.02761443109868651
11.53,-1.3897801795084859,-0.27692604836766443,-0.07327972917306229
11.54,-1.2897921898344902,-0.3966619943096857,-0.03725205554826318
11.55,-1.1345200492442553,-0.4715547439322721,-0.07689409079394231
11.56,-1.1081364627723789,-0.46218212861883906,-0.13711275276962398
11.57,-0.9339939153450453,-0.6162099555487308,-0.03808965761335724
11.58,-0.7060320567602945,-0.7774999252664322,-0.043337919671254714
11.59,-0.6743327578396313,-0.8417641022108876,-0.11734103548343268
11.6,-0.5071516255900392,-0.6261436450428103,-0.05920932067010653
11.61,-0.3540432151448485,-0.26732562938714055,0.09888090553156197
11.62,-0.4941729841560495,-0.4760884252087608,0.10714590138403128
11.63,-0.6746230103209555,-0.5910962440774624,0.08613188210976311
11.64,-0.754477863308977,-0.7216023614327856,0.08277012020466745
11.65,-0.6925209338236729,-0.5388790756964866,0.14629737690280947
11.66,-0.7266322542504257,-0.45224571714502504,0.1919411069298637
11.67,-0.9188108962494346,-0.3256820684698503,0.12993654457290288
11.68,-1.1982229546001641,-0.3866662423423377,0.024196555152794605
11.69,-1.2633988117192807,-0.7030987357976825,0.08398388701807408
11.7,-0.9652017056920732,-0.5723663273198885,0.3102667751677491
11.71,-0.9552638054713026,-0.7110761673095125,0.2732676433888211
11.72,-1.2727260670062963,-0.5308966762498295,0.09887843888466344
11.73,-1.0809073843333081,-0.4807402351982684,0.05848855360673779
11.74,-1.0930817835888882,-0.6624501089686738,0.16263520373814333
11.75,-0.8173787927356883,-1.0432143986913895,0.18065465934983008
11.76,-0.5621188782973746,-1.140138636623683,0.17796002919507964
11.77,-0.47344446584523614,-0.5382017925577983,0.19907534185615167
11.78,-0.7480971373972427,-0.2481323007932033,0.11463319008696632
11.79,-1.1671168084278802,-0.28492437972253554,-0.04307293681412332
11.8,-1.5751309086223164,-0.5612408813999539,0.0006115775046621873
11.81,-1.1741735897322751,-0.8677598258339133,0.08078211738897303
11.82,-0.851773111404387,-0.557330458777483,0.039226968311335535
11.83,-0.5810409218823254,-0.0480142792567162,0.20851480367340913
11.84,-0.3557707354227994,0.15687672469444672,0.27327541811764205
11.85,-0.8030215912951317,-0.26278129018121166,-0.062277360157828254
11.86,-1.0336998461834286,-0.9067478932093792,-0.23140061011562169
11.87,-0.5719779503294807,-0.8280145263672112,0.005091709906428056
11.88,-0.7333578576602128,-0.4843673195271546,0.04284245084343801
11.89,-1.3572385075777702,0.030696497951634615,-0.06723297324960222
11.9,-1.620318529721371,-0.08599367790973296,-0.031916861396609486
11.91,-1.6699549428821725,-0.6887882807560294,0.23038832055798675
11.92,-0.8831003289001602,-1.0993081838073562,0.3399419052965417
11.93,-0.17839503386504302,-1.0132192724333557,0.09166882181724144
11.94,-0.06141293542652278,-0.294170441665615,-0.003037571909974494
11.95,0.021756501359976026,0.11117816624470005,-0.10828820540632446
11.96,-0.6965971497066539,0.04915192941450369,-0.3234210268695331
11.97,-1.9908857488730047,-0.7267895562599318,-0.24554353876979698
11.98,-1.7269301943425104,-1.285132764749618,-0.10200101121520129
11.99,-1.613093934771514,-0.8944608104273518,-0.08263453627577529
12.0,-1.509093257428881,-0.34063187277974366,0.1742694458240455
12.01,-0.4172030447605343,0.4206424026084179,0.47516066499003645
12.02,-0.21848679814429633,-0.10288378090420319,0.3298364882759491
12.03,-0.10157648497811736,-1.305190097029662,-0.058780352087438
12.04,0.6774583786214944,-1.2715045464188286,-0.12403160575706101
12.05,0.6263220398213656,-0.07484249374635868,0.06499035487356425
12.06,-1.2865547737543803,-0.08890931016954094,-0.37498911973519233
12.07,-2.6550772878716047,-1.1179591119837646,-0.7626770491048152
12.08,-1.8866766308776082,-1.063875339117475,0.05046558223401073
12.09,-0.744065336532566,-1.0282472045009363,0.3563640933228942
12.1,-0.9035714425573712,-0.1697548845972046,0.02570428121291143
12.11,-1.1139088014269287,0.6045307444299124,-0.020649733645675683
12.12,-0.659106184855923,-0.0429938365343105,-0.1953968550016981
12.13,-1.11966983185131,-0.9056639539069508,-0.2275048721402837
12.14,-0.8778516620424508,-1.1617854669268257,-0.2647765615569494
12.15,-0.09325360999240118,-0.898815011332692,-0.5057134330798362
12.16,-0.6128230204250548,-1.031823056874072,-0.4652715967156559
12.17,-0.6191645225905513,-0.68060103958882,-0.13206557821534
12.18,-0.3958653497840702,-0.02548916553006338,-0.03914512348932396
12.19,-1.4076065050374609,-0.4543047227511734,-0.10214091157708079
12.2,-1.4181083048487242,-0.8623136937666702,0.08108434217080696
12.21,-1.0225442085597234,-0.6206667000019417,0.12612891836901688
12.22,-1.0753493352527408,-0.21223134142163144,-0.11743076638454056
12.23,-0.8956009014043232,0.3260143605131239,-0.15959662759620397
12.24,-0.8849059914900542,0.43650659097667444,-0.12732579464458793
12.25,-1.1135082970390187,-0.7444309622401868,-0.19523505682742687
12.26,-1.011325500515241,-2.0077566712281727,-0.2020783644225865
12.27,-0.4365352210004421,-1.3982177559996587,-0.0821514593659486
12.28,-0.24957259897944067,0.24297473975253361,0.1133874032717535
12.29,-0.2870083053556083,0.05189618639636466,0.0030944132679353075
12.3,-0.8188232945780364,-0.8201460285759292,-0.08730784403921571
12.31,-0.9524431569862603,-1.133945937984217,-0.02528590525945289
12.32,-0.8337312407642505,-0.5959352621691325,0.04707923650594209
12.33,-1.4694965266000815,0.2731968994019658,0.07286222134943197
12.34,-1.4988303989997451,0.1536539372263179,0.013951870935312272
12.35,-1.607470833587344,-0.6019992377400798,0.17866961916022497
12.36,-1.0362966493225698,-1.0291306622015075,0.26167372845152587
12.37,-0.3231590309166064,-0.7095123386066441,-0.05394010672915067
12.38,-0.4330733985743635,-0.36339538107204933,-0.23508691478996457
12.39,-0.19505311705154516,-0.4909318769818841,-0.11400525493608932
12.4,-0.10185833100787314,-0.4944680917255773,0.03169699540344578
12.41,-0.8619313731330867,-0.7773509821608151,0.03718155515332859
12.42,-1.2578141049475553,-0.53202689639745,0.06306609295404848
12.43,-1.1233758043468283,-0.5010924581951852,0.15798311215978064
12.44,-1.2751150174258843,-0.5662760009526479,0.13097486220929908
12.45,-1.0932204901577456,-0.3718547259730648,-0.0914738774649411
12.46,-0.7694961691926167,-0.3159449043016613,-0.2252751682639302
12.47,-0.48847932683623113,-0.32228270861628094,-0.18840852443828424
12.48,-0.4669851677685047,-0.7233236768280747,-0.15341250737882217
12.49,-0.5072153752659849,-0.8241877002952159,-0.04230090630204911
12.5,-0.5956752426736542,-0.5693374066847575,0.10176373526770817
12.51,-0.796763252271735,-0.36156380436155056,0.12568551950977255
12.52,-1.121447295798255,-0.3707387833261163,0.051064498194871494
12.53,-1.299836197108963,-0.6380893770142303,-0.03438159178489171
12.54,-1.2961479429318785,-0.7450045055995204,-0.045374886836110975
12.55,-1.1676745433328026,-0.4393542996891609,-0.005239452406502591
12.56,-0.9032794250672634,-0.052419279153593595,0.13453453986929853
12.57,-0.8023633544790157,-0.19733384983232896,0.24318725343436018
12.58,-0.8687215007611871,-0.6910857757633005,0.20128649628723455
12.59,-0.7765492899382294,-0.955439989222355,0.1532572533179665
12.6,-0.5244011253100861,-0.7714237978768402,0.1526884423626954
12.61,-0.44510963238798484,-0.3173010392367966,0.15678444119189708
12.62,-0.6557711207774962,-0.6062890345239531,-0.029543897416562964
12.63,-0.7311807997543943,-0.6884073334395319,-0.17804692477114215
12.64,-0.8308391915777097,-0.7154709248853952,-0.13451288261952285
12.65,-0.9148297018101315,-0.5985788893802356,0.0515719527776818
12.66,-0.9286380533566779,-0.3110805067661946,0.1895324163678102
12.67,-1.2369924840539328,-0.3444676817410501,0.12827597175226851
12.68,-1.2115345533080308,-0.27055076276361495,-0.022145064287824777
12.69,-0.9773777113584683,-0.6335511659437442,-0.13450386581732154
12.7,-0.5814858291205183,-0.4764995387847322,-0.08483706761139141
12.71,-0.3783160781972717,-0.549741252299235,-0.1366784200459615
12.72,-0.5761416519395798,-0.7478622187287001,-0.2399268786283813
12.73,-0.446188792168313,-0.3239655400203039,-0.15106074501775305
12.74,-0.715143483270192,-0.2900994162197229,-0.06982698790439089
12.75,-1.476609768342552,-0.6564465893794821,-0.11106294628589189
12.76,-1.4125871268436565,-0.8061221019714268,-0.002662485240842874
12.77,-1.2399011062070426,-0.47157876693578377,0.09951327325665493
12.78,-1.0722079984395683,-0.2519127356286476,0.06669123502467965
12.79,-0.7982248181145483,-0.16183768248427985,0.08962158539921324
12.8,-0.5462219828784671,-0.4191849929154013,0.0029960027600754594
12.81,-0.6518282883771235,-0.7288158383817696,-0.12214810478236453
12.82,-0.6084958290338316,-0.7161612081275314,-0.15321254561829933
12.83,-0.6207179087085615,-0.557370461140717,-0.09083644929351847
12.84,-0.8640566671130505,-0.2987513984679001,-0.01940250677386859
12.85,-1.1260766068088424,-0.39407340100821714,-0.10086148632303742
12.86,-1.3176342502209946,-0.5818805571090645,-0.15129543347103086
12.87,-1.168265375620361,-0.46107755341759665,0.06526081920174953
12.88,-0.9814809133474816,-0.5245106322685257,0.10742727709630492
12.89,-0.8175271786215923,-0.5538326672813524,-0.02863958514809209
12.9,-0.4204657008618355,-0.4962460759371829,-0.03718910577471726
12.91,-0.19318601994840376,-0.24139428620536196,-0.02486217978516866
12.92,-0.367992333295772,-0.5400859241028848,-0.2282175219621383
12.93,-0.8487291614845419,-0.7554209007336308,-0.34585771528859927
12.94,-0.9922398203388203,-0.8870201442959016,-0.2541919136164702
12.95,-1.13687393965408,-0.7567278146159553,-0.006282293304254753
12.96,-1.0372084313943437,-0.2793337511553762,0.14424942492595372
12.97,-1.0608541464089327,-0.15910460116013925,-0.008596055190451484
12.98,-1.0659052706803203,-0.35427166925872505,-0.11327178398253965
12.99,-0.8480577777595963,-0.6749554915312288,-0.14280916191161944
13.0,-0.7089885758820708,-0.4808561367359663,-0.16533083295456702
13.01,-0.7322704947148208,-0.5354668953694869,-0.16475702057726813
13.02,-0.7658221226288476,-0.49305970878820665,-0.15043226859138473
13.03,-0.8487127302954413,-0.7520455982910668,-0.1442404483752512
13.04,-0.7733411422907519,-0.8800187813146335,-0.1385768386588239
13.05,-0.6590687828670314,-0.7867008566225033,-0.04075356495248287
13.06,-0.686564780914265,-0.5850000788463221,0.007477531930850899
13.07,-0.8046119054532692,-0.368252458398388,-0.09796202863363866
13.08,-0.8049110595595366,-0.6400296781987256,-0.13814228828958422
13.09,-0.8077962799401565,-0.536829215909138,-0.09353845606417918
13.1,-0.8350785034461058,-0.45936365185566924,-0.018976220154692133
13.11,-0.9017625677368025,-0.6614860020503145,-0.055709534634411244
13.12,-0.8410234125021775,-0.29329433756922446,-0.03160886501404382
13.13,-0.9335246126463917,-0.2761565023041894,-0.03668957176164371
13.14,-1.0892959858550957,-0.35488792695419424,-0.12746351849001256
13.15,-1.0811932316913988,-0.835722302612838,-0.16199606703074762
13.16,-0.9622642957909644,-0.764552435782351,-0.08457776212404645
13.17,-0.6547586060469294,-0.2876601395992867,0.09417019747316795
13.18,-0.627121541283266,-0.4547078613442476,-0.00742409810060143
13.19,-0.6690517007814846,-0.23090060497780118,-0.16983521667890267
13.2,-0.699663925245738,-0.6502187383485597,-0.26751804782147415
13.21,-0.8894289034311069,-0.7143208168992131,-0.26007252963169053
13.22,-0.8875532997854313,-0.5125710957186144,-0.14912129402720334
13.23,-0.9930459798675955,-0.4422498670024915,-0.0407630685587678
13.24,-1.1431137172526002,-0.38491562186023126,0.033414103130226344
13.25,-1.0513401708814363,-0.39107674712266577,-0.02115408411113774
13.26,-0.9296342267086686,-0.36398795241813986,-0.10284248922348159
13.27,-0.8202769013978007,-0.42537007173743463,-0.05565510241451891
13.28,-0.7952250621802832,-0.46541157940570926,-0.08306958449390477
13.29,-0.7140846627633306,-0.5538054704344478,-0.11564717893116225
13.3,-0.37772801073481366,-0.5877829393218921,-0.04548142829642412
13.31,-0.36611713351791997,-0.5062234544370601,-0.01944051753405062
13.32,-0.7218166438883229,-0.3779165392556096,-0.09723100667843435
13.33,-1.1204156524077926,-0.6449039996700684,-0.25270232461991693
13.34,-1.543626884069861,-0.987829403711833,-0.1672494932089254
13.35,-1.237577835391391,-0.41465367741374465,0.18149346352933576
13.36,-1.1054681486297087,-0.1216863654421499,0.16214769392643094
13.37,-1.045151476798606,-0.10988873776110475,0.001658993757595321
13.38,-0.6442088294482399,-0.527032045964299,-0.06881687634419525
13.39,-0.5364978424306084,-0.680257533423185,-0.10264665537401964
13.4,-0.42405813072648685,-0.4487891947470247,-0.12812766103460005
13.41,-0.6651952273767793,-0.7161500579364757,-0.15749448658419374
13.42,-0.7657834163550831,-0.707497173522124,-0.03658730175364439
13.43,-0.9782988799186783,-0.9296997512630161,0.12212477353401768
13.44,-0.9384112405573696,-0.5625203988162845,0.23322204830849838
13.45,-0.9122171938968515,-0.3901795796467002,0.13420336878439373
13.46,-1.2598805531394548,-0.20209447715898612,-0.01039169076520406
13.47,-1.2377730876050355,-0.2733383408854553,-0.15913228851822217
13.48,-1.136010061815527,-0.7279943833885878,-0.18996157679976935
13.49,-0.7053761236307183,-0.5909499454088655,0.013496825348565113
13.5,-0.4331112523082425,-0.6988629434798427,0.12497081576500246
13.51,-0.30392733187856014,-0.42136043375802285,0.07620696942906884
13.52,-0.3247959403051001,-0.3167367817478415,-0.08951875860099084
13.53,-0.6711370943163616,-0.7403058684609763,-0.3421119230586911
13.54,-0.8997409280276413,-0.9195481557279078,-0.4497896132010244
13.55,-1.3579970388429305,-0.7681396690940232,-0.3889779937906337
13.56,-1.343352600899952,-0.22883219472889846,-0.11767746669204494
13.57,-1.2079978989273417,-0.20392156297469036,0.181628710151949
13.58,-1.0526113014057865,-0.19964167910067118,0.19444950480320783
13.59,-0.7846865896514988,-0.5206536099338617,0.004003238242998527
13.6,-0.43159792426527893,-0.7153993441540862,-0.20171586564877533
13.61,-0.25592613945261,-0.581854511871526,-0.30750318161186063
13.62,-0.4957932674460892,-0.14891076718829263,-0.4713123726698991
13.63,-0.9444367562903072,-0.43132319727569945,-0.652532251249022
13.64,-1.5713687101158085,-0.9262851208407553,-0.3526440561110504
13.65,-1.35394323109268,-0.7639564140876888,0.17711582242307664
13.66,-1.0761023544647117,-0.359372016870676,0.3280838158259776
13.67,-1.0123825400684199,-0.172588841890284,0.18667329359025928
13.68,-0.6405414037197356,-0.10839824814969685,0.026806897782192626
13.69,-0.6593394347773326,-0.2535685875472783,-0.20989670060249938
13.7,-0.6542290638561711,-0.6221230542097039,-0.5170954098868118
13.71,-0.6404233468100683,-0.7385544431707459,-0.45127409833406296
13.72,-0.6441897648495424,-0.8330280012531853,-0.13947033534240785
13.73,-0.9648969639837742,-0.7016326805508455,0.20181370658524966
13.74,-0.9382458282788778,-0.19146356167493775,0.376877953712386
13.75,-1.0086590686349837,-0.16758609465965443,0.250516406642834
13.76,-1.1830052397428676,-0.49678120232438777,0.03078271170034849
13.77,-0.9984133793110122,-0.6752813441998654,-0.10352304951950378
13.78,-0.8497603470121834,-0.4964253505238835,-0.22483175365416755
13.79,-0.5702533965634164,-0.2723647010376748,-0.2055387933615593
13.8,-0.532211122223529,-0.4909327835123585,-0.06862834909187733
13.81,-0.5362699915395964,-0.42551430595195355,0.02907659010243074
13.82,-0.7577662199460447,-0.8195941529134088,-0.044460982183664836
13.83,-0.9400181545085975,-0.9942715285998358,-0.08338680707988028
13.84,-0.9988477172597038,-0.655322744452462,-0.0977566593206713
13.85,-1.1455721938786285,-0.18126719354259815,-0.19758715875997546
13.86,-1.218358220038061,-0.3076539289395907,-0.32957698289892445
13.87,-1.2393002882536845,-0.7097971398723752,-0.33819167501431807
13.88,-0.8339934441324618,-0.6284280804060693,-0.07766991336121501
13.89,-0.5477794744046013,-0.4734707463847421,0.03811300253152016
13.9,-0.5417100011286528,-0.4734042457566587,-0.06718758232822902
13.91,-0.41607678925555086,-0.44453020500667184,-0.1327749624134929
13.92,-0.5265501062332794,-0.7572633647157433,-0.2809030853027942
13.93,-0.7660704259665055,-1.128063933859192,-0.3519878061888831
13.94,-0.6673477409352727,-0.9555049579659649,-0.20720736297979608
13.95,-0.6567355135245164,-0.5441195905115085,0.024778497018746362
13.96,-0.9209713242627929,-0.13521269075492096,0.18416767745292117
13.97,-1.2784271670617777,-0.1354687508382991,0.047840378135477146
13.98,-1.578738316054539,-0.3963415745731462,-0.11013179230461329
13.99,-1.273240886008609,-0.6748166029324898,-0.0691792304773168
14.0,-0.7093468995942821,-0.5613183760049021,-0.0759066656006695
14.01,-0.6228302058086268,-0.342779737480748,-0.2107201852804282
14.02,-0.40358698450810154,-0.2192031823305215,-0.18569556633695256
14.03,-0.4131791798341079,-0.5327095522899367,-0.10916035795416111
14.04,-0.6773568344789668,-0.8738155690553056,-0.11098257195418754
14.05,-0.8411286181741515,-0.7241134329217738,-0.08003164212422148
14.06,-1.0372644959805686,-0.46888661658816877,-0.0182641889711345
14.07,-1.245393373976973,-0.23899013032066585,-0.015523120939229935
14.08,-1.237535327547242,-0.16616589368344628,-0.16527478145003593
14.09,-1.1890926477089165,-0.1727858545828117,-0.3455967150039321
14.1,-1.0855112751505867,-0.44914364120685657,-0.3560907491360641
14.11,-0.8937910655118282,-0.7081825326698852,-0.15288059174012697
14.12,-0.7085358707817229,-0.6516872089425254,0.029372540272369352
14.13,-0.5355724823435308,-0.42485071533636565,0.13980041467981028
14.14,-0.4542379253675105,-0.22878608857979063,0.18994160308931574
14.15,-0.6814568059126429,-0.30281451021145955,0.040363497750001455
14.16,-1.0294552268479868,-0.6792935731949202,-0.28278667860824325
14.17,-1.158246514222728,-0.7856324237611313,-0.38906425546245244
14.18,-1.0858291706805898,-0.575177083979967,-0.15082282937692781
14.19,-0.9888864061414957,-0.3926609755351809,0.013268329038112881
14.2,-0.8607842342653762,-0.22374059285323575,0.026229729295984498
14.21,-0.6779405458451521,-0.4763398867103348,-0.011191130824645793
14.22,-0.5835878440672804,-0.8135290297429113,-0.01932112057816622
14.23,-0.45627290883999977,-0.6531230050114382,-0.06743920445791544
14.24,-0.7686520599487286,-0.22564601168495552,-0.19445449023795833
14.25,-1.1405954479075633,-0.23216254893276528,-0.268392852278004
14.26,-1.2997931798844327,-0.5695427976569359,-0.11902860060273561
14.27,-1.1923824394217855,-0.8488701950571919,0.13239356677866956
14.28,-0.7084420984058798,-0.7826356481088673,0.16698678414857235
14.29,-0.7624103193636448,-0.2543766567328951,0.0932158301198124
14.3,-0.5526767676539673,-0.0849546380239381,0.006515618949037902
14.31,-0.5188908856563449,-0.6704791641300689,-0.06586364114442658
14.32,-0.7593757203720272,-1.2215603190502833,-0.08490488133058674
14.33,-0.6155252709257442,-0.8738945752753497,-0.03060771859068026
14.34,-0.8113293194034848,-0.2596320260242734,0.12028832647968223
14.35,-1.05546480575125,-0.29007175236742233,0.14342721060070035
14.36,-1.1939607858715091,-0.5310153943405109,0.05495422643205813
14.37,-1.2437024972522734,-0.7483418674030539,-0.02256876051317581
14.38,-1.0277455194992422,-0.6056181428852648,-0.0450147015453965
14.39,-0.8771615231980106,-0.45878777518584374,-0.03350387750996204
14.4,-0.6867630007876458,-0.46425633451997766,-0.03452435591325131
14.41,-0.6806163595104515,-0.41517571945437,-0.06226505162400871
14.42,-0.7451054245812436,-0.5574838766659083,-0.1256105521390728
14.43,-0.7649458673174192,-0.7034058025086346,-0.1255918842177774
14.44,-0.7986178234415408,-0.6916497245311168,-0.05730428203593443
14.45,-0.8587160475328349,-0.47329068385039763,-0.03306907285585672
14.46,-0.8750022247333177,-0.35633600119211106,-0.11280865414898061
14.47,-0.7943380085281214,-0.1986278004802936,-0.1845587359378416
14.48,-0.8639474995631434,-0.3206471066533407,-0.23506578576781692
14.49,-1.0635836464483435,-0.638012711478364,-0.22793958101503137
14.5,-1.1239298823185382,-0.7534537792848865,-0.15668730810039277
14.51,-1.0644232783805172,-0.5219522992233203,0.023829959527286382
14.52,-0.8576371140841547,-0.026664213858281473,0.1679932701266136
14.53,-0.8696790062400607,-0.16637177866799718,0.046881424438228236
14.54,-0.9540861435451155,-0.6603291890548665,-0.14622981424053463
14.55,-0.9821915139117191,-0.6842422949372341,-0.20009067925327462
14.56,-0.9747851238733529,-0.42244155551493345,-0.17989249787939895
14.57,-0.7576030349029846,-0.5397154115154068,-0.13883825586296852
14.58,-0.5546838626783192,-0.8539394762601181,-0.04788312187892801
14.59,-0.3687996094948016,-0.6940841410981127,0.017609023907512237
14.6,-0.347471760328251,-0.3834984135529879,-0.03818178653995883
14.61,-0.7379840407764617,-0.3708032477432754,-0.16520959638204955
14.62,-1.1693835906802432,-0.5562135929543756,-0.1990732051167587
14.63,-1.6162023116489934,-0.5478880299991188,0.002103143623558616
14.64,-1.3681270853080467,-0.4296903312732615,0.17944827649506598
14.65,-1.176322604713183,-0.4343316076502032,0.14553397277629465
14.66,-0.8530107931880051,-0.386285881026048,0.12087186514359896
14.67,-0.43246554451303765,-0.3816408626291914,0.07835971104889464
14.68,-0.4492985259697854,-0.4165079099233357,-0.110090886655385
14.69,-0.5180607526845433,-0.5892371244469218,-0.32558600800112597
14.7,-0.6347608132891253,-0.8478621824674599,-0.3030574706432715
14.71,-0.8669597946804262,-1.023306260044377,-0.18131874448206495
14.72,-0.951860047284824,-0.6415614771194341,-0.07974597316457646
14.73,-0.8258941144433546,-0.2914801936411967,-0.02536133563950158
14.74,-0.8394894094213486,-0.11641072838649485,-0.1077535287397888
14.75,-1.094957527188984,-0.315100408849213,-0.32687068981860945
14.76,-1.1293520456860353,-0.7703069305568211,-0.4350750762059206
14.77,-0.9116912763211354,-0.7018576654169374,-0.28294338542070424
14.78,-0.7506603722201072,-0.44066178641978165,-0.11004424399201386
14.79,-0.6816403768987412,-0.27535611310379926,-0.02068687762283033
14.8,-0.8035383656699617,-0.4962144364836725,-0.07789366858504826
14.81,-0.9186824238658332,-0.9094837971305961,-0.236849988683581
14.82,-0.7150116625390981,-0.9151165748433903,-0.21415221031896783
14.83,-0.602819482930816,-0.6258432588747207,-0.09705627142032187
14.84,-0.7550013379471422,-0.1784695183974879,-0.14876434167490757
14.85,-0.9338617040656058,-0.506460299979994,-0.2771799692122098
14.86,-0.9758181841502019,-0.5441489110796563,-0.09380262910781945
14.87,-0.9273122635683004,-0.7170784716018049,0.08160211784131749
14.88,-0.9468205663825321,-0.5735128571768058,0.07408204548565618
14.89,-0.9501375105185974,-0.36125729826356745,-0.052478111091936744
14.9,-1.0083788235046631,-0.3016369695964714,-0.18271324460075053
14.91,-0.8336127208031152,-0.15052849258984555,-0.18731536139267219
14.92,-0.8848021506678052,-0.6054698659215623,-0.13974469229900108
14.93,-0.8125201504629405,-0.5603665716162757,-0.0063874153196499545
14.94,-0.9613135361965264,-0.4769170715080639,0.07446472275739238
14.95,-0.970351845011412,-0.3622997713945414,0.13161677859497822
14.96,-0.7875879624750813,-0.5237602820475483,0.04290829638042541
14.97,-0.7551335130271999,-0.5816155812168252,-0.15702534077419456
14.98,-0.7272579222303717,-0.4882335752652487,-0.2574689493521571
14.99,-0.8735221895536892,-0.46127387443837187,-0.24222748345352751
15.0,-0.9702823353681292,-0.6127673532033017,-0.11311186385793863
15.01,-1.0955139609218825,-0.462823605704145,0.1335509958272091
15.02,-1.0556986664519212,-0.42529749818845836,0.2578966560984627
15.03,-0.8492709049340122,-0.33789863291731315,0.2250510352700303
15.04,-0.8225862870900181,-0.29625145379108764,-0.00041356983893318797
15.05,-1.0281227248232134,-0.5707650435499002,-0.34435624372918466
15.06,-0.9966152655930951,-0.4394679392275103,-0.5376795633460929
15.07,-0.7405327268936317,-0.457818547756954,-0.4481592934501567
15.08,-0.5460225408957269,-0.6867996303385212,-0.14286494914614417
15.09,-0.516310219767516,-0.7526903173047356,0.08261481074226455
15.1,-0.7838839746003099,-0.5132146453390412,0.1371604952177712
15.11,-1.0582005962252357,-0.41000534040032083,0.02291916705201412
15.12,-0.9665465653710519,-0.29704149761939913,-0.07500792409215044
15.13,-1.1045871575205573,-0.6268243615664995,-0.1017838557233798
15.14,-0.8460972440850225,-0.6273554769079966,-0.1387210709824923
15.15,-1.0706951833790481,-0.647402777611117,-0.17337697073811736
15.16,-0.6761078595618965,-0.47924307761789203,-0.04833307225307667
15.17,-0.43318820996032625,-0.49505621408839956,0.18268843073220345
15.18,-0.4065763397497461,-0.6175426583725624,0.19161705143389018
15.19,-0.45454367670749996,-0.7330538484192409,0.04228404439715165
15.2,-1.114872692004091,-0.854854439295149,0.010144907843021744
15.21,-1.2368572489108713,-0.6889177224389093,-0.024612756070732968
15.22,-1.0047911516216026,-0.4250378094060783,0.06676153202674483
15.23,-1.0317315000233505,-0.3124352698030841,0.10817018098439371
15.24,-0.8480722575419096,-0.43911910702008095,-0.06159786933038804
15.25,-1.0475035452089492,-0.4242773146072459,-0.02124479925148865
15.26,-0.7990236557661187,-0.8816012928709595,-0.07966814707545933
15.27,-0.8386141651558151,-0.8351882708167732,-0.02234692562438089
15.28,-0.5066075024819165,-0.5584568662193948,0.03333705619094934
15.29,-0.6739592760450506,-0.27062127207627173,0.05818812111656581
15.3,-0.9186326527083765,-0.390847478570702,-0.014601191948115258
15.31,-1.2239314725358268,-0.5910252059747886,-0.09023783060529883
15.32,-1.2051542224802274,-0.5542123725559123,-0.07102319844876269
15.33,-1.0262033182014674,-0.21989215087752012,0.05602088174390801
15.34,-0.788428880234328,-0.19583065591949012,0.09632354081443781
15.35,-0.7063951618842751,-0.5272673987989985,0.047697230747790254
15.36,-0.7203839486473009,-0.6539894702049794,-0.0657766531718622
15.37,-0.7130312904765611,-0.350951449430301,-0.13390914206384022
15.38,-0.7592037434346909,-0.46855102651326314,-0.043194566606246675
15.39,-0.8266644878375733,-0.6131714544524254,0.03158243241301093
15.4,-1.1169099046941822,-0.6319494966136064,0.008021212783001412
15.41,-0.9534780815080528,-0.5840544081040596,0.056738658621931226
15.42,-0.767003603301555,-0.07913501687871503,0.13130827438415826
15.43,-1.1460874784599053,-0.07172873791122174,-0.025764075208470162
15.44,-1.245338808164091,-0.540697219022347,-0.29066844713412576
15.45,-1.061694200398692,-1.0485138551658795,-0.1750303125859054
15.46,-0.3997130564733127,-0.7568413296474255,0.08329636760817011
15.47,-0.2446600959093698,-0.3091719823653462,0.16665549724502773
15.48,-0.22286338424473934,-0.2839150970441383,0.10069732710910098
15.49,-0.6982090541294682,-0.39395298549107327,-0.21909589494977824
15.5,-1.337923935239236,-0.6930351168451041,-0.45030017032075603
15.51,-1.3979102194931756,-0.8887988846322054,-0.07977778188593797
15.52,-0.9792244076517996,-0.5445349986866247,0.13428747922927037
15.53,-1.1568464679954296,-0.46878748911141727,0.00026570522763493096
15.54,-0.7896152899091767,-0.2546306063279609,0.044690158827618544
15.55,-0.43419538460692136,-0.2313140851177081,0.06235288359701127
15.56,-0.7220601633246309,-0.4196862933072451,-0.25510768280414275
15.57,-0.984312253164997,-0.8360106138302908,-0.5646327476104053
15.58,-0.9718956703733843,-0.949403190682978,-0.37913638883844575
15.59,-0.8194970524710599,-0.8733294032030051,-0.027281479262811523
15.6,-0.7244760197324931,-0.4689927432906226,0.1688184480650075
15.61,-0.5881762142528493,0.07364866643283557,0.014802756486423072
15.62,-0.9342105746479529,-0.34931465315066546,-0.36466635894322846
15.63,-1.0095765810463064,-0.7260688797642466,-0.49882801236001734
15.64,-0.9676804859684731,-1.0302846593110622,-0.3581566835867569
15.65,-0.872361486212874,-0.8497887282708296,-0.16908296944176904
15.66,-0.649839941230237,-0.3194533084826301,0.009934068918906549
15.67,-0.5628703797397246,-0.5087310005155639,0.1280259853341983
15.68,-0.5163747496714112,-0.269515992333561,0.09882518640332862
15.69,-0.9388753248969307,-0.39997343791899115,-0.21964395098558478
15.7,-1.4272915243556576,-0.7483853037677575,-0.3980386785789374
15.71,-1.1218131561560218,-0.7716452742997167,-0.17862964959910388
15.72,-0.8666809872362908,-0.5801040233292521,0.05049729641919315
15.73,-0.4047724211335265,-0.056500386041071354,0.1876873714633417
15.74,-0.38708664866614073,-0.2963526872532548,-0.006407183302675487
15.75,-0.6532866376986978,-0.5070392831043602,-0.2694084435260229
15.76,-0.9066518193937435,-0.7309043400599109,-0.41057054997953923
15.77,-1.5046116976049764,-0.6724986570230648,-0.3319603176049072
15.78,-1.4378398819952243,-0.4504144781079305,-0.039183573018329275
15.79,-1.3457619044181255,-0.2940508165335412,0.13964677226529004
15.8,-1.0394333122243014,-0.23767031916033576,0.049761862901701336
15.81,-0.6652403938693083,-0.42689127077278916,-0.04674639485736986
15.82,-0.3568991049574156,-0.4250901827177777,-0.12008617482983315
15.83,-0.5423109107657315,-0.44645475966440473,-0.3660324884410831
15.84,-0.7039025684621435,-0.5955868798725104,-0.45254320857088587
15.85,-0.5210026924688935,-0.6689844691903954,-0.07834334304711281
15.86,-0.8499698978051862,-0.8099516980272634,0.227283442700138
15.87,-1.023579336572198,-0.5586408866542512,0.2843169604687005
15.88,-1.0057673739729667,-0.11955125133610943,0.16836749583255578
15.89,-1.1934146243527353,-0.12150968120110632,-0.1503643791343215
15.9,-1.2480205186376943,-0.3605698848766193,-0.4332228135379651
15.91,-1.0554678132775261,-0.5591179045223836,-0.3921838520508099
15.92,-0.7006811711141612,-0.5433280387999853,-0.1481910602285058
15.93,-0.5625586139578821,-0.5004971951520227,0.06194105493295074
15.94,-0.4007942703792808,-0.5149369825708684,0.1893936735783661
15.95,-0.4365417478222163,-0.4219103531019605,0.12512539129692757
15.96,-0.8413217636472767,-0.5238325950486402,-0.2127495929991242
15.97,-1.1609698458935946,-0.9061444110207956,-0.459700342484825
15.98,-1.14500974878514,-0.9495024422295694,-0.2933054986576198
15.99,-1.057950242369022,-0.3255835410428652,0.014869387399957803
16.0,-0.9798717019311393,-0.060041435798276,0.15255385725720297
16.01,-0.8224459785280452,-0.30501998563078997,0.1879779388325956
16.02,-0.6953721880000644,-0.5810743043393063,0.15895689705528712
16.03,-0.6998741908631811,-0.7353260366321941,0.06473718396438617
16.04,-0.7253895243733856,-0.6538747997406366,-0.05810268911768678
16.05,-0.7428826427806042,-0.8355023486919871,-0.15462057412488553
16.06,-0.7165069591304329,-0.49365187224538476,0.01523180776928928
16.07,-0.8178812182512212,-0.4243936668035736,0.14146042721466437
16.08,-1.0594051556421116,-0.5645831974201254,0.06391669189744914
16.09,-1.099866599505261,-0.6801382988744197,0.05298722723496786
16.1,-0.9581938218387913,-0.5299363176519427,0.1660944920136275
16.11,-0.7679927049590893,-0.3931649974722437,0.09624886677653005
16.12,-0.7786409177100949,-0.4140257630508329,-0.11792996941486457
16.13,-0.7476304929725184,-0.43931763027595416,-0.25363889488021873
16.14,-0.69356360370461,-0.7275965116237609,-0.24692828285907417
16.15,-0.7056326265878989,-0.7902060234027707,-0.11995047882099259
16.16,-0.6746204739953222,-0.6815649406428202,-0.0359400883360756
16.17,-1.028765485126251,-0.2249325596400102,-0.00355070404896462
16.18,-1.3594986199542174,-0.06663669869157657,-0.10780480380728359
16.19,-1.4303421939567795,-0.5734721575387617,-0.11430786084914327
16.2,-0.9738264976353702,-0.6955133265599533,0.05474728529467649
16.21,-0.621020617381127,-0.4835369341370461,0.030951209739093887
16.22,-0.7291307429930336,-0.031417725806992224,-0.07699106222272352
16.23,-0.5317181513686707,-0.150941298665978,-0.13613670667948283
16.24,-0.753842854095131,-0.7732301560652958,-0.12979255727915534
16.25,-0.9822997575370334,-0.9481404468969701,-0.09379628716390738
16.26,-1.0008910893312206,-0.5646530403965081,0.047621116427688036
16.27,-1.0663507534241676,-0.23395927415350676,0.1507749194025853
16.28,-1.100918382047379,-0.3705425805510111,0.0910409664071123
16.29,-1.015700941056653,-0.40159347936467865,0.009862858008078046
16.3,-0.8633951236155203,-0.41802011407165235,-0.09164622851111111
16.31,-0.848799796999792,-0.5125459218600891,-0.1471074796410608
16.32,-0.700236405254189,-0.5217563733180667,-0.11057116692034451
16.33,-0.6559450581057508,-0.6469923439236185,-0.017537439885469103
16.34,-0.6866827846614285,-0.5422986791329162,0.041039699171592614
16.35,-0.7535075175895406,-0.37357794305308073,0.015713629405453317
16.36,-0.8491983438019902,-0.5328129301918029,-0.018465597067749345
16.37,-0.9718965684995331,-0.7706507447861143,-0.07576826571542244
16.38,-1.0876883988944626,-0.7064534015741858,-0.09138587037091096
16.39,-0.9619542556532477,-0.3429903932616493,-0.07838927836470665
16.4,-0.8020380727650842,-0.2643195496914352,-0.13337831460935734
16.41,-0.6910133919389388,-0.4995067469952157,-0.19279645980047216
16.42,-0.722265243530284,-0.7223034679644217,-0.213873156524533
16.43,-0.8429856934234093,-0.7462596382463828,-0.22851106330618748
16.44,-0.9340705570328176,-0.47721896548374687,-0.1986655794153944
16.45,-0.9059425542605836,-0.31723040198489094,-0.12297121309547075
16.46,-0.9212777514024632,-0.5916370685975,-0.10122099852641481
16.47,-0.9354577195140215,-0.6507774127560547,-0.1314712522542827
16.48,-0.8591416216560928,-0.5483874515011875,-0.20345339102441912
16.49,-0.7044058656234814,-0.4006558920277444,-0.2220792330689089
16.5,-0.6058829601124104,-0.5206900625247137,-0.2189018873694225
16.51,-0.7222054438120947,-0.7603185144514139,-0.25322013101864743
16.52,-0.8708614348710199,-0.692104022370824,-0.24477421294001253
16.53,-0.940225319054088,-0.7217990257441022,-0.1342244995593468
16.54,-0.8665843972604457,-0.7173957285844818,0.06304472933939445
16.55,-0.8426826047634044,-0.4796646280949913,0.12401317790562891
16.56,-1.1178444721472334,-0.20790785351116622,-0.008004227268196962
16.57,-1.2255547463439038,-0.31838299513822454,-0.14427248823981384
16.58,-1.1284938416986712,-0.7024423773487177,-0.10832028181410301
16.59,-0.893013306412596,-0.733051128375815,0.0399343260221604
16.6,-0.7231930737778722,-0.43334558811382534,0.05712662731079844
16.61,-0.5872380423364434,-0.2694430449487549,-0.009366162505727936
16.62,-0.37503507343474934,-0.4920907971342985,-0.07841739288732942
16.63,-0.4891666699399244,-0.8094800471743832,-0.20818454379777365
16.64,-0.7744810131685925,-0.6970870998624746,-0.28778732386620964
16.65,-0.9295311280973252,-0.2805381477032486,-0.21241832700976704
16.66,-1.1912330351455276,-0.25288833814633116,-0.05078939488149856
16.67,-1.3241801253598822,-0.4248652167366798,0.10716657458236364
16.68,-1.1318265801482292,-0.454704074918086,0.12347650225072367
16.69,-1.0438835341443542,-0.3632953625556075,0.0028285543791777114
16.7,-0.8409685558119832,-0.21402998458926958,-0.1291641338633359
16.71,-0.7821455347975381,-0.4372377558411326,-0.24118081284243065
16.72,-0.8933147331992899,-0.6466623338272534,-0.2821846109347429
16.73,-0.9236389934790051,-0.8034941687662825,-0.20048999479985127
16.74,-0.7597490302811516,-0.840366214215627,0.03142763264664692
16.75,-0.42663852892977766,-0.7082474723338508,0.19908762343003747
16.76,-0.10969572196360948,-0.43714883567443374,0.2167679646540449
16.77,-0.4145967967428552,-0.15833979697271952,0.016543588083014354
16.78,-1.0586581710085483,-0.1993310698953069,-0.43830932353720875
16.79,-1.2729588754772192,-0.5977072429830467,-0.481634001319755
16.8,-1.2162595934841594,-0.9324156086989955,-0.09031079992207476
16.81,-1.0652285473521073,-0.7013052464562642,-0.002376751734070922
16.82,-1.1625491987789018,-0.2092869886880567,-0.025436839984413668
16.83,-0.7966027397350752,0.0594017106643943,0.10134918305690564
16.84,-0.7108472020226028,-0.3324919172386657,0.05872551782965014
16.85,-0.952167621004066,-0.7998055399504678,-0.152933236358423
16.86,-0.8947954722332742,-0.7794342856794274,-0.23411295043035554
16.87,-0.8341712278082056,-0.5002500445369947,-0.10178298119449725
16.88,-0.7038110063413687,-0.46789554635708097,0.07681790911442415
16.89,-0.648659089230453,-0.625241940269899,0.18509787682437373
16.9,-0.5955272971683826,-0.6521156465209962,0.12384321793923528
16.91,-0.7029412403478188,-0.6388248356403987,0.034756540983171956
16.92,-1.051399764780708,-0.6368984422151632,0.06159626842055783
16.93,-0.9520363911521551,-0.6265189275803323,0.027195062126533335
16.94,-1.1686017300443567,-0.3982665133237442,0.010180403163253558
16.95,-1.0227978815308536,-0.18677949692557663,0.047542291537279374
16.96,-0.8798822755217419,-0.32821271118813505,0.16163736624919964
16.97,-0.8126573707866263,-0.5453976273901505,0.14436946754295027
16.98,-0.9930434224182093,-0.7632867189301396,-0.038770952200330666
16.99,-0.8436915843785474,-0.5017136995375483,-0.11698618876575259
17.0,-0.4823256914497859,-0.38981321281181947,-0.0727139399213309
17.01,-0.5282258397330357,-0.5980343846848609,-0.08431605261284003
17.02,-0.60940760567021,-0.9983906557869512,-0.1688244411564923
17.03,-0.7833326767033353,-0.7631926154271528,-0.08001387530056647
17.04,-0.9669304777178144,-0.18524447922542636,0.015765815616590406
17.05,-1.1370777166051151,-0.16713836143034547,-0.07571749156752383
17.06,-1.3319611546219,-0.4407842897826558,-0.12461814482762794
17.07,-0.9884150144640279,-0.7327225974166435,-0.0462492706525587
17.08,-0.8643757166298084,-0.6595070567269342,-0.0692562306752878
17.09,-0.6363629487188964,-0.2109426926661925,-0.14797905786863705
17.1,-0.48833036734997093,-0.06641506559874207,-0.14051959455613128
17.11,-0.7020674324813218,-0.6391892691127646,-0.16851621490574628
17.12,-0.9952638318950506,-0.8961360768794197,-0.16274796284425802
17.13,-0.8595628831257446,-0.8293702358150369,0.008698440074549974
17.14,-0.9085822439390403,-0.3245575844784586,0.2387351222615818
17.15,-1.0227253217661396,-0.015879896544552335,0.15539418535421343
17.16,-1.0766822642056226,-0.22880916022905742,-0.106435428864019
17.17,-1.021991588375027,-0.4451088008728318,-0.21710399110794357
17.18,-0.999449101098253,-0.7325348091980344,-0.18912003869813696
17.19,-0.8460932239458077,-0.6289710078800734,-0.06546945631075805
17.2,-0.6435620182749368,-0.5576926911136874,0.038916744436484234
17.21,-0.6756306503361457,-0.472397201603567,0.12104161602233675
17.22,-0.5049559309767229,-0.30940345034283734,0.14546011573392284
17.23,-0.5962673671402212,-0.5283274114388151,0.03186834675630902
17.24,-0.9855475036883364,-0.48480541573061003,-0.1401095148831606
17.25,-1.180454135809316,-0.7437908332483486,-0.2184510580311003
17.26,-0.9563683434632688,-0.3531413290561866,0.009991131752643807
17.27,-0.7173485489295907,-0.3828633461649543,0.08970969448796641
17.28,-0.769046040718105,-0.3879788138394565,-0.06021957191611041
17.29,-0.8133704301511341,-0.4443552934143983,-0.20627713644863
17.3,-0.8428929706061196,-0.7046514346217257,-0.32325902736527506
17.31,-0.8656096066450008,-0.767800714868129,-0.3231093998116256
17.32,-0.7929854248346576,-0.5743099696793452,-0.26104667920852437
17.33,-0.9493422000248978,-0.2143136028779691,-0.18939158653125276
17.34,-0.9545428452127949,-0.40601076901077304,-0.19629035240204032
17.35,-1.0363159677398954,-0.6867634029610294,-0.18283509386017244
17.36,-0.8997092946414692,-0.6176376640263561,-0.14638727436347174
17.37,-0.8433186172553221,-0.6524288460708203,-0.1706619773554553
17.38,-0.4756343303442221,-0.6285684071781202,-0.11230416659966981
17.39,-0.37095680784111934,-0.6454061416261117,-0.09490516611142498
17.4,-0.6214530326082737,-0.5154174741821926,-0.14293236300631074
17.41,-0.9113107054691562,-0.6803626483704739,-0.1617561853947945
17.42,-1.3082030402788705,-0.5424993001224131,0.009452219965518531
17.43,-1.197419943654567,-0.5756585640968656,0.2121998331431212
17.44,-1.1518887659603922,-0.39116587497593835,0.19097080571244754
17.45,-1.1174875812856087,-0.12349688803329115,0.04324979372344725
17.46,-0.9416537578496861,-0.3946182222909019,-0.13318325957216928
17.47,-0.8843277777324063,-0.28981745769664063,-0.18733693144593533
17.48,-0.799439338742476,-0.6359142373069107,-0.27720181961162527
17.49,-0.6809533687813891,-0.8565252258049215,-0.11339265981656002
17.5,-0.5881573029781011,-0.7382808196479428,0.09586286983329899
17.51,-0.7501953964706191,-0.4010879479556778,0.13275848298114568
17.52,-0.7327766071368823,-0.2917732022658271,0.023317438870586286
17.53,-0.9255263126666262,-0.586420119451972,-0.20841820716674683
17.54,-0.9624762610872676,-0.5199059008710308,-0.32178354628157324
17.55,-1.0284968769908445,-0.3114199423073759,-0.24644201188640263
17.56,-1.0453818025666624,-0.19071501098742372,-0.08729571261352792
17.57,-1.0680448609521127,-0.5150835197444544,-0.03451784509299135
17.58,-0.9619906801290796,-0.45043285371838404,0.095620069993273
17.59,-0.7225046739982897,-0.6189214530303099,0.08597419406650739
17.6,-0.7413262110761805,-0.5698515812084138,-0.05055680539031397
17.61,-0.7666620958159545,-0.43591560748851604,-0.180532826959577
17.62,-0.9438586102322074,-0.4737003976683599,-0.2307512192721824
17.63,-1.0396733975483525,-0.5364202487929166,-0.12015504875627814
17.64,-1.1343650170487543,-0.5298079961604985,-0.026833560248337194
17.65,-1.0199459974423355,-0.6308942661330197,0.027218166921186296
17.66,-0.825375653372778,-0.5610479943336376,0.06963061994030585
17.67,-0.7488690907790108,-0.3774632277217108,-0.01182244652256223
17.68,-0.6659473571118755,-0.6098538361882991,-0.2799950850952487
17.69,-0.7133305077286701,-0.6235241515851343,-0.3388493903819241
17.7,-0.7624895433736407,-0.6093076343323082,-0.17721499464947518
17.71,-1.038572700954017,-0.6069341247540547,-0.054615317126354805
17.72,-1.0792943603833136,-0.6312978324269083,0.07980051315691852
17.73,-0.9233099541733717,-0.5138792610716099,0.24520230490343214
17.74,-0.8358720139893842,-0.4019689292377252,0.23209927525049046
17.75,-0.8535850641655917,-0.27250946431104084,-0.019686996971857038
17.76,-0.8110355888368668,-0.5226178752082162,-0.23731424856682642
17.77,-0.6093876601470065,-0.7237433266392979,-0.18814074489680432
17.78,-0.5790966019715554,-0.6722509164493952,0.050482151389986143
17.79,-0.6618250621774131,-0.7991729700404917,0.12509448055384043
17.8,-0.9170680563322675,-0.5975230672474782,0.08227982138067137
17.81,-0.9122095001382337,-0.3546292112461574,0.07697301755729088
17.82,-1.0205395262001118,-0.4874373354082098,-0.013400215335467845
17.83,-1.0586585062097864,-0.5692339090121314,-0.14993707632677827
17.84,-0.984879307562741,-0.5834623111091155,-0.1383468206933507
17.85,-0.8846485795801007,-0.5478798999303773,-0.03501579998661809
17.86,-0.7210511613037388,-0.4627689169229232,0.0239175950309217
17.87,-0.6844497173235258,-0.33651287938790464,-0.008879411026406547
17.88,-0.6922607478006139,-0.5117065736544908,-0.19974205704714432
17.89,-0.9380862434542093,-0.8600643772412438,-0.237725425332566
17.9,-0.7044197316026357,-0.6470400421250532,-0.11844947213211834
17.91,-0.9006031638539818,-0.4609696129921815,-0.10522763478583738
17.92,-0.9705095205532945,-0.08444718925845045,-0.12393577037917211
17.93,-1.0049304400842392,-0.24765246583821815,-0.17933798145027588
17.94,-1.1990320270426267,-0.45885590981198554,-0.14589330573301257
17.95,-0.946332612637003,-0.7049187165897294,-0.03407160550228309
17.96,-0.9117766491263346,-0.5994095565619312,-0.029432063620066812
17.97,-0.8572534101253744,-0.3911423461447176,-0.06081605776166991
17.98,-0.7162705727021098,-0.36027653603521254,-0.022344174364605986
17.99,-0.7044685773195352,-0.3651009971957534,-0.038311544676745614
18.0,-0.8905861828170808,-0.616520346719471,-0.11466653369936458
18.01,-0.9938942488441449,-0.7738870557485932,-0.07400416710433484
18.02,-0.8568626455263967,-0.5074893280162043,0.07351840432620137
18.03,-0.7878000260522103,-0.1524477190238782,0.08332265936582761
18.04,-0.6845122141442342,-0.3372809739587291,-0.0242472082253741
18.05,-0.7342607925891067,-0.5857808736344978,-0.14350598031968967
18.06,-1.0298972060942078,-0.5350520011298466,-0.22444213754921594
18.07,-1.0722615468588679,-0.6129923845380507,-0.16026887749610108
18.08,-0.9832288696594579,-0.6353619853472288,0.051466809817940724
18.09,-0.7602967345180984,-0.525919931904051,0.19796822983527007
18.1,-0.7455590434866343,-0.1754006615597074,0.12960414341522944
18.11,-0.8650486433251163,-0.26983723968806334,-0.08791008392264207
18.12,-0.8985540391137864,-0.4802769104686831,-0.2444180403828026
18.13,-1.106365011041003,-0.6849384802297918,-0.2931718571123477
18.14,-0.916410256442501,-0.8193817767344823,-0.15330432175608083
18.15,-0.6863173495467827,-0.5372685250381546,0.027703499078305046
18.16,-0.5664011846927427,-0.3947933317517113,0.055235906327401184
18.17,-0.6111439660007575,-0.4167382237792395,-0.09823848184217412
18.18,-0.7589672081886534,-0.5955518808976183,-0.36949600480171735
