seconds_elapsed,z,y,x
0.0,-0.7530517578125,-0.748779296875,-0.005889892578125
0.01,-0.945100530041655,-1.3428342855282858,-0.16124546802998294
0.02,-0.6777405946070726,-1.2676047781061657,-0.2382174558966063
0.03,0.12252946523960115,-0.2827501384935884,-0.23061704083661314
0.04,-0.1272043104173757,-1.1906018842633028,-0.054930638343050064
0.05,-0.3109404520608882,-0.6944894089656268,0.2031988408179552
0.06,-0.6251375491582035,-0.16586948687791744,0.07942910401640456
0.07,-2.061333074049331,-0.7707861365546806,-0.06075467781520151
0.08,-1.6301053647005064,-0.9117410301075336,-0.12958971441032413
0.09,-0.8360144919154405,-0.17320578631358047,-0.08756101951268064
0.1,-1.2060502636863335,-0.4780369548783806,-0.3497693228142333
0.11,-0.6026545719485752,-0.31381924181550674,-0.5767015761706188
0.12,-0.47557224609482085,-0.2839650565818051,-0.382816896384579
0.13,-0.5170658777357626,-0.8464204205692665,-0.26768118544812153
0.14,-0.2163273831830491,-1.0455397904638462,-0.25726996045416456
0.15,0.01958078015426198,-0.9995847016531423,-0.06289624759678564
0.16,0.18456176271336505,-0.12366578271093681,0.19655087562809936
0.17,-0.34281664990239946,-0.21945985778904853,0.12897181653611875
0.18,-1.2516072604868473,-0.45579383297883763,-0.10884105503381808
0.19,-1.2942336217675219,-0.391333226292403,-0.32370540081959154
0.2,-1.2379634023436765,-0.25640110205216676,-0.22538652246038957
0.21,-1.622738372001936,-0.4741367810725111,-0.09465551949436156
0.22,-0.6556425488500034,-1.212937684285124,-0.07689106800040303
0.23,0.4551760926979562,-0.7774938742243078,0.1443351057739725
0.24,1.2948667023624776,0.05163993868178498,0.24139710258517355
0.25,-1.0799490512042256,0.663368513074548,0.022574526840788728
0.26,-3.95051462277836,-2.483094418946493,-1.1420545224792045
0.27,-1.0943250963947324,-2.3748510733656327,-0.07893566078077632
0.28,0.20483857630646946,-0.8387225755225535,0.13197385673090442
0.29,0.1586705508379361,0.05719384003016229,-0.2792318648713819
0.3,-2.321260696092275,1.3302209420561195,-0.3575542221286371
0.31,-2.0572423697987148,-1.20566357544321,-0.946163047904196
0.32,-0.766366938596011,-2.108199504761358,-0.13791936767549265
0.33,-0.13489652367612834,-1.7361885461477427,0.3953100791603581
0.34,0.9954043421769446,0.09095057731965389,0.0476521196630403
0.35,0.13018691266986304,-0.2873028293938066,-0.09932996636618116
0.36,-0.9433726491099548,-1.815482459085352,-0.11675719062138643
0.37,-0.6252397158567252,-0.8131852137450429,0.03536672698578033
0.38,-1.5538900699650946,-0.7706951080355228,0.2784694378595661
0.39,-1.8419003374714393,-0.48015045307484105,0.08277856540822805
0.4,-0.6889234771324281,-0.022766070242839564,-0.22669889049071748
0.41,-0.7386500336946936,-0.1646166142710184,0.070575670795445
0.42,-0.8718230177232309,0.23172592122666505,0.04402845366417605
0.43,-1.3085083838679297,0.06453276861841578,-0.4463787326807775
0.44,-1.7302935770659198,-0.9806954888987724,-0.4021622103798969
0.45,-0.7424283963034771,-1.452104222298905,0.18451162208642746
0.46,0.03147436119834347,-0.817859055433417,0.1766667900863227
0.47,0.2646656191690155,-0.35606915632897485,0.050231419378678
0.48,-0.04651235534736723,-0.4398501046413559,0.05896759351321958
0.49,-0.3231201957735171,-0.4669965003766373,-0.15516101792718218
0.5,-0.7805622302547691,-0.21687463000469018,-0.2827391263770465
0.51,-1.7185931965937524,-0.10365230440921203,-0.18910629854791158
0.52,-1.9870064305883774,-0.22223886704736498,-0.029729645485730784
0.53,-1.6451679436695124,-1.1878975151822715,0.12668812198913812
0.54,-1.2178776481999387,-1.367323070271241,0.06997940746430446
0.55,-0.2840609509778446,-0.894123200519939,-0.13575613118592844
0.56,0.32207320153529545,-0.4397999462126267,-0.1990629862513205
0.57,0.43768942949064576,-0.9085700140724781,-0.410192100594453
0.58,0.020773096137344918,-1.3912633442835707,-0.5950960310159159
0.59,-0.47704095614964914,-1.2236465376257866,-0.37290821320577366
0.6,-0.8323891861385878,-1.038626755676657,0.13424692946647981
0.61,-1.0581993148684783,0.1300582294431881,0.47448545441149975
0.62,-1.5373369594178339,0.07784103571325643,0.31423062622153464
0.63,-1.682130874787986,-0.5937675237305097,-0.16178047347087265
0.64,-1.6449699647928613,-0.4232157311227624,-0.4383640379595575
0.65,-1.6393252589524592,-0.4714701661977897,-0.6102895775054364
0.66,-1.3838708752952253,-0.47482279971523184,-0.6432368013001787
0.67,-0.9023297629015137,-1.6861862112258248,-0.35671333231407054
0.68,0.09579910705322255,-1.5412539594186043,0.17233163079903846
0.69,1.2161325778114933,-0.26761568832052957,0.6427983371969621
0.7,1.152625680566391,-0.29732958556832034,0.7376765405817453
0.71,-0.46537606787192165,-0.659852858870238,0.32763402699110655
0.72,-2.1829841068866167,-1.199878634244379,-0.33121209756010933
0.73,-1.6512050610418878,-1.042490095263482,-0.4465004333851172
0.74,-0.8764377423801107,-0.185648330172371,-0.13776097046565747
0.75,-1.503374897414613,-0.1404382798395783,-0.36044958538300614
0.76,-1.2163173945944474,0.356985118081014,-0.2977860485130875
0.77,-0.749547126984877,-0.49587505628345585,0.028119116691159664
0.78,-0.20866734674027276,-1.213189119143456,0.03106320454866785
0.79,0.5139021369564516,-0.740795300435177,-0.06062217389637904
0.8,-0.010806861457287167,-0.9716883599201328,-0.25796272714196683
0.81,-0.8837097325905162,-1.5541834738024214,-0.7048883981950095
0.82,-0.4768294010003831,-1.150185949664604,-0.7664122241729379
0.83,-0.058859122929101046,-0.1385326082388279,-0.1762375377875062
0.84,-0.22998207052610625,-0.02796761598737526,0.06403383426974495
0.85,-0.8219248699529321,-0.3324147938020163,-0.14594165020196329
0.86,-1.6067144103825468,-0.6936285084368883,-0.28545980338173366
0.87,-1.8610560215915413,-0.5177847838270592,-0.33298869925287294
0.88,-1.9142800155874795,-0.6695554208019135,-0.3282936161310567
0.89,-1.233888470973513,-1.2026080746512051,-0.1573710797591832
0.9,0.09359229540751117,-0.8347754877495734,-0.06395927944910122
0.91,0.7899882530153975,-0.7016723711407663,-0.04797694206474286
0.92,0.6631268391525279,-0.582894503726925,0.11507271161553921
0.93,-0.4909692355262967,-0.6061112621239407,-0.09841087610569035
0.94,-1.7402974550404902,-1.4509942949104098,-0.5841741525400285
0.95,-1.5846654004443164,-1.1522473511444635,-0.3296149646899129
0.96,-0.7519221003548846,-0.36969239628440737,0.11124641423136479
0.97,-0.5396614573403007,-0.050904070321448995,0.033499918196634414
0.98,-1.0502127239784134,0.20388157479452573,0.03954048372860138
0.99,-1.5083384081940454,-0.2551635669580962,-0.11935002269723323
1.0,-1.488402426698878,-0.8710529640980275,-0.213973847094181
1.01,-1.1207603549464469,-1.1801074132970355,-0.030338027713461203
1.02,-0.0747308932238119,-0.761552846409666,-0.10724004945514852
1.03,0.34422196556221196,-0.22664757024714371,-0.23308021029124643
1.04,-0.19420894359693622,-0.5253517358959406,-0.1272925559618396
1.05,-0.4403015291642103,-0.6772817844078921,-0.1339484613877493
1.06,-0.10228275660973278,-0.39754550753831236,-0.25912581535196055
1.07,-0.470786620752211,-0.12275387975269998,-0.19831449299975526
1.08,-2.066066442819028,-0.41129784964023386,-0.329796671805916
1.09,-2.047557212241568,-0.7533259119546863,-0.5210536319133223
1.1,-0.9608477710148408,-0.6652433433700498,-0.12355566023624336
1.11,-0.855627538411056,-0.5601987970667209,0.16282896769596966
1.12,-0.5332827691202745,-0.33724515722801335,-0.07794387724190834
1.13,-0.398884060296567,-0.3394881586557123,-0.2224555637118739
1.14,-0.48719946693857336,-0.6415000313536162,-0.19505135318494696
1.15,-0.5480741577387779,-1.123357217257702,-0.21893628918595678
1.16,-0.5453881795667616,-1.3510233678464891,-0.18532104821533538
1.17,-0.502312520824041,-0.962203472063387,-0.0711132376620182
1.18,-1.0018257014616294,-0.39871274651913463,-0.003754244437347238
1.19,-1.3057249135223543,-0.3177348469965828,0.06652756543825028
1.2,-0.8637806942825508,-0.5440895719031215,0.13340074143792327
1.21,-0.48553335245914037,-1.063815592725222,0.029199145919832643
1.22,-0.4803618164840526,-0.7444081724640341,-0.07568664131665742
1.23,-1.6421228650386432,-0.46968001144193283,-0.2882617167140348
1.24,-1.2869077344253383,-1.0903958733946593,-0.6384975033821533
1.25,-0.07215017137031239,-0.817547753527859,-0.3883178734889608
1.26,-0.282285130863542,-0.9047787183402152,-0.054672492680096815
1.27,-1.1706116596896667,-0.8304369812400955,-0.14686025497689462
1.28,-0.8626303300883265,-0.8194205756511429,-0.32365512988242356
1.29,0.43375114920682545,-0.4273530938939584,-0.18501692810931838
1.3,0.8440111515515235,0.03893828685562156,0.005805703910317505
1.31,-0.8795605905267051,-0.3909917326373654,-0.22548348969375942
1.32,-2.257164925854287,-1.007667822188913,-0.8461387639515854
1.33,-0.9930396628762097,-0.9770705482156726,-0.674448120901788
1.34,-0.2541583276201508,-0.6486516042810425,0.1399997893046534
1.35,-0.43704936440681363,-0.5902142630095623,0.281813070686439
1.36,-0.4846160447798365,-0.26540723768243674,-0.0813065639953162
1.37,-0.5692242143620123,-0.45106055604844053,-0.35269217733003966
1.38,-0.4513659349402672,-0.8988103644595844,-0.43703482755746764
1.39,-0.29865296830624066,-0.9227511726377932,-0.3811400091911062
1.4,-0.5128358107230968,-0.9441160510592626,-0.3922264228610354
1.41,-1.4445550420335365,-0.7728167071891886,-0.3578233319812133
1.42,-1.529962829901292,-0.6829169973311419,-0.15309381461598653
1.43,-0.8820187480840528,-0.8040182362269234,0.13814307815671
1.44,-0.2812587858171201,-0.48482242248538365,0.17313053501983755
1.45,0.0336089031765955,-0.04540092395663537,-0.10714144441473061
1.46,-1.0457585025180776,-0.4840980723644282,-0.3134294437096596
1.47,-1.2505985954654653,-1.0231918175917438,-0.4417288325886761
1.48,-0.18100136212670995,-1.1222831645985478,-0.2780825445489488
1.49,-0.30127537750191985,-0.49951199682235675,0.20203130324901558
1.5,-2.096050769555154,-1.0960387783147536,0.02767545688293173
1.51,-1.4890321803287179,-1.0447263333806143,-0.17161844118853728
1.52,-0.3754668547310643,-0.38826987910385674,0.15682325537154224
1.53,-0.09566184183946926,-0.9533897518911523,-0.006629752233260064
1.54,0.07211991202240435,0.22226967704430362,-0.26347388723441045
1.55,-1.4613764876250883,-0.7759211627396666,-0.5308179076659908
1.56,-1.2981776177054376,-0.7695011204778215,-0.5019284847649665
1.57,-0.7612663452989771,-0.26879628655288995,0.20098517704844895
1.58,-0.8974355079313943,-1.5025110152354775,0.5069016856613364
1.59,-0.1859179212057987,-0.8657327990859521,0.320145242384747
1.6,-0.013745063750276013,-0.10445880459559187,0.13259967252372118
1.61,-1.4916830819777231,0.021239458935704454,-0.20051482979143137
1.62,-1.2842818894261292,-0.9651040026965676,-0.6571973720008583
1.63,-0.6781851735980177,-1.12677816466316,-0.4027060947788637
1.64,-0.43341571545168406,-0.6027668658626641,0.1099981690051068
1.65,-0.34147172903718137,-0.3145847734099476,0.23907913100224712
1.66,-0.8437437096602842,-0.25176027601675277,0.3358304336144966
1.67,-0.9200421537932548,-0.4750765472354839,0.24234303845213317
1.68,-0.8445238104655167,-0.9855755898620268,0.014134624883837653
1.69,-0.9517619831732829,-1.3258469067636864,-0.11516980534311756
1.7,-0.6513098835840335,-0.8837873143934347,-0.2070591100518439
1.71,-0.42258891387556297,-0.13085711192995703,-0.16622052023810513
1.72,-1.0522456760801873,-0.05672543850757982,0.017376073198333484
1.73,-0.9058190605436627,-0.8122002879256183,0.1056964130636829
1.74,-0.6583891429999701,-0.7133412207462986,0.30598542786763494
1.75,-0.7830843353346074,-0.4914274875308399,0.3056330232218934
1.76,-1.151968872154077,-1.0354101998464078,0.09848762606530934
1.77,-0.9097076245376476,-1.0705053532664033,-0.031011917087298144
1.78,-0.22862935427030628,-0.3581992064654384,-0.1271942697061725
1.79,-0.3844325199312173,-0.6642724344707251,-0.2464635237666837
1.8,-0.7732803986933269,-0.8035203500899346,-0.32138426488880567
1.81,-0.896750546659444,-1.1885761283906862,-0.2691258534443803
1.82,-0.9036153136344774,-0.7171163211847096,0.04500436310344816
1.83,-1.346301912802268,-0.396595126690055,0.20561520361113914
1.84,-1.0564876404079284,-0.8693739259415578,0.005079090706422363
1.85,-0.43924058652030207,-0.066523081606387,-0.018181371113440047
1.86,-0.4454845192240815,0.06314775103224884,-0.046169718374580455
1.87,-1.352384741846675,-0.8654909080579071,-0.3573995549229312
1.88,-1.3963668510372074,-1.0877014017193858,-0.5166444639035268
1.89,-1.0947427606945461,-1.2506768936557557,-0.08871985653733072
1.9,-0.5871649320051822,-0.5421063026761949,0.5269729378884807
1.91,0.24633760919125375,-0.8362229245339384,0.6189128389585846
1.92,0.9067047479174374,-0.014475561194765417,0.5589711081507751
1.93,0.10589824980791297,-0.10939118841798802,0.31300792471419053
1.94,-2.015884247106395,-1.450163426027647,-0.2075986842301145
1.95,-1.222081047058913,-1.1913215431554383,-0.4211660069212672
1.96,-0.16460077275864848,-1.0679479883613814,-0.11160824758018151
1.97,-0.2983468941847659,-0.2712158847578641,0.1836841829880336
1.98,-2.1856141093195696,-0.37886718022531646,0.08487225869884765
1.99,-1.0854409445284923,-1.0126951931151875,-0.08203586521107005
2.0,0.2785080730782654,-0.5093812371283117,0.33550084151264387
2.01,0.7451130621778511,-0.6575740285397925,0.3648991734008745
2.02,0.5456188920084084,-0.3660559248646241,0.046992310267942705
2.03,-2.3384853940728325,-1.032818546634068,-0.2745773919792734
2.04,-2.1187167088723577,-1.9893490411444672,-0.7962690060598547
2.05,-1.1120658875075087,-0.47637379229435445,0.26685479193035966
2.06,-1.3568675285938137,-1.055941220358439,0.39685252645455354
2.07,-0.5138202560213697,-0.40441378495600455,-0.11271485913743119
2.08,-0.5215198812874856,0.022779436840267595,0.09391075395499915
2.09,-0.9360555969868091,-1.1669033264142405,-0.03044937110209503
2.1,-0.5663099378528326,-1.0281917922605923,-0.23072880136789653
2.11,0.32012325935739194,-0.8927759893131928,-0.03983378845359959
2.12,0.9850794076333799,-0.356447166518552,0.15876328820018148
2.13,-0.07316409305338598,-1.0320900395258903,0.15636039119373615
2.14,-1.751362239985669,-1.6344302093383702,0.15489800339903476
2.15,-0.9382956277158392,-1.1986952497687786,0.013457083526090076
2.16,0.010390931118728165,0.5945864668634074,0.04234498450398967
2.17,-1.7503519065009108,0.2485219068411338,-0.0701491559935542
2.18,-4.829316440770884,0.39803972883294697,-0.4170595837285397
2.19,-1.388107778805289,-0.14966431599600882,-0.018883022212475772
2.2,-1.5769663215397698,-1.7820537892360029,0.31582100440743344
2.21,-0.5186542407039123,-0.5038886397610499,0.09821839028610005
2.22,0.6492888824947881,0.4768759872573416,0.3167782117543551
2.23,1.0503032551578528,-0.08959865441429354,0.14248552674841408
2.24,0.8234245418371176,-1.440866435203599,-0.44582390240791037
2.25,0.2712629638780363,-1.8551819250349395,-0.5314873211005506
2.26,0.002675937479448157,-0.5997769260175211,-0.2448861967318189
2.27,-0.7646092077238913,-0.1894462827756078,-0.2968853404257307
2.28,-2.54228966128294,-0.334229964708475,-0.36536584639124164
2.29,-1.7518966855942009,-0.3448845709805837,-0.1108067917728651
2.3,-0.779112979851204,-1.1418394459398715,0.2686862066522991
2.31,-0.34988693024730555,-0.0958107890576502,0.22266200067582406
2.32,-0.5702756810986676,0.3576918001945539,-0.11516495828697902
2.33,-1.7538725785672988,-1.0422705545794666,-0.4154424561397427
2.34,-0.5209725663529412,-1.3364531124911492,-0.2557233610016098
2.35,-0.3900583395017839,-1.644582795755358,0.29078276492095534
2.36,0.05263208965791662,-1.1750419855268694,0.3022113306547883
2.37,0.749677526159128,0.3871480855134675,0.07919865857744325
2.38,0.09968669737557474,0.06550488789630625,0.06255718527980544
2.39,-1.6801733680475972,-0.44521719946647487,-0.19468179265663618
2.4,-2.0576403421212834,-1.167097289631988,-0.7748836242664534
2.41,-1.3635306620199616,-0.8008905506997096,-0.3243537830413285
2.42,-1.3091050285293158,-0.6658677516114457,0.19889688801758545
2.43,-0.6397774830237453,-0.9172618667241822,-0.15073138416358697
2.44,-0.33343282830184123,-0.9202630699954847,-0.05151870500024206
2.45,-0.35291695517598654,-1.1061178922396087,0.07149812273034442
2.46,-0.5062267999939303,-0.7957386064374687,-0.2482595122808723
2.47,-0.8527546990932422,-0.9872191529487675,-0.3232035857953124
2.48,-0.7452926224071736,-0.9495542218054743,0.013918323979036524
2.49,-0.28646983205982657,-0.07535849502564938,0.01989617215807647
2.5,-0.8497176749392561,-0.5659766805254481,-0.027704097469658892
2.51,-1.4402711361335665,0.38811129965605107,0.14945556544824837
2.52,-0.7084058493822593,-0.11007456750000379,-0.18826094995732742
2.53,-1.2184323040331233,-0.8023837012774573,-0.14921092757847773
2.54,-1.4635566899299743,-1.2328166768932296,0.043140435703003986
2.55,-0.36354201020891036,-1.3100519372340562,0.018243527366176997
2.56,0.3593816679546012,-0.5337110886357935,0.13181954885996297
2.57,0.20267634026126005,-0.6687500095795593,0.0318182195376582
2.58,-0.31975516890263844,-0.5221924687416808,-0.24828984644936075
2.59,-0.6797381967100455,-0.5244032461289557,-0.5158990833459889
2.6,-0.97097387007897,-0.8152661461550946,-0.5407279909130646
2.61,-1.1452534115321826,-0.9627137083688683,-0.3462516503068117
2.62,-1.1786813106291383,-0.624789806550592,-0.16686360566808012
2.63,-1.4372646691438358,0.24428325830101372,0.02802418750250537
2.64,-1.2749191684259977,-0.22826186524862313,-0.04303962546775821
2.65,-0.7282371375040574,-1.0893318433002308,-0.0582083888556078
2.66,-0.10589638864979656,-1.2512060359765762,0.03775494208883504
2.67,0.5968037241050416,-0.7022484766540678,-0.06380218338196597
2.68,-0.09721206549761781,-0.36527783627666116,-0.11412682014463757
2.69,-1.2040825821099175,-1.077619997742908,-0.2621986314495908
2.7,-0.6067310278617131,-1.2385465948633319,-0.2670670064589571
2.71,-0.25288617308025213,-0.7793555553956282,0.06345222897540198
2.72,-0.10841397211570523,-0.9048860373138293,-0.0032026177634326995
2.73,-0.4909972650523071,0.2833437878917752,-0.09445001846741193
2.74,-2.2124958285309173,-0.20898757000530319,-0.3026387381370843
2.75,-1.7466365028666038,-0.807774867017845,-0.26557211668686265
2.76,-1.1241604660813997,-0.9797092551140298,0.42814338217768005
2.77,-0.9610409410572126,-1.0648944596133516,0.45276851573597415
2.78,-0.31803058319661376,-0.23503894891977506,0.06792153427127785
2.79,-0.5235900287595597,-0.14230326245815045,0.01467452437068689
2.8,-1.23467060605674,-0.408306315971219,-0.1527764314127096
2.81,-1.3681444125659679,-1.2283620614241437,-0.45822439179462504
2.82,-1.1629081047802774,-1.0789849610273703,-0.11562148308776213
2.83,-0.5154663702696424,-0.6071272664504007,0.17968314376766836
2.84,0.010190700462532086,-0.19132906983833511,0.1818876787618065
2.85,-0.44124982579983113,-0.6212423241924836,0.27652092579696097
2.86,-0.7290535596296405,-0.7964045483662309,0.1294230596090507
2.87,-0.4199050377929481,-0.6001138479447107,-0.25558699685870756
2.88,-0.49340704704830535,-0.7191349083901546,-0.3210121763512682
2.89,-0.913270608068643,-0.9509763797177635,-0.27671169886160335
2.9,-1.0073056014705715,-1.0363043425165308,-0.3080773313813271
2.91,-0.6056794280137994,-0.26915134072940183,-0.12213676546939821
2.92,-0.41959475285020525,-0.01345045096216364,0.050657783338576505
2.93,-0.6905775913180523,-0.3915395550506076,-0.04391200566070079
2.94,-1.2201278333599586,-0.7628906011224336,-0.2868291254130672
2.95,-1.373629388328341,-0.9718600238143672,-0.34597775925368085
2.96,-0.7252050456105112,-0.722854403182664,-0.12725372299486845
2.97,-0.2810691326367617,-0.4787311904829388,0.06289786253893125
2.98,-0.17158328737177572,-0.17969115264846644,0.09041027127849632
2.99,-0.6694876992844419,-0.39249398386982315,-0.005449996687777058
3.0,-1.036245144163304,-1.0121030063679524,-0.1371976578655334
3.01,-0.6152847156808159,-0.950031014428189,-0.1747035532999743
3.02,-0.43649520363162925,-0.7510585892978565,-0.14479393912380745
3.03,-0.7300294903462972,-0.6514600821845417,-0.05745274696374718
3.04,-1.0956131725447509,-0.5739647457272911,0.060787315072981025
3.05,-1.1977854133365866,-0.8353938646595368,0.08869750102323391
3.06,-1.1483247499289106,-1.2512845181862131,-0.041435739447413765
3.07,-1.0019008352421952,-0.9573099036616793,-0.16913639690975027
3.08,-0.45709962976311497,-0.5154683794240675,-0.21679552029316088
3.09,0.2133604416630093,-0.2611185412734231,-0.20341912876528478
3.1,0.4259166719400947,-0.21719390515845047,-0.19944841026919835
3.11,-0.478380744654784,-0.8185551011275755,-0.26042569159922896
3.12,-1.4737582412653167,-1.1267585162221572,-0.25173543663483033
3.13,-1.2073639676504382,-1.1495271742479884,-0.06782542853685197
3.14,-0.47667420342289873,-0.8593087828959984,0.24819537227314784
3.15,-0.25785238871708993,-0.4922684256232717,0.296559855781977
3.16,-0.8557905343789254,-0.2937483253689931,0.08663056261917192
3.17,-1.366028446918727,-0.27329736966136525,-0.14834353749067877
3.18,-0.8807744105057245,-0.647561944456089,-0.24864728544572287
3.19,-0.886540722810016,-0.8862454947518432,-0.05423704479823393
3.2,-1.6953539467567371,-1.2165274819322087,0.009699744572028038
3.21,-1.6550644453827148,-1.126644818270417,-0.010200162169222109
3.22,-0.7459943158098186,-0.5724351086752246,0.26435974956426306
3.23,-0.07729383798162724,-0.26120060685226126,0.47582499398271383
3.24,0.4451157119535711,-0.09929177476612668,0.28016900788196486
3.25,0.2058455688872009,-0.41008729278823275,-0.01496610264425289
3.26,-0.9182929270377286,-0.89952431859059,-0.23095643095815452
3.27,-1.3529593281431433,-1.1955355435864057,-0.4265458990123318
3.28,-0.6441354416895256,-1.2397658895730026,-0.32216123055859036
3.29,-0.14305647486363957,-0.9095535880858272,0.0690796611751328
3.3,-0.2909187165316489,-0.23069716213333785,0.25618008278385646
3.31,-1.1507808981330003,-0.46693077974349106,0.11694745550586902
3.32,-1.2916762901154368,-0.8972677933444313,-0.03940968619082325
3.33,-0.7946259126515863,-0.48048333887101796,-0.0607697777229928
3.34,-1.869280838795271,-0.061320789988022636,-0.23806530288066247
3.35,-2.188383197244117,-0.2530215572291465,-0.7084449849841215
3.36,-1.1314823044450801,-0.7069456888896742,-0.521858783958218
3.37,-0.5003777313756863,-0.932872963831122,0.013757745545721402
3.38,0.3181437995075613,-0.5144935487404204,0.05614213841502017
3.39,0.4617176525588934,0.0065470212436226066,0.013257781060269206
3.4,-0.5663488106279742,-0.6120649258808661,-0.16202253057645027
3.41,-0.8856637265596862,-1.5323108058364379,-0.4002983312206616
3.42,-0.6448359718199386,-1.5077927375254634,-0.17630076813048623
3.43,-0.7023847503796727,-0.9149853569666672,-0.05205802988586275
3.44,-1.3841300712860325,-0.4281260897317739,-0.25354103830133096
3.45,-1.2924888334673912,-0.41808330505200486,-0.2440997672497519
3.46,-0.6753356456055206,-0.6983001639374236,0.09855525397483561
3.47,-0.7161883412431713,-0.47111191308646855,0.2355215039415878
3.48,-2.1859705911980303,-0.4468618759892899,-0.01775971738904298
3.49,-1.809294151432844,-0.8834725370236622,-0.1204488396659348
3.5,-0.29913914277339765,-0.9277787292295192,0.04037816375037705
3.51,0.3528262572211789,-1.0727018634949426,0.09197175227940364
3.52,0.7847756766163422,-0.09625804064971792,0.04469822750769195
3.53,-0.06533700053468948,0.13360100174186856,-0.09750856800311822
3.54,-1.2961476435548762,-1.254508570975301,-0.2647390216837385
3.55,-0.8039354469038649,-1.5854751097761974,0.035472389234805
3.56,0.16238878164605033,-0.9779960028290089,0.3961734388125528
3.57,-0.213282162473802,-0.43769937462494596,0.29673418625443376
3.58,-2.140827311257771,-0.5965283159710186,-0.15220626370707963
3.59,-1.2685776443564176,-0.9654990343981456,-0.45449739883320694
3.6,-0.13553183125317234,-0.8317349266517575,-0.05644412561391289
3.61,-0.11455064802794042,-0.6955894405662046,0.23883039651071125
3.62,-0.8269660999854996,-0.10425266732564493,0.12398648287755738
3.63,-1.7217649542314035,-0.36472699397204367,-0.09776019734266385
3.64,-0.8971766074008125,-1.0515541966826873,-0.06114860482836329
3.65,-0.2508188851032978,-0.9451663262866145,0.31015775960111797
3.66,-0.10352383093581899,-0.4008304760339494,0.22321913542974686
3.67,-0.7881527495292661,-0.05149448948287103,-0.2972632286231019
3.68,-1.3579827203605404,-0.9855972353286552,-0.5766957150556644
3.69,-0.7369976731797854,-1.5334833946204494,-0.21704796974099178
3.7,-0.5074208971680408,-1.068387364915563,0.22326242197459648
3.71,-1.1131301830480262,-0.6145396465106607,0.1303340388294728
3.72,-1.2266289802059926,-0.6450877861776261,-0.11325342818740346
3.73,-0.5026199584426455,-0.7063920101299812,0.008709067707999976
3.74,-0.01077211749633964,-0.7232904289413806,0.09772117629528904
3.75,0.027859412937588764,-0.4314787443343795,-0.10072828425094182
3.76,-0.7372974207324904,-0.6083949601695249,-0.3617871445823338
3.77,-1.514791979763284,-0.3657891972938629,-0.40449873745917225
3.78,-1.3921600359761275,-0.9932951330727899,-0.1502397470428845
3.79,-1.3456620821058691,-1.2049087416631128,0.23807147383554125
3.8,-0.7260890209357551,-1.025548252370541,0.18597477792907563
3.81,0.3222604352080447,0.08081186742985345,0.12045426315740607
3.82,0.3887233011349506,0.4479362373831994,0.05444552407138878
3.83,-1.8885082213806772,-0.4250587396761473,-0.5047188965339824
3.84,-2.0990718402561805,-1.654138231422383,-0.8847337013767597
3.85,-0.5716311440341707,-1.6217214022920126,-0.05435015392644468
3.86,0.5108967845735713,-0.5761408144299067,0.25775100305721516
3.87,0.6620539219715855,-0.12001259445702608,0.20741727008138183
3.88,-0.3491153436814438,-0.27402160162484585,0.3061248793518316
3.89,-0.7528048511296543,-0.843350684316444,-0.04086127927228638
3.9,-0.9549962055549425,-0.4436683441486708,-0.23707177766704499
3.91,-2.330844702309903,-0.8679421644511646,-0.03508209123725088
3.92,-1.4231873883428547,-1.161032488169955,-0.11644787649450605
3.93,-0.8805460339028913,-0.4423367341157981,-0.10144604413746187
3.94,-1.044721561856202,-0.225103236844505,0.22021943867517127
3.95,-0.47909757609835496,0.04874466797160873,0.22447347552108002
3.96,-0.797755124977015,-0.4404839231742266,0.011902611465772046
3.97,-1.436751087659588,-1.699526528356994,-0.16638618104899108
3.98,-0.5372809443215172,-1.3455657027202736,-0.08367876027038552
3.99,0.6171021876091582,-0.5994326412387265,0.15424442377804984
4.0,0.671862049564977,-0.08814656188299903,0.28583596146376944
4.01,-0.9489054716004586,0.21479586630092226,0.1277952729607879
4.02,-1.6709242278247987,-1.3570017867726456,-0.46202558967547425
4.03,-0.643075295733444,-1.2117415392327724,-0.2645411196207065
4.04,-0.13564593946577927,-0.6061580257141632,0.12563383779236312
4.05,-1.088696773424307,-0.20603635457269237,-0.024786722615865907
4.06,-2.3300145354855175,-0.48509600547461884,-0.5202155147832844
4.07,-0.4826915506042712,-0.36735309002707833,-0.3430870414859508
4.08,-0.37104732727692663,-0.7279172394419726,0.25930661539947464
4.09,-0.3391210693940336,-1.421833272234164,-0.022863528965349694
4.1,-0.53997676809602,-0.0867177377371518,-0.4010137666272703
4.11,-1.3842643484054047,-0.6395869397747842,-0.5858041034834405
4.12,-0.1297116290362713,-0.6001686403822349,-0.32308332124568395
4.13,0.16916169231613495,-0.32786794230540806,0.21137203360541149
4.14,-0.2054516524923863,-0.877726957707664,0.1276536690433526
4.15,-0.702805399999909,-0.40419859967107613,0.0490998708148161
4.16,-1.3522421443017698,-0.9929527280280983,0.11100874957399419
4.17,-0.3967324145281119,-1.2686545200697137,0.01826003478929242
4.18,0.44950145521597973,-0.3667053101413342,-0.11705625106333953
4.19,-0.5009186539546348,-0.3088489419255513,-0.26273536410787324
4.2,-2.554297153140037,-1.178456419760658,-0.46549921925536747
4.21,-0.8728696076378287,-0.8249247439652634,-0.2226454307914461
4.22,-0.561566692752245,-1.0272275863638065,0.30735452489425164
4.23,-0.5687543879684579,-0.4628493680367617,0.3822738705843413
4.24,-1.2053002026958912,0.2808843953718749,0.1602908843927166
4.25,-1.3798698268857383,-0.38587913486964337,-0.17122907478549343
4.26,-0.9577107331274733,-0.9287010673356234,-0.18370811457911856
4.27,-1.1218609902968946,-1.603219592067043,-0.19733177236704327
4.28,-0.6031732386116424,-0.7203082505030944,-0.264608919287182
4.29,-0.4672191730559405,-0.3298556515486284,-0.22247494470234316
4.3,-0.6356801269830605,-0.5474325222855009,-0.11093175274108227
4.31,-0.6020051680544068,-1.0383551945737588,0.0305653439879656
4.32,-0.3298961392776174,-0.9184330285595665,0.0531373788853604
4.33,-0.25828710331804466,-0.6510019039687385,0.05990554814435613
4.34,-0.6457463868869491,-0.8513104656075291,0.10879862063809383
4.35,-1.1162790724655252,-0.34697151324443,0.046554636540075134
4.36,-0.9896708491927436,-0.865947294876166,-0.21247342443791925
4.37,-0.5081001350033371,-0.7161414962572401,-0.10186687008725774
4.38,-0.34098898102551733,-0.03675188026962523,0.06703179448414233
4.39,-0.9637575518410414,-0.12695650078851606,-0.032891778112477135
4.4,-1.671085062385479,-0.5279111140820903,-0.13306985153579148
4.41,-0.7710365713028428,-1.110035645393406,-0.0037565495141199477
4.42,-0.41966250402869465,-0.5122039444627746,0.30229819638449473
4.43,-0.40983768109545604,0.20386478049549098,0.21786916431098582
4.44,-0.8550304741056224,-0.39970742256240277,-0.10229461798662567
4.45,-0.713414527929454,-1.4468401246818048,-0.2500216345184399
4.46,-0.11240785544628445,-1.1595273283943528,-0.18622779429851938
4.47,-0.3918612021800114,-0.5697675488080219,-0.21116089238433544
4.48,-1.7620546581822991,-0.5492180087486721,-0.4228294664291081
4.49,-0.8693739288761403,-1.0104018490712527,-0.5254076609126288
4.5,-0.46458938233375696,-1.035329486581609,-0.005611564511276981
4.51,-0.06355250501043319,-0.8151828308331994,0.1902210361910527
4.52,0.1654017689910935,0.4065911150722532,-0.04189488034735873
4.53,-2.398315156888344,0.19946966008505942,-0.2725013622891876
4.54,-2.444499167471788,-1.3457204601101012,-0.5589293224777555
4.55,-0.8760054008329019,-1.3731423958728481,0.17328670931718618
4.56,-0.7455432000462551,-0.906275730844717,0.10861583154986681
4.57,-0.31451055792195376,-0.3457679689596735,-0.363109493852056
4.58,-0.33105574437280755,0.18291382222186833,-0.18835426763944008
4.59,-0.5742549405497201,-1.0963732295178266,-0.19543034047182922
4.6,-0.5058813861578193,-1.4130698879469474,-0.17511275613779045
4.61,-0.3390126671475028,-0.7298404925361678,-0.022439757981902998
4.62,-0.32871231350405505,-0.5931849020204765,-0.08301881342268919
4.63,-0.6976032981246895,-0.42538731111969114,-0.007917725465652245
4.64,-1.2869269341937155,-1.0459196673962836,-0.016903734576699293
4.65,-0.2405709938943613,-0.4976638652102811,-0.12574233366939888
4.66,-0.10501435001933844,-0.014674775254328663,-0.14945262988733754
4.67,-1.824876352123596,-0.2739500423913312,-0.16603619036406797
4.68,-2.6925482074295726,-1.1854728827288248,-0.19942993289817623
4.69,-0.3325087293656397,-0.8476954003282112,0.05109558883898743
4.7,-0.36197087085007534,-0.8765216030773835,0.235692956715117
4.71,-0.26492980370212377,-0.28492286672398404,0.11465408293758556
4.72,-0.7850250878878003,0.02082798583988453,-0.17258577678247242
4.73,-1.1463688765644686,-1.5483615834829532,-0.4914281978685875
4.74,-0.30272383957939086,-1.2564936398080304,-0.2240893737170475
4.75,0.3923666250550208,-0.46146740684633947,0.17084024998737798
4.76,0.06497500096074223,-0.2967035537267334,0.13372909883854323
4.77,-1.3149219733843254,-0.21616464855131212,-0.07815324996126248
4.78,-1.2459913897052548,-1.6016355244721465,-0.2737738093091567
4.79,-0.17828148185333062,-0.9986182094661802,0.10071358932871204
4.8,-0.8094215943205162,-0.5948231503502338,0.2133220072690838
4.81,-2.344896863864289,-0.9613984896790247,-0.23586194002741023
4.82,-1.5126697196469876,-0.7332085762515073,-0.2987705083364218
4.83,0.03831565914565895,-0.7963787951975013,0.12904736049084467
4.84,0.22805467977829172,-0.6674139964036074,0.23018343336192376
4.85,-0.18739331684256333,-0.01922355441520977,-0.07782080212543978
4.86,-2.310323532221243,-0.6563586402877967,-0.4958224484610067
4.87,-1.8329021188793395,-1.7260887275302448,-0.47293017503587365
4.88,-0.1915761348276229,-1.1008380316173327,0.39798234707349195
4.89,0.003586766788261721,-0.615913138677826,0.4534176415755416
4.9,-0.1438499964847619,0.03345857724643442,0.05274425751327218
4.91,-0.9589526968826424,-0.2611060638859723,-0.30422623899206536
4.92,-0.8510750084107515,-1.278859505157035,-0.5293067270460676
4.93,-0.29467241919210013,-1.1959125127420969,-0.43219835393136286
4.94,-0.19724147498012237,-0.7376300376935967,-0.23687038530152196
4.95,-0.2604909934743589,-0.21575186015752765,-0.14011151648518713
4.96,-0.9881347039489204,-0.46859460525848184,0.05726409915097484
4.97,-1.397659068227926,-0.9901820395840211,0.21301138095787475
4.98,-0.616457645206032,-0.8800642190551938,0.13319550473620073
4.99,-0.19408195268817235,-0.11091529788592118,0.07325776065636878
5.0,-0.7359437124985548,0.5959254715788186,-0.11478797261572597
5.01,-2.150223995774956,-0.46947881666738506,-0.4370705038795068
5.02,-1.3279295261407944,-1.2657078575896872,-0.31904607888469266
5.03,-0.5970774938463012,-0.8046663670337787,0.3201747607239368
5.04,-0.45203872930660266,-0.5069535602639577,0.5342041198257382
5.05,0.06637316989139114,-0.6543149773856988,0.24008145813841972
5.06,0.2513992412481303,-0.6432875653238064,0.06969446309721068
5.07,-0.7950673230104095,-0.4611200852656571,-0.17239471947506085
5.08,-2.1779976029585146,-1.122824145780783,-0.5159461456391707
5.09,-1.2570675565770515,-1.2486303975608173,-0.22631566404995135
5.1,-0.4444423067071001,-0.5653278380015397,0.15840919723651348
5.11,-0.8981597590505469,-0.83298488820087,0.03557365578222984
5.12,-1.5989859184913768,0.06616742044107553,-0.054724995205914374
5.13,-1.1919119621674814,-0.17348302607080454,-0.2973049316885145
5.14,0.05028181963637977,-0.9488799753194834,-0.24293568773119797
5.15,0.6075383368504104,-0.8612002998950598,-0.032501649589911204
5.16,0.38565163702325456,-0.5869738293028872,-0.09705835891485817
5.17,-1.084680274881489,-0.9844079584152198,-0.34302439764943493
5.18,-1.3258737964869545,-1.4036052337882567,-0.4527405867372733
5.19,-0.28620103843357436,-0.4321017187196147,0.07915663740225248
5.2,-0.43605218863791845,-0.17325058595302015,0.32529782232568055
5.21,-1.3793797653436561,-0.33734443093451644,-0.05738102169923392
5.22,-2.032914959685182,-0.44559605691810467,-0.3555213044338353
5.23,-0.9486931335584586,-0.6501861302794797,-0.19729216788255327
5.24,-0.4018601530818093,-0.49851063021564623,0.27685761462827263
5.25,-1.1687546966469686,-0.4527654716126876,0.24899140197707265
5.26,-1.9189903909483552,-1.1554747449918352,-0.1335425272461138
5.27,-1.0059715809166063,-1.5007977919317022,-0.0953799348508386
5.28,0.5302195341648582,-0.8455022397541571,0.20317460650249827
5.29,1.4375420985538867,-0.2600201897760566,0.16591369601963968
5.3,0.9613089022265415,0.707250380909473,-0.09332903299687545
5.31,-1.45523409129843,-0.38143588895926417,-0.6321053912998128
5.32,-1.9899597287730535,-2.208225604655801,-0.7763953854967611
5.33,-0.14833258183740908,-1.6616376740368375,-0.03246988163322619
5.34,0.09610798604795474,-0.5501052326925472,0.3341332150850564
5.35,-1.606250493107089,-0.056759402315271004,0.05668892117071403
5.36,-1.9425330534894376,-0.215536766310402,-0.2917657113222301
5.37,-0.5145099777712745,-0.7504197942835931,-0.0825053795101705
5.38,-0.4631931581746527,-1.1742197041373097,0.20440819130328966
5.39,-1.09319484281205,-0.6642601269557821,-0.16640094142341783
5.4,-1.8293396762550835,-0.16915040721153496,-0.536863448469414
5.41,-0.9375649082361505,-0.6553645220516574,-0.39906078815042806
5.42,0.0520762547271498,-0.850364259009991,0.23339313855566682
5.43,0.09505855680431526,-0.8087175328657311,0.4340978663791335
5.44,0.01637090523742613,-0.44821576867244817,0.060853772316376196
5.45,-0.8226434303865916,-0.8407898125118735,-0.21971730265944833
5.46,-1.029175563585578,-1.172320351872951,-0.3298693472248641
5.47,-0.5218472540185991,-0.7481870304131735,-0.34834811999264387
5.48,-0.5728602136506304,-0.4070180517893743,-0.3496980332389043
5.49,-1.0612845020265884,-0.14983264232314247,-0.3348958895715329
5.5,-1.2833973714504248,-0.24048021865490923,-0.15174317654618294
5.51,-0.9525267429702527,-0.5383483952585676,0.08548090547498469
5.52,-0.5717342589655746,-0.536577090938259,0.14317105350440767
5.53,-0.31597071583743186,-0.2018263966626078,-0.02020513930684047
5.54,-0.9266417764723441,-0.06475346212660575,-0.2486859946656944
5.55,-1.454118696311363,-0.8098694709939137,-0.49941047615493567
5.56,-1.0736240262430148,-1.2680341393996297,-0.4261611235250211
5.57,-0.6453129870328023,-0.7770297092788523,-0.05207883649452066
5.58,-0.2969938988823657,-0.09320346958767402,0.08438673986742894
5.59,-0.341068501451455,0.026405437954490418,-0.04149234660664048
5.6,-1.0914883369856043,-0.49904796862674083,-0.2940410380857292
5.61,-1.353599886854382,-1.0749274852162911,-0.4693455467458869
5.62,-1.1014925584261368,-1.321094221141997,-0.31861759225557257
5.63,-0.637775514608491,-1.0837455010205912,-0.1799664626838318
5.64,-0.06707031458088633,-0.5589442223641674,-0.17702585813705105
5.65,-0.19068070096112918,-0.4894288437235025,-0.09478402987434613
5.66,-0.7642456587627413,-0.5924476948576454,-0.08754856966383777
5.67,-0.8426715331133393,-0.4911058698381869,-0.21170144236064248
5.68,-0.8144621413530226,-0.5244258198363163,-0.1841533664257092
5.69,-0.7069049933632429,-0.5705367553974452,-0.15698246528761625
5.7,-0.7793558959601111,-0.5706912744013649,-0.1153741030233393
5.71,-1.635889780434653,-0.8384862401705987,-0.0837847324406501
5.72,-1.2126296817804247,-0.4204346441907894,-0.13711543809596852
5.73,-0.6682740114858617,-0.9583042591356062,-0.12721274148251063
5.74,-0.09803661195618327,-0.9804432143948345,-0.04462410780769504
5.75,0.585503100506859,-0.19528326820767475,-0.01016196433717146
5.76,-0.14658757728758975,-0.5373651831420779,-0.0533126865485364
5.77,-1.4653104134780042,-1.0647021302037039,-0.2335561036694801
5.78,-1.0780893548671069,-0.789863013828299,-0.285129212916786
5.79,-1.4941609588256761,-0.29569293518549133,0.12481499429255892
5.8,-2.651403553057884,-0.770526249018184,0.14753859183234286
5.81,-1.5005958248185811,-0.9926718466973001,-0.05684972142120195
5.82,-0.4716198293787667,-0.8111859159003779,0.05382940485049032
5.83,0.4240939481036168,-0.10512984704117395,0.061484325439639054
5.84,0.8769606875898361,0.22228152923085975,-0.06208723012612659
5.85,-0.0896511611180865,-1.1688668793599575,-0.2544332702810125
5.86,-0.6493287696376988,-2.2260153159994522,-0.3492050240132354
5.87,-0.11281538448183817,-1.4688237305436278,-0.010442381764698836
5.88,-0.12123740140716012,-0.5119676739903201,0.31785677696311143
5.89,-1.4672022343941986,-0.2997655637432849,0.16181956129997505
5.9,-1.6890580791391856,-0.2978266696144493,-0.288955557486872
5.91,-1.0174596493494592,-0.763629735954341,-0.3227345049557071
5.92,-0.7972009142914316,-0.5575127097795034,-0.042883668740741065
5.93,-0.7418722644657563,0.18848994855800638,-0.02048105834730509
5.94,-1.7332867280888289,-0.5492917768404362,-0.24373190756944893
5.95,-1.1948540627337003,-1.1069036468561575,-0.14414833017396056
5.96,-0.3784255944021503,-1.3537033247219943,0.32608636410531083
5.97,0.3452513672401318,-0.8347037641057553,0.48343879028308184
5.98,0.5332054019731591,-0.12347294742721034,0.11212307156997645
5.99,-1.0381677920697905,-0.3519000991642972,-0.3908557131748933
6.0,-1.6818341073435341,-1.1960772411653455,-0.7853937354425529
6.01,-0.6051304795773983,-1.2736109633751205,-0.45979658778207194
6.02,0.2613740440299054,-0.536128048338892,0.08682108687930831
6.03,0.5217227331894589,0.1241813845841399,0.2245671166677828
6.04,-1.3812643878418822,-0.4127110009991585,0.125698437274859
6.05,-2.2790798705505892,-1.564245540572521,-0.3169634684461288
6.06,-1.5138853543363504,-1.1877584877491199,0.016256084833105162
6.07,-1.5193022633852202,-0.7382444995792878,0.3603625612818098
6.08,-0.686104906864945,-0.531746659886561,-0.2251297157247536
6.09,-0.0038947925286720304,-0.42690032317511545,-0.2395500345345821
6.1,0.17798071213311895,0.2996023778359099,0.23466241621389855
6.11,-0.6479662199035698,-0.3463773299635471,0.10292925527685343
6.12,-1.6534468074234632,-1.08575522758411,-0.09065371427689566
6.13,-0.7962727980352909,-1.40536744978406,0.23828458379008471
6.14,0.24071791379479124,-1.0390323102621497,0.5137351990494066
6.15,0.05677834408591685,-0.5440128172032747,0.5198674246643328
6.16,-1.1486980579680819,-0.6097517906040377,0.3512167478744818
6.17,-0.6204369787244348,-0.23281185268696827,-0.10397752869106978
6.18,-0.06462260115011507,-0.3550448792378062,-0.19413572109495206
6.19,-0.33093855124410887,-0.7566716506554457,-0.05977985812841319
6.2,-0.9928121325405392,-0.5650263508091428,-0.11690775890172295
6.21,-2.930581411068765,-0.26295919662306055,-0.3472558148534877
6.22,-1.6962488369608864,-0.7150179528867051,-0.15494291173995292
6.23,-1.1238905781372155,-1.2470294781824758,0.5845516863804088
6.24,-0.4969712620931215,-1.347193482765521,0.20852259343487697
6.25,0.6272441864386848,0.0954194096507897,-0.2202568278746911
6.26,-0.024999346265713564,0.5179214193111419,-0.057643002667545525
6.27,-1.1669142457055044,-0.5736869585022605,-0.2956315836559908
6.28,-0.6459230723518862,-0.9193724276170075,-0.3645144202386121
6.29,-0.48127060250890713,-1.41270018377073,-0.05857752153757177
6.3,-0.37657832023408666,-0.978658101491704,0.10427699261667817
6.31,-1.7031676243833709,-0.7714650720012441,0.10343868321765273
6.32,-1.2420916084065745,-0.5926099584929446,-0.08895328588239894
6.33,0.012533788874458295,-0.5214108954593815,-0.15170378655875713
6.34,-1.4637952270639125,-0.2901238011564646,-0.07563129821855413
6.35,-2.264828270180677,-1.6734815867176358,-0.3595355200507341
6.36,0.04942790262405305,-1.1949300355987045,-0.37422989948770846
6.37,0.996036117495131,0.2405690713656311,0.05142667297513788
6.38,0.15318447069168586,0.6242252812152771,0.11020912218501672
6.39,-2.867279068078238,-0.8765185111100758,-0.6415349424592257
6.4,-1.6783374260985495,-2.5522617387238977,-0.5371221595121954
6.41,-0.10701239739451132,-0.9798761695455381,0.3818492749059316
6.42,0.16550713505180495,-0.41224536351684166,0.16867901180638178
6.43,-0.6166930671050654,-0.29983362758932364,0.09904179602648659
6.44,-0.8966143407703234,0.40323462550802647,-0.041264586198853336
6.45,-0.38360884628718184,-1.6890328018924858,-0.5381998355596762
6.46,-0.38938978244449113,-1.471184923706589,-0.33797619816626806
6.47,-0.36800395786312173,-1.285098764200076,-0.2967935077671384
6.48,-0.3816932540697056,0.12680198833121717,-0.24183715296406838
6.49,-0.8726114555306583,-0.2800214554644351,-0.1016583649113665
6.5,-0.7683852820825455,-1.4209216086140957,0.16490084493660767
6.51,-0.44555985960045164,-0.0641677043190716,0.4662051146014036
6.52,-0.9773336497943389,-0.6691436026658377,0.21728778950163669
6.53,-1.8517163397768703,-0.250211615537975,0.0036298792016992505
6.54,-0.6517507552539015,-0.46629497303905293,-0.20925385886735862
6.55,-0.1894168395808894,-1.1205808110712965,-0.04325940906898784
6.56,-0.23912329473998353,0.784620913956128,0.208776832714621
6.57,-1.227827377716042,-1.0590486813723543,-0.3084602786340798
6.58,-0.43525089491276325,-2.8045400590032488,-0.48740390668113026
6.59,0.9800025600730569,-0.2372445564131945,0.12268473574219574
6.6,-1.7521933628836333,1.2271562158861846,0.31838787982986766
6.61,-4.050921305864438,-1.067824224582,-0.9304449110801507
6.62,-0.6632928705118177,-1.9320571811094938,-0.12266919339927378
6.63,-0.33017061814701676,-0.5396613832402561,0.23435773988660982
6.64,-1.9320701798785798,0.7867046471378877,-0.3948302206176686
6.65,-2.8957849081131304,0.12348762957384063,-0.9271543696149561
6.66,0.26656107998287054,-0.9939287609559236,-0.15693832367160077
6.67,1.448648923889125,-1.466455308039783,0.42091529790809207
6.68,2.5513855193042243,-0.07532994552790973,0.3165056379646349
6.69,0.2331367060969744,0.24129248824411265,0.09806689110599356
6.7,-2.506766274621762,-2.5571548519176504,-0.9528532662328342
6.71,-0.5696392235204962,-1.5463728452865844,-0.7050583105778088
6.72,-0.3700269274138877,-0.3788813423808556,0.5321738326280365
6.73,-0.6788279562293955,-0.3062950305684507,0.20906231937363298
6.74,-2.1012820851330605,0.6713374910792274,-0.23885653464069564
6.75,-2.5131217232341734,0.10424696899155965,-0.28398756149331805
6.76,-1.1115818822697914,-0.7999066023787964,0.25805747744066554
6.77,-1.3005149689365099,-0.6973154297593889,0.5939012076686696
6.78,-0.8736484674764364,-0.5421316899058133,-0.05425803307144812
6.79,-0.322436964182283,-0.7475940284481228,-0.5244823711770696
6.8,0.42027440983784203,-1.0276836016151722,-0.31068701319785375
6.81,1.0509734401575284,-0.879308164206145,0.005856650416738911
6.82,0.7101923357711563,0.0494017726853658,-0.05034365673172045
6.83,-1.2070219925644605,-0.3114274394147844,-0.21911233926533583
6.84,-1.8669816953424911,-2.436525447579455,-0.21992806668822884
6.85,-0.35556037197176843,-1.5718681023135024,0.2629010458573012
6.86,-0.5628891103477975,0.1200038850406854,0.39572683967029326
6.87,-3.1542323821431464,-0.16545751016671523,-0.3163654042243323
6.88,-1.4226211088279153,-1.594768861366365,-0.7753730743238841
6.89,0.23165957926709835,-0.6861505670524155,0.09884843182803395
6.9,-0.10196279367736943,0.2397121580925395,0.2606373771232181
6.91,-1.6998021187725139,-0.46010842041715366,-0.32503980951305456
6.92,-1.508882906803656,-0.1989168871321978,-0.46605949835060245
6.93,-0.20795138918664274,-1.7207765278890066,-0.017584401492653307
6.94,-0.05150078837195918,-1.5524977221208518,0.5618245348400256
6.95,0.16769145429989019,0.0009703182778583928,0.5804874669490375
6.96,-0.6135282300351901,0.044573359946584026,0.019887393325333094
6.97,-0.540730603395656,-1.5180574564481297,-0.47084855057897834
6.98,0.24379267019390727,-0.8930876028382584,-0.13964244618356325
6.99,-0.6504073993398074,-0.2925027248928415,-0.07527988247482259
7.0,-2.4905773130282802,-1.568574740914086,-0.7005509505921631
7.01,-1.1116456999510873,-0.7134358763380412,-0.6422540123327498
7.02,-0.2900697963980119,-0.3112582865205886,0.21004862042784322
7.03,-0.6309273968292219,-0.1482778554574215,0.3905357696701891
7.04,-1.2007359534919462,0.27418781461305686,-0.18930816388403796
7.05,-1.215908657565517,-0.8046412038039483,-0.5951276363948599
7.06,-0.4741135210552907,-1.2370122985473406,-0.24280613160106626
7.07,-0.29290053991617887,-0.9449721635562964,0.047226935922549416
7.08,-0.5533035603930915,-0.5103296646219205,-0.048064576991784104
7.09,-1.1855989742663,-0.7662740741266406,-0.2086816161043435
7.1,-0.785629543789888,-1.0597674249024112,-0.15103914561578113
7.11,-0.47757145117430944,-0.8211164613650975,0.28241723655260215
7.12,-0.368652049592037,-0.46377968785811907,0.3255337550761653
7.13,-0.5848714495355593,-0.3690745766853209,-0.023989130056481872
7.14,-1.0758042557719067,-0.8249944033640377,0.012054856153471932
7.15,-0.976048703986143,-1.0486708710843273,0.24578287537385382
7.16,-0.7241766353379457,-0.6518965539340206,0.29862663540747747
7.17,-1.130827007474677,-0.6366339073003818,0.17721027783050816
7.18,-1.1908103069172762,-0.8922721898533966,0.09037713844755707
7.19,-0.3729103654385962,-0.6797174843157798,0.12748818365362036
7.2,0.16086358485846947,0.13334982920216165,0.1332167170097023
7.21,-0.8812800931071408,0.0232363068109974,-0.19444376023812146
7.22,-2.45588396017256,-0.7931591063032069,-0.7176144213892209
7.23,-1.4549052242394647,-1.4787302494329124,-0.6180162278255231
7.24,-0.3253261250571929,-1.4343064875096285,0.06801379417281472
7.25,0.43070815059848644,-0.12058048005509664,0.18174389643654626
7.26,0.5058597731986774,0.116701443272858,-0.07264922643611581
7.27,-0.28143871861948605,-0.6568624082208732,-0.1964164855130659
7.28,-0.39919356977956694,-1.0370673171487004,-0.33595668838007264
7.29,-0.2897464605955297,-0.6715821855183359,-0.3945010774858778
7.3,-1.1456367801801948,-0.7051432237275658,-0.3116651535221374
7.31,-1.6917001696412048,-0.785266741969636,-0.2574217414037448
7.32,-1.1259221290567072,-0.41896347619249674,-0.05080851761933447
7.33,-1.0166511345709632,-0.3467508661150515,0.269213257823966
7.34,-0.7794608775112595,-0.41639325280352324,0.13464473353592618
7.35,-0.49382423339505604,-0.3424566522261062,-0.14280186369298878
7.36,-0.9827009719874572,-0.6353202956430758,-0.18677688535007364
7.37,-1.1656666833052474,-1.06027231110706,-0.2733747882182434
7.38,-0.4943945589143427,-1.096654253689913,-0.16637967129423128
7.39,-0.012519190710546838,-1.1106174430169022,0.1161469018539512
7.4,0.27963589944810435,-0.5762961346025793,0.2677424081893853
7.41,-0.27047823093576606,-0.24612878559574006,0.2485174670428684
7.42,-1.4820393431349486,-0.8420353295544273,-0.022309283752147153
7.43,-1.602413102648449,-0.8416355822352226,-0.18872119034653356
7.44,-1.2130413468504675,-0.8109984844071154,-0.01173893848836618
7.45,-1.2971094786962938,-1.0543031586780165,-0.0762016624226872
7.46,-1.3307217505356306,-0.6778284247701066,-0.2744012655665373
7.47,-1.393127594083982,-0.06703813211200901,-0.2129347069440819
7.48,-1.009384531017224,-0.6119074470147413,-0.15519056729055428
7.49,-0.17325460830100875,-1.028635068998412,-0.0070036210081
7.5,0.925925227758307,-0.7298342593034219,0.16400571264869948
7.51,1.3033701227019612,-0.5726808151685651,0.22621687697690046
7.52,-0.20719233911410093,-0.8819020921031959,0.041030057431986296
7.53,-1.3101992866640075,-1.5566700403943605,-0.5201019233216261
7.54,-0.46320009852585176,-0.6173243534460082,-0.56101829684691
7.55,-0.3930401659975234,0.324269561487013,0.01167733515786744
7.56,-1.577263756775044,-0.47334291197461864,0.10587270222667881
7.57,-2.014429347696591,-0.6807936059552007,-0.001809838492335537
7.58,-1.3343750991006411,-0.33184943493410846,0.24803518802199234
7.59,-1.229575163129618,0.10456239289841719,0.530737772461531
7.6,-1.5517675116154952,-0.1916530271287703,0.2909922471265335
7.61,-1.09374575855745,-1.2202675101690674,-0.14268175347662546
7.62,-0.02429709753540102,-1.1463754634098713,-0.2795914677467811
7.63,0.7805203121316276,-0.692801912713372,-0.19782537778923595
7.64,0.6802612449896784,-0.35463294732177586,-0.0164134945192045
7.65,-0.33439202328757706,-0.5415852731101143,-0.14260617516916874
7.66,-1.6209297277479346,-1.402703570673964,-0.43446266940024497
7.67,-1.852707285260797,-1.448782289357948,-0.13539421406358126
7.68,-0.9403461146509732,-0.4963468634113744,0.22099711988494172
7.69,-0.6189899420721076,0.04407515573418735,-0.042068716478019276
7.7,-1.3206405295339947,-0.5156444293948493,-0.43325670486127155
7.71,-0.9816588027027094,-0.4660918819736213,-0.3816429117228749
7.72,-0.1942583052154783,-0.426340376402901,-0.06733505519616113
7.73,-0.14205853012946892,-0.37843310964854315,0.07257970433013865
7.74,-1.2323669188855952,-0.6123560646688051,0.024146176750410354
7.75,-1.8180462097989174,-1.560359080593359,-0.09910755088232193
7.76,-0.8518940889953188,-1.0093028067515837,0.031781931147023094
7.77,-0.16077815643135668,-0.3295909264458787,0.15546488006391643
7.78,0.016671249766856293,-0.011956446727897809,-0.07456857165988018
7.79,-0.10540963996905449,-0.4578520569845869,-0.4856399409636767
7.8,-0.49799562163694483,-0.9064420305691516,-0.5667149536043231
7.81,-1.2834488348414521,-0.5475678396661221,-0.21669795409543935
7.82,-1.4900325485508792,-1.348126479356695,-0.09823572811058569
7.83,-1.0331173212112459,-1.4424475067567555,0.09242655688190966
7.84,-0.5910774334997876,-1.1245794147501473,0.17400158912362368
7.85,-0.22003767510334035,-0.23383203097481994,0.05781669473548163
7.86,-0.36508663574894173,0.8538270987362977,-0.06600300012578571
7.87,-0.6674621561073204,-0.47551434184826175,-0.4950560662669247
7.88,-0.6209045830820383,-1.2172871255848727,-0.515052301205262
7.89,-0.7138328406289104,-0.8017586837465802,0.003359378173437709
7.9,-1.0895399543053512,-1.2228895864322484,0.20702569073548094
7.91,-0.9900719334573103,-0.865321804830025,0.18869952271316298
7.92,-0.7947417903770595,-0.5092562105535438,0.16615935393851744
7.93,-0.9788063810533395,-0.7671546445770852,0.10944957540419194
7.94,-0.907079690808127,-0.7359471934007137,-0.12648882484081933
7.95,-0.6382799540583125,-0.4266066759383351,-0.39050598428958166
7.96,-0.6709499762859177,-0.5641582973955218,-0.2959350232640293
7.97,-0.576806269512838,-1.0466874195528664,-0.060671323334792464
7.98,-0.3668946047430597,-0.7411815122142572,0.09589587212847925
7.99,-1.435185335150578,-0.510372330935354,0.015066005709351012
8.0,-1.7789090385874895,-1.3584875366725846,-0.05806523572588103
8.01,-0.8025579080831987,-0.9220859953959233,0.3888726782837807
8.02,-0.13177962573895416,-0.6448800589948714,0.20971856842897302
8.03,0.07483261424259018,-0.8024935187645562,-0.11634234751468027
8.04,-0.027001677978729533,0.07904650032177662,-0.04289251668271238
8.05,-0.8090890436836571,-0.7014729279778585,-0.3853048772897069
8.06,-0.913191606962429,-0.8539435614944691,-0.5921846541274984
8.07,-0.7473041517301885,-0.8400242682373699,-0.22489689413448508
8.08,-0.6575335115059164,-1.2561975141219175,0.09606463378580767
8.09,-0.4081446257398286,-0.692175183389315,0.2512264036517073
8.1,-1.234966750621282,-0.20169717102243048,0.3553740006849541
8.11,-1.543804267876576,-0.1040883172333818,0.020640660370912212
8.12,-1.0103809834873134,-0.40795575433030573,-0.19514060893470386
8.13,-1.1416462235844953,-0.939397935347352,-0.14647311663271043
8.14,-0.7524118260911078,-0.8219072296311316,-0.2352186061501135
8.15,-0.3156913091913893,-0.4384728200324066,-0.2386919184590971
8.16,-0.7601948456681052,-0.7497426896826117,-0.05630960085777352
8.17,-0.7437321795667385,-1.0107136422022882,0.005968510221593691
8.18,-0.22358535592983494,-0.6865905898680855,0.10542542246335711
8.19,-0.17180579146818814,-0.8743920998138724,0.24034511621082247
8.2,-0.21859206636859607,-0.5354335129606427,0.1935782360045915
8.21,-0.7160923255270951,-0.5926783024756371,0.1314172406993195
8.22,-1.2667926586719374,-0.7626623898148875,0.05520741512408663
8.23,-0.7250122673598565,-0.28610198729105674,-0.12005918711075274
8.24,-0.8922170604558901,-0.5125664224956119,-0.19254697313289526
8.25,-1.2956117188990541,-0.8506482600966565,-0.2829096215130951
8.26,-0.8967549095095779,-0.5189466116506709,-0.26800730122186794
8.27,-0.6460914047625653,-0.862058230604939,-0.08532594108783807
8.28,-0.11920146068289209,-0.6425199625620219,0.16112067904559502
8.29,0.1562477514702509,-0.22265714035498052,0.22319341207023327
8.3,-0.5129905999124177,-0.4865514781210847,-0.007848833693406929
8.31,-1.1771479183447997,-0.8869095645777849,-0.20985992530439135
8.32,-0.7724598106707806,-0.8258923038058945,-0.14956220070576368
8.33,-0.3559904040267644,-1.044851264131147,-0.05238509839543264
8.34,-0.6923601522102875,-0.4785008163856915,0.013146607576918719
8.35,-2.9150271560031813,-0.567640739555023,-0.2834633792355372
8.36,-1.5268454763617443,-0.7740373445845687,-0.2535099309103518
8.37,-0.6132538603764058,-0.7209930247768476,0.4748358597853189
8.38,0.049082068431573415,-0.9925001075929062,0.2987924186252659
8.39,0.8809374391323642,0.019176357781425638,-0.004093493140924599
8.4,0.008336350160693113,-0.2918510297600879,0.03177755903698084
8.41,-1.5851554850952807,-1.249576314951291,-0.40246583640537387
8.42,-1.6761640590243763,-1.2430494778854142,-0.6619380537799268
8.43,-1.6941429631440736,-1.3678879162917053,0.25881179911342056
8.44,-0.9050312677065907,-0.7106473228997556,0.18716893356679762
8.45,-0.3825668675909119,-0.24814260592781642,0.035215480119866076
8.46,-0.2998404365346484,0.11545144003090055,0.4376764987902515
8.47,-0.47928346970545366,0.035658862281339285,0.15573526324626508
8.48,-1.2612766246034162,-1.3139779745719795,-0.6276124385181524
8.49,-1.0039197614308988,-1.2557123057521435,-0.6407848303139976
8.5,0.0004591628774122519,-0.9430448411185385,-0.3002951777661638
8.51,0.5472674780908564,-0.42777249858168265,-0.06894555075134276
8.52,-0.09808059605533948,-0.3332968829460236,0.19957605910388557
8.53,-1.0741924232368443,-0.8708055702611165,0.11976787118420104
8.54,-0.9484402048566271,-0.8344601696770021,-0.05281198881650123
8.55,-0.6748620153678834,-0.3328282661181254,0.014414015314943695
8.56,-1.1578715640732542,-0.34947451368158455,-0.09540576498813767
8.57,-1.9247623307092705,-0.36986835407972535,-0.33823099206756374
8.58,-0.9748272288658114,-1.133762125363577,-0.2813300379168851
8.59,-0.7165298993344555,-1.1132189079740529,0.23687425768900575
8.6,-0.48488739568332745,-0.07896796398231275,0.34514314005378216
8.61,-0.8783565009643958,-0.6657883898496745,0.02992635805715153
8.62,-0.7255442786967129,-0.6418311142540798,-0.03111074385458217
8.63,-0.3341926231361349,-1.0479710795146517,-0.1416592285605183
8.64,-0.2508470327010052,-1.086322359653749,-0.11598651818247899
8.65,-0.7503798088195873,-0.12688460939911778,-0.0991592983566527
8.66,-1.550912117242677,-0.5688261735995281,-0.3742695315015688
8.67,-0.3389046024463618,-0.18071791960343786,-0.1895519710553704
8.68,-0.5847866319111981,-1.030347259484659,0.10243185950479576
8.69,-0.9071098268317057,-1.5419491914802002,-0.10094676027467882
8.7,-1.3857643099747234,-0.11445042533351672,-0.2845094063840376
8.71,-0.9347951368520604,-0.76921204143201,-0.34577109290753105
8.72,-0.3682189400232399,-0.9293374602876568,0.03558380036380765
8.73,-0.088209860483703,0.2839411676870814,0.31544660981590833
8.74,-0.5172308256054124,-0.98725972842775,-0.0694209664705448
8.75,-0.6975965833892745,-0.43820096418898413,-0.11007335494057965
8.76,-1.006381762194127,-0.5814605220369907,-0.004097420310061816
8.77,-0.8112795521175714,-0.48769676700813214,-0.112157394582392
8.78,-0.7523307673061533,-1.0209194106262731,-0.3338319727175665
8.79,-0.778203493372588,-0.763373039863005,-0.29039172911493955
8.8,-1.1344693884769463,-0.3612651725774435,-0.11694632790031768
8.81,-1.1583448484502632,-1.085793999052166,-0.19412292516394322
8.82,-0.6513129456709967,-0.2758338330923983,-0.08775010469627288
8.83,-0.7784812171062097,-1.1002950564245408,-0.17143937768398101
8.84,-0.5787836907714732,-0.49047242588169954,-0.2173218099780711
8.85,-0.7746800970976807,-0.3821017351935205,-0.2169120698565319
8.86,-0.7312591602130523,-1.0097112380595676,-0.3632583202791003
8.87,-0.19271560649858044,-0.4971470521841229,-0.22317811622984773
8.88,-0.24641406182036074,-0.7212449648878121,-0.04343052849269809
8.89,-0.4930548632236478,-0.33544403829919156,0.03715336990891274
8.9,-0.40925455941224936,-0.6809223179258767,-0.08877114301221817
8.91,0.18358180441752822,-0.8097000440182405,-0.1617838918408889
8.92,-0.031983848128967096,0.0013825599854893058,0.0061909142203443275
8.93,-2.349497811640821,-1.3509101965908321,-0.2856542497233409
8.94,-1.9370022621404843,-1.2679679993542632,-0.4857429147184854
8.95,-0.3480841233620973,-0.58664795064093,0.1608117712459023
8.96,-0.3363433537744723,-0.7807901671177582,0.39683562055789884
8.97,-0.6782139928116854,0.2580742261061859,0.09806480770733508
8.98,-2.7064380563895156,-0.5925198665502013,-0.5153647492371706
8.99,-1.320441935488905,-1.3699129715198166,-0.4733889233689429
9.0,-0.7152363800388141,-1.0825397736312776,0.2934847632411352
9.01,-0.7595233829749702,-0.4983208958453696,0.2512628061702499
9.02,-1.9417089848690636,-0.34606495741283366,-0.23887780926659619
9.03,-1.0950688190252864,-1.5006781373818372,-0.470997830479684
9.04,0.6738317201022656,-1.4295882035362277,0.16397205730865433
9.05,1.9371103591434102,-0.07092426363031537,0.47353937576129207
9.06,1.370124857123341,0.34114437325470914,0.04218076031171377
9.07,-2.0503770215792683,-0.9474235721043918,-0.42411939377152397
9.08,-2.4009831269265947,-2.508533988898157,-0.6449543008903994
9.09,-0.34450116340448733,-0.8149268566590074,0.4589860082127424
9.1,-0.3498464174345169,0.25700698674802563,0.7169672412978959
9.11,-1.0741877166969445,-0.19208509376855243,0.21186413451167965
9.12,-1.8869380216922136,0.3899241237841825,-0.020166340254542392
9.13,-0.9809082930939258,0.24710190416630423,-0.11972624633632464
9.14,-1.1594318098297791,-0.5637457656028385,0.0762282928916426
9.15,-1.3689070627193167,-0.9095638252970965,-0.03890631251567668
9.16,-0.615991249635759,-1.4861556439090255,-0.2599034230443104
9.17,0.13897010438697946,-1.0949577590522959,-0.005134572789171022
9.18,0.6329348883988567,-0.3237791748795424,0.30418364973321727
9.19,0.447578615053808,-0.35957950938957667,0.08462895068068821
9.2,-0.047914690444156846,-1.094236332172865,-0.31503759066232734
9.21,-0.2119310458604592,-2.0605506460029184,-0.316779588641948
9.22,-0.3533611196570912,-0.3407998050407368,0.04324642246509172
9.23,-2.3923388182644465,0.5120025849593411,-0.026939113456137528
9.24,-2.8655573454666303,-1.2725133792020527,-0.46618138577797086
9.25,-0.7648670919203743,-0.9862821525275578,0.0231564616380276
9.26,-0.534917329733286,-0.16688301689852225,0.09690276482152513
9.27,0.0028087870541194807,0.17906606838475342,-0.39537777878597524
9.28,-0.34084395125336575,1.2602026028715636,-0.32525183674929103
9.29,-2.113267809346125,-1.062439977579727,-0.5614043421479801
9.3,-2.26776803061431,-2.693387808977078,-0.35569241085754927
9.31,-0.6231241962783012,-1.290830235821523,0.1850547160843358
9.32,0.4494050447996712,-0.5781723148956388,-0.09411155905022352
9.33,0.8004026770144691,0.8349998818249639,0.019863796989657644
9.34,-0.46282717618859365,-0.34960582973355037,-0.11929209849297445
9.35,-1.685974372587585,-1.693830452874794,-0.5940243812605192
9.36,-1.284227422674718,-0.9585341868311359,-0.42805248025842657
9.37,-0.7561779936805185,-0.9379748596836408,0.026495439023597106
9.38,-0.7362719104176171,-0.35927398461607024,0.15358513646296612
9.39,-0.7019095136286071,-0.30315591780742307,0.18628156411750393
9.4,-0.12745209761953066,-0.23147691055503278,0.14050081514142052
9.41,0.08979304080741175,-0.021254317683509397,-0.0654179607651878
9.42,-0.9445934751727771,-1.0017533368377174,-0.270429718560181
9.43,-1.7052263963284988,-1.2537109021711499,-0.29701586723046935
9.44,-0.7437983151699081,-0.722405024335738,-0.1975600323150237
9.45,0.12722471737352692,-0.740509051915452,0.11397808699561589
9.46,0.436495945484341,-0.495755096566501,0.27607910418203
9.47,-0.7711277082439442,-0.15638367654277688,-0.006972734809999713
9.48,-2.6946241403999798,-0.7998517325948206,-0.45823087053919864
9.49,-1.436926262270906,-0.9734010447765962,-0.28173966038326576
9.5,-0.11448499392546282,-0.2969005420812793,0.3461709324696597
9.51,-0.3319694333973132,-0.76668788388472,0.03675456202728311
9.52,-0.9493940617797133,-1.2167976893611097,-0.17767352659292504
9.53,-1.2492214630645977,-0.7595055717768209,-0.14148827763024988
9.54,-0.5950425473386325,-0.5628309285428607,-0.3009532096223645
9.55,-0.5832944678516516,-0.6172332520405699,-0.15976765743432034
9.56,-0.6848394743803903,-1.3908071608467536,0.009386968929626566
9.57,0.22146261951155422,-1.135622894098542,-0.05764301127521281
9.58,0.7831106079263842,-0.4411743385597395,0.087794356470465
9.59,-1.00769424597454,0.35432033478457664,0.0497815921658566
9.6,-3.327781354076127,-0.33350934577817654,-0.5538230398795756
9.61,-2.3051027162273385,-1.4446136386292403,-0.23691118229328065
9.62,-0.9202277741471109,-0.9457453694860932,0.3608670116920931
9.63,-0.5399874703381302,-0.6725883386582966,-0.32021067943138304
9.64,-0.610226591400822,0.5032608086866375,-0.21405961807537843
9.65,-0.9170191559219794,0.3333553030704199,0.006626694477878867
9.66,-0.7839592942448521,-1.3973330613185129,-0.30842073884738735
9.67,-0.8574088841463333,-1.3997412278983918,-0.08610206154162471
9.68,-0.31116950110805247,-0.4983127971611519,0.18615469665438714
9.69,0.35674819938799296,-0.09760585804721164,0.03253122032380987
9.7,0.3847411723929477,-1.1809314881677535,-0.031017020089324724
9.71,0.8226083152769048,-1.1176431589080256,0.035414664396578296
9.72,1.0933297697081943,0.38644525199024193,-0.09646322123071317
9.73,-1.35959516391682,-0.17964955269221833,-0.3997675794243145
9.74,-2.8183532654227648,-1.8970736665370884,-0.3298301735134308
9.75,-1.0925719542697592,-1.211817811846146,0.1486447151937572
9.76,-1.2105775960884013,-0.6825220652874511,0.14715056355871664
9.77,-2.171066275946066,-0.3432440538698853,-0.02879085476681291
9.78,-1.3058027196735271,0.6462213506132146,0.0544935342071023
9.79,-0.7247717853710548,-0.3827459787599573,0.1326405190162984
9.8,-0.5350549522541613,-0.7007983539004919,0.05428141868350088
9.81,-0.04295023480998343,-0.14225885848247322,-0.06742471569242596
9.82,-0.6056607758877206,-0.9528303035967335,-0.1290579749622298
9.83,-1.1760695060443103,-1.6758512276277557,-0.3297802079127325
9.84,-0.7646760553433544,-1.4818334368716257,-0.38746720761946274
9.85,-0.23972846042358634,-0.7183288479915906,-0.20307402771826602
9.86,-0.22620758412143427,-0.648257065333679,-0.22870853014764625
9.87,-0.5381142859438162,-0.9558934365453079,-0.2734432858549891
9.88,-1.3081295028772504,-0.7641146253886766,-0.17465185410349224
9.89,-1.3745185520826024,-0.8025551746135468,-0.18969746173992605
9.9,-0.926259519634253,-0.5612747704301051,-0.03859259096662939
9.91,-0.9037837750618336,-0.6207652678247306,0.0759735399327088
9.92,-0.6007368809101206,-0.42564444672819085,-0.0869186617312466
9.93,-0.5125873976970224,-0.07744790377260678,-0.10833915830960043
9.94,-0.7527137636968252,-0.29123063119496195,-0.01854203259220927
9.95,-0.5448097925852059,-0.37133058083722115,-0.01076237886140854
9.96,-0.37036405563541835,-1.0507912543645392,-0.03348334900100013
9.97,-0.24240825169925417,-0.7275930124166142,0.02718886423423584
9.98,-0.8538674483093971,-0.30626246029660226,-0.034698315688335264
9.99,-1.4937247185832012,-1.1399089087568022,-0.22768421186194462
10.0,-0.7800711344760967,-1.6911132363381798,-0.13365188834421196
10.01,0.23495366858006714,-1.1836908625441656,0.06561210660020492
10.02,0.2330446989834622,0.21719331387723054,0.04136700823840277
10.03,-1.3783637544079637,-0.1558468705847158,-0.38665357632143516
10.04,-1.313675863497788,-0.7325282722323003,-0.6419281538038224
10.05,-0.8170333259018935,-0.876046348668339,-0.22860510964674466
10.06,-0.8319635556125967,-1.620456201680481,0.09078172001931957
10.07,0.009398243418232335,-0.5784113257209206,0.11684697286942579
10.08,0.11704813948707404,0.6810103635095727,0.11510088716722257
10.09,-1.2918896918956466,-0.42112958058983485,-0.23239687994244076
10.1,-1.6622636951090985,-1.5415427054706083,-0.3310388610343364
10.11,-1.0603821511120373,-1.6667430355879425,0.1657168516150338
10.12,-0.36970239559031015,-0.5244656831052524,0.278230322620181
10.13,-1.5866146598487711,0.025274483504750655,0.06406669949784434
10.14,-2.0146526934343045,-0.44372681571222783,-0.01273176039234746
10.15,-0.7272600352875568,-0.4979031306582232,0.24384891923985633
10.16,-0.5028172059989162,-0.9805491061191404,0.44936781614217486
10.17,-0.39870805298975814,-0.6582150880913935,0.20882847045328304
10.18,-0.7110843302452636,-0.12278658115817113,-0.13573926769830644
10.19,-1.0890713566464667,-0.8823230897304517,-0.3696520367405238
10.2,-0.47770473630325594,-1.2960862053349322,-0.34394387404517357
10.21,0.25917918801795686,-0.8640696332434902,-0.2083788779113538
10.22,0.6166158680077599,-0.2763651658188533,-0.23717912771069533
10.23,-0.1515335597558433,0.10362849625539233,-0.2144790460433404
10.24,-1.5592469802076518,-0.6783450315657896,-0.23442734685645458
10.25,-0.9418697809562434,-1.0350136588598764,-0.16284896013377792
10.26,-0.5161208039842033,-0.7031338232417622,0.14933597478990263
10.27,-1.6324690967908035,-0.43517140011847943,0.14610866399193403
10.28,-2.123561200611362,-0.48097680367642287,-0.25573343665737347
10.29,-0.9163482761077044,-0.5535435814578124,-0.16215762700958258
10.3,-0.41234955759121955,-0.06456387322510498,0.17336081803566414
10.31,-0.43156015412208354,-0.33052203242198414,0.06873580673668267
10.32,-0.6497173112846018,-0.9862428117075281,-0.11952514296642029
10.33,-0.4856897933147019,-1.243320946474586,-0.1595408089309278
10.34,-0.012082770043327438,-0.7138333820835822,-0.015265844161329808
10.35,-0.30991434475601726,-0.6966310306134625,0.09281752168931344
10.36,-1.0907763950619596,-1.3528719747633453,0.00034542775648051287
10.37,-1.3090019648973046,-1.1380304025736314,-0.03721580030077678
10.38,-1.073847810080429,-1.0805911289912205,0.024026401234963527
10.39,-0.46147456409454435,-0.4956893204269408,0.1638500003592345
10.4,0.173922868188015,-0.05093530007274511,0.14773244491962123
10.41,-0.13724282458476275,-0.4081718956045351,-0.09068095049001808
10.42,-1.9827868284372023,-0.9132923639792685,-0.39430781995034175
10.43,-1.5999446223011782,-1.080609225609346,-0.5363096200135652
10.44,-0.5684722371193287,-1.1682574016328384,0.03343288858289877
10.45,-0.05788731320067102,-0.3682041619183051,0.3495393137602379
10.46,-0.16442277313831513,-0.37073588963051535,0.1602526125538204
10.47,-1.3663576370510389,-0.562777706218743,-0.05050300303446648
10.48,-1.1759646503751726,-0.07071777481469664,-0.30007130089469847
10.49,-0.847592456951737,-0.6953978932299529,-0.2916199884674161
10.5,-1.0784497934223327,-1.137386467603435,-0.22709858229218838
10.51,-0.6527635204996014,-1.3327983701278066,-0.3968144428596507
10.52,0.23520994340773993,-0.14227731593005674,-0.14419714831212763
10.53,0.2917741635775138,0.2845970427576332,0.14534431729410455
10.54,-0.49935486396724493,-0.8647686262031342,-0.08100702151451264
10.55,-1.028321865509602,-0.810259669226266,-0.20055176567106803
10.56,-1.1634789909123884,-1.108212706315881,-0.036154161032443656
10.57,-0.6902997535145394,-0.4647091558938541,0.07611984422088465
10.58,-0.7524045958668607,-0.14935816824548453,0.04148768754153773
10.59,-1.4774544908253302,-0.43216880138777924,-0.0789672993765788
10.6,-1.0014731825467964,-0.3762173696273356,-0.2925193472058554
10.61,-1.1807643271641006,-0.9930809323953375,-0.20305107958593394
10.62,-0.8971128797761765,-0.5562762673327065,0.006864172172779453
10.63,-0.48263546212278535,-0.2559451604091069,0.027615798462226462
10.64,-0.8708812639147282,-0.7599477851213435,0.018887028356864153
10.65,-1.1626302673644997,-1.3915694805703462,-0.05452504022822671
10.66,-0.44513346681039717,-0.4951908582857016,-0.07879490391669797
10.67,-0.22088749308445801,-0.1924724110616018,-0.14764426300964273
10.68,-0.4711652284373117,-0.49609937268333504,-0.3521864112712249
10.69,-0.8646295757624565,-1.2053214871916673,-0.42852605061664795
10.7,-0.8559032738748358,-1.1238881282578075,-0.1654931973863309
10.71,-0.608764940314143,-0.6094219221701846,0.04575992966571278
10.72,-0.7286133321501156,-0.5975957126163761,0.04981099386731676
10.73,-0.8967055698073684,-0.6165013649647698,-0.013665296490367707
10.74,-0.6195609093555122,-0.6691789240665293,-0.10849977753572679
10.75,-0.09442303889669885,-0.32718752881491675,-0.18879422298316018
10.76,-0.49915153131414536,0.17051483381836563,-0.15131767203339527
10.77,-2.3526915276370355,-0.800175478094796,-0.3295860200707477
10.78,-1.0811375638591552,-0.8593408424085692,-0.32326321132761604
10.79,-1.0129999763619002,-1.0891891263946754,0.19013233869608903
10.8,-0.9056272698515292,-0.7735807317215114,0.318639871452648
10.81,-0.7154745512815278,-0.09137898829899518,0.02439579955853274
10.82,-0.7765007624401932,-0.9187788689058114,-0.1919993719416324
10.83,0.20530684517683742,-0.7264915610006037,-0.30593674936453397
10.84,0.821485837705861,-0.5398552571898599,-0.2439182026632302
10.85,0.3095032100553542,-0.23892341478300322,-0.12649640397964126
10.86,-1.4081698615057978,-1.035586888723772,-0.2789447862362429
10.87,-1.4241260298799479,-1.7594942721941884,-0.3521297683850464
10.88,-1.085138764836815,-0.5736503427981351,0.21227953016512727
10.89,-1.8253695298260983,-0.4718619516826589,0.350219598573244
10.9,-1.2254664605267613,-0.5762427596063762,-0.10336701880197342
10.91,-1.1273602987428384,-0.1636951483583094,-0.06257790919434825
10.92,-1.0231064167253179,-0.3538306927401005,-0.05713244558842636
10.93,-1.0946450463153399,-0.3078809760802925,-0.18404441570773059
10.94,-1.0649422014661403,-1.0305087147423182,-0.11046115260126013
10.95,-0.3515014734514588,-1.6038976841509516,0.013520428533943907
10.96,0.4975748989586686,-0.9137087884625836,0.2500275085603119
10.97,0.540361585367258,-0.3106708468603068,0.43707189164170657
10.98,-0.24940806264312254,-0.7210192773797033,0.12203637455810387
10.99,-0.6536817640246287,-1.264469609028123,-0.23492424978868948
11.0,-0.39366816884927114,-0.9573186718890282,-0.213157719676029
11.01,-0.3577268067723342,-0.5899433860902499,-0.12344107023927837
11.02,-1.461288706236741,0.09450482957325283,-0.18923603040635356
11.03,-2.317974737649253,-0.9802956780870674,-0.5247882621090576
11.04,-0.9475242115300699,-0.7200044628824133,-0.05042630566353388
11.05,-1.2750737802926861,-0.4665423498953072,0.40037357090515685
11.06,-1.1067432839893956,0.06333806174674239,0.06932379438387
11.07,-0.7202435076384214,0.07582020989415338,-0.22975122426005185
11.08,-0.8195977470632199,-1.4047717163002071,-0.24246839764517455
11.09,-0.2220297878628564,-0.670988226783696,-0.21294666021948722
11.1,-0.09066456320522802,-0.4866290384241085,-0.18564282855253442
11.11,-0.5177034265590499,-0.9972037864856463,-0.07097125289649546
11.12,-0.6015550405135072,-1.048932022638089,-0.011779505219682794
11.13,-0.48277378374670116,-1.3365681639297522,0.14002260137623848
11.14,-0.1385749830366086,-0.3940604421141475,0.3964692696370594
11.15,-0.4200229297187648,-0.44574300249474386,0.19482812036816147
11.16,-1.3374239463957889,-0.556915141363591,0.023464237311587956
11.17,-1.8332715479372663,-0.6231112495600883,-0.07569206707098315
11.18,-0.9063083003621335,-0.7057106400706398,-0.04146689596828726
11.19,-0.8368980926420868,-0.19453026438371668,0.18197827641844613
11.2,-0.7592349824682959,-0.5196640779253319,0.0579648360912277
11.21,-0.609320775179153,-0.5960676858430615,-0.0915054201901427
11.22,-0.5674000121327482,-0.39331744349425196,-0.09505881802856873
11.23,-0.7200285276377125,-0.8082639439430152,-0.22639735804422328
11.24,-0.9192693990597368,-0.784548245022117,-0.2596378716110196
11.25,-1.0985925466773887,-1.2981970224424986,-0.1680329764366989
11.26,-0.5901005040585326,-1.0039083882888962,-0.017911055124639173
11.27,-0.04059741771409534,-0.352839897018833,0.11628625091879721
11.28,-0.17402306564830844,-0.26045252499553195,0.0521404603554042
11.29,-0.9005482471345467,-0.799997714381319,-0.14681532826609772
11.3,-1.3163737677709344,-1.1094617496305776,-0.2829997443334253
11.31,-0.7901564052114821,-0.7971606871515551,-0.13157116938447624
11.32,-0.5276474650603088,-0.6171906504865367,0.0935962934583452
11.33,-0.5384001475980693,-0.5714529114757555,0.20915300610089663
11.34,-0.7445932387931226,-0.559930348223238,0.19970776619857744
11.35,-0.7401521971471392,-0.5420911974753837,0.042458521422802147
11.36,-0.383734429208957,-0.48533126185863723,-0.10238675828839877
11.37,-0.42769106909580396,-0.19841419889969664,-0.20557917137166495
11.38,-1.423288817694627,-0.6985727213667984,-0.32201287873382384
11.39,-1.5337056426972078,-1.4863429152780803,-0.3559589067907798
11.4,-0.35468926135495993,-0.8975804075459649,-0.0006457702762335618
11.41,-0.12590247965880252,-0.29573372633660094,0.3160723875006977
11.42,-0.6255257009629004,-0.14221733922664329,0.07284464846541179
11.43,-1.4918894389990875,-0.7018218432739647,-0.3211812531857211
11.44,-0.7705976436995324,-1.0572096836716989,-0.26490820666998
11.45,-0.15778311683866347,-0.7084813042663811,0.017525687040388434
11.46,-0.39371651801537466,-0.6932791281634161,0.041625862040185785
11.47,-1.2670012682307812,-0.6918176771122386,-0.13946392313040187
11.48,-1.58778077152452,-0.7313859659865957,-0.2905630080958856
11.49,-0.8195659345912529,-0.6443427987904684,-0.09616161321364508
11.5,-1.0262810508648101,-0.7157211475864375,0.08876756301143068
11.51,-0.6460733176301451,-0.7518363083512754,-0.10857503342525054
11.52,-0.2864038371412676,-0.45468196309409026,-0.14154492287203885
11.53,-0.6724256057178029,-0.32165195004461256,-0.07360543507890548
11.54,-1.1977023687282335,-0.7143514800280306,-0.30447275795525885
11.55,-0.6959351787900436,-0.609169480845956,-0.4119893201828826
11.56,-0.5735447472963849,-0.844226837532416,-0.20308291744839566
11.57,-0.4234724029595859,-0.8105408292695376,-0.08712370683194653
11.58,-0.47248623001601425,-0.34872353887726326,-0.005222480083243497
11.59,-0.9799642699452678,-0.3022135225070557,0.021280343705205016
11.6,-0.7817909446751554,-0.5852635967842573,-0.15290187115155732
11.61,-0.17532195528463806,-0.7537835075403102,-0.1939000335816245
11.62,-0.04555292166006281,-0.5828329692772282,-0.16617079519326033
11.63,-0.578882959465596,-0.2651886744477606,-0.29323246443015133
11.64,-1.6034671296633887,-0.6646796282147054,-0.4151824934704511
11.65,-1.2465055509300722,-1.205424998607285,-0.27820508491547596
11.66,-0.6529151209347149,-0.9624171844952064,0.1508083511452622
11.67,-0.7262041732940693,-0.5505112619384053,0.2646957050942635
11.68,-1.1063396989698069,-0.12827680951310377,0.024594458355730826
11.69,-1.3385572093844509,-0.4781349367006041,-0.1888347525808428
11.7,-0.7037305836587983,-0.831043713087767,-0.12518387941117748
11.71,-0.5699250801876946,-1.0581063949425946,0.02372446066027772
11.72,-0.48034655992853764,-0.8473509144154021,-0.047094234128604626
11.73,-0.7146813194193383,-0.5328137096403075,-0.11773095907014974
11.74,-0.9479788807581674,-0.8671165887356431,-0.07850633948231547
11.75,-0.3676334093624838,-0.8584363474164574,0.00932121955092653
11.76,0.036167613706583134,-0.5709064939849685,0.03523213077689731
11.77,-0.38763728404194275,-0.46377797380787494,-0.08284601439647016
11.78,-1.4718529023750038,-0.6815602906865256,-0.23482027879978884
11.79,-1.5201086052172825,-0.7341997626718828,-0.292612249064935
11.8,-1.0086517229196472,-0.6291807577559823,-0.09128719431997524
11.81,-1.3310367670026335,-0.8011354600464135,0.021201442372192413
11.82,-0.8899992283442081,-0.6477949875015591,-0.14632608082899723
11.83,-0.3905574296394151,-0.3471249286067179,-0.07974734127650819
11.84,-0.19665848746873107,-0.25570823768979867,0.0028542333644495338
11.85,-0.18534913199179365,-0.33094836399435923,-0.14161814612259027
11.86,-0.45464399633944874,-0.728493046513187,-0.23248970963822646
11.87,-0.4471825969797799,-1.2719997732980013,-0.2099311597533173
11.88,0.008352078505383947,-0.8607037361900146,-0.026721577479255704
11.89,-0.1779960850134814,-0.42878188944699724,0.11398870512487955
11.9,-1.2802200225689748,-0.6975164565727399,-0.08571087829569282
11.91,-1.6752515806365735,-1.02769475378814,-0.3097800636904251
11.92,-1.4567290315891217,-0.9561807103296025,-0.10282380428113846
11.93,-1.3024888784458237,-0.6753393592712367,0.023074368814691836
11.94,-0.7980527710332438,-0.4298588196896719,-0.14052370637084335
11.95,-0.5988976575522885,-0.4060311075721347,-0.15688778669684925
11.96,-0.43998582185597584,-0.6211714806786188,-0.1880947634362735
11.97,-0.21717183791273048,-0.7043056367807372,-0.2812727513930471
11.98,-0.21216233480926439,-0.8259968195791203,-0.2671019588662493
11.99,-0.3427288518691728,-0.8906200207610954,-0.10887138511897894
12.0,-0.5283532267543585,-0.8715208883106561,0.09747440723980333
12.01,-0.744970445487195,-0.8353399943985121,0.24628870516041548
12.02,-0.9298067645156709,-0.7559954784133435,0.23976173727418817
12.03,-1.3018101839450247,-0.5508505746574005,0.01855824997975311
12.04,-1.741774670619398,-0.31702337784061635,-0.30458112560746314
12.05,-1.6418016939076414,-0.4753283714759021,-0.38271974371753603
12.06,-1.0644683403763713,-0.7457806012657101,-0.10019655619680581
12.07,-0.38884767196721076,-0.7434264088904917,0.049937733662486834
12.08,0.18674558401688524,-0.26133584803113374,0.10742026124794106
12.09,0.16042389127852352,-0.254299464626468,0.14446736975007887
12.1,-0.32797530248791845,-0.7339229029372819,-0.02459976231089666
12.11,-1.1797443878877651,-0.733593764743569,-0.07759712530388202
12.12,-1.632784128779714,-1.1225533762477813,0.02772136301905451
12.13,-1.2400636518597257,-1.0594841339492065,0.06968064459268658
12.14,-1.2370138767845666,-0.5583629748032775,0.029980364033194484
12.15,-1.291649969628363,-0.37240050708202205,-0.08910336436559042
12.16,-0.790979469768699,-0.25893085524272974,-0.24212797754915308
12.17,-0.36475173327454047,-0.7855365977345582,-0.3314661456197531
12.18,0.4297005555439505,-0.7860178605357518,-0.2065380978089763
12.19,1.0189280292093172,-0.3144851019616174,-0.02428635784496489
12.2,-0.05929452925554595,-0.29939603489751887,0.14750635681822344
12.21,-1.3247071319223511,-1.12346571887961,-0.04097574751029246
12.22,-0.9992075433303357,-1.4347060229843045,-0.17630698324641478
12.23,-0.3723671787432317,-0.6850822137191839,0.0982618830322856
12.24,-1.156115694812231,0.1969572306965479,0.02603965721105653
12.25,-2.8943346387137914,-0.13878509662188587,-0.6897861148006352
12.26,-1.7654474028309302,-0.5043073711576314,-0.581778630232523
12.27,-0.7259290465799629,-1.0748739371653435,0.25362595507059055
12.28,0.030841134287255705,-1.0997928412427533,0.3339901092090199
12.29,1.0446211562328451,-0.16641715596780202,0.037175175557157256
12.3,0.3910474410216166,-0.14849334123230137,0.007651907149009321
12.31,-0.7264009613790349,-1.2924882197626166,-0.3347490766081853
12.32,-1.0021960249969821,-1.2266270403515143,-0.3731853290873556
12.33,-1.0469430208463433,-1.0869806346371154,-0.012086840030519002
12.34,-0.9566668133664068,-0.8480477128636518,-0.039464803295423664
12.35,-1.6366004484492063,-0.07223445253835017,-0.022381382234126713
12.36,-1.4359784950230532,-0.1382187962639605,0.0020527332193015484
12.37,-0.7547585381943848,-0.21147685782988696,0.04286225060600274
12.38,-0.8614741246505584,-0.8051681017063327,-0.030958317311569228
12.39,-0.7334584851401825,-0.965577136939075,-0.1649009614220193
12.4,-0.2108224769270738,-0.746959250926136,-0.11200903578403083
12.41,0.3300257426410314,-0.7283342272611012,0.010504755038498265
12.42,0.3909402044718074,-0.25995961131928347,0.08402961582005898
12.43,-0.6490822801056917,-0.7283324832319209,-0.07093893438228847
12.44,-1.795934290339728,-0.9261284581838356,-0.32366238727561153
12.45,-1.3607301864547394,-0.20166306339940918,-0.18489723800635313
12.46,-1.2862440491171245,-0.31465237397706836,0.142326803328031
12.47,-1.2161498239093333,-0.8537282481575901,0.08065754286280821
12.48,-0.9899371620835367,-1.0914921842663328,-0.0008426691522616468
12.49,-0.7926950116954445,-0.43126915739257343,0.05486745131701159
12.5,-0.4493132839840239,-0.12768012703334833,-0.09351745952773978
12.51,-0.23278456761454783,-0.7182347120108294,-0.2087207776976024
12.52,-0.098230022683809,-0.8037945157843568,-0.12282124536846802
12.53,-0.1646546672146976,-1.0429676092677955,-0.07555038370935324
12.54,-0.9084312347458309,-0.8429728882228544,0.007189258688547757
12.55,-1.7143361370586263,-0.4704585562787542,-0.1271810877760211
12.56,-0.8883394455268503,-0.5741226635291012,-0.24978880999100136
12.57,-0.7932897702664874,-0.7275520020818605,-0.0644369010285444
12.58,-1.0614867488155726,-0.8575946992837067,0.0207252428525791
12.59,-1.22280625733808,-0.4270460253397444,-0.12794220482618002
12.6,-0.7983960930387362,-0.46543796628747863,-0.21784533629130487
12.61,-0.4453385408383736,-0.7665506088030352,-0.04851590439769506
12.62,-0.01633610725065716,-0.9386514657754582,-0.07049205677387052
12.63,0.2873637469019827,-0.31963449649923115,-0.2192252093444558
12.64,-0.4328872401094674,-0.2538468888905818,-0.35442398421966614
12.65,-1.6100774177634896,-0.9951485718336698,-0.4056120589660581
12.66,-1.1012470713545832,-1.0613741115441941,-0.106759521101221
12.67,-0.7879943978633267,-1.0450264299814855,0.2604966506629996
12.68,-0.40489924200783034,-0.4626556564147602,0.27502880921650236
12.69,-0.41627644845789963,0.02917047604314126,0.0917935766824276
12.7,-1.5119274891262648,-0.4886267950310045,-0.13692031331909021
12.71,-0.9172811367850465,-0.7442093793611845,-0.2971821067051081
12.72,-0.48750451431407016,-0.9418118496609782,-0.182941620522692
12.73,-0.5406317925956514,-0.6603112031882354,0.04732125792137922
12.74,-1.1525174515395962,-0.474831419928381,0.09195495509659128
12.75,-1.252478673742761,-0.7459800074264804,0.012788591260454077
12.76,-0.487254076969019,-0.3152412018815239,0.08856778592142947
12.77,-0.47256344194954036,-0.7069424541698202,-0.003653959177702899
12.78,-0.9612970583268626,-0.5559659838314649,-0.27816509290604285
12.79,-2.1224224798573346,-1.2093340445732257,-0.5449975315874095
12.8,-0.8530615476711846,-0.7994005151979731,-0.23554797787182594
12.81,-0.4420030253869322,-0.6861876228846826,0.26085135378398855
12.82,-0.1179052289609508,-0.6177941943334282,0.22330583107048074
12.83,0.057676849919065826,-0.2428340741584367,-0.07493507627006302
12.84,-0.3837047888995329,-0.7312092465794752,-0.33533453833759075
12.85,-0.4585753653486278,-0.7770640856265918,-0.4330214110489689
12.86,-0.09583342367434901,-0.6581398780996415,-0.4383119110608156
12.87,0.021208039172067022,-0.624953482304521,-0.4180857971677902
12.88,-0.7624800667193135,-0.7501027771433467,-0.22969416548452876
12.89,-1.9335312088746528,-0.9084684330219568,-0.03846761979874333
12.9,-0.7994572556029534,-0.5347117383568162,0.09814903654304603
12.91,-0.8207123423250506,-0.06709382927647671,0.29305093585659087
12.92,-2.1637148875939984,-0.7029048463992774,-0.05916017861214313
12.93,-1.3570727050584879,-0.8070004803230633,-0.38961989861300456
12.94,-0.568109588488116,-0.7949587607610572,-0.03030573649261792
12.95,-0.05602468953895723,-0.2940963157910996,0.07558083317286873
12.96,0.037555341410681044,-0.370567113150124,-0.19574188325976796
12.97,-1.2892674569888827,-1.248854174670607,-0.35881066282563795
12.98,-1.0698322381097278,-1.8370365564596978,-0.4251154979405139
12.99,-0.007668564532653008,-0.7708697632822277,-0.022470878486413177
13.0,0.17029745368216745,-0.6366679084497927,0.2579336101130071
13.01,-0.2286698297158338,-0.6234461298052081,0.10576038486915011
13.02,-1.4309785390615217,-0.669299719694551,-0.16934151856707236
13.03,-1.2590827818393495,-0.9445861319405975,-0.39335655527513536
13.04,-0.980762412178255,-0.05915410437670468,-0.08957329727259672
13.05,-2.0557445274252655,-0.5864362564168101,0.03325078981633267
13.06,-0.9536219986331895,-1.210172323938422,-0.05840939149159608
13.07,-0.37940161280101975,-0.3746343144534227,0.1788465542163645
13.08,-0.24421509860904875,0.013951959781201595,0.2511470483678684
13.09,-1.2414225384420245,0.45081803883570865,-0.052302111630938744
13.1,-1.193859760138941,-0.9872447133332194,-0.48213262117312083
13.11,-0.5858795296241958,-1.6013013593866199,-0.22128618317823298
13.12,0.4422425982592831,-1.134777216829466,0.2220685895753146
13.13,1.2014692365091497,0.1891243162840505,0.463424153432266
13.14,-1.3959660806563279,0.4136580777195943,0.3944789295539773
13.15,-3.9026880167210307,-2.3151482851176692,-0.7119454632352367
13.16,-0.9939953644870412,-1.4197740606271194,0.1929018257713425
13.17,0.007078249091204044,-0.46092947650432475,0.7617619495520555
13.18,0.6111927644364188,-0.2724540569732497,-0.315849560932498
13.19,0.12574000131434032,0.4920595049654461,-0.42651647314279867
13.2,-1.7408969498629416,-0.7406481699608136,-0.2803791266297917
13.21,-0.7836863512989426,-0.9343144856455559,-0.42580111913497365
13.22,-1.133326534549967,-0.7625958315277179,0.14133112066432943
13.23,-1.0867379377169244,-1.0564206132825076,0.2492045004802869
13.24,-0.2792664775550979,-0.7420129281060086,-0.1367515587168286
13.25,-0.22626395774261138,-0.2578207435334769,0.003534574685502029
13.26,-0.90075299317173,-0.19001704077249595,-0.13429454300851623
13.27,-0.814100599672468,-0.8262235605180193,-0.7094239808775704
13.28,-0.9757816493407625,-1.1024917954348195,-0.5666447564379911
13.29,-1.3571795262685429,-1.0774318137815317,-0.014959683563776823
13.3,-0.890206459260301,-0.6580931368699962,0.15498284349540786
13.31,-0.47065877100526043,-0.7577703706840534,0.2136539472699925
13.32,-0.1906035022928219,-0.2134247791728477,0.27675018228216014
13.33,-0.3545607642877241,-0.3246972317323393,-0.08164847112611939
13.34,-0.7709993014976783,-0.8091932077204442,-0.3726589224120152
13.35,-0.7414106313261887,-0.9921497373410874,-0.25429835589888167
13.36,-0.3067596174316218,-0.8916253584413596,-0.0779172894485239
13.37,-0.38247930062105817,-1.1326949954980217,0.018655572451681892
13.38,-0.8066498084160816,-0.8863494613326897,0.13619445474445666
13.39,-0.9517060366527176,-0.09973906273172335,0.14280908380361523
13.4,-0.7616469773298572,-0.19796789942694365,-0.038244201217052264
13.41,-1.16733347285452,-0.8165915055163372,-0.18760929015972141
13.42,-1.0922659314707581,-0.9744307793154326,-0.2913592660586001
13.43,-0.69198115114751,-0.4141970157903759,-0.12144155204814387
13.44,-0.8430245655149484,-0.4073746928467398,0.10916200604650937
13.45,-0.9273729370656583,-0.6627540279610163,-0.030528263019986006
13.46,-0.4438297114919114,-0.7453515988318768,-0.08830209397291891
13.47,-0.1716187923017642,-0.9061429115543828,0.04200159986204498
13.48,-0.04716626577721788,-0.4462276096841311,0.054251813893275054
13.49,-0.7420485287035193,-0.8524799240263404,-0.01656711083989818
13.5,-1.325958911766423,-0.8684981907210483,0.012576613485043018
13.51,-0.9116541761638605,-0.6640579971305237,-0.01461246019723275
13.52,-1.0103258641720376,-0.45652165315133225,-0.03215777295074362
13.53,-1.6160152768673173,-0.4918100370574319,-0.2461625045592621
13.54,-0.9340115650755985,-0.775389031457438,-0.35471477226006676
13.55,-0.3307466961623987,-0.5490182102345819,0.012579267717698305
13.56,-0.0481332598815695,-0.561926579422873,0.18508810380641794
13.57,-0.18949104218510762,-0.18427260069618626,0.09421903598441951
13.58,-0.8148734690299904,-0.8893043297825592,-0.16699022649502493
13.59,-0.5400020458565439,-1.2042446519581995,-0.20562617093197463
13.6,-0.4092061482428789,0.08208378226979617,-0.021072351767605666
13.61,-1.9626519829430842,-0.3654084384448714,-0.20428767511515944
13.62,-2.1939568192242924,-1.2310444701632461,-0.42723306178394205
13.63,-0.5273195745338253,-0.7673332950800889,0.03128366318779438
13.64,-0.519725796192305,-0.430384307055863,0.373226781407393
13.65,-0.538461875859534,0.16040089361254206,0.07424195629324072
13.66,-0.9655875900496633,-0.5218249722347498,-0.32315078222244886
13.67,-0.515149170894918,-1.1854973669186861,-0.3507188399623122
13.68,-0.09749163681233247,-0.8727924246252035,-0.23168301907465558
13.69,-0.5472053206725979,-0.4238068138923284,-0.09217546901442591
13.7,-1.19809387772906,-0.5002410043602014,-0.18962334708216136
13.71,-0.7161741130654855,-1.0511027794820678,-0.27738419999193314
13.72,-0.2902003745106264,-0.5983613003695576,0.11128477387078788
13.73,-0.9827597584511903,-0.09186547518030412,0.1540634490599288
13.74,-1.9975152148076427,-0.5103549656006006,-0.2669661664218801
13.75,-1.1850712180358471,-1.1983290310595378,-0.20150540537230685
13.76,-0.2692645802548593,-1.2961742486727277,0.20727318946747086
13.77,0.01762383250577523,-0.4670439197800876,0.16541164760843557
13.78,-0.48730349209692764,0.23487409601506198,-0.16395061418996815
13.79,-1.4622079154335783,-0.5337764656912121,-0.43870120079392005
13.8,-1.195706307893912,-1.4651700145864162,-0.3629300216575228
13.81,-0.8548133855338287,-1.1015490323561343,0.02981817828742444
13.82,-0.5676099907646555,-0.2555870640726242,0.10375703137815279
13.83,-1.169419632004506,-0.08807112141207853,-0.13247807187576888
13.84,-1.4664031577478218,-1.013109467495039,-0.3225317456765517
13.85,-0.27777837923406445,-1.3113711325400856,-0.15166818069950633
13.86,0.19486170272816958,-0.681407997610857,0.04082002574515893
13.87,0.025388209237246554,-0.5885984873052537,-0.1784430161128211
13.88,-0.6434417146081026,-1.0858653624057395,-0.3220459842812698
13.89,-0.7985314115198798,-1.2221001277494228,-0.12574472179657406
13.9,-0.39292265507400026,-0.7821779658093455,0.07709971581075004
13.91,-0.4595363784978853,0.021651890097069464,0.23003642537767016
13.92,-1.4071569603424678,-0.37217833986141474,0.11545278318823374
13.93,-1.8324287973677977,-0.812699053620405,0.017475475100554267
13.94,-0.897815845533887,-0.9784849562223571,0.044483221210855954
13.95,-0.02178834720385849,-0.7920596492219883,0.042535643201903915
13.96,0.3117785349953385,0.18847750550931744,0.008152153998572127
13.97,-1.0108095472076308,-0.5226331693367454,-0.45446893101119773
13.98,-1.8765223201937946,-1.6766172005058249,-0.7368580179992057
13.99,-0.7848508549101193,-1.1724719172263829,-0.11543077670775756
14.0,-0.1562448287913081,-0.5733163252469907,0.32201030035920636
14.01,-0.6586713191847364,-0.42939801901607083,0.13906987523735612
14.02,-1.6993396444291993,-0.3944062470898759,-0.10049670210160247
14.03,-1.323865306803983,-0.6364006638857317,-0.25888056957514927
14.04,-0.5477937668800582,-0.5478871292944147,-0.0694212121124428
14.05,-0.8704773426020737,-0.8540124078479767,0.0603922096146385
14.06,-0.8442322583491253,-0.9725376961963892,-0.08880220356928382
14.07,-0.6323957642523763,-0.7872873865959609,-0.09886176432010658
14.08,-0.18264312549561532,-0.9128513946144436,0.09626342110334724
14.09,0.8282140228261675,-0.2035678667795136,0.13506692882424243
14.1,0.9743245466410874,-0.06743773770355661,-0.07121972729901117
14.11,-0.9017186490230923,-0.5170956609528076,-0.22247100373474335
14.12,-2.402230848956391,-0.8988631807730153,-0.3126871435694025
14.13,-2.027935040052124,-0.7163976577434799,-0.09666438230437914
14.14,-1.9415687138883544,-0.8307217504677475,0.13206082425175503
14.15,-1.315079429579601,-1.1240536298578203,0.08673622941965772
14.16,0.005213078183621383,0.06918276582726915,0.24311085975219265
14.17,0.4760640307546924,0.5352623418293253,0.16430060986478248
14.18,0.06527070186113672,0.2615687878246748,-0.2149475514566471
14.19,-0.6779268602153116,-1.1221199832786046,-0.5054514696047289
14.2,-0.2638136620660587,-2.329430018262779,-0.46829783825263205
14.21,0.5548724853102848,-0.9320292548154028,-0.05391858195476938
14.22,-1.424206923596602,0.14165567562278902,0.20045601547948702
14.23,-2.8557406342860903,-1.0009328946391276,-0.07217938769242702
14.24,-1.2380840854892237,-1.5125884957375495,0.10802243736162485
14.25,-0.07935358476188693,-0.7413583263547165,0.42655878956789245
14.26,-0.03857849414501951,0.37381583234093585,0.09435840997035233
14.27,-1.2944081548245594,0.42834437700765643,-0.413836336759133
14.28,-1.3395893260832579,-0.768006063756151,-0.6272527920350777
14.29,-0.5474159572305699,-1.5903987197777658,-0.21079607514204235
14.3,-0.3797352276628204,-1.425932726724716,0.34143630859064567
14.31,-0.25006315788390476,-0.2570633216005394,0.4386467714252745
14.32,-0.956514177028363,-0.17673352626743996,0.14880968632368793
14.33,-1.3431622637818346,-0.7943796119942372,0.039824994826152836
14.34,-0.8655904310006192,-0.579401389303439,0.18706514191376808
14.35,-0.5702718919806361,-0.75146858097805,-0.0432451566839074
14.36,-0.5140199987995172,-0.8105061591995375,-0.40026424592723503
14.37,-1.1948331961811784,-0.6006206226901065,-0.3485818460787319
14.38,-1.1209009799827672,-0.6257008144903042,-0.2582699043949824
14.39,-0.4622998205563412,-0.6072233812464549,-0.13912881828272552
14.4,-0.3476040856496705,-0.6413913540360952,0.1320469852964287
14.41,-0.06000319226847779,-0.9354868802752621,0.1718026312510236
14.42,0.29249017446553893,-0.15524660550425431,0.1521473887108611
14.43,-0.8888418369218922,0.46397256116734303,0.047229855542234606
14.44,-1.7134382798728514,-0.5447650670388707,-0.4612940792828758
14.45,-1.2968947285278092,-1.4952664594829552,-0.49787061991204284
14.46,-1.4446980586688667,-1.44277519975316,-0.195098230254715
14.47,-1.3255563006958178,-0.5546812970820093,-0.24046231595649367
14.48,-0.7577984614799927,-0.315451387782916,-0.18492810092421624
14.49,-0.3528930490411994,-0.24898064612500173,0.1689183906847847
14.5,-0.322511281398741,-0.5272257015404779,0.19356960271369097
14.51,-0.8297670720476856,-1.211537663068723,-0.11046401691620623
14.52,-0.9342347508658121,-1.0026475905671075,-0.2523632427054162
14.53,-0.2392136629837374,-0.5355748756938814,-0.2978580511903812
14.54,0.18853199756497302,-0.44733222918574445,-0.28182238553372935
14.55,-0.45812777120847537,-0.8364999852987589,-0.26258222230486117
14.56,-1.055801490392831,-1.133950712261149,-0.4208165304038073
14.57,-0.6097465192538308,-0.684909152526371,-0.34277816797915744
14.58,-1.1120514412278364,-0.22668258076792605,0.15493975988309835
14.59,-2.276055937693487,-0.6360611108617084,0.1344383042892981
14.6,-1.4591547240228087,-0.8583396734245486,-0.15392894868353552
14.61,-0.9216093396582801,-0.8074177723315141,-0.07557964453606134
14.62,-0.3041714818256459,-0.3643214239711969,-0.09414365220718096
14.63,0.16286254810957213,0.5122972584023395,-0.2712744674749987
14.64,-0.577481842508724,-0.2890700869205641,-0.4549431235420317
14.65,-0.9775104547031009,-1.4452306095684888,-0.4297477095678972
14.66,-0.49915315330054494,-0.985559785275579,-0.031197897055256718
14.67,-0.3277890113671637,-0.45439885346974757,0.37414452543865634
14.68,-0.9545390320120984,-0.49010827818729114,0.32102006983711734
14.69,-1.632157869094018,-0.9678152572332925,-0.057916440306644404
14.7,-0.9004302450082801,-0.9472609645051143,-0.13604159763561588
14.71,-0.3469500160423718,-0.1850569380824736,-0.10349353994996689
14.72,-0.46033236854954956,-0.1559731604194931,-0.3355679356017482
14.73,-1.0695070355560392,-0.9342706559749339,-0.3507601555745537
14.74,-0.8287406493996249,-1.0702091442711685,-0.06271440372558014
14.75,-0.2432913660334206,-0.7417006278236695,0.15312700369144963
14.76,-0.1991352094770237,-0.1767709169618787,0.23481307049369404
14.77,-0.7763070951406134,-0.3613962227122885,0.15279042804130993
14.78,-1.2927310673769727,-1.0078879818295492,-0.07610842071256389
14.79,-1.2702340786864035,-0.6222057097398628,-0.20279503710706231
14.8,-1.3198200294317104,-0.765183159030901,-0.2247401989443098
14.81,-0.885001573591912,-1.081435765044781,-0.08976387889309365
14.82,-0.172037430339199,-0.5011459308297963,0.11935625470878287
14.83,0.20847457649940135,-0.7914060838260115,0.04271083267589781
14.84,0.14201779484359683,-0.6335544432757315,-0.08070852673699472
14.85,-0.4880276199738784,-0.9929559453713981,-0.18058803352137384
14.86,-0.6812575931291265,-1.2179940029946144,-0.2458858388473281
14.87,-0.6252114741219796,-0.7020891126516463,-0.23238499223292056
14.88,-1.4069077544459814,-0.5572193571748797,-0.14190011881638548
14.89,-1.6846705723539008,-0.014858488337526597,-0.09111111412473678
14.9,-1.1604026690392306,-0.6522714283099331,0.01874328541427169
14.91,-1.225359795150336,-0.5082760420419774,0.28469913751743503
14.92,-1.0608569556727172,-0.5596256550333216,0.16536838552546726
14.93,-0.8191768699009242,-0.5543476667229237,0.13792016781500352
14.94,-0.4121000501845422,-0.34200747211340093,0.11062532808081263
14.95,-0.3604740523431214,-1.04838700108761,-0.07939007045308652
14.96,-0.5061633259016305,-0.9236816042491116,-0.041287684123096954
14.97,-0.5832942342845939,-0.9274069144636665,0.025392198591863355
14.98,-0.3546296236361842,-0.3260527855630964,0.10260995082503917
14.99,-0.6230404104770632,-0.2992684079252724,0.13550696015454228
15.0,-1.595199332712156,-0.4391521513644415,0.04289666830535701
15.01,-1.173895483557856,-0.49417837755525046,-0.15750483669479817
15.02,-0.8294237002674038,-0.8726572103919562,-0.02658650321443887
15.03,-0.7212497146443418,-0.8479228379459177,0.09193042158949954
15.04,-0.5203827881854163,-0.5909126620253774,-0.05599974313461028
15.05,-0.7742112412911434,-0.237273558073468,-0.10699135074580042
15.06,-0.8394418692291732,-0.656775529656158,-0.14842392045616612
15.07,-0.7183431395017313,-0.7103799381890453,-0.04004641195795047
15.08,-0.44509361317246665,-0.9876509836443651,0.03228777055823626
15.09,0.17961610296724762,-0.41071014786008353,0.10980122674554853
15.1,0.03783625676429831,-0.27222660050944764,0.18096215923007378
15.11,-0.9851168609837911,-0.468501956259697,0.06003056983926866
15.12,-1.5570497882384453,-0.7703402981513481,-0.42943712854047483
15.13,-1.1172643548999373,-1.1377634230192124,-0.4051706267543398
15.14,-1.312719353513337,-1.56612359638903,-0.0017856989736543228
15.15,-0.46149635759347946,-0.8271010425552512,-0.03998396275185209
15.16,0.19327165651741054,0.12059911725186552,0.001163901177699648
15.17,-0.5126302451314813,0.20245825696765724,0.1587728629237794
15.18,-1.5493304902784255,-0.7806264652209475,-0.13136212350714369
15.19,-1.1169826816985637,-0.9636901831515956,-0.1395617209009234
15.2,-1.0152208307102328,-1.1969095396828981,0.08995557044207808
15.21,-0.7430828755040784,-0.570381314044093,-0.05783342695937509
15.22,-1.3459151686479227,-0.4517036226528736,-0.25989144881737375
15.23,-0.8130623547893303,-0.9007834770677069,-0.23135759804044664
15.24,-0.4209602349406866,-0.5321340487706528,-0.17455454664387185
15.25,-1.478240671890426,-0.4763547720881465,-0.2574131008594667
15.26,-1.3012688590868624,-1.214825416324196,-0.2839793138621289
15.27,0.4193249712018322,-0.9229367682279461,0.04109337068405639
15.28,1.691407672711732,-0.2529913225002768,0.3882722658860422
15.29,1.3895585382287403,0.46877603099796894,0.38148132363147613
15.3,-1.9686543402815986,-0.44767802173040694,-0.22825580193849607
15.31,-2.1499903728648806,-2.1547237539487503,-0.9390400598383013
15.32,0.35000509686592046,-1.1478141518036329,0.3027000448763773
15.33,0.9518706760439384,0.3218341618935274,0.5207983746938991
15.34,-1.476719433911242,0.574163072055019,-0.05551811807487097
15.35,-4.421072368459325,-1.047551790226113,-0.8297322443939639
15.36,-0.24092999556169245,-0.7729317266753286,-0.14315826433984197
15.37,-0.16206180216036234,-1.0580803742737444,0.8318426203782506
15.38,0.14356779736365483,-0.30727192090796485,0.19121737963391566
15.39,-1.151748627286912,0.6105221067502214,-0.28386017956470344
15.4,-2.2491150081968003,-1.3262577494709646,-0.6216801887919038
15.41,-0.7622989417643349,-1.6659659250298182,-0.05586260340241936
15.42,-0.41264989788873824,-1.1864605104800907,0.5723470683328804
15.43,0.48366373743326707,-0.21760672519008595,0.23092092827618532
15.44,0.13263332373728076,0.0413027593665238,-0.073801053746767
15.45,-1.887409250249544,-1.115706012747942,-0.09322543477769081
15.46,-1.5559055863274411,-0.9014421913850689,-0.27789913608913436
15.47,-1.3416359198691805,-0.6102850433710573,-0.017307012497704066
15.48,-1.5755024910535462,-2.3301695123336676,0.06558675169128808
15.49,-0.37020353595901784,-0.5871766781912452,-0.20986123067720194
15.5,-0.12832978124252328,0.6169359680014144,-0.01786068879176799
15.51,-1.1935397013122864,-0.33738601311841776,-0.10351886897083269
15.52,-1.2332127203551577,0.20677376995659255,-0.45721493438594285
15.53,-1.555775929098543,-0.8841143186094325,-0.22339611133470197
15.54,-1.0043610601171908,-1.585026740560969,0.019211945655115487
15.55,0.11616493658472639,-0.09981012246131274,-0.23954181190236598
15.56,0.2727296412728165,0.7921168757860613,-0.11786033715691406
15.57,-0.3630690573593332,-0.3202696387122382,-0.12190705681793873
15.58,-0.4010342167859306,-1.8570555910847455,-0.5500030431501792
15.59,-0.3683205890597323,-0.4856404435517842,-0.3243155299672304
15.6,-2.012366619862241,-0.5494138033964824,-0.011290864006977083
15.61,-1.8042028998412898,-1.4744179417923613,-0.19340522846203162
15.62,-0.5635706593637505,-0.5052957301818197,-0.02716016100451628
15.63,-0.7738268410776086,-1.1422103073818153,0.14803633767423335
15.64,-0.21144978345690202,-0.16975241061022725,-0.11540476368858452
15.65,0.017607312065599307,0.3536167664068036,-0.4464265218458269
15.66,-0.3639801184070985,-0.2149057364914888,-0.4185655852663851
15.67,-0.8962593280706238,-1.0695096254230863,-0.11552988548434492
15.68,-1.129361860467376,-1.9292840532915778,0.19777195028437422
15.69,-0.7876030820795767,-1.1047842309625293,0.48356918122385023
15.7,-1.0323995181474277,-0.5582573990728744,0.5299759365854153
15.71,-1.6156145149948886,-0.7420254101250267,0.2491434572640903
15.72,-0.7871476084152039,-0.38249980184819565,-0.05586994837981411
15.73,-0.6335593543272101,-0.9913057611510717,-0.3001357125052209
15.74,-0.5910567256778221,-1.0327437269925333,-0.44956931480303636
15.75,-0.6718205700869022,-0.6804596330503722,-0.40543185667247383
15.76,-1.019126183505693,-0.9094203430213663,-0.23146281959818577
15.77,-0.40598084097888276,-1.2187495205899879,-0.09631169252820933
15.78,-0.029696499811304206,-0.5696900887097551,0.18343175691393002
15.79,-0.2697540086343213,-0.6356607146010025,0.254925957847938
15.8,-0.6764485197606929,-0.603274294249341,0.17025050831147878
15.81,-1.0396783213131033,-0.7809620298872876,0.13964047146223887
15.82,-1.108494216706699,-0.4562340829696818,0.15177379450127385
15.83,-1.2878467111092091,-0.3123978770399605,0.04715752374739098
15.84,-1.37960234791136,-0.5619569397908175,-0.04653109739340302
15.85,-1.0450083469603364,-0.6590293735326809,0.03442362004377785
15.86,-0.7107085987034554,-0.7061991841758093,0.17341759276671911
15.87,-0.3727114466072715,-0.3113327812285855,0.14560634568510272
15.88,-0.5630738558321815,-0.41927144455805776,-0.030867950233626547
15.89,-0.6326866288373871,-0.7729639322615327,-0.171354992354828
15.9,-0.12109450711983873,-0.5353908961260688,-0.164955857170178
15.91,-0.144176478195354,-0.34217381697813626,-0.2353085732168106
15.92,-1.1740099966980906,-0.6726178724390913,-0.3655481961560677
15.93,-1.9372095092878074,-0.8394179503699956,-0.4181519621290596
15.94,-1.282267860256147,-0.8716929011053185,-0.37662555167272543
15.95,-1.1186139018710126,-0.7406056730738839,-0.19067003214007913
15.96,-0.41219300102271694,-0.24535255006455775,-0.19875584942076302
15.97,0.18715715553345125,-0.07634189680188672,-0.2564071884312466
15.98,0.06652387602311449,-0.21858110203543393,-0.344465792186449
15.99,-0.7566939792265343,-0.7165448480537288,-0.654060210885941
16.0,-1.5472386379323866,-1.026424420775283,-0.9290521484512364
16.01,-1.2854678263064154,-1.0458014262427435,-0.7580007499910326
16.02,-1.0613483910610582,-0.7586123109928067,-0.24239603254238395
16.03,-0.557139367077735,-0.35698419988999186,-0.08666040267508415
16.04,-0.03756237897749423,0.3175083772716311,-0.06899823233805628
16.05,-0.42449456417667697,-0.17909054347795772,-0.19171333593680073
16.06,-1.129631499237392,-1.1669624988581644,-0.6212223855623946
16.07,-1.218257796922067,-1.1227116416010867,-0.8701727087434559
16.08,-0.9670874296462146,-1.2024549379850415,-0.6244636162935256
16.09,-0.609558131667576,-0.904686140669195,-0.16592353257544715
16.1,0.06716253010627093,-0.5196888527972137,0.16472668770802953
16.11,0.3485405995944485,-0.17823097425863485,0.3774724814557779
16.12,-0.5577221736266328,-0.18190218435446207,0.21006228630515072
16.13,-2.139525636657786,-0.4960518403503658,-0.35499424776734034
16.14,-2.0613240736043967,-0.9092519510830874,-0.5189898532237166
16.15,-0.9354474980709131,-1.0700347242448813,-0.07139108878704312
16.16,-0.7339278249757702,-0.8793482968497426,-0.017336005109252674
16.17,-0.530266621717911,-0.5507082988267004,-0.022762542966994297
16.18,-0.5560065572126446,-0.3409926427658744,0.2938227171064313
16.19,-0.8237351301079252,-0.49851989558985904,0.24723419506059244
16.2,-1.2594019848856979,-1.0351053387226463,0.10456788420612584
16.21,-0.8078881174568436,-1.0880322235086404,0.24590258550143482
16.22,0.622511543446183,-0.5820068753085137,0.20207925499180665
16.23,0.9459772498268623,-0.003725658721201473,0.217235164367181
16.24,-1.107376331770055,-0.47708292406155073,0.17567556188284902
16.25,-2.18079760562885,-1.5546205493542515,-0.31096521305365543
16.26,-0.6487312792189944,-1.4028128937675668,-0.06114760093590559
16.27,0.1731812724020364,-0.6069385787171826,0.6728530130803807
16.28,-0.06892463275452887,-0.1956464809742036,0.5135938686694267
16.29,-1.5778337360607169,-0.5234079756971567,0.14745152271748962
16.3,-1.790445185962604,-0.6982416429576042,0.08521563625941575
16.31,-0.8927930414436475,-0.7427764191987682,0.20262305125810262
16.32,-1.1598838011329267,-0.73242224696484,0.24235426371584465
16.33,-1.117321912222541,-0.559016170556058,-0.0873599962314012
16.34,-0.5636070752781379,-0.30011212790400227,-0.27327357477409536
16.35,-0.17537044007563635,-0.4511274601425209,-0.09135780607673602
16.36,0.005125438696850117,-0.649826800844332,0.030439594621310736
16.37,-0.10703796506489939,-0.8643199423818283,-0.09004975076341407
16.38,-0.6744349069966789,-1.1646795273762702,-0.11774000573720975
16.39,-1.1770114369121267,-1.0957954823649738,0.053583793149799226
16.4,-1.0122457967920608,-0.7605982898895622,0.11264700100941728
16.41,-0.47471588712599805,-0.33585351565791294,0.019499093221041812
16.42,-0.3344875557533787,-0.20625778497273617,-0.10725545610675444
16.43,-1.0009973759954964,-0.4995900969265386,-0.35032302344828953
16.44,-1.4414133371641635,-0.5152056931466897,-0.5463209943675973
16.45,-1.2516586929841376,-0.5576366888544035,-0.30801655115176524
16.46,-1.2887207885259515,-0.6850164055727916,0.16621336278398816
16.47,-1.0818434311520753,-0.6026645452782226,0.3487968645986872
16.48,-0.6778760671235101,-0.9051551146189555,0.3111513850003282
16.49,-0.1506404579185321,-0.43899000623162043,0.23797295337501792
16.5,0.035241398998078516,0.1234595842266676,-0.035057454467829596
16.51,-0.7236353215119165,-0.4713309464557421,-0.40638444021995856
16.52,-1.1480915438074348,-1.2848347519508339,-0.6093244843787411
16.53,-0.5584211222005702,-1.166392310612794,-0.47935100281368936
16.54,0.047133608611130286,-1.0477366808955852,-0.06213119883727853
16.55,0.5467533031856556,-0.8235842621410522,0.37900338350203994
16.56,0.41279036530699176,0.2204413186074625,0.5537445109523405
16.57,-2.516411054428189,-0.4249664923390262,-0.02563029562119801
16.58,-2.7133933693723544,-1.3667085287406449,-0.186965434891952
16.59,-0.8178512672794985,-0.8317775170564029,0.19130825273626806
16.6,-0.2693970825991486,-0.7134799047944033,-0.19597512982915277
16.61,0.3052622187791488,0.17002113534568536,-0.47094806202214495
16.62,0.9757677944509398,0.8672098168819011,-0.18178757060801098
16.63,1.3065447286511236,-0.12587179853065739,-0.15858572610225832
16.64,1.4884235426236527,-0.758795116844406,-0.23638483353963125
16.65,1.5073748372405915,-0.7616451551885578,-0.08304898739041004
16.66,-1.1961610114962409,-0.05121630980039815,0.18180270954356012
16.67,-8.468695993197722,-1.7910226810483971,-0.27493552371958024
16.68,-5.785650602209492,-3.611798663767791,-0.23041766608154143
16.69,-1.5576460961518999,-0.8289454274117147,-0.004912131710598078
16.7,-0.1887264835084825,0.9078760017273472,-0.4518665864715969
16.71,1.2302015213431698,1.6211297263411601,-0.032258482006779526
16.72,2.261485700314342,3.0255493325709164,0.6656502320653248
16.73,0.28245358016707894,-0.42947368608260333,0.0001308555965100822
16.74,-4.646825325777975,-4.347181006758797,-1.0518744644678606
16.75,-2.4739399156990634,-2.9430088277963167,-0.7782932287201114
16.76,0.45795330896662095,-0.8205628549091183,0.3323570718306429
16.77,0.43431410915319113,-1.2547423023011253,0.4670729179161055
16.78,0.8723280607372088,-0.37723414839233327,0.1017051523875871
16.79,1.4971267532902146,0.8015473264662978,-0.013367368388375258
16.8,0.6813956180998185,0.5270293393152777,-0.38188099502736744
16.81,-4.43079515334771,-0.5359125701996592,-0.8425468558973206
16.82,-3.324193754808485,-0.6148061581102583,-0.9795662793773452
16.83,-0.5583877391334043,0.08891650948063315,0.09382407241582442
16.84,-0.8173647059023766,0.7580045193706673,0.6742842159118708
16.85,-0.36980891969193413,1.3590039972069639,0.5129589715907148
16.86,0.22637763931389063,0.968934538833914,0.5119071533059332
16.87,0.2257328670150268,-1.7029347425000019,-0.027309843908525658
16.88,-0.26357563565894393,-5.5175464683265085,-0.934880797573469
16.89,-1.9377634517586548,-3.971690558618969,-0.8519811279391392
16.9,-2.4364164047912995,-2.428461391870685,-1.9051216411606684
16.91,0.8822006562788143,-1.9956051307968978,-1.00639646296765
16.92,3.3968283271748523,2.908002841043485,1.3381770820455863
16.93,3.7936249572700236,1.827962326908834,0.88286961454767
16.94,1.939061852254103,-0.9003526239831366,0.1299609604638835
16.95,-4.594610323465458,0.8486244276683609,0.43271587205535234
16.96,-8.632935383096513,1.0776878444499085,-0.33057172863948464
16.97,-2.284285013978852,-0.8067696632088839,-0.2913101838887654
16.98,-2.988282043795695,-2.2548425717519938,-0.9113818124638416
16.99,-0.029630799297397283,-0.3284648602243578,-1.3513220333552918
17.0,1.9468709228317145,0.48640626005874227,0.09451705164726279
17.01,2.9053031238762537,-0.08361630330776477,1.032633638564566
17.02,2.116035676435961,-1.5303031736315211,0.23920499188758637
17.03,-1.7113671135790274,-2.251669058981751,-0.11797954836644109
17.04,-2.281028714814414,-3.0855307016191307,0.2930456165007262
17.05,0.16591272660137746,0.12476482333439827,0.4953059762801388
17.06,0.15450324664186457,0.46976593625373486,0.1291884515211338
17.07,-2.026792252482638,-0.8207213140658028,-0.11592145014301766
17.08,-2.5560074726340156,0.7804637208667923,-0.22988759315060567
17.09,-1.0865831315482877,0.28597230947085855,-0.1785574607515443
17.1,-1.7805375898476783,-0.764767415411212,0.16376636302649406
17.11,-1.137997754783247,-1.0872960745100448,-0.2226570725941877
17.12,-0.39539490696578267,-1.2562780340957176,-0.23104100435977176
17.13,0.4104485408394442,-1.0363551019791784,0.07530705622155408
17.14,1.1547653154454498,-1.0378371418795793,-0.14780523762331269
17.15,0.761280618298081,-0.7963849694778217,-0.19841903877767664
17.16,-0.2669528001708527,-0.5156484786870176,-0.06260488509007124
17.17,-0.6539366255854687,-0.5096872883657538,-0.1747920440114928
17.18,-1.2333257423115729,-0.31445800667478885,-0.08447743313569539
17.19,-2.582550453014959,-0.37134956862104473,-0.05090749540939392
17.2,-1.9723615299044064,-0.06128684525123715,-0.14493683516206668
17.21,-1.7698957996561575,-0.005021596298742224,0.21744705016053043
17.22,-1.271964870046311,-0.4967355109704232,0.1447176623132101
17.23,-1.046749248131748,-0.6472770045513817,0.04180599030288307
17.24,-0.7556842985821902,-0.7667697527044852,0.09728064489334853
17.25,-0.03113040913334675,-0.8819458385062154,0.09476896158155801
17.26,0.388544225042461,-0.6977747626479299,0.13528386470345571
17.27,-0.018079581981473226,-1.1046209998678558,0.17419904471027647
17.28,-0.5638198225718587,-1.0403189279637546,0.1861394792155586
17.29,-0.8549330007874153,-0.729573352641221,0.12114668046833446
17.3,-1.1393599292071621,-0.3372087130813868,0.10562646594556041
17.31,-1.6362682556971595,-0.2285680259091777,0.05714168715124881
17.32,-1.4457911917432968,-0.6757394185550102,-0.03458735305276908
17.33,-1.3215782665521618,-0.6460440830383279,0.1656472288355395
17.34,-0.9130165459572691,-0.694993687454918,0.2868475859616778
17.35,-0.5124811370513012,-0.4516881779152068,0.3334673755944559
17.36,-0.33451130748305313,-0.6994440430735528,0.17997918517803146
17.37,-0.4789190225930064,-1.321460244467043,-0.08513047128418223
17.38,-0.24659848613167779,-1.2050684724274396,-0.221667566395831
17.39,0.2406583352877307,-0.7256054756958703,-0.30092094503157296
17.4,0.07492147495966167,-0.6988141778493375,-0.31379959340332203
17.41,-0.9105755420320643,-0.8353099569907403,-0.2687084950907485
17.42,-1.7824172539508527,-0.8760371867333849,-0.23602725155957938
17.43,-0.6797267089807824,-0.4168859709705178,-0.06206628082088348
17.44,-0.6791593188055373,-0.5055335752279604,0.2715836102719558
17.45,-0.5956105041653399,-0.7568949038200923,0.24706758349257296
17.46,-0.4274057943746016,-0.34864459519977936,0.03159380947379087
17.47,-1.0515282825163557,-0.5881055952360827,-0.05651407939973489
17.48,-1.0864815964122558,-0.9761945016599397,-0.1796852350585474
17.49,-0.5420819498379252,-0.9138723826438536,-0.020155185223141733
17.5,-0.4181563368094989,-0.9394271643623701,0.13355129171116517
17.51,-0.1982368817058978,-0.5604084899034653,0.10395932171260407
17.52,-0.5540510090128247,-0.24546388949370596,0.11246958272492001
17.53,-1.471864371541713,-0.373552397049834,-0.08367951208898508
17.54,-1.018792266830691,-0.7450566740437385,-0.31546034804046097
17.55,-1.13835756490157,-0.7626818892562236,-0.12807387940800352
17.56,-1.23359618836748,-0.9594288371934784,-0.12424134118136494
17.57,-0.6658419066188155,-0.5023780256317497,-0.0941974143722734
17.58,-0.44180055489361425,-0.25833439310029577,0.08225805252094377
17.59,-0.36242431796295765,-0.46698391117110777,0.0029410335487757007
17.6,-0.42266773621433484,-0.7047424634525187,-0.1139875839902638
17.61,-0.48209473692164617,-1.004589013820372,-0.2173135136758044
17.62,-0.3871265811924747,-0.8777592461038157,-0.2400474899204527
17.63,-0.6023087777160846,-0.6907105240626263,-0.1317967024849441
17.64,-1.225603661766263,-0.50634323276178,-0.08428001445911915
17.65,-1.101905960476834,-0.7849086872625978,-0.19544536882865454
17.66,-0.7876316865944105,-0.7567262662868756,-0.11532273944795174
17.67,-0.7575514503196626,-0.654615790651788,-0.03859517488707473
17.68,-0.5265153838713789,-0.30066340428858673,-0.1557737233836322
17.69,-0.6981329796157293,-0.37447673629842887,-0.22098768376984468
17.7,-0.9431564692577956,-0.8030397618563662,-0.24101050478035793
17.71,-0.7448486251786485,-0.8986532021579431,-0.14849046905862023
17.72,-0.5506735402843329,-0.783731347735891,-0.0028546716073855976
17.73,-0.38879348123515706,-0.703188211828792,-0.05196611213034066
17.74,-0.6036465934034647,-0.5780441514715741,-0.05884779543986366
17.75,-1.0118433724876321,-0.6086187908797253,-0.05608565601230558
17.76,-0.766169987868059,-0.8137134636955031,-0.20910339782109338
17.77,-0.32694090733986875,-0.49422214355819744,-0.16996474938663436
17.78,-0.400824093473099,-0.6921641268930079,-0.1251400521878166
17.79,-0.6933361298199291,-0.8204170786121425,-0.19826401030757473
17.8,-0.9266793089476264,-0.6775630758090871,-0.21119263776162608
17.81,-0.7796056966932445,-1.0062933343322285,-0.2204694692723465
17.82,-0.5093012506333121,-0.6141425325207858,-0.11588439297700417
17.83,-0.6975673094014586,-0.6558664242192601,-0.06325554356566385
17.84,-0.9414097137387684,-0.7547810908574579,-0.12057483702380854
17.85,-0.8309399142509356,-0.48039752298158417,-0.13570301920792724
17.86,-0.6264983714687082,-0.6590565913520003,-0.1224243780836292
17.87,-0.5178174008943718,-0.5293090622730297,-0.15120078078063234
17.88,-0.6451052654272071,-0.7932918735991962,-0.2629219016440217
17.89,-0.6510068889129293,-1.028543621053186,-0.2685510715277851
17.9,-0.33951576649825305,-0.6659439002334904,-0.14529961865095573
17.91,-0.32412687206910046,-0.5221994417098128,-0.06445566744544329
17.92,-0.7998651829924618,-0.6847820081760655,-0.0322375975400846
17.93,-1.164009954257455,-0.8961274573581879,-0.04339564879274661
17.94,-0.8997217982546325,-0.7591103728506491,-0.02534610242094846
17.95,-0.6980878289342574,-0.4459490202848577,0.06250115999426674
17.96,-0.8585866815028486,-0.15439713143058967,-0.0006528947325928689
17.97,-1.2046364266389018,-0.5618649411827676,-0.14547806588914408
17.98,-0.8339542900512452,-0.8216093039589474,-0.041806966788616826
17.99,-0.5900063972777582,-0.8516143555586336,0.13036377289919124
18.0,-0.6059582516686434,-0.6535617712727539,0.17239071653178134
18.01,-0.9075480251513717,-0.5170256408914298,0.11899424152440817
18.02,-1.0277169121970868,-0.7716934180149868,0.005425497253618096
18.03,-0.5821207662832849,-0.7178325799018145,-0.058467020772356236
18.04,-0.4296724597710521,-0.5713142425707629,-0.10952348839157675
18.05,-0.7441219975333846,-0.41016350345442604,-0.21557244353733254
18.06,-1.3225719849270874,-0.4728934560365694,-0.3832178405191122
18.07,-1.0226390495098423,-0.7226858200782714,-0.36718527719230604
18.08,-0.6266450554717969,-0.9001827924410735,-0.07227618201165002
18.09,-0.4821269540771093,-1.0150114520743372,0.04947177397740939
18.1,-0.231592554649818,-0.5736916997792948,0.03433773190844869
18.11,-0.5865212554274417,-0.457946363457154,-0.01721738627025167
18.12,-1.0306233009379258,-0.7916227362545277,-0.10136223377348112
18.13,-0.7334678657201424,-0.835903093902664,-0.08023163468304362
18.14,-0.3969641971503897,-0.6744568371087396,0.00883151293619634
18.15,-0.410711988441498,-0.46360216160168327,0.0442516135032707
18.16,-1.1977595560179348,-0.45980253404634086,0.03747018729550901
18.17,-1.7496777925791587,-0.7359800594876446,0.004100634794370634
18.18,-1.0483768253182075,-0.7810919241547762,0.12026184734712222
18.19,-1.079472270804185,-1.0225687549247369,0.27754683840135563
18.2,-0.6416135365252367,-0.858549120100368,0.164129890989048
18.21,-0.033245380453622984,-0.3871670747942559,0.02843364901576355
18.22,-0.18660618806550855,-0.4658458205281594,-0.02696655300379857
18.23,-0.6277994063862946,-0.6609559398896592,-0.18746442772106195
18.24,-0.7614755491317486,-1.0015313482825277,-0.2991785505703556
18.25,-0.461706409811779,-1.0046835736275295,-0.15517460903430128
18.26,-0.37676505638328034,-0.7990078487324991,0.017969781846779134
