seconds_elapsed,z,y,x
0.0,-7.569701094782352,-6.086598964777589,-1.3503054786697029
0.01,-7.44097991509889,-6.231023280239608,-1.405835049412284
0.02,-7.315476304951902,-6.3624687042819605,-1.4741409369302736
0.03,-7.268972216285254,-6.397462022320675,-1.5507514826209647
0.04,-7.293785409930605,-6.354859571136682,-1.6082707950948267
0.05,-7.3825179110767545,-6.25920871694974,-1.5779654988714542
0.06,-7.5311297460716204,-6.092097824377132,-1.528673369546512
0.07,-7.7001143727772385,-5.886568955432438,-1.491936404515592
0.08,-7.790657381640491,-5.747341468577183,-1.56301501034365
0.09,-7.767235929054743,-5.729912773233544,-1.734091276038194
0.1,-7.653920421846292,-5.8475644248028855,-1.8413858764017241
0.11,-7.483551798114975,-6.041936933547644,-1.9129222662160141
0.12,-7.338843912174909,-6.215137171274715,-1.9189893529402262
0.13,-7.278463484605839,-6.315039795432607,-1.8205197885065323
0.14,-7.286278603097599,-6.325561196107132,-1.751446004984413
0.15,-7.325936000392012,-6.273448266976302,-1.7730432831384282
0.16,-7.40113155755332,-6.167753299734548,-1.830305188861278
0.17,-7.503482975398435,-6.023167769867018,-1.8940343952132201
0.18,-7.607253451345248,-5.887391707700685,-1.9071007741683683
0.19,-7.691574184878311,-5.798852380350711,-1.839345258668384
0.2,-7.71400609857641,-5.7796333877336385,-1.8055787765029299
0.21,-7.689611306954159,-5.8199037576871095,-1.7792856567034867
0.22,-7.562499547375938,-5.956069055281916,-1.8689571635348943
0.23,-7.33426994509442,-6.190772182885371,-2.0097520591619897
0.24,-7.102187599975612,-6.432283405523865,-2.086094817957203
0.25,-7.1431067217326865,-6.437611239720135,-1.9192390977203442
0.26,-7.432045740520458,-6.1187644435466355,-1.8640912722405267
0.27,-7.622951097339105,-5.814275609680914,-2.062228289378888
0.28,-7.6829584108320095,-5.72355734848091,-2.092841439382037
0.29,-7.586047537416148,-5.835877153526899,-2.135514989535594
0.3,-7.5753537268274815,-5.914412104984884,-1.9480417949366133
0.31,-7.605733830949013,-5.941047399899407,-1.7381764053634627
0.32,-7.490549671582972,-6.03343867253038,-1.9097914893453882
0.33,-7.28315167287114,-6.2520784391785265,-2.0060292325669926
0.34,-7.084559727557287,-6.455717152210655,-2.0738093328623126
0.35,-7.034765765529475,-6.491301163314579,-2.1308356008234304
0.36,-7.1709053327708085,-6.379772387228227,-2.0080097147147615
0.37,-7.393315535662191,-6.156006986344285,-1.89500692019829
0.38,-7.632603502220582,-5.851640500394337,-1.9114771081600979
0.39,-7.8116506145795395,-5.584232426454392,-1.9891552526817249
0.4,-7.857247576231277,-5.459657544382608,-2.148949069358702
0.41,-7.747056657453196,-5.549477501899594,-2.3117590207566145
0.42,-7.589166797449809,-5.786572982014515,-2.2520932123800113
0.43,-7.470566173904734,-6.005088858213894,-2.0728423926407737
0.44,-7.405045119583049,-6.095913944004398,-2.0429171088298266
0.45,-7.36355215969763,-6.113860123648379,-2.137347547330108
0.46,-7.335020932699652,-6.119265150412452,-2.2180854827855767
0.47,-7.31222763857518,-6.108797162553823,-2.3203400784272983
0.48,-7.328529235726772,-6.0852997374849025,-2.33028178914724
0.49,-7.387332515944857,-6.044909352543802,-2.248113756387694
0.5,-7.4759451446842,-5.955698631780941,-2.191924270324338
0.51,-7.596305439963075,-5.816931437011062,-2.149834648041089
0.52,-7.70430246494992,-5.682380330865847,-2.1268690031067683
0.53,-7.691577640262949,-5.674909623848575,-2.190048865047879
0.54,-7.516541990924305,-5.853555012968923,-2.3171886543108497
0.55,-7.217590749074234,-6.155062239994016,-2.480536950548302
0.56,-6.937268484766713,-6.442442640125338,-2.5543367015217897
0.57,-6.79399102021034,-6.608410789201201,-2.5178150340874708
0.58,-6.828771906282421,-6.601135214188938,-2.4394885041951406
0.59,-7.035134344179933,-6.407979869412612,-2.362547338818662
0.6,-7.321315946468276,-6.09825195008854,-2.310544511166452
0.61,-7.602861780149533,-5.754486338415997,-2.284403277657682
0.62,-7.800577473966044,-5.482241282418008,-2.2937891628336753
0.63,-7.813299796297411,-5.429520756450411,-2.373543374718182
0.64,-7.65017951158023,-5.611113543069474,-2.475066227594903
0.65,-7.398271608558975,-5.9250266329149515,-2.5094851932863813
0.66,-7.179164853358658,-6.201080339758238,-2.4824971080109624
0.67,-7.030835683181472,-6.377382680646352,-2.461729783815419
0.68,-6.9350444059973455,-6.476959982465015,-2.4746431831129705
0.69,-6.9256343961906435,-6.482139790582911,-2.4872456678972106
0.7,-7.007703676634084,-6.397228476170484,-2.475785858998341
0.71,-7.175524755122277,-6.218844629575189,-2.4457164412720562
0.72,-7.395744526903421,-5.950164812820586,-2.4577162025953054
0.73,-7.557803033669332,-5.698037796303748,-2.56314466210285
0.74,-7.621838707726343,-5.577066475672117,-2.6408865187866413
0.75,-7.5995319636307785,-5.61967238691374,-2.613671054030974
0.76,-7.518799495187115,-5.755745044560789,-2.5496292348923135
0.77,-7.391039903410036,-5.937084700010927,-2.505125672035669
0.78,-7.192536597114826,-6.167642002553574,-2.52383918090588
0.79,-6.970731621486079,-6.384189211650461,-2.6086087502740396
0.8,-6.8579367684613155,-6.490086311784556,-2.649008866681458
0.81,-6.9333580834732995,-6.427871747847173,-2.6015039839827416
0.82,-7.12466855029318,-6.224993761856025,-2.575016770378372
0.83,-7.353655804489873,-5.963929245921564,-2.548768479213223
0.84,-7.54665746399585,-5.7492814913814545,-2.480811781948259
0.85,-7.617853488162717,-5.663598196435241,-2.462117354488856
0.86,-7.5616576481345685,-5.740980243967844,-2.4538930270439163
0.87,-7.449286171354339,-5.927016474800586,-2.351653407234149
0.88,-7.339746396452518,-6.102342369088911,-2.247837106386781
0.89,-7.2392771822664255,-6.219589803167216,-2.252868633682529
0.9,-7.153132283095283,-6.299476822012953,-2.305710138860584
0.91,-7.0693424780642955,-6.3677002876644035,-2.3753447275247317
0.92,-7.016781312741305,-6.421419867881275,-2.3872325247531063
0.93,-7.097297336254614,-6.387520773327704,-2.2293388966228465
0.94,-7.286190964241622,-6.229777067082298,-2.0617118617625705
0.95,-7.467800094775929,-6.009813323440299,-2.0651493073701706
0.96,-7.594756032403575,-5.836722165289,-2.1019839864609917
0.97,-7.62401586314165,-5.793042279415328,-2.1177091722309593
0.98,-7.581130663432942,-5.871955960088334,-2.0504205021243025
0.99,-7.510806219907461,-6.020953932025295,-1.867750853768347
1.0,-7.408311769744054,-6.1705667114887826,-1.789840752466393
1.01,-7.295947429280578,-6.288003874463021,-1.8423163343753253
1.02,-7.204646920436949,-6.377633789521847,-1.8937164384989498
1.03,-7.162234690264587,-6.41223016004911,-1.937965321721691
1.04,-7.20080522068483,-6.381176105908724,-1.8952993427958882
1.05,-7.307322638106829,-6.302054741589442,-1.7447288249534285
1.06,-7.4162351522470775,-6.203691009179198,-1.6367988864383978
1.07,-7.499320290403834,-6.109261413499763,-1.6137482633715725
1.08,-7.581570484070186,-6.027515997610607,-1.5328227826355592
1.09,-7.6273900929320355,-5.985226742890122,-1.4730720453242956
1.1,-7.586891288900338,-6.024379363863743,-1.5205370401705551
1.11,-7.484152936015125,-6.150519049527337,-1.5224892236452137
1.12,-7.361284072202786,-6.302806034851588,-1.499282369632586
1.13,-7.2702543006363225,-6.409132379167516,-1.4948280860327976
1.14,-7.250168934479644,-6.444132546210973,-1.4409436601488494
1.15,-7.277668562591049,-6.4291590027059495,-1.3676972935293472
1.16,-7.301112916636403,-6.407315818812499,-1.3454842962759033
1.17,-7.310342122311307,-6.397637475755899,-1.3414398482948442
1.18,-7.347127510422545,-6.36713827675268,-1.2828357480882775
1.19,-7.431917401046238,-6.290539058954993,-1.1647843119888655
1.2,-7.507542092769029,-6.214458134478471,-1.0890284869656328
1.21,-7.485794752258822,-6.233482510063931,-1.1276624771258157
1.22,-7.355465908940903,-6.365804627205311,-1.2354446754240056
1.23,-7.248713567208189,-6.496226854735457,-1.189494154036566
1.24,-7.203707753251763,-6.56625946731271,-1.0767205636955386
1.25,-7.188424687519798,-6.5836961214448015,-1.073054232464336
1.26,-7.1982289747832215,-6.5702491972602015,-1.0897469691120432
1.27,-7.249699467907767,-6.519356762420884,-1.051930341666805
1.28,-7.3165084116006875,-6.449583857101279,-1.0197966025354903
1.29,-7.326997521475856,-6.435446059451291,-1.034417940075372
1.3,-7.273353661206409,-6.494754268738775,-1.0410843812045982
1.31,-7.223583089616154,-6.564458706229948,-0.9440867250595726
1.32,-7.256942135422661,-6.552497075603829,-0.7468281506454282
1.33,-7.331258330309351,-6.47577677833473,-0.6953079116633659
1.34,-7.379564905026789,-6.4158257087921235,-0.7406819518566093
1.35,-7.370751494312145,-6.423593751309702,-0.7610437801953339
1.36,-7.321601098197065,-6.478816331250071,-0.7666222951706999
1.37,-7.267705136768931,-6.545054731336303,-0.7139812516153557
1.38,-7.217658313827015,-6.610160187834626,-0.6143278836902516
1.39,-7.182548803408241,-6.656241216845525,-0.5233170882784092
1.4,-7.187570275028793,-6.656220078081639,-0.4501984642769544
1.41,-7.259098246827038,-6.583704479283086,-0.35095773269803326
1.42,-7.382186461675279,-6.450249110800858,-0.2362115380882072
1.43,-7.478406746389809,-6.340839664756789,-0.1858679116675822
1.44,-7.484335258402174,-6.33405245204579,-0.1855058620683879
1.45,-7.40842881196631,-6.420953897554886,-0.22628892303381587
1.46,-7.304946629783075,-6.538823502835507,-0.2141593003694119
1.47,-7.225011290120575,-6.629818864862465,-0.06525594783829244
1.48,-7.171856309055391,-6.688009997716651,0.05434480894372696
1.49,-7.184228551844408,-6.6738037352722595,0.12603885322073063
1.5,-7.300613174104408,-6.542858977337858,0.22116257323416572
1.51,-7.457126845742569,-6.364787836125998,0.19295713007105314
1.52,-7.56872084634097,-6.2345166849476685,0.0973670359801473
1.53,-7.541686338878219,-6.26802749093956,0.04296312964490062
1.54,-7.421969201379917,-6.408975270378715,0.025003579466148507
1.55,-7.308292097952076,-6.535842888768148,0.1688812029970936
1.56,-7.262253784083701,-6.579574256319752,0.3631891688493636
1.57,-7.350115855478085,-6.47776616645587,0.4206300562336061
1.58,-7.455872005670473,-6.356955781765163,0.40640466291208743
1.59,-7.4862735368591915,-6.326249711288539,0.3197858404283682
1.6,-7.445886434298266,-6.378516281752498,0.197427405663562
1.61,-7.416133427452564,-6.410416615730637,0.271521875817129
1.62,-7.4243000751425985,-6.393730358127787,0.40838996615836404
1.63,-7.445944546141793,-6.368632639047336,0.41020312629650724
1.64,-7.455358098345222,-6.3597756401135985,0.3756112307265344
1.65,-7.445158044552381,-6.374739566019526,0.3190951138031489
1.66,-7.424616288035257,-6.399759277426111,0.29717349727691916
1.67,-7.405609186747682,-6.416713785581904,0.3878559098540913
1.68,-7.3942207893577345,-6.425627606311848,0.45467226101500674
1.69,-7.389053437952905,-6.434085937211627,0.41726973475600415
1.7,-7.387827752894357,-6.440789138053224,0.3238138691777141
1.71,-7.402106482132094,-6.428199054414647,0.23710137573447432
1.72,-7.443915063578671,-6.3777874699476955,0.2833773149400632
1.73,-7.466270941448477,-6.344635522614674,0.40935581784948877
1.74,-7.446757981475668,-6.360674765742889,0.506511045186017
1.75,-7.418110169857754,-6.394121344263546,0.5068000797986781
1.76,-7.398398090630863,-6.424548788631774,0.3954467083571939
1.77,-7.360283242387997,-6.474735909216151,0.2669091941367136
1.78,-7.315984250198219,-6.527234724000104,0.2022571441954308
1.79,-7.280235969002819,-6.566485553372783,0.22199381340770769
1.8,-7.28243595456296,-6.560423285034403,0.30971452988549514
1.81,-7.320273644632927,-6.514008308001107,0.3876556332959438
1.82,-7.383752963737453,-6.439923088051004,0.4200425368493693
1.83,-7.469735297880318,-6.337977927688935,0.44810753196285213
1.84,-7.523372918295945,-6.277163476207981,0.4067408711951321
1.85,-7.515659523713752,-6.292606746303375,0.2937461080650397
1.86,-7.467122567732451,-6.3525788380427946,0.23678818893451226
1.87,-7.387053129839814,-6.442010346573142,0.3150673762005602
1.88,-7.315206126219882,-6.515583033893057,0.4493449458399027
1.89,-7.279681969304545,-6.551560909970333,0.5032629384811097
1.9,-7.294559374921115,-6.53450166443299,0.5098659709429685
1.91,-7.2991625437861,-6.532802019167886,0.4634705436145311
1.92,-7.260755434670025,-6.580720121435994,0.38034000255399536
1.93,-7.231610771951482,-6.6149289899801715,0.34150023278809366
1.94,-7.249569925394576,-6.590567219763258,0.42137235814198726
1.95,-7.33092766935007,-6.496704408555037,0.4678722644404167
1.96,-7.40740654304425,-6.414079198792833,0.39828355465988385
1.97,-7.436923427706695,-6.3846441920677375,0.31329883387677154
1.98,-7.451393829790383,-6.364453175282241,0.37460030722656007
1.99,-7.4285763568005185,-6.386757486304643,0.44217545706886396
2.0,-7.3562929028969455,-6.47226308880426,0.4049215704242217
2.01,-7.228874493448287,-6.618068450111434,0.3343349048793583
2.02,-7.113466252483123,-6.746838090443967,0.2150689050761556
2.03,-7.135834668338206,-6.7198006246746464,0.306048818495274
2.04,-7.2927668144814675,-6.54684210643168,0.3481517841839881
2.05,-7.505762380296953,-6.306430591105826,0.23741179006179802
2.06,-7.643037745376501,-6.140196342855482,0.2240167194308971
2.07,-7.639609954890613,-6.147695061334272,0.10913844052681813
2.08,-7.526643186775672,-6.286342848879597,0.004629175818738051
2.09,-7.324068223276045,-6.520955535250076,0.04213898375976999
2.1,-7.113441709036191,-6.749529803381375,0.09944832863239235
2.11,-6.9692266321690015,-6.898167214568192,0.11978269812879587
2.12,-6.946948211688303,-6.920654730590011,0.1217116964677688
2.13,-7.050300253936331,-6.815922047065089,0.0797633173176249
2.14,-7.2493843117478445,-6.603639932012603,0.08605999920856838
2.15,-7.445076908621761,-6.382381304700969,0.07374887446337088
2.16,-7.599842912379848,-6.197761331702907,-0.009387055664509437
2.17,-7.697537225616355,-6.075967338273067,-0.029579137579110595
2.18,-7.748738897441722,-6.0096566988397235,0.10688224276969399
2.19,-7.737731325478869,-6.024727481163248,-0.0048502993722200965
2.2,-7.561128879342472,-6.244784837589774,-0.010614740864343813
2.21,-7.27089822116216,-6.579960221018565,-0.07600725787109787
2.22,-6.995501137190795,-6.86986923980782,-0.192616706380525
2.23,-6.829687217991403,-7.0341580105274195,-0.2149208728684407
2.24,-6.77271766825012,-7.088265216024185,-0.23870317981240227
2.25,-6.801477847684402,-7.057760495474339,-0.3112587699661848
2.26,-6.954228819221315,-6.9077592110604495,-0.2926440390160301
2.27,-7.232834402880394,-6.61904128314354,-0.18597548646655884
2.28,-7.541340586481846,-6.268244582286238,-0.04225597058470103
2.29,-7.754915748700648,-6.0025417742886304,-0.028523477606838273
2.3,-7.749167983100091,-6.008407727940856,-0.11321130485473022
2.31,-7.5266332507923535,-6.281658972601678,-0.21906265483205015
2.32,-7.223286093158339,-6.6254786242772274,-0.2961116678132304
2.33,-6.97772670110759,-6.888726808371771,-0.1543296070136416
2.34,-6.8679335546294835,-7.00008666459629,-0.01991876717889349
2.35,-6.91690231666622,-6.951566126910365,-0.007304642295414012
2.36,-7.046314756302257,-6.819659741494963,-0.06895852816437185
2.37,-7.21743830472746,-6.634281682182113,-0.2421663029381932
2.38,-7.363627988980691,-6.464911110308862,-0.38722188448438927
2.39,-7.454843476067544,-6.364313276176736,-0.2926540825721042
2.4,-7.471534999743221,-6.351384120350079,-0.07583216546047454
2.41,-7.428631041990991,-6.400387752382212,-0.13976585899135902
2.42,-7.353917115306589,-6.484647207346294,-0.1916246893402127
2.43,-7.245546465285549,-6.602616233442008,-0.2692345132832773
2.44,-7.1147818601492645,-6.738304273841226,-0.37689273506978915
2.45,-7.006839196973183,-6.853574283905262,-0.31636408901843904
2.46,-7.0043401958601725,-6.861114669275154,-0.17288689041144964
2.47,-7.156470243408554,-6.702138206293926,-0.15781674496869655
2.48,-7.365852662388145,-6.4701044543665045,-0.2034830742592074
2.49,-7.542530170661197,-6.261637226773598,-0.2624204586459884
2.5,-7.6033309513207925,-6.183119781948512,-0.35813039121414236
2.51,-7.5767595547599385,-6.218817505576919,-0.29309838193970483
2.52,-7.502096986961965,-6.312662628244485,-0.1893070411218107
2.53,-7.402349180760569,-6.429848074466566,-0.17449858655389688
2.54,-7.317094292734877,-6.526561300448399,-0.17784212762913496
2.55,-7.227203271361424,-6.623993685842956,-0.23885853386755654
2.56,-7.1457127018526645,-6.70803157488064,-0.331552448795366
2.57,-7.102219954348106,-6.751349108903937,-0.3847393136628594
2.58,-7.144238037578123,-6.706966162309899,-0.3744460027178474
2.59,-7.293658236199389,-6.546436305981635,-0.32267770110724264
2.6,-7.4777686469666085,-6.337192957325479,-0.29090881114603667
2.61,-7.605376000982989,-6.184130688370452,-0.29064677607124656
2.62,-7.6178294771167,-6.167275298476691,-0.31979336671040315
2.63,-7.551059623592542,-6.250400406614174,-0.28033681386500975
2.64,-7.449794662483364,-6.373988608678181,-0.19400156571695773
2.65,-7.323799040748349,-6.517986447076145,-0.19900798496347988
2.66,-7.1721486765183675,-6.6827846851512085,-0.2468514507432419
2.67,-7.03211637788165,-6.827505366477205,-0.3198416305738381
2.68,-7.00455577420254,-6.85398886449354,-0.35028247692007636
2.69,-7.13698129364244,-6.719691783809144,-0.2571860389398369
2.7,-7.317287933483419,-6.524181325994429,-0.22552651829897902
2.71,-7.453300294180141,-6.36773838463695,-0.2627417246774125
2.72,-7.467125732211573,-6.347581011506747,-0.34188428081902644
2.73,-7.411910943484843,-6.408832115824729,-0.39744715980584444
2.74,-7.385308778183227,-6.445894617928053,-0.2625327732912025
2.75,-7.401565888977645,-6.431958154500054,-0.12268441899596379
2.76,-7.433844241370966,-6.392980209727055,-0.19417396947954463
2.77,-7.430117937995642,-6.394806993705469,-0.2590764725005353
2.78,-7.389410610687144,-6.434756720465586,-0.39153948444869413
2.79,-7.341185887146154,-6.482639171775026,-0.5018364522549803
2.8,-7.334583956972035,-6.49600031615247,-0.4136130578134515
2.81,-7.361095461557959,-6.471967670461297,-0.31202019022210353
2.82,-7.39499729781426,-6.431646033200586,-0.3433565658062028
2.83,-7.407363116115747,-6.415456949803106,-0.37744736667226675
2.84,-7.376758161173609,-6.445737382771122,-0.44978824428949155
2.85,-7.309244210670457,-6.517460011540911,-0.5143748817958232
2.86,-7.239471712957718,-6.598394146777408,-0.46816819265608667
2.87,-7.215162316894232,-6.628317684251602,-0.4206336614337385
2.88,-7.252656334749535,-6.584585181873719,-0.4566898270697774
2.89,-7.335783347502214,-6.487904735681991,-0.509314660958908
2.9,-7.4100768333201446,-6.399115853380762,-0.5572248025400249
2.91,-7.450053738133787,-6.349988961849185,-0.5869831039259801
2.92,-7.455096729251163,-6.346596677274389,-0.5577665674836184
2.93,-7.427316083725497,-6.384807024867507,-0.48753500797440263
2.94,-7.389466293501332,-6.432647702008903,-0.43156770417193985
2.95,-7.365663571490647,-6.461183222793208,-0.4126729404817738
2.96,-7.356298569939254,-6.46939062018286,-0.4488876646025555
2.97,-7.3453922336158834,-6.478315181999133,-0.4966091105317096
2.98,-7.3321866811009135,-6.49213705580972,-0.5113795616814387
2.99,-7.335725991847996,-6.49108249877992,-0.47089447370240495
3.0,-7.347882019050043,-6.482275926780443,-0.397816584545704
3.01,-7.345729573153801,-6.486775603141531,-0.36366370949473487
3.02,-7.327456198105113,-6.506296029797733,-0.38246538631781685
3.03,-7.312124838529669,-6.522435990793815,-0.40127691121372794
3.04,-7.325749890167786,-6.509666400303312,-0.35288190724077
3.05,-7.363553771374277,-6.471458504480299,-0.2582167823054466
3.06,-7.3894742121665065,-6.443008759035269,-0.2309183205079014
3.07,-7.388991643027749,-6.440751789761269,-0.29551116277524647
3.08,-7.363820431612094,-6.4646174334298525,-0.3882131448597101
3.09,-7.308099403658085,-6.524945178141903,-0.42958585638248126
3.1,-7.238650426648779,-6.604524998116894,-0.38416497385817056
3.11,-7.191929725772181,-6.661358451299094,-0.2552298743433839
3.12,-7.224096396304027,-6.630562752625848,-0.07939626694677088
3.13,-7.335479079050034,-6.507762582885136,0.011816734254165968
3.14,-7.449077195380974,-6.377694744800557,-0.02978078438719468
3.15,-7.498689292170393,-6.31858892238615,-0.11411633758655651
3.16,-7.480888705835043,-6.338861970751743,-0.155740592602675
3.17,-7.440823494150769,-6.38692362873563,-0.0642598611057121
3.18,-7.403866162781689,-6.430389446210751,0.045285254248271914
3.19,-7.3821955491975775,-6.45513231557811,0.06948083469975684
3.2,-7.384080636626113,-6.452738393074908,0.08684844301060327
3.21,-7.399452155787071,-6.434968537324213,0.09661930457142741
3.22,-7.413042658034147,-6.419643839443087,0.07124190591236626
3.23,-7.400670827814573,-6.433999269756649,0.05935278245135453
3.24,-7.3526832049311235,-6.488711212929522,0.0482197977685088
3.25,-7.28423524385901,-6.565590511755789,0.012281515940300526
3.26,-7.239852477621741,-6.614652811029099,0.0201903903220757
3.27,-7.254867266993805,-6.597780627971999,0.06973710664707715
3.28,-7.301108931865721,-6.546566431233286,0.07152604684993984
3.29,-7.325734387764727,-6.5192100262804535,0.0616193590404754
3.3,-7.340657594825721,-6.5018207913550325,0.10121961328325867
3.31,-7.381251559914695,-6.453845523198319,0.17737384134835926
3.32,-7.433560265131902,-6.392365769020322,0.22089118475093822
3.33,-7.475192169285159,-6.345177554727894,0.1650297891781783
3.34,-7.513969068870466,-6.299640221932058,0.151544678773715
3.35,-7.5555189596807475,-6.249050579720848,0.18132769351064476
3.36,-7.557265091061392,-6.248198229132426,0.12045823075659653
3.37,-7.460591156078234,-6.363286445833378,0.072336372530391
3.38,-7.262906417260777,-6.586769468176536,0.06892156359437805
3.39,-7.059079715445475,-6.805646765036407,0.08113441430310107
3.4,-6.9768300621423895,-6.888239943549634,0.1957916129497698
3.41,-7.0492217888005,-6.811093807051403,0.2808290402406107
3.42,-7.207298092803071,-6.6445743368046015,0.23900897122177894
3.43,-7.366304457078578,-6.470520079404371,0.16620360608672105
3.44,-7.478401935931198,-6.341931806757616,0.1392481314890875
3.45,-7.5133039073685,-6.300126137120241,0.16874435826373918
3.46,-7.447661984677827,-6.374408730701489,0.24640638898994263
3.47,-7.320603282745407,-6.5150979421118365,0.3465342119877973
3.48,-7.259017343766539,-6.583253712335569,0.3709211092157459
3.49,-7.285198607117934,-6.557375315918421,0.3066807807847014
3.5,-7.310679300854568,-6.5330558592162085,0.2006120441590191
3.51,-7.24563565571045,-6.606975607458341,0.10333778770531024
3.52,-7.117619529839635,-6.745033896953656,0.07068328363681241
3.53,-7.052189823244959,-6.812284358041517,0.15799967548598184
3.54,-7.103201387932129,-6.753142105650569,0.3145428263696061
3.55,-7.209044385998326,-6.637110364426609,0.37747355753123496
3.56,-7.279130355167116,-6.563813286784769,0.3123779350959412
3.57,-7.287656430708634,-6.559325014589221,0.1724225686210204
3.58,-7.286547336817744,-6.5605797492993965,0.18155841830008765
3.59,-7.288189256260101,-6.557666499752351,0.2228842251609413
3.6,-7.273823869675262,-6.574653533045688,0.18637366480197712
3.61,-7.237833920132494,-6.615217524150323,0.14814897303254512
3.62,-7.235692482515139,-6.618326649978241,0.11101454596092565
3.63,-7.310423753215566,-6.534454244250339,0.14952837393963606
3.64,-7.382900640145511,-6.453353000655686,0.11934658467536248
3.65,-7.370918983770028,-6.468069642775781,0.016964859510813078
3.66,-7.283668393925741,-6.565625481532297,-0.06737177547207406
3.67,-7.213007332906169,-6.642865816341566,-0.1165731763205455
3.68,-7.20213049798144,-6.655001549292209,-0.10147128864579846
3.69,-7.19940371502015,-6.658086673409565,-0.09389523584511496
3.7,-7.185033464871045,-6.673595146174777,-0.0930863450732779
3.71,-7.207515320803906,-6.649309725099137,-0.08993050770507315
3.72,-7.282026525576561,-6.5668626153092315,-0.12141341993879318
3.73,-7.349133276031382,-6.48934154192583,-0.21221113026042834
3.74,-7.337978320502344,-6.498460901096702,-0.30397456192687006
3.75,-7.261242049590622,-6.580650567023683,-0.36821416698881876
3.76,-7.1818409289037515,-6.666505186895472,-0.38324658575649484
3.77,-7.202309900874254,-6.649674951321342,-0.27052752699099886
3.78,-7.311336664985097,-6.530731821064898,-0.23913587037682224
3.79,-7.427456218726527,-6.395469507597789,-0.30678177446627464
3.8,-7.4592703142354235,-6.352432652164446,-0.4166994675530205
3.81,-7.384340560677804,-6.425922958263289,-0.5826030975148617
3.82,-7.26420138750793,-6.550376090623137,-0.6976157107018796
3.83,-7.207065769824088,-6.62616554097893,-0.5600222383501051
3.84,-7.2317556174391795,-6.606505604939524,-0.47447630484548375
3.85,-7.25192791310258,-6.579859756395807,-0.5327666508244872
3.86,-7.223439243473386,-6.605121705392933,-0.602839401149135
3.87,-7.15627151627828,-6.664113089741103,-0.736256092600449
3.88,-7.1208486627891965,-6.6966066466229295,-0.7868168580762317
3.89,-7.157694737370761,-6.668101151816661,-0.6858887840564232
3.9,-7.268489320714496,-6.550335273255152,-0.6533548267200839
3.91,-7.4386132318895575,-6.350530025453225,-0.7034125913946894
3.92,-7.549953500025245,-6.213606358749693,-0.7456133357547383
3.93,-7.537306738371604,-6.211448321939439,-0.8792799386437404
3.94,-7.423429309911176,-6.336389307453695,-0.9522879118861406
3.95,-7.27434306667778,-6.513608692148887,-0.9044047523701091
3.96,-7.167325532166614,-6.641875570767912,-0.8252528889628726
3.97,-7.122687719476312,-6.687581641506193,-0.8446504378506804
3.98,-7.110504036586022,-6.688093785465232,-0.9375493380426504
3.99,-7.098868623250437,-6.684785341473332,-1.0433235410228974
4.0,-7.090196806256292,-6.684315604652176,-1.104103463652033
4.01,-7.183566019498661,-6.601461963807487,-0.9908531063666376
4.02,-7.335129684850212,-6.453259010233612,-0.8441395760337679
4.03,-7.414242494602736,-6.352655513388874,-0.9165553575060154
4.04,-7.383062863449456,-6.368846318138012,-1.046894315750427
4.05,-7.30025951048207,-6.456264572341676,-1.0913850216314207
4.06,-7.278201158792409,-6.507489992624066,-0.9196471084454704
4.07,-7.284681397657673,-6.506380180386761,-0.87794138889326
4.08,-7.293722944343844,-6.489707041230845,-0.9248309788769239
4.09,-7.238573852876281,-6.5358778092066405,-1.0265309030311196
4.1,-7.180622052983134,-6.5777139828313675,-1.1577598053574527
4.11,-7.214436472176693,-6.553690929013552,-1.0816982838928515
4.12,-7.265156308768673,-6.514616425574798,-0.9726974238232634
4.13,-7.298744803100533,-6.489241880618722,-0.887526926868138
4.14,-7.283352853089357,-6.511073337755317,-0.8537679860576856
4.15,-7.25499208124088,-6.534436634345672,-0.914383592904131
4.16,-7.256333772996915,-6.527405726176283,-0.95335156337629
4.17,-7.238793362966854,-6.54619547069116,-0.9578730600618208
4.18,-7.19883688424968,-6.591493178741457,-0.9481868341573504
4.19,-7.211389341874691,-6.583625098164389,-0.9066201941924782
4.2,-7.333545398434356,-6.46674249887156,-0.7529701078684509
4.21,-7.475589440548889,-6.30322550944713,-0.743245989283796
4.22,-7.538665526138772,-6.220168766197881,-0.8047609234063464
4.23,-7.495237911297641,-6.267301231085145,-0.8440173086114529
4.24,-7.438232611809507,-6.338997938457828,-0.8122333155694875
4.25,-7.417921274092611,-6.376329995161333,-0.6975343234343618
4.26,-7.419416474000862,-6.375652418816462,-0.6882579027647145
4.27,-7.392205260239201,-6.396225879625539,-0.7833226072086198
4.28,-7.3446825253909225,-6.436144650055577,-0.8952957983399414
4.29,-7.314404434764774,-6.465880595726146,-0.928539752242602
4.3,-7.321003309056839,-6.469953113234748,-0.8442898069774442
4.31,-7.333990403998513,-6.472082522170767,-0.7033847177290347
4.32,-7.330105962134357,-6.485708563719736,-0.612704916492729
4.33,-7.32530138360566,-6.488789860815774,-0.6371341508302392
4.34,-7.330957318773162,-6.473244796145464,-0.72423642365049
4.35,-7.380428375685163,-6.413689794458362,-0.7511641861209423
4.36,-7.44897858597046,-6.3373666365961405,-0.7217157659269944
4.37,-7.473347472305838,-6.310262181523757,-0.7071459962894939
4.38,-7.471388060999705,-6.315551227148152,-0.6801094466911383
4.39,-7.473828811515151,-6.314788241737922,-0.6600058969000083
4.4,-7.501455292203583,-6.288734630931083,-0.5919184550089511
4.41,-7.48986567369273,-6.301566903646645,-0.601878792373555
4.42,-7.426231134384395,-6.372257068465721,-0.6446802132086873
4.43,-7.375199303753073,-6.428903621054578,-0.6678393086134389
4.44,-7.375734596764843,-6.427393958446754,-0.6764007580025032
4.45,-7.363064436301769,-6.440654648704636,-0.6878862994824728
4.46,-7.295189444878724,-6.515766589033348,-0.7034704766847247
4.47,-7.230976881371899,-6.587304754381131,-0.699890571876731
4.48,-7.277231871900765,-6.5476682019269346,-0.582076254100169
4.49,-7.383355315775663,-6.430571183326128,-0.550464425609613
4.5,-7.453536634695529,-6.342930811549293,-0.6182956770121003
4.51,-7.4288707312627515,-6.368404274971421,-0.6517272935446979
4.52,-7.360199875689898,-6.4453897142778205,-0.6726992836748649
4.53,-7.378831606468513,-6.439916441897019,-0.4980642063586839
4.54,-7.463352847654396,-6.349644163271445,-0.38549770697199354
4.55,-7.501265557690084,-6.295010359264858,-0.5232273624741289
4.56,-7.458756567520745,-6.3399615366541875,-0.5825238344509519
4.57,-7.353421813450769,-6.453475707461325,-0.6697063050105236
4.58,-7.26749581832185,-6.548850270566012,-0.6810344186662621
4.59,-7.226128353079186,-6.608303308097195,-0.5304138899339883
4.6,-7.199937819862737,-6.646561604538895,-0.3926180401797138
4.61,-7.226337828211424,-6.6199278004652555,-0.3538760122504802
4.62,-7.303602976774247,-6.529870336342135,-0.42831971712968353
4.63,-7.403497635914471,-6.4066775486641365,-0.5579207917005933
4.64,-7.472512585893718,-6.324024737503746,-0.5816587049206943
4.65,-7.472474219475764,-6.328680567058382,-0.5284033772654564
4.66,-7.42928423928486,-6.384101853074085,-0.4675883419319958
4.67,-7.4218434186403455,-6.397357578980632,-0.3990810068514803
4.68,-7.472170824582886,-6.340240152102702,-0.3692121317292534
4.69,-7.4913440347415055,-6.309676706482187,-0.48530932838651764
4.7,-7.42881301471285,-6.373310107378907,-0.5991490926812507
4.71,-7.317705667754638,-6.495550171359273,-0.6542181758418862
4.72,-7.271670978527093,-6.552463422780381,-0.596846466152624
4.73,-7.286601570539139,-6.544500925663205,-0.49524411014246145
4.74,-7.2959875411490085,-6.5325568779673535,-0.5134355331853137
4.75,-7.284372189554085,-6.5380547515048875,-0.6003330534468034
4.76,-7.261461614716267,-6.5559417110493206,-0.6789321301160336
4.77,-7.2953477373690205,-6.521048081297039,-0.6487154164898196
4.78,-7.347022292960892,-6.471856830499778,-0.5538236537746041
4.79,-7.342592406043751,-6.476351963558157,-0.5598019293374812
4.8,-7.327874731806175,-6.490997898199314,-0.5825718878047143
4.81,-7.347371132380222,-6.465899011971829,-0.6139552006771679
4.82,-7.399272496262366,-6.400945133781239,-0.6678947420828695
4.83,-7.392569353305273,-6.395313253297152,-0.7852771228033334
4.84,-7.296710062159106,-6.495230625667794,-0.8564589363315482
4.85,-7.193009797045759,-6.609919436519407,-0.8581114602499413
4.86,-7.212996090769425,-6.602764717753191,-0.7362810537795039
4.87,-7.307448761855789,-6.499760200587966,-0.7209413354871259
4.88,-7.355309004041827,-6.432550236201497,-0.8311332662077474
4.89,-7.318781999881636,-6.460947225830449,-0.9252657236020266
4.9,-7.237553066617936,-6.534138621018156,-1.0444323460630796
4.91,-7.194371647245641,-6.571728423637905,-1.106190361681199
4.92,-7.178659223901744,-6.589802512182617,-1.1006115229587508
4.93,-7.151045227673623,-6.61571666551305,-1.124642061917721
4.94,-7.131687005784752,-6.634921316288943,-1.1345394317748745
4.95,-7.160304828264763,-6.601686130648573,-1.1468508229458398
4.96,-7.244046247061663,-6.506223257438925,-1.165164758283328
4.97,-7.340515209763486,-6.40338966755581,-1.1323773474684367
4.98,-7.374056138635522,-6.362100058823515,-1.1472448038927343
4.99,-7.3451748627263544,-6.380699961189455,-1.2259826938335339
5.0,-7.3360804132843285,-6.379336762627233,-1.2864604738406507
5.01,-7.387452406433143,-6.329145517853912,-1.2392409720822573
5.02,-7.410531738194492,-6.307665117755121,-1.2107783770619378
5.03,-7.3546578022854465,-6.359095699061916,-1.2794091429157535
5.04,-7.252395006225374,-6.463827609862211,-1.3359339029598785
5.05,-7.125235063727471,-6.586006444199471,-1.4197543291513455
5.06,-7.012772009579,-6.689643664222458,-1.4962300274270792
5.07,-7.030149270977658,-6.677818625862224,-1.4628230520530356
5.08,-7.214776198092247,-6.490098084808609,-1.4030623045249082
5.09,-7.417292516832019,-6.24463054403691,-1.4638038694054962
5.1,-7.525023763244691,-6.103111823012848,-1.5151021846640031
5.11,-7.479323251531681,-6.144512907820324,-1.5703010529977215
5.12,-7.3655624376445115,-6.288840418038462,-1.534964858021344
5.13,-7.280595355000954,-6.416696849987718,-1.408734120260339
5.14,-7.178679153417547,-6.525746330716136,-1.4293392011955948
5.15,-7.055739226594227,-6.63167682581413,-1.5482411967685723
5.16,-6.9733090566835845,-6.6938356001495025,-1.6539233636737045
5.17,-7.03720759660046,-6.634865203508847,-1.6144409255269974
5.18,-7.224288340670522,-6.462198073030098,-1.483261491422239
5.19,-7.415041542592001,-6.252901186139567,-1.4389525576944158
5.2,-7.558599497114419,-6.078845849486374,-1.442228348535126
5.21,-7.6147875862078855,-5.996521719879699,-1.4920957403381505
5.22,-7.594761553474419,-6.012806200659576,-1.5275289089698094
5.23,-7.488083606403714,-6.135121096747416,-1.5633428270177328
5.24,-7.325350510081485,-6.324807423567978,-1.5778168464477076
5.25,-7.220814512681644,-6.466860815265832,-1.4847154663034094
5.26,-7.229748202435733,-6.467937857847437,-1.4364157259005117
5.27,-7.274591853419865,-6.391542690335688,-1.5464765075439988
5.28,-7.268085063667954,-6.3632752732820865,-1.6878810638947688
5.29,-7.176798923219543,-6.436815420166799,-1.794960903906073
5.3,-7.107338197749976,-6.515366372564339,-1.7895801274464287
5.31,-7.195048342957296,-6.468699901600427,-1.5879573871565709
5.32,-7.337669679095337,-6.343637260008516,-1.44264557227174
5.33,-7.3718696534189485,-6.2873469971300056,-1.5142712070627862
5.34,-7.317919162135404,-6.334996708230289,-1.5756483645936858
5.35,-7.316412480350725,-6.360948699709267,-1.469161766888089
5.36,-7.424748439989701,-6.272956506841049,-1.2976616924496973
5.37,-7.519380157046613,-6.154772667189339,-1.319813707690225
5.38,-7.511533521643409,-6.136774923562565,-1.4422761919968665
5.39,-7.419095520737456,-6.2212623028818195,-1.5543342264129822
5.4,-7.366574623263002,-6.293241493923141,-1.5134425370590874
5.41,-7.358885130138145,-6.331586198701089,-1.388052876833315
5.42,-7.321729692014511,-6.38652594955411,-1.331301148083953
5.43,-7.253360792972667,-6.469020526286809,-1.306552110992953
5.44,-7.193970469681424,-6.524522621740677,-1.3581847088013457
5.45,-7.194416316459962,-6.507862190900359,-1.4342098102370762
5.46,-7.251081767365901,-6.441554413796565,-1.4475459472333643
5.47,-7.3293453667309585,-6.361137411637949,-1.4082072514762505
5.48,-7.410450097520933,-6.285447711759794,-1.3200132300719905
5.49,-7.494263150033012,-6.2068685053959465,-1.2146589524328644
5.5,-7.56146496287235,-6.137042624439017,-1.1531082077081811
5.51,-7.5668568563549785,-6.1306911557960495,-1.151895943101924
5.52,-7.49137924216425,-6.219420766352567,-1.1666428603741807
5.53,-7.375740634902224,-6.356285945161962,-1.1653614262511112
5.54,-7.3192952372148605,-6.435303421913996,-1.0863750753940298
5.55,-7.363892414985858,-6.405616039737522,-0.9508334590956844
5.56,-7.442416721730952,-6.320099815951235,-0.9128874130374688
5.57,-7.4946558300952,-6.252755308546139,-0.9499509918298692
5.58,-7.507176615934269,-6.234203111121091,-0.9733171254604077
5.59,-7.485695406018612,-6.260778418290608,-0.9677582269375263
5.6,-7.44883557434352,-6.318143534497625,-0.8712681743203176
5.61,-7.40744766765438,-6.385098162057127,-0.7240211816069638
5.62,-7.367005593720776,-6.4408847567724425,-0.6413531995196512
5.63,-7.332943648316788,-6.480068858014094,-0.6375219944801648
5.64,-7.308360249749187,-6.502112669865518,-0.6922382978835029
5.65,-7.302467016545113,-6.505189800014839,-0.7258479169597669
5.66,-7.336844242410434,-6.477529641551041,-0.6103439671500359
5.67,-7.413645555829305,-6.404997214904341,-0.4135471605601855
5.68,-7.5096554969203355,-6.2998350574593305,-0.28360030076597037
5.69,-7.577483289377271,-6.218212383513127,-0.28912897073454785
5.7,-7.576275035355633,-6.214229550002244,-0.38727437502829987
5.71,-7.502227247289621,-6.304422052680667,-0.3639000349484923
5.72,-7.409369460420718,-6.41978595647938,-0.2161550312674747
5.73,-7.336719143909225,-6.505902172289118,-0.11481548939429521
5.74,-7.283760816004908,-6.565395236313785,-0.10747649910748842
5.75,-7.270635254528885,-6.5782386878802965,-0.18074969293360282
5.76,-7.304451116393885,-6.538725689862042,-0.24252125851466452
5.77,-7.3878820189415,-6.4466008197611595,-0.13273570574718624
5.78,-7.493128383275569,-6.325790638531439,-0.01250284241598955
5.79,-7.60428729341372,-6.1915606893237,0.046638116071950404
5.8,-7.686079482628735,-6.08992802197791,0.06964063345177438
5.81,-7.67594542344635,-6.102672576306558,-0.03127344463305567
5.82,-7.534430543361804,-6.272920981323253,-0.1749767021646748
5.83,-7.294338383745753,-6.547792523189357,-0.2341382468682519
5.84,-7.066126130668006,-6.795798044468125,-0.18945516333336665
5.85,-6.94857227231209,-6.919301282713079,-0.052467762972170456
5.86,-6.963504848512813,-6.9044458122472525,0.07072427604000298
5.87,-7.09086283321295,-6.772929589437197,0.07941933520340927
5.88,-7.293315643134373,-6.553938286184565,0.011426380221505416
5.89,-7.519024529053332,-6.293584497280287,-0.009828848605734738
5.9,-7.700261220530909,-6.0712851283910405,0.03597835596149435
5.91,-7.762783649339612,-5.992342599756671,0.0003759350171203013
5.92,-7.678366911482954,-6.099235396410515,-0.05940836732473209
5.93,-7.520883870934384,-6.291899425628799,-0.06880222552794009
5.94,-7.372329767038463,-6.46579406396407,0.024376280609167782
5.95,-7.274471552128916,-6.575647075297547,0.09908680687242635
5.96,-7.217425561584741,-6.6386874993955285,0.0737610341749296
5.97,-7.186551925706003,-6.672437597686727,-0.015503882799705162
5.98,-7.2085551441730935,-6.646718430529439,-0.1531128883089184
5.99,-7.3162959561867185,-6.5261350681341765,-0.21103605512754575
6.0,-7.469121774767403,-6.352242862977755,-0.13717114334084454
6.01,-7.558254967067612,-6.246954753002427,-0.12908948729563394
6.02,-7.5253659171312215,-6.285801080783489,-0.16125441593916545
6.03,-7.403193714885397,-6.427344911545008,-0.20954890477881583
6.04,-7.293615286820962,-6.5525303408218525,-0.18297728976426295
6.05,-7.2678547826591,-6.583452631634731,-0.053893429491655265
6.06,-7.351158693367263,-6.488167192687895,-0.1578671312607981
6.07,-7.490655423373862,-6.323896180088238,-0.24396990377383287
6.08,-7.604100056254415,-6.181538114229252,-0.35953862299909634
6.09,-7.6003081432922,-6.172380450755658,-0.5482530659354632
6.1,-7.502641398792724,-6.288740925549872,-0.5721438349288853
6.11,-7.375395936862844,-6.4483722009222175,-0.4252531601902151
6.12,-7.288417641285929,-6.554632846011683,-0.28527590654744156
6.13,-7.261038015036779,-6.5859597950030055,-0.2697221369493965
6.14,-7.249162464077059,-6.59554412586967,-0.343085592780396
6.15,-7.26075643386684,-6.571811983923535,-0.5081687728257704
6.16,-7.334794442295048,-6.481957173484099,-0.5935768175557712
6.17,-7.461062530104444,-6.336794253099114,-0.585002838921182
6.18,-7.560743497073112,-6.212905966018628,-0.6338933094158908
6.19,-7.569965079711961,-6.193000456916445,-0.715417196425863
6.2,-7.509996247163538,-6.2617585831289375,-0.7478009196002794
6.21,-7.488535431189649,-6.304339950707396,-0.5853773080700743
6.22,-7.513260775479134,-6.2716543940700875,-0.6217836022993983
6.23,-7.521597079788939,-6.251563249165525,-0.7160926976025507
6.24,-7.452198102010303,-6.326013698425077,-0.7839611409646032
6.25,-7.319842339123984,-6.455378366559667,-0.954149731188738
6.26,-7.259479525706414,-6.515006593907496,-1.0121078275069695
6.27,-7.334389418094426,-6.456337565209527,-0.8286509169362389
6.28,-7.455805911295204,-6.327569749960441,-0.734299056021525
6.29,-7.509342239637192,-6.258305822751671,-0.7828316598999171
6.3,-7.457906649094481,-6.306962392528326,-0.8778423668651939
6.31,-7.368323378526231,-6.406470977866002,-0.9129823719333101
6.32,-7.335327179893361,-6.458206124593193,-0.808387736559384
6.33,-7.335115195006065,-6.462290964410548,-0.777962332750016
6.34,-7.413175237622965,-6.368617000638781,-0.8089816875237782
6.35,-7.5234507323639415,-6.228253034193328,-0.8798187245502846
6.36,-7.51858454418971,-6.208420725572317,-1.046251168950565
6.37,-7.3986782336530705,-6.332308520879184,-1.152758256922709
6.38,-7.285880790249856,-6.478194133983334,-1.0566222746468679
6.39,-7.314445800971184,-6.490957365279239,-0.7278456433641467
6.4,-7.366809343116861,-6.427771867594421,-0.7639674462659332
6.41,-7.37098307901126,-6.4137661296887645,-0.8380376820336631
6.42,-7.335191999489517,-6.443206290227111,-0.9219494452906223
6.43,-7.282323559599652,-6.488986290301389,-1.0151951963588615
6.44,-7.338691473285331,-6.445844445517762,-0.8740640109667591
6.45,-7.3653528450638115,-6.422844712278295,-0.8178634046048671
6.46,-7.298181821699794,-6.486007150997249,-0.9154539263199699
6.47,-7.1780963031947564,-6.606761075298724,-0.9975573984498044
6.48,-7.123640088521218,-6.668680780386246,-0.9760597169086163
6.49,-7.227721932277291,-6.5769489906913,-0.8206218832503938
6.5,-7.346943864485069,-6.458734444685873,-0.6906623876615607
6.51,-7.448588949645584,-6.348074454442496,-0.6250224808752157
6.52,-7.505671353317609,-6.274192998550971,-0.6853770523081527
6.53,-7.51794172564959,-6.252502576833126,-0.7464175785134731
6.54,-7.47679003586565,-6.294088430099707,-0.8075253092777198
6.55,-7.324078557921228,-6.4646095563040955,-0.8582346480366648
6.56,-7.200301196542859,-6.613883935548848,-0.7630039979014833
6.57,-7.195878811517953,-6.635103996977772,-0.6041729018580441
6.58,-7.154877699778362,-6.675819160683478,-0.6410146509690178
6.59,-7.087743585868256,-6.733874741023674,-0.7666819437265461
6.6,-7.215598890093566,-6.611728254404647,-0.6173790630417151
6.61,-7.558829003203481,-6.22754364188672,-0.49588336173528763
6.62,-7.757463980949777,-5.957508616546519,-0.7072077549737794
6.63,-7.7337799012082735,-5.984208238784178,-0.738259140232483
6.64,-7.592512807691678,-6.176635867127855,-0.6051359530490459
6.65,-7.4495244296917225,-6.369100377755979,-0.32592912277380676
6.66,-7.279975452209925,-6.561466870476894,-0.3337293600840204
6.67,-7.022253872356526,-6.832579687750354,-0.4034755445903092
6.68,-6.737896067135969,-7.10701604413938,-0.5104682568200762
6.69,-6.681283763405693,-7.158207343806248,-0.5281754258238279
6.7,-6.940254781152406,-6.92027981494966,-0.3034559868696464
6.71,-7.307171835645165,-6.531065259339017,-0.3150832148341082
6.72,-7.637465035462763,-6.141515591694643,-0.3362430946610196
6.73,-7.8221023918246715,-5.906563248189706,-0.31099774396718294
6.74,-7.872488188853378,-5.840792765291128,-0.2760679075877955
6.75,-7.811721708607659,-5.926707677340781,-0.12054321518149723
6.76,-7.636443242599308,-6.150596419039285,-0.115461808834409
6.77,-7.418050678799085,-6.411350619530595,-0.17364875307070204
6.78,-7.255643061573241,-6.591974725205881,-0.26210553148695875
6.79,-7.1827276154318005,-6.664810420476796,-0.39685332924212663
6.8,-7.152609365052759,-6.690366389475443,-0.499115172865903
6.81,-7.113266520172642,-6.733979937999492,-0.47245398160804203
6.82,-7.120270790527071,-6.734643189085218,-0.3271865753819076
6.83,-7.26766392861334,-6.5819088057424,-0.1351699236276348
6.84,-7.451915063501312,-6.374185420672207,-0.08028312730370786
6.85,-7.516149879551577,-6.296927438582477,-0.15913712525904436
6.86,-7.488748561335513,-6.327846743447521,-0.2094116370977314
6.87,-7.478976680719788,-6.342781676951647,-0.06468252107333684
6.88,-7.457435997523468,-6.367684832040882,-0.06070697605332981
6.89,-7.380827766277179,-6.453271146050377,-0.21684095550624877
6.9,-7.324299870778964,-6.515630982535486,-0.26711361251144544
6.91,-7.342439924416199,-6.496819286122606,-0.19964348723632228
6.92,-7.455578413681019,-6.37033362750593,-0.03211304523514865
6.93,-7.509255984509422,-6.306819831360203,-0.040709629754428385
6.94,-7.405141306450509,-6.426737309506999,-0.13391129879785135
6.95,-7.235668326607114,-6.615461551826377,-0.2182923273237085
6.96,-7.155564612318574,-6.701548910089849,-0.23980571074282475
6.97,-7.161403442353486,-6.694449376884291,-0.2607800429927368
6.98,-7.191685369479272,-6.65897530628132,-0.3244167883590863
6.99,-7.292062161680249,-6.54900490024392,-0.31058729932577667
7.0,-7.434438218926788,-6.391166526820596,-0.21330225688122045
7.01,-7.550455254033976,-6.252645853410243,-0.24592214941383958
7.02,-7.584902469499799,-6.205479441280769,-0.36080156945771347
7.03,-7.5239007049316395,-6.2780876957247305,-0.37876028101736076
7.04,-7.445398241430593,-6.373945947437523,-0.32669599167769203
7.05,-7.378803021350944,-6.452554979285425,-0.29219357443234556
7.06,-7.3001588126059245,-6.538352737016067,-0.35196877145549404
7.07,-7.2211247051648995,-6.621899579673737,-0.41826702425303425
7.08,-7.203012441776146,-6.639774010264512,-0.4456855197483715
7.09,-7.273140420337346,-6.5652600022027645,-0.40589843261377906
7.1,-7.364593629276125,-6.462999757514845,-0.40062614204582936
7.11,-7.411828332891043,-6.406812007353444,-0.4335221846714505
7.12,-7.402643731972007,-6.416762706662086,-0.4423034968801868
7.13,-7.364356881280636,-6.457871872692119,-0.4806730289388718
7.14,-7.32479108925779,-6.4991544965974954,-0.52742258085735
7.15,-7.291225599435367,-6.5375392902748795,-0.5180744223401803
7.16,-7.2819609494841755,-6.550536522156922,-0.48317561100913514
7.17,-7.323845560684569,-6.504575206693765,-0.4681845832743224
7.18,-7.393946167628463,-6.421820258318361,-0.5065100040178637
7.19,-7.423149644090649,-6.377873102894063,-0.6210306097596953
7.2,-7.396864639023839,-6.395473916719588,-0.7433431928766503
7.21,-7.3628220812582095,-6.433519553005929,-0.7510982632875214
7.22,-7.361112137779662,-6.449729327417002,-0.6191386169747823
7.23,-7.353537710669511,-6.461108968970629,-0.5883012565543685
7.24,-7.27632825694055,-6.538810447202944,-0.6798321499629999
7.25,-7.1631282685159015,-6.655095799824671,-0.7505206234702814
7.26,-7.083415524495925,-6.731067997705377,-0.8290379948901028
7.27,-7.076939753301373,-6.737792882255678,-0.8284599655474076
7.28,-7.136147946428672,-6.686053118183992,-0.7333803956194138
7.29,-7.2362739229328925,-6.583550234919781,-0.6749119198018236
7.3,-7.368441960744637,-6.439029974431813,-0.635618448012905
7.31,-7.49393278489972,-6.298457183030286,-0.5792490413075924
7.32,-7.5609827047571425,-6.217560210712627,-0.5857381179792359
7.33,-7.542926501017502,-6.237330730073364,-0.6057454536635735
7.34,-7.44623950522737,-6.353831793916833,-0.585186701783744
7.35,-7.315779539755466,-6.503180462531627,-0.5924208851102291
7.36,-7.229547189583757,-6.601925666431537,-0.5618744061029166
7.37,-7.224063556358993,-6.613982461335389,-0.48733305133640903
7.38,-7.264002420728753,-6.570856632751382,-0.47666434989820555
7.39,-7.281398114177066,-6.54955893727003,-0.5045466651604017
7.4,-7.2543410262173476,-6.57882384386397,-0.513160253203836
7.41,-7.240674102030663,-6.5970814359107015,-0.46806559863681807
7.42,-7.291080225349403,-6.548363511793819,-0.3443601391583199
7.43,-7.407118846404902,-6.4198656149162066,-0.2788109127495181
7.44,-7.52632130001011,-6.276730557321693,-0.34843916808553044
7.45,-7.565485300078488,-6.225333456023319,-0.4211409871887127
7.46,-7.501300404997907,-6.299433101693229,-0.45889663521489726
7.47,-7.3977795795445385,-6.425857867474801,-0.3703458421867979
7.48,-7.310170310419292,-6.5328214309947725,-0.21883370728701745
7.49,-7.228607415745677,-6.62442806832776,-0.17582942562983225
7.5,-7.128983808401669,-6.728981266503898,-0.241016270028006
7.51,-7.008725059116088,-6.849407322756752,-0.35252275704363456
7.52,-6.953099425943838,-6.906045948869979,-0.3572574163484603
7.53,-7.027673682285633,-6.834814431934125,-0.23112881250242137
7.54,-7.22116794582356,-6.6305768790514295,-0.15988459315530085
7.55,-7.48925951128414,-6.325686556688887,-0.13731033125320619
7.56,-7.714990004884959,-6.051899098792298,-0.07318919292732376
7.57,-7.794627631326263,-5.950929200118372,-0.021326045054892075
7.58,-7.708117930595447,-6.060978912736166,-0.03124169916901855
7.59,-7.516166792085873,-6.296669732522888,-0.01896648070228564
7.6,-7.32859663545031,-6.515184803466495,0.020283166397853797
7.61,-7.196095808192293,-6.661502138449943,-0.03537005405958818
7.62,-7.106212100274356,-6.7561413927453025,-0.14651253515540072
7.63,-7.043469104273541,-6.8191823926889015,-0.2362140533710952
7.64,-7.02909791441112,-6.833703211753558,-0.24853913130329697
7.65,-7.107795877936274,-6.754011610892224,-0.10909616692560141
7.66,-7.265414170530865,-6.584647757916155,0.06517410652914409
7.67,-7.4408369574117845,-6.385720081833551,0.09684455627362687
7.68,-7.56804090621279,-6.236029396844824,0.0335172572819193
7.69,-7.605970683528362,-6.189900243005773,-0.049456733096881436
7.7,-7.536139237270108,-6.27384558787451,-0.0799455310431526
7.71,-7.3889644060532795,-6.446323674541017,-0.01437663077793688
7.72,-7.232478857597859,-6.620880513852477,0.09986442854156616
7.73,-7.14295471138488,-6.716063177605599,0.20149061894294096
7.74,-7.20101414616957,-6.651515312941111,0.2506689670255877
7.75,-7.356649768488067,-6.4792162843954095,0.23098517512358155
7.76,-7.492483175813642,-6.32492444079874,0.13041649552899265
7.77,-7.537078728594989,-6.273801397720108,0.026286908340437204
7.78,-7.4841486679710245,-6.336662024982603,-0.00650917454750343
7.79,-7.367428901101567,-6.471536438146931,0.005781252205990055
7.8,-7.2301933610061795,-6.6242867355051755,0.05112610524475738
7.81,-7.184535824779908,-6.669544157245406,0.23097078100705493
7.82,-7.269343886843344,-6.572759309717472,0.34180931583028484
7.83,-7.401436832941413,-6.426758472605672,0.2697251465854314
7.84,-7.477673290343847,-6.3427999523797425,0.1349210785457086
7.85,-7.467525661622886,-6.356232746394801,0.0029810552066520486
7.86,-7.454496378815721,-6.371708165331904,0.01111180955656319
7.87,-7.452562225520935,-6.372292376802066,0.13655138395268496
7.88,-7.417973204458861,-6.410995272717124,0.20410303928587248
7.89,-7.374040203177596,-6.461211647326753,0.21411039209686356
7.9,-7.338041551843556,-6.501911116725551,0.21925493340429125
7.91,-7.324253981396446,-6.517983769476266,0.2034694401574772
7.92,-7.351489542610507,-6.4881637353339645,0.16854820651054372
7.93,-7.408143059606586,-6.423658872260151,0.155777023763324
7.94,-7.4695842375396415,-6.352315279337541,0.14771818043747786
7.95,-7.512450445216642,-6.302744784452759,0.07775991249816633
7.96,-7.508505184190998,-6.3079680669482086,-0.014938285796118552
7.97,-7.420863418224891,-6.410209659484017,-0.052807433281641294
7.98,-7.273582121205684,-6.576591786733572,-0.016798377874714318
7.99,-7.1898155202221465,-6.667049818941028,0.13439445037702627
8.0,-7.243714587178257,-6.608155496244401,0.16034728701730802
8.01,-7.366117518113397,-6.472645025299719,0.06696123672971137
8.02,-7.458718454382064,-6.3659433678110435,-0.07090084427109075
8.03,-7.431798137434603,-6.391417064407161,-0.27428654200313674
8.04,-7.329369364241869,-6.503460126685191,-0.3856935897878992
8.05,-7.228021422901336,-6.619301484154447,-0.3219306489454923
8.06,-7.183031166536842,-6.672716787928292,-0.21665070394299368
8.07,-7.225642733394518,-6.628350686518644,-0.15081339344338823
8.08,-7.301694127526163,-6.544588004737474,-0.14557579441307716
8.09,-7.35843142871171,-6.477441482999679,-0.24826942513658753
8.1,-7.3988907186055,-6.428090407747011,-0.3243817146762097
8.11,-7.446081092783512,-6.375997548019651,-0.2640948900602412
8.12,-7.483561450011337,-6.3313851949101725,-0.28106017419291507
8.13,-7.473879252806678,-6.337868587600732,-0.37491944077424133
8.14,-7.393991557649438,-6.423287312098555,-0.48402966313567136
8.15,-7.262858119860921,-6.561247473600908,-0.6006122001528704
8.16,-7.138888182763589,-6.695697070979378,-0.6069867997998445
8.17,-7.07017710701582,-6.778433284405965,-0.4794294265079609
8.18,-7.0858617830367825,-6.768458500766593,-0.3839584569638332
8.19,-7.166397709153638,-6.683316863321318,-0.3781085379121456
8.2,-7.270812644173678,-6.563419143912552,-0.46914172558092393
8.21,-7.3587210190802494,-6.451543777498121,-0.6238461852833642
8.22,-7.397458829655821,-6.400719263720243,-0.6915256930241747
8.23,-7.386660690350479,-6.414237140707125,-0.6818361155576952
8.24,-7.350028589374959,-6.459167633618152,-0.6525098339931608
8.25,-7.3158998718570905,-6.501561613536767,-0.613995445868291
8.26,-7.309627823775335,-6.505935284696394,-0.6420246466098235
8.27,-7.307335710228045,-6.50055515087109,-0.7175775663752785
8.28,-7.273804562607541,-6.532457039973577,-0.7670547830343283
8.29,-7.225483373562563,-6.586646182662999,-0.7602234955401993
8.3,-7.212573777330848,-6.606269349319882,-0.7112567859792762
8.31,-7.266703975870936,-6.552671877863446,-0.6527160858021056
8.32,-7.358546271005617,-6.448869334264264,-0.656570386097561
8.33,-7.408104029158181,-6.384237089066355,-0.7282094597100488
8.34,-7.397574119230393,-6.389688602916599,-0.7859298938859426
8.35,-7.4170112190178115,-6.387253590093772,-0.5945523034298674
8.36,-7.44702222313279,-6.3575906003718705,-0.5412691215167204
8.37,-7.45370633340324,-6.343431626060828,-0.6103940110655579
8.38,-7.374303334541053,-6.427185523515993,-0.6914803637203729
8.39,-7.22394337636353,-6.57469132659464,-0.8648825675944264
8.4,-7.104025722299334,-6.694159675101719,-0.9423237045335683
8.41,-7.121791891071763,-6.701430744645324,-0.7304867351010651
8.42,-7.272974434065956,-6.542644081034427,-0.6790643726178459
8.43,-7.472187252700299,-6.310834646903033,-0.7066355655716059
8.44,-7.60759204292213,-6.150834265941462,-0.6767768647866073
8.45,-7.612232412707266,-6.132099685098019,-0.787335828281553
8.46,-7.498287322393866,-6.2577933683149265,-0.8841347403319434
8.47,-7.348754050873678,-6.4408820448273305,-0.821631854206247
8.48,-7.206739638106621,-6.6058429459087,-0.7692383309286581
8.49,-7.124708814309706,-6.691896302831151,-0.7914152870387418
8.5,-7.111424590538803,-6.703158052560878,-0.8158659015442448
8.51,-7.136656468468716,-6.671294746830415,-0.8555997150630614
8.52,-7.203585353527932,-6.598134109417118,-0.86171100648681
8.53,-7.299957013933303,-6.503393961809303,-0.7646572282330789
8.54,-7.382569925424408,-6.4180264421503015,-0.6896991469028627
8.55,-7.433480966000065,-6.356563468803293,-0.7123323888357365
8.56,-7.454433953196286,-6.326731652697824,-0.7576774266489462
8.57,-7.460012544093088,-6.324269638742246,-0.7225776902149406
8.58,-7.40703347147891,-6.3820812457365435,-0.7581676873692016
8.59,-7.270548210109364,-6.532560486213,-0.7955939498295149
8.6,-7.151189320346868,-6.667672330223156,-0.7559929784131701
8.61,-7.123099357895432,-6.701824717388135,-0.7192212660954038
8.62,-7.190321117007964,-6.6304363715844366,-0.71175361196362
8.63,-7.276028720818036,-6.530630219806982,-0.7615905015273655
8.64,-7.292255319853027,-6.5007245948208965,-0.856558251209023
8.65,-7.289006064599744,-6.500469212459097,-0.8858111800894647
8.66,-7.309289550094047,-6.492083787601009,-0.772828448228308
8.67,-7.331685422410524,-6.471102267800275,-0.7359152751850283
8.68,-7.320420020474317,-6.482643850307713,-0.7464340681412777
8.69,-7.24652988681764,-6.561171850561746,-0.7804827150662528
8.7,-7.213571849953387,-6.595787451270998,-0.7939478821978663
8.71,-7.265873012859534,-6.541232690612693,-0.7679420076905592
8.72,-7.307243329988112,-6.495195836708758,-0.7661249182141552
8.73,-7.361314770609822,-6.438138954033545,-0.7292369835335369
8.74,-7.376306076379768,-6.418565550036441,-0.7499332209828365
8.75,-7.352117952388705,-6.4370061751031935,-0.8256378950374801
8.76,-7.332653799041118,-6.457734636991186,-0.8367716002137248
8.77,-7.333681802879435,-6.461940368548125,-0.7942403239344814
8.78,-7.33916634870743,-6.457294840173506,-0.7812485590898262
8.79,-7.333072121373847,-6.461923420452636,-0.7999449563423215
8.8,-7.362619343341713,-6.428842963510411,-0.7950590651445941
8.81,-7.389058099635036,-6.400309383868462,-0.7798748291710541
8.82,-7.40325693336922,-6.382461878936685,-0.7913652539036602
8.83,-7.374607758329324,-6.413441928318567,-0.8079648176744961
8.84,-7.315178567802367,-6.477674255724484,-0.8355675571561302
8.85,-7.293873730082776,-6.504767772832972,-0.810944745101184
8.86,-7.295014150646366,-6.509076132280244,-0.7648972712687546
8.87,-7.3021843125105494,-6.501794861830188,-0.758389825631292
8.88,-7.299400232303868,-6.504792039879384,-0.7594567262784483
8.89,-7.307257243077108,-6.498682977791088,-0.7357687664275788
8.9,-7.327969244352027,-6.477349918673608,-0.7176753377453197
8.91,-7.305377230565462,-6.500201670745983,-0.7410271847857304
8.92,-7.288289574747778,-6.519532934433975,-0.7383716704504478
8.93,-7.329249478062716,-6.486740352639963,-0.6102651258411039
8.94,-7.410273155834689,-6.401124459706508,-0.5303397675971013
8.95,-7.47638974524805,-6.3141394589587705,-0.636158251212671
8.96,-7.46487592813008,-6.317757878805243,-0.7286747083327144
8.97,-7.422866820759673,-6.362591508415326,-0.7651101581386773
8.98,-7.435352846648393,-6.365688601926032,-0.6030901808726936
8.99,-7.439398826097923,-6.362734253859155,-0.582648646780562
9.0,-7.399537689695807,-6.397413747875592,-0.6986503503677982
9.01,-7.336143056304394,-6.461205554856996,-0.7772447070465095
9.02,-7.323373020949241,-6.477531463183688,-0.7616241605687063
9.03,-7.313831127775956,-6.4890065372639905,-0.7530757837833242
9.04,-7.197486125134505,-6.605008153267437,-0.8537246712572404
9.05,-7.0000191400031175,-6.803234291763918,-0.9366551769129328
9.06,-6.862936343054474,-6.9340141386702125,-0.9939681328849583
9.07,-6.960676980432769,-6.8475125006518205,-0.899070825676909
9.08,-7.229954582678847,-6.573729733631263,-0.8142759008919779
9.09,-7.465190486355147,-6.297550240295743,-0.877545292624249
9.1,-7.6222632067019,-6.100985361467305,-0.9198677210920999
9.11,-7.652098159279946,-6.046965468670612,-1.024171424235627
9.12,-7.597635110611334,-6.109501016066801,-1.057142270087503
9.13,-7.5082475793219,-6.219512004797569,-1.0531246639033098
9.14,-7.393526252764387,-6.348537956261569,-1.0946006062722373
9.15,-7.286424662871462,-6.464541546041427,-1.1325352974249874
9.16,-7.1637265124447795,-6.580167742151133,-1.241415610772613
9.17,-7.011462318242047,-6.713746868519323,-1.3888727104199754
9.18,-6.904494236958749,-6.81257075664422,-1.444433999385194
9.19,-6.9113448747035795,-6.818709326019189,-1.3798532881987637
9.2,-7.01858406850517,-6.722415170452373,-1.3095838388679268
9.21,-7.111091563957283,-6.621715846116024,-1.3241557482231565
9.22,-7.196380919643703,-6.5216924786204125,-1.3549872255490092
9.23,-7.397328325717397,-6.310762083580594,-1.2636726138063512
9.24,-7.602587634164835,-6.06805455023946,-1.2397497658512544
9.25,-7.635930959699364,-5.984910087121217,-1.4281727899464778
9.26,-7.527229298581277,-6.0952314702417425,-1.5296802771825173
9.27,-7.328422260766075,-6.319134114505703,-1.5871631752520727
9.28,-7.213777921762394,-6.473416205521207,-1.4843695138539226
9.29,-7.267897805688845,-6.465459480413584,-1.2427786785613795
9.3,-7.307048773231596,-6.410860761797851,-1.2945530362454822
9.31,-7.2995129136238885,-6.401308044575031,-1.381534824566988
9.32,-7.2269820109277045,-6.471899981832281,-1.43238021353447
9.33,-7.169673891208034,-6.531976414355858,-1.448176757300558
9.34,-7.209339641907691,-6.517737394218655,-1.304174710180305
9.35,-7.298244686805411,-6.4547308269318,-1.1117883886837174
9.36,-7.402203299154076,-6.3410359728733505,-1.079301528866839
9.37,-7.465516175446768,-6.259664994356884,-1.119194206411907
9.38,-7.470004882837098,-6.24968825445576,-1.144743369970262
9.39,-7.428160865104787,-6.300967167995321,-1.1342917402004706
9.4,-7.352774892220251,-6.401229208408898,-1.0608274549301215
9.41,-7.288195026700562,-6.488048654870201,-0.9780799974435817
9.42,-7.268620515413233,-6.51483173591347,-0.9456005649845113
9.43,-7.312886211440217,-6.4683126664824835,-0.9214518044906536
9.44,-7.391553884466367,-6.377005522613675,-0.9305060188999859
9.45,-7.414992994186825,-6.340572553361905,-0.9919894221888073
9.46,-7.3491059740884594,-6.412761506598215,-1.015706317304982
9.47,-7.28332642947725,-6.501308404193717,-0.9175883277950533
9.48,-7.326156961356657,-6.4752884370451484,-0.7498663662176265
9.49,-7.4320645373143375,-6.350507225200074,-0.7731925532910444
9.5,-7.510308948513881,-6.24973398000718,-0.8398610343649459
9.51,-7.4945417599633695,-6.260466028118616,-0.8945428141764661
9.52,-7.364395411425372,-6.406068465237014,-0.9394470337444576
9.53,-7.218516542912245,-6.584830604437722,-0.8279983766741945
9.54,-7.148149180908413,-6.677552043976222,-0.6960487632296339
9.55,-7.194778496902947,-6.627353527069494,-0.6906821597449204
9.56,-7.2950230530332325,-6.5144704685082235,-0.714692074308774
9.57,-7.3343492477121,-6.4629665232620646,-0.776974377579884
9.58,-7.27906518578545,-6.511815084282949,-0.8810183226625491
9.59,-7.262104801929635,-6.542541741626236,-0.7675864529695875
9.6,-7.406593430315982,-6.3986853745871635,-0.58416850599795
9.61,-7.585641849347733,-6.1759296449335555,-0.6865486232485278
9.62,-7.663407039695633,-6.075457416576837,-0.7285998927793516
9.63,-7.5861977686596935,-6.164350461287656,-0.7726388429677701
9.64,-7.426739056976515,-6.349091284444383,-0.8305632104383467
9.65,-7.313788841548261,-6.49676943694502,-0.6705377649042884
9.66,-7.2351182779833785,-6.599092303346726,-0.5221401638696613
9.67,-7.18855864359528,-6.647672085464259,-0.5495476365309436
9.68,-7.2025766768927175,-6.627190922260812,-0.6096985947120002
9.69,-7.254215069413403,-6.561944105324202,-0.6936309056357719
9.7,-7.2482501083491595,-6.555558601703215,-0.8081783212859964
9.71,-7.1341205389761395,-6.676972106725665,-0.8231151958725873
9.72,-7.031027153009221,-6.798732572617825,-0.7105427182315571
9.73,-7.120382802025905,-6.717772332203259,-0.5558122825775927
9.74,-7.3733843440321625,-6.443383683909324,-0.4930220753686274
9.75,-7.602056435059461,-6.171630210044278,-0.5191540118406913
9.76,-7.7003095557229475,-6.048379425587567,-0.540802515490695
9.77,-7.66359309675159,-6.098647515787802,-0.48580515609351377
9.78,-7.577388065631784,-6.213599082212418,-0.3714569482218923
9.79,-7.4794534079062585,-6.333096291433981,-0.336018649484333
9.8,-7.368505960931127,-6.457158292908123,-0.41173878263254976
9.81,-7.2770747935784765,-6.549338243360687,-0.5586491539720748
9.82,-7.2161923513986785,-6.609493553155346,-0.6404254955318242
9.83,-7.18111544652431,-6.652673777153355,-0.583208013494591
9.84,-7.1705823228377765,-6.671189367405715,-0.4975715703408706
9.85,-7.205927839735464,-6.636472113120359,-0.44637768200459454
9.86,-7.287677803954362,-6.546667577245138,-0.442798321406543
9.87,-7.361508714125428,-6.458644533164191,-0.510035203850461
9.88,-7.411101117070482,-6.401507825309444,-0.5141687584510201
9.89,-7.430846419473002,-6.3851334015933,-0.42472927186849424
9.9,-7.426508990046803,-6.3942479859991534,-0.36146861350830933
9.91,-7.415741954433419,-6.408117947526865,-0.3361058176479984
9.92,-7.401746919037251,-6.422338385929096,-0.36955948578096814
9.93,-7.400298246921483,-6.418747918976763,-0.4513994971715971
9.94,-7.408421846908569,-6.407528416425124,-0.4786936048151999
9.95,-7.4067811983296465,-6.411782509396512,-0.4455034688356848
9.96,-7.352560194633908,-6.475820804537243,-0.4116523769183403
9.97,-7.256009086894115,-6.584950769166001,-0.3916255445687792
9.98,-7.213343989115333,-6.633148174505274,-0.373227043108919
9.99,-7.2562650489608,-6.587063851967837,-0.3531846154051073
10.0,-7.3001894342199245,-6.536333253380292,-0.39016068795597936
10.01,-7.262643492890796,-6.571652145939804,-0.4819614033971277
10.02,-7.20613628973185,-6.62804130514738,-0.5563340967428294
10.03,-7.245414931750047,-6.59113061053993,-0.46899716501825073
10.04,-7.360100917289957,-6.469576478316129,-0.3667043046950293
10.05,-7.46738788683726,-6.344612407659646,-0.385238593232127
10.06,-7.465119959111682,-6.34253062636061,-0.4596438705968746
10.07,-7.334066799916602,-6.483771984092218,-0.5691180776143632
10.08,-7.197454208732219,-6.630801222601316,-0.6267781990512956
10.09,-7.177640627385933,-6.663834327352564,-0.48140276104571306
10.1,-7.260328696821754,-6.580438952886785,-0.3870598329862603
10.11,-7.357454673822456,-6.469907027430374,-0.41659633201068474
10.12,-7.416613360002028,-6.398607876377753,-0.4694692072454798
10.13,-7.463435646123,-6.342486427241521,-0.4889717611099603
10.14,-7.50039740277899,-6.304941889592578,-0.39665529774323566
10.15,-7.492170474553266,-6.317249908302428,-0.36007891890111815
10.16,-7.407144275117228,-6.413196090027072,-0.41006440698465346
10.17,-7.274572783766093,-6.554869514142456,-0.521197499523186
10.18,-7.188676385882637,-6.637907560922689,-0.6530267686556601
10.19,-7.195342886104758,-6.627052477301148,-0.6920578371541015
10.2,-7.2265760718578065,-6.5921975387566505,-0.699629548052164
10.21,-7.231329016815545,-6.586435945198196,-0.7050617741519531
10.22,-7.213226146517353,-6.605155835610358,-0.7151189194830788
10.23,-7.235289204104879,-6.580154957746036,-0.7223104154247962
10.24,-7.337977547175005,-6.475366279730878,-0.6186335969261413
10.25,-7.44131941104426,-6.363185093635071,-0.5502464614609265
10.26,-7.482127615880538,-6.313085687388221,-0.5764917390193991
10.27,-7.480140094189825,-6.314557132858153,-0.5866784354847046
10.28,-7.48121615522219,-6.317075967156683,-0.543772697610962
10.29,-7.46545757066041,-6.329396095100385,-0.6110322345989793
10.3,-7.430207826383899,-6.361927082632774,-0.6975503049661479
10.31,-7.3789813733582665,-6.415998245766825,-0.7446208649730559
10.32,-7.302294838806981,-6.500319687567786,-0.7679072611368888
10.33,-7.202003206211401,-6.613579354900554,-0.7463779590253329
10.34,-7.116251171090713,-6.7101238283238605,-0.707606399359522
10.35,-7.108739379134971,-6.720668082212722,-0.6846134449191438
10.36,-7.1856484826810565,-6.640112753466416,-0.6649479897068565
10.37,-7.3147140225736,-6.498172736464514,-0.6568354763272469
10.38,-7.424824890383545,-6.366494327081245,-0.7104352445090514
10.39,-7.4587731473377765,-6.317492312097739,-0.7905934426772604
10.4,-7.407356086900268,-6.37230487480675,-0.8325616107827325
10.41,-7.295683924563293,-6.4985772257931735,-0.8402794695698603
10.42,-7.218691511912604,-6.597501397837915,-0.7269546488255664
10.43,-7.2333723615316705,-6.589689241726476,-0.6509838099223139
10.44,-7.285338202357775,-6.527572342983669,-0.6949596339377924
10.45,-7.330882436284487,-6.470718370086034,-0.7465023317216252
10.46,-7.349291678744973,-6.4416404935335185,-0.8140277240631254
10.47,-7.35017193171475,-6.441560879185708,-0.8071784196561242
10.48,-7.382329772805279,-6.416437439391478,-0.7060112491779621
10.49,-7.414486004339814,-6.380481556384965,-0.6963327451261984
10.5,-7.40584446627162,-6.384743724109167,-0.7472286913958402
10.51,-7.317383254115321,-6.474033476754775,-0.8418479330093529
10.52,-7.178057870729185,-6.614817680652256,-0.9396152778074836
10.53,-7.098449253108058,-6.706417281246719,-0.8968083808290525
10.54,-7.110316797854873,-6.715157415304911,-0.7177514655277876
10.55,-7.225213524631288,-6.604656164532781,-0.5821822672444961
10.56,-7.395405763380052,-6.4127347805977735,-0.5883255008462864
10.57,-7.527199695469639,-6.249006140516547,-0.6750025608921244
10.58,-7.575352424595698,-6.177234495306994,-0.7899541095563878
10.59,-7.531175329397703,-6.235709066424717,-0.7524890089887344
10.6,-7.431632497633737,-6.367193440407316,-0.628259570398383
10.61,-7.321056456583801,-6.501358557491887,-0.5487085981461979
10.62,-7.267830887431273,-6.563709635121826,-0.5159039635572694
10.63,-7.297198070866332,-6.528657849429372,-0.5453423088131978
10.64,-7.3706503081255335,-6.440068634401264,-0.6062868893401002
10.65,-7.408956773042456,-6.393885783389978,-0.6290331960732731
10.66,-7.392239846695012,-6.41381602836357,-0.6229109789576392
10.67,-7.352264477532648,-6.463273919793608,-0.5832161775333923
10.68,-7.31713780135568,-6.507237518204735,-0.5341262088589213
10.69,-7.292288487026965,-6.536352921622635,-0.5185467243901549
10.7,-7.277522975982611,-6.553985247999587,-0.503253286886252
10.71,-7.2916779938331135,-6.54146703557164,-0.4591595377807114
10.72,-7.33472611439881,-6.496316586924243,-0.4118383047267666
10.73,-7.397508713317434,-6.426672858097966,-0.38012850810950827
10.74,-7.444461627092003,-6.372352005446702,-0.3784505195208506
10.75,-7.444063086900719,-6.3707422078344935,-0.4121667483530224
10.76,-7.431203248222218,-6.3855349282566785,-0.4153555604736887
10.77,-7.442122383521218,-6.382078581614239,-0.22902552359131245
10.78,-7.456299833460699,-6.368191930058338,-0.14069161327021007
10.79,-7.452169887818316,-6.371441926551634,-0.20026388982934665
10.8,-7.41069716082067,-6.417520186071444,-0.25909576504811266
10.81,-7.37843295635339,-6.451910126907905,-0.31904840589127453
10.82,-7.348214349377569,-6.485854963213879,-0.32826248822823384
10.83,-7.286506121977916,-6.555807876815108,-0.3136872239246318
10.84,-7.190820071112114,-6.659769815753143,-0.33106441707847617
10.85,-7.131600842877958,-6.723784200648615,-0.31826332736695384
10.86,-7.191571323229252,-6.664727084641447,-0.18135069871218726
10.87,-7.320303183342911,-6.525156468640144,-0.07557671162776768
10.88,-7.472759792099119,-6.34987699488036,-0.08521617102276698
10.89,-7.604160645535256,-6.192306506675976,-0.04913468808847346
10.9,-7.6533956899635776,-6.130778508471064,-0.09652435318906373
10.91,-7.608839872441591,-6.183500507714466,-0.1994160978075309
10.92,-7.490515098877231,-6.32588507150355,-0.21196392428949493
10.93,-7.357733222857177,-6.480919248777675,-0.17666016445063712
10.94,-7.256816339875544,-6.595001168161696,-0.11986624641119528
10.95,-7.158771188786076,-6.701482359350957,-0.10846627371929439
10.96,-7.063424778382003,-6.800700773409121,-0.1691572942751837
10.97,-7.02569920863097,-6.837847849053254,-0.23118203618399344
10.98,-7.09102048516368,-6.7695094649568,-0.24505645264404838
10.99,-7.2156047831962775,-6.63554204688347,-0.27044841772481426
11.0,-7.337200153677408,-6.49830589396339,-0.3273215180218565
11.01,-7.405323056315207,-6.417824969091765,-0.3776315566993562
11.02,-7.463458761958765,-6.351969122266851,-0.34351062868813426
11.03,-7.509561601117105,-6.3034130531635215,-0.20894570678065685
11.04,-7.507199474500692,-6.30398281161759,-0.26708662742856976
11.05,-7.469157081991292,-6.344448646168164,-0.35961318542243975
11.06,-7.424698976209112,-6.391651014044949,-0.43603189067052084
11.07,-7.404263518477142,-6.407482353912321,-0.5390772342268431
11.08,-7.345840419080488,-6.468865052800346,-0.6006908274720962
11.09,-7.245047282559543,-6.579998255389917,-0.6179014927446095
11.1,-7.161368915127248,-6.669519703203981,-0.6342445746524957
11.11,-7.1257573812312,-6.709867757726898,-0.6094335719834877
11.12,-7.153426233848818,-6.6827779609049935,-0.5820669547413926
11.13,-7.200254398572654,-6.629588002970841,-0.6119407369489854
11.14,-7.258854112286575,-6.563307672112097,-0.6335092757106296
11.15,-7.325125107883859,-6.487343926301148,-0.652614634681308
11.16,-7.396238169817912,-6.403517286911574,-0.6773550084040402
11.17,-7.4763651214111295,-6.314309812477956,-0.6349028743195705
11.18,-7.507578332722592,-6.2711731953597525,-0.6911023916716263
11.19,-7.482916933240478,-6.288046624930494,-0.7966349286326025
11.2,-7.407424492964259,-6.3647612957183775,-0.8865603588364483
11.21,-7.295968351048841,-6.482825474503921,-0.9538614030549282
11.22,-7.2147178430824805,-6.5737831497022245,-0.950269691356608
11.23,-7.196942734328728,-6.598648983860598,-0.9118949735024312
11.24,-7.251338315363621,-6.538631673342119,-0.9122040181602357
11.25,-7.331138258241962,-6.443318174119915,-0.952378840208706
11.26,-7.3630607973889415,-6.396382287188602,-1.0203731866339494
11.27,-7.33150828359364,-6.42197709341148,-1.0844935296332188
11.28,-7.26873147667989,-6.489596164788677,-1.1044883006436907
11.29,-7.225907572175178,-6.54403680546997,-1.063607249696208
11.3,-7.234701746276292,-6.5448693439686325,-0.9966140412139537
11.31,-7.289535804436176,-6.484543272997531,-0.9907364510721421
11.32,-7.352177531837929,-6.405194842969554,-1.042887239212957
11.33,-7.384366993697833,-6.356223965571571,-1.113296039868633
11.34,-7.377523153207797,-6.3563692180088625,-1.1570817971063792
11.35,-7.347706270201344,-6.390966026347922,-1.155999376973844
11.36,-7.308014902151168,-6.438977264125304,-1.1412771667830772
11.37,-7.292888924549853,-6.456535487458176,-1.1387642976976073
11.38,-7.33623769974731,-6.410475491726994,-1.1197106154123613
11.39,-7.38799512620261,-6.354560200957613,-1.0984110772335602
11.4,-7.375891908700787,-6.35610530700124,-1.168176944145635
11.41,-7.317023673266584,-6.415088082040462,-1.2151914974980382
11.42,-7.277334047490096,-6.46445378255363,-1.1916246877362262
11.43,-7.307070683593286,-6.445870827493845,-1.107281485885243
11.44,-7.353464671207233,-6.399155619551447,-1.0710341274389268
11.45,-7.3626955060622326,-6.379309735199248,-1.1241280683641843
11.46,-7.325925444981783,-6.406604069758338,-1.2062640934818714
11.47,-7.293583896094191,-6.441316485782588,-1.2167152950520927
11.48,-7.313429790547764,-6.437901364235915,-1.111931608755885
11.49,-7.359213780815257,-6.3928532784999135,-1.068709470578752
11.5,-7.411336185017131,-6.332749852928292,-1.066741606730258
11.51,-7.420714718566383,-6.311067225772374,-1.1267993401211545
11.52,-7.361119238246003,-6.359093275438057,-1.2417568876024043
11.53,-7.2838221914141155,-6.442844396797221,-1.265470292366676
11.54,-7.242229229585996,-6.510975770180484,-1.1506999723476214
11.55,-7.249382372993426,-6.520465837178614,-1.048500141986954
11.56,-7.28649240848241,-6.483428435953482,-1.0207440743615002
11.57,-7.312849025958875,-6.4476347074189935,-1.0576938177248452
11.58,-7.322187542055092,-6.4254062206962255,-1.1268935285248163
11.59,-7.338851780316497,-6.40972631570163,-1.1063959259146663
11.6,-7.3507122029003575,-6.410663430661271,-1.0199641476578687
11.61,-7.315047659586292,-6.454121254841287,-1.001197801866701
11.62,-7.246525533361802,-6.52856286100966,-1.0168115281738108
11.63,-7.215434439566792,-6.563231038521574,-1.0152806365585771
11.64,-7.277981238491904,-6.504865978314339,-0.937535511305377
11.65,-7.3751814284867,-6.407649884312153,-0.8463324186588543
11.66,-7.422136099924535,-6.354497683371128,-0.8382242347398223
11.67,-7.409426573611097,-6.3669026712206405,-0.8558902754321591
11.68,-7.3852886919901595,-6.394613025991275,-0.8580408912842578
11.69,-7.378522914160395,-6.407368363132699,-0.8205470176761387
11.7,-7.359362177602822,-6.430239656344468,-0.8132495765879124
11.71,-7.30483331602048,-6.491042423686796,-0.8202382352120902
11.72,-7.233446935241447,-6.570169368078849,-0.8238721882761302
11.73,-7.207539707432187,-6.599489085961244,-0.8172629628855582
11.74,-7.247972400907168,-6.5600502803797305,-0.7748498916301201
11.75,-7.306083678652203,-6.499746317472819,-0.737271917196924
11.76,-7.337351436561115,-6.464967794355701,-0.7333081666813227
11.77,-7.343449272167971,-6.455285138593553,-0.7570693657354242
11.78,-7.361468613496764,-6.436928738032993,-0.7364410056332359
11.79,-7.401487824401267,-6.397614781077598,-0.6765812269305224
11.8,-7.440240262940523,-6.353158068675061,-0.6708638586764468
11.81,-7.45846130808413,-6.3318053399889145,-0.670808688936465
11.82,-7.4378867529700505,-6.3505427755348185,-0.7175430695965078
11.83,-7.378368852857897,-6.410165245325697,-0.7978851947119852
11.84,-7.305804018206825,-6.491847300713872,-0.8049920161939282
11.85,-7.251968021006354,-6.5571047635971595,-0.7633252931665905
11.86,-7.239298170920385,-6.576014731013072,-0.7200788456693138
11.87,-7.242224260591125,-6.575159619492734,-0.6984569985453929
11.88,-7.237762029731896,-6.577698451749794,-0.720139140314749
11.89,-7.251697408336872,-6.559957313817625,-0.7413040914851047
11.9,-7.318894578270962,-6.490590414317078,-0.6839058936986027
11.91,-7.422462254335957,-6.3792800032065315,-0.6131196935599376
11.92,-7.508959882181105,-6.277521065473692,-0.6129844190237119
11.93,-7.542989483232806,-6.2319239400427975,-0.6598431590256576
11.94,-7.502613599585379,-6.2667011400649395,-0.774847069172585
11.95,-7.3966234151911685,-6.376876872607539,-0.8862262369936378
11.96,-7.258136623287453,-6.532746039374912,-0.894534218897542
11.97,-7.13713252256732,-6.6739145389879475,-0.8265600793806896
11.98,-7.086926225414554,-6.737556797223425,-0.741219821565947
11.99,-7.132052700957407,-6.695760337278183,-0.682837999174744
12.0,-7.248572657684335,-6.568175340724708,-0.6900980026975658
12.01,-7.375792707364718,-6.418644074610039,-0.7480308099233283
12.02,-7.458703695614835,-6.31614035600403,-0.8014708984037346
12.03,-7.481213434761575,-6.289111447466408,-0.8054139164142202
12.04,-7.475054564322056,-6.303128818775096,-0.7502400852046825
12.05,-7.461649575606255,-6.3197917836212465,-0.7439639336368914
12.06,-7.426610017137974,-6.352142369131321,-0.8144432079912762
12.07,-7.342212668963219,-6.437224549412977,-0.9032033174372556
12.08,-7.220986206567752,-6.562203154532573,-0.9778238961923995
12.09,-7.125246696002688,-6.667775791296305,-0.9685447750474128
12.1,-7.105440520000741,-6.700606115018616,-0.8845565035629245
12.11,-7.205368720236174,-6.601662761149155,-0.8105724402832335
12.12,-7.38758007818544,-6.396290946126271,-0.8114538441393498
12.13,-7.531920920247679,-6.215769241076074,-0.8913224713307497
12.14,-7.566931847981621,-6.157546179412427,-0.9969335236495083
12.15,-7.492430274492977,-6.239648044880848,-1.0453370157957544
12.16,-7.355162486115477,-6.40132168300047,-1.0401477968528365
12.17,-7.194947712577926,-6.582677768704605,-1.0279960335157645
12.18,-7.0378878743490505,-6.75168299486768,-1.0207146206268363
12.19,-6.9371238293122115,-6.8547761026932825,-1.0279011963319655
12.2,-6.978957637426868,-6.817372038548413,-0.9905197984941225
12.21,-7.1785547681971,-6.61990723655453,-0.8836510378975754
12.22,-7.398149093175198,-6.3744869296145925,-0.8830442274102696
12.23,-7.522634889168419,-6.212257449317095,-0.9899871189222613
12.24,-7.5652696200888885,-6.1527101326117775,-1.039704025249478
12.25,-7.576100598589315,-6.155750573126121,-0.9343342073695472
12.26,-7.531935651496469,-6.211672325552719,-0.9227043056751947
12.27,-7.402840844298739,-6.358594665107042,-0.9605503182123468
12.28,-7.182549323639715,-6.602646993067787,-0.9769757326911938
12.29,-6.943055461756048,-6.841212444153361,-1.0656705679710134
12.3,-6.847936764995611,-6.936721554062977,-1.0756897396993919
12.31,-6.962166490151079,-6.838513747964493,-0.9561552758775843
12.32,-7.2197800824928295,-6.5689407179621835,-0.9228395848013201
12.33,-7.494097054250019,-6.253189441965464,-0.9326244387094578
12.34,-7.654774900950735,-6.0554400976621645,-0.9483425592941302
12.35,-7.681995656261059,-6.023239821770434,-0.9368070081937112
12.36,-7.603450460614548,-6.1319081951706975,-0.8650625843133963
12.37,-7.460041373087124,-6.312761187955316,-0.8083047247036695
12.38,-7.309139556330076,-6.488169890705611,-0.8000298143277284
12.39,-7.200730802747194,-6.600761519737599,-0.863005020768274
12.4,-7.164793747442183,-6.628894384975178,-0.944746424476656
12.41,-7.1754387795190775,-6.612225169016721,-0.9806482323372164
12.42,-7.22510826515565,-6.562264361681642,-0.9501711778634694
12.43,-7.3206164975557,-6.4684809272197725,-0.8545921134090978
12.44,-7.4527966048207395,-6.33048892562804,-0.7345584802021907
12.45,-7.5945652503643455,-6.159576485930432,-0.736023942890993
12.46,-7.686495917573338,-6.040666274537298,-0.7716760993684506
12.47,-7.658700594023181,-6.071794479735751,-0.8035956641908822
12.48,-7.492284522558864,-6.266669233132196,-0.8632588423464405
12.49,-7.279098015470254,-6.513005361244084,-0.8631268172179715
12.5,-7.157675497371426,-6.656881315462274,-0.7865696091021762
12.51,-7.158888272369671,-6.660793644616735,-0.7443456210353289
12.52,-7.246334385653705,-6.564536622702462,-0.7504862911566821
12.53,-7.341377167258031,-6.452171707277614,-0.7997922635733903
12.54,-7.40405406448353,-6.3749136468763545,-0.8421940961148054
12.55,-7.465735199324563,-6.315291111939002,-0.7383527156378782
12.56,-7.500271019672742,-6.28205178634559,-0.6720170744837448
12.57,-7.486568016483172,-6.296855857365659,-0.6862231832952018
12.58,-7.432562662390049,-6.358211357536022,-0.7063934775855562
12.59,-7.382195350680705,-6.415693676700984,-0.7152601391557621
12.6,-7.353780361599231,-6.443653069350492,-0.7556925366263142
12.61,-7.325572445410338,-6.47195420124018,-0.7872602994250717
12.62,-7.267565067240543,-6.536423242817471,-0.7915407899255289
12.63,-7.207671839558686,-6.602713520973166,-0.7892045789531084
12.64,-7.2223325040296364,-6.590686649968973,-0.7553710779837064
12.65,-7.328745620798569,-6.4828470573986925,-0.6525770765889906
12.66,-7.453725144049389,-6.343776012990999,-0.6028522488378507
12.67,-7.512641149953982,-6.273240675445504,-0.6134186971107536
12.68,-7.477961234147731,-6.309939362605225,-0.658759558442471
12.69,-7.398778977108128,-6.393975380171043,-0.736529760773355
12.7,-7.350660094302899,-6.454751353583461,-0.6877309591959887
12.71,-7.347866827762843,-6.467400582013862,-0.5921581317167129
12.72,-7.360591086849097,-6.452999853094002,-0.5922577117659631
12.73,-7.373778490782757,-6.433368756070691,-0.6396264913088466
12.74,-7.405292740428321,-6.394741672778296,-0.6624996560222159
12.75,-7.439921412981766,-6.357534706225533,-0.6318489835460323
12.76,-7.454100781969897,-6.342413792727571,-0.616857734446289
12.77,-7.42618197391005,-6.37488967199422,-0.6186131321030486
12.78,-7.3823555158540834,-6.4229033975104475,-0.6457029172675254
12.79,-7.3681334920336905,-6.445518160970324,-0.5792818681485122
12.8,-7.370062166075622,-6.446294614693107,-0.5456950807965396
12.81,-7.371752258608625,-6.4439518949268875,-0.5505723920068867
12.82,-7.339627461294958,-6.478131347692813,-0.5776798922184855
12.83,-7.294403539742955,-6.522107378736998,-0.6505690475361185
12.84,-7.258424150300691,-6.5559928071711795,-0.7100184671488649
12.85,-7.256151134254244,-6.56014584779475,-0.6950535299042145
12.86,-7.283069011238257,-6.537227963864992,-0.6255967568708533
12.87,-7.319487641216526,-6.5015577236071005,-0.569912683055175
12.88,-7.363197127144282,-6.45423096741512,-0.5443061474358508
12.89,-7.433819788670362,-6.381190070586228,-0.43289950102836866
12.9,-7.498704934166529,-6.308203498152926,-0.3816167903040054
12.91,-7.551447445219061,-6.244309844510446,-0.39268283152739236
12.92,-7.58081538760068,-6.210447825295245,-0.36303543921205533
12.93,-7.560086390217492,-6.232020959479513,-0.4208502235838894
12.94,-7.463925708926628,-6.337525682883533,-0.5423179160365641
12.95,-7.319510148599899,-6.5010317247600105,-0.5740249689593028
12.96,-7.188702578388769,-6.645488769668286,-0.5734976516291607
12.97,-7.148026552927786,-6.696656874917911,-0.4800025871215442
12.98,-7.187664858394606,-6.661429558404707,-0.3642362834822561
12.99,-7.270164226418855,-6.570161134956978,-0.3842204137638578
13.0,-7.346980454890278,-6.478796272193447,-0.465793113999721
13.01,-7.37837716196751,-6.435972830368675,-0.5549690247431404
13.02,-7.392826469161856,-6.418189184721363,-0.5686358828944463
13.03,-7.402429164823478,-6.413223116938951,-0.4949101173056657
13.04,-7.435876022366141,-6.378898905413318,-0.4332929748118886
13.05,-7.516022155549903,-6.288019610698027,-0.3749346689834799
13.06,-7.54657979411036,-6.245061270671831,-0.4675905069617731
13.07,-7.486771015667621,-6.304282287986481,-0.6118833714379248
13.08,-7.371140589811767,-6.431577931740882,-0.6864517826862473
13.09,-7.321910488886864,-6.499192859911301,-0.565785970863301
13.1,-7.348605097013519,-6.480127693885753,-0.41988514362374124
13.11,-7.360782387727503,-6.464215910255887,-0.4501839835761381
13.12,-7.289769805973012,-6.53606485074919,-0.5550198596425489
13.13,-7.1639180123789385,-6.663244808365433,-0.6704605332776479
13.14,-7.160397480963989,-6.676022336735281,-0.5711706990137994
13.15,-7.304475497694162,-6.532960870752462,-0.36159723794004417
13.16,-7.438052070014023,-6.362757668242911,-0.6004483343786575
13.17,-7.486730925849166,-6.299309072210166,-0.6610012802108639
13.18,-7.406947538356173,-6.3819948584445525,-0.7575939630547842
13.19,-7.276181954071435,-6.510519507679999,-0.9154517857321232
13.2,-7.2204164442263625,-6.595519214765639,-0.729306070463536
13.21,-7.223721204928006,-6.611648913360793,-0.5227602451452377
13.22,-7.3033557990813085,-6.519917986041058,-0.5659552001273968
13.23,-7.39669800170953,-6.409598928522868,-0.6124447713806469
13.24,-7.4167962246330355,-6.37336931272253,-0.733954489998618
13.25,-7.35237843495473,-6.42796487210735,-0.8904995379019237
13.26,-7.289651198961626,-6.508364930377085,-0.8179444331668961
13.27,-7.253924971015044,-6.568004298127561,-0.6418057869159692
13.28,-7.255140119969832,-6.572181028343951,-0.5825255017379898
13.29,-7.3007976726921555,-6.523641840368771,-0.5565645622044776
13.3,-7.3657645970230945,-6.450061731565466,-0.5585130667379726
13.31,-7.3814007764526055,-6.425938350756097,-0.6262293027992648
13.32,-7.340265130204125,-6.469785682744834,-0.6571027501870905
13.33,-7.280604058688446,-6.538689236733824,-0.6388879479708095
13.34,-7.241119775615608,-6.584871596968862,-0.612838606759061
13.35,-7.238745918381376,-6.593172533524892,-0.5479427993664803
13.36,-7.257287830551241,-6.577869542256871,-0.4834697255188293
13.37,-7.2644602741324125,-6.568136613448133,-0.5070111887814645
13.38,-7.2668996428674895,-6.56131394362607,-0.5576906867815967
13.39,-7.322863351190316,-6.5013763504427775,-0.5239327404387731
13.4,-7.430290702633382,-6.382382890875309,-0.47152496377748226
13.41,-7.530637443534688,-6.266081511594435,-0.4420593679333714
13.42,-7.560231059043445,-6.228288619928159,-0.4687681297422251
13.43,-7.5067415443506675,-6.284865011360018,-0.562108169133279
13.44,-7.403889930615415,-6.402727902830242,-0.593671532097081
13.45,-7.298406688219151,-6.529761756379718,-0.5126633677678355
13.46,-7.234126552313816,-6.606832515017362,-0.4322857016305853
13.47,-7.22309766000525,-6.621729989642799,-0.38644178662923623
13.48,-7.275619675846692,-6.562842802847939,-0.40079799752945994
13.49,-7.371069111260031,-6.450821772017895,-0.4695573924472703
13.5,-7.4665047676489555,-6.338441697249613,-0.4938405838190636
13.51,-7.524079605399932,-6.271423998858415,-0.47730708676924516
13.52,-7.52828930514412,-6.268186363278085,-0.45107581013070125
13.53,-7.5159743001086685,-6.288140171137033,-0.37347220317415614
13.54,-7.484120245272099,-6.324839662349582,-0.3898457762377247
13.55,-7.427081809457351,-6.385076292363167,-0.4858798288608521
13.56,-7.3428441960876,-6.478018573453069,-0.5346661226989983
13.57,-7.285137746230145,-6.544317072940591,-0.517911994711292
13.58,-7.299947847970022,-6.532424416622186,-0.455676097254363
13.59,-7.348198656359188,-6.480034938774624,-0.4254628730758818
13.6,-7.441198184785276,-6.372341314768843,-0.42760426875195195
13.61,-7.581898111141169,-6.20749343053343,-0.37731820341290306
13.62,-7.682793045903939,-6.085912444155064,-0.32314978183733
13.63,-7.666992490656196,-6.099020021648531,-0.4260986363429399
13.64,-7.53844988238383,-6.2508104869773184,-0.5064008305136948
13.65,-7.3890794038803715,-6.426907865064075,-0.5110132867578309
13.66,-7.305386249366037,-6.526666437818083,-0.45001109458602095
13.67,-7.284476584867343,-6.553632986492119,-0.39574624999979807
13.68,-7.304695903825354,-6.528914832304954,-0.4271562245539742
13.69,-7.371521299747871,-6.449067991151071,-0.48426397577879843
13.7,-7.478464353076803,-6.325839793943348,-0.4715860435441365
13.71,-7.53972366716269,-6.253833861495846,-0.4608384749434643
13.72,-7.510850732171927,-6.288879770192251,-0.45134771268458146
13.73,-7.455110635745449,-6.360957425790153,-0.35332558187383434
13.74,-7.442042496688616,-6.381021065104585,-0.2618704266171274
13.75,-7.44579833468358,-6.37408354407418,-0.31457136456765006
13.76,-7.3929203997134305,-6.43019146631888,-0.40219785003764774
13.77,-7.297102618019479,-6.535634925404136,-0.4527117078948049
13.78,-7.269416142701304,-6.568168312971552,-0.4200878781797122
13.79,-7.3647377232015145,-6.468658251100768,-0.2761449098593753
13.8,-7.4852309974766404,-6.33079435298791,-0.23859988451115324
13.81,-7.542590252548873,-6.259333220054894,-0.3146809125130951
13.82,-7.5154706722148745,-6.287774270111371,-0.38602880036420795
13.83,-7.443061957839477,-6.373066180329078,-0.385841902903987
13.84,-7.343760823906399,-6.491284982002225,-0.3065384477815711
13.85,-7.210471249261661,-6.640015370640893,-0.28153817916936064
13.86,-7.094795413135542,-6.763797304797759,-0.28838586531330646
13.87,-7.068391585141799,-6.7893140731185095,-0.3326110827013602
13.88,-7.138734373402125,-6.711132310496546,-0.40241587309737903
13.89,-7.252200354045421,-6.587866567024796,-0.4128180145668945
13.9,-7.341308447371183,-6.49134437955635,-0.36656635868841164
13.91,-7.408823504847192,-6.4184520240238365,-0.27973775183324606
13.92,-7.4664551383499,-6.3544896375866236,-0.20403155069517687
13.93,-7.490902411124328,-6.3248178780814,-0.22585295692728685
13.94,-7.438443956507904,-6.37969641339046,-0.3532494926658812
13.95,-7.2795084599727025,-6.550197101354636,-0.4985386988220269
13.96,-7.102739285858555,-6.7387054957760535,-0.5495286507677543
13.97,-7.04472257801128,-6.807551560070797,-0.43194707918265224
13.98,-7.137152160187242,-6.7170277899924455,-0.3155374006219081
13.99,-7.295223824094617,-6.542824239246739,-0.35650914074000617
14.0,-7.412068199720555,-6.407297494956508,-0.4176493843350859
14.01,-7.436165444028873,-6.374959238383309,-0.48224992634872393
14.02,-7.397259478671629,-6.422714822657449,-0.43595155448431766
14.03,-7.331721507228726,-6.504445970758852,-0.32319077830928844
14.04,-7.266614964903199,-6.576581850740464,-0.3361300031770864
14.05,-7.2302080414117595,-6.612462899654007,-0.4099081564384038
14.06,-7.214561021043496,-6.622963227570113,-0.5037480314950251
14.07,-7.209670081814261,-6.620620305734921,-0.5975815397572048
14.08,-7.1826542049529225,-6.647879845969512,-0.6194162725744415
14.09,-7.128599395129305,-6.709674668923179,-0.5755329020133941
14.1,-7.0871221796977935,-6.756088215470326,-0.5459007281334493
14.11,-7.132124284346642,-6.710816713197091,-0.5095095133153386
14.12,-7.306492439605315,-6.5218890545784065,-0.4698284607198729
14.13,-7.524480211924131,-6.26892481479035,-0.47700477226505184
14.14,-7.661161314184677,-6.104252934636764,-0.45989641901274364
14.15,-7.629534319832153,-6.139744406690722,-0.49966089434830974
14.16,-7.449650669944138,-6.341523985555318,-0.6503381180968894
14.17,-7.2200974037025905,-6.5884743829548125,-0.7763971053630044
14.18,-7.062613754201848,-6.754714608235399,-0.812122870516447
14.19,-7.03750820837858,-6.786711058608135,-0.7631199255543584
14.2,-7.053182313162902,-6.775523374841219,-0.7178037586704823
14.21,-7.072179672328983,-6.754850857725533,-0.7250987460314551
14.22,-7.217564514945216,-6.606305757219393,-0.6283784436504128
14.23,-7.474420511718439,-6.3210201124458205,-0.5517383308067197
14.24,-7.649401048322523,-6.099275612917957,-0.6641172757301121
14.25,-7.633616838211191,-6.10282035877926,-0.8030045977381469
14.26,-7.4826144531575665,-6.272893867408431,-0.90015198228226
14.27,-7.350194418497486,-6.435262573941379,-0.8485674689985941
14.28,-7.294487977003218,-6.516456056494778,-0.7010766437202869
14.29,-7.265339486849759,-6.553320780426558,-0.6622197258699969
14.3,-7.236443748854356,-6.579712484048278,-0.714318954661431
14.31,-7.252427429462933,-6.555547612651971,-0.7716113187835509
14.32,-7.3561901174283495,-6.436203519619623,-0.7879247568402125
14.33,-7.489249168427751,-6.283061167664706,-0.7717477786469572
14.34,-7.579308920694479,-6.176875759243842,-0.7537516571673056
14.35,-7.572780331166298,-6.181629434907552,-0.7800511947611675
14.36,-7.456003589903696,-6.304431216675392,-0.9019911733104816
14.37,-7.3068387702217885,-6.465451488029056,-0.9835775443706629
14.38,-7.225270790956691,-6.568293471248168,-0.9037494963470865
14.39,-7.230733887427701,-6.576480932652002,-0.796704523029945
14.4,-7.3054329284656845,-6.5011078429514875,-0.728657043958625
14.41,-7.376135842279285,-6.41917764563804,-0.7446552654513438
14.42,-7.399899988525993,-6.375199663797371,-0.8729117835828153
14.43,-7.440033465802658,-6.322165358734653,-0.918969481484301
14.44,-7.506436630187055,-6.2594577476298525,-0.7960399634098599
14.45,-7.5179684776475115,-6.252671043877984,-0.7445199203279449
14.46,-7.454163408260148,-6.325546222564143,-0.7675696534660461
14.47,-7.3807048814346485,-6.408755268636836,-0.7881286318098193
14.48,-7.337879037640487,-6.450766944778565,-0.84373997763155
14.49,-7.327969700397418,-6.463138383940398,-0.8357580482817052
14.5,-7.330571371947701,-6.472404501609973,-0.7330730141150491
14.51,-7.316657703139458,-6.494373916426151,-0.6779848739069497
14.52,-7.298571967033496,-6.51127302609233,-0.7097761244792504
14.53,-7.283678638294366,-6.520083810537187,-0.7782489460022698
14.54,-7.256382509798511,-6.542595508724591,-0.8417745943648239
14.55,-7.227263089562643,-6.579491808404369,-0.8033492623308991
14.56,-7.220150384411504,-6.604340749906975,-0.6438021466196568
14.57,-7.248638128809613,-6.583786393748426,-0.5285792575765891
14.58,-7.338118206349347,-6.489538277394753,-0.4489092514546853
14.59,-7.473957872599392,-6.338013381046891,-0.35776909893994124
14.6,-7.5631836981471,-6.226670349878206,-0.4360262019682567
14.61,-7.5356397106722826,-6.249338514354992,-0.5702666097407686
14.62,-7.389372697681879,-6.415640876471316,-0.6262549377763265
14.63,-7.218651677865899,-6.609825974634733,-0.5987423828168135
14.64,-7.128261688754372,-6.71905984350482,-0.45156728626933096
14.65,-7.122781266892288,-6.734964241019894,-0.2639669378596495
14.66,-7.182168002464441,-6.674668657434935,-0.18163092533568959
14.67,-7.279643683517835,-6.567891677693741,-0.18763666609581328
14.68,-7.374830293603139,-6.4602872036568835,-0.2080126276304377
14.69,-7.4247682378642255,-6.4037528040988745,-0.18539426809069307
14.7,-7.398335252248123,-6.434379920894394,-0.18122241213819845
14.71,-7.327406542861607,-6.515070825052749,-0.17548080746049047
14.72,-7.274603292070893,-6.57394956218326,-0.18141429199363357
14.73,-7.255161212747154,-6.595484965617575,-0.18039295495962013
14.74,-7.248310260801773,-6.604306807014028,-0.12035371814388403
14.75,-7.236552835755404,-6.618135482555579,-0.04349213819980856
14.76,-7.244715070840275,-6.609402452818728,0.0015645331706340894
14.77,-7.305029181608587,-6.542522677036922,0.018844750383052868
14.78,-7.385371883387791,-6.451662859310445,0.01335665527510289
14.79,-7.449299313326299,-6.377830909957536,-0.012209784724489029
14.8,-7.465518481846797,-6.35890073302381,-0.027695164064254856
14.81,-7.3966656886996125,-6.438549127293618,-0.04498167358705131
14.82,-7.26630513014363,-6.585007337070407,-0.04625070215040934
14.83,-7.112193422397698,-6.751116681216903,-0.040538747544026345
14.84,-7.009339656621524,-6.858210643310696,-0.044861629342794015
14.85,-7.035624473181987,-6.8314241990960385,-0.034873591774774546
14.86,-7.174558907113894,-6.6848840977712385,-0.03333254865658172
14.87,-7.3692336115506745,-6.46895077221349,-0.06824352561833905
14.88,-7.544704269335649,-6.263627733330565,-0.07428995644892718
14.89,-7.662461462784762,-6.119741824357435,0.01959008260655127
14.9,-7.679130624628783,-6.099127700835587,0.04441439914679753
14.91,-7.591279699885954,-6.207979852885057,0.018955737919431212
14.92,-7.449346928056116,-6.377138498647785,-0.050991065488366835
14.93,-7.307664238626434,-6.537694837359744,-0.14369684793063314
14.94,-7.23101566667586,-6.622054406208331,-0.17330507731557396
14.95,-7.2161936658038925,-6.63843426411828,-0.16763148610267253
14.96,-7.259625464243711,-6.590900249366519,-0.1662880429231746
14.97,-7.340190900627799,-6.500909341120489,-0.16878024204896586
14.98,-7.428160948099831,-6.399430243162199,-0.1953750240513243
14.99,-7.500059062790976,-6.313398158293527,-0.2431074135181232
15.0,-7.538454002158875,-6.2683013698092696,-0.22397612552212182
15.01,-7.540304636479253,-6.266801855337559,-0.20334430081073865
15.02,-7.485802452762324,-6.32922574030412,-0.26986145338672335
15.03,-7.384649223375823,-6.443766258888764,-0.3358281587602979
15.04,-7.281276588225024,-6.556829246479376,-0.3990603181499332
15.05,-7.258974656469178,-6.580665138737675,-0.4153057364581022
15.06,-7.3252979895856445,-6.508565756871269,-0.38476425300860234
15.07,-7.427095727073119,-6.392222689887689,-0.3826728085883225
15.08,-7.479098441863592,-6.328952160989499,-0.4211458907723841
15.09,-7.438454030472373,-6.371435599707124,-0.493954949492298
15.1,-7.337783616253779,-6.481437637261341,-0.5627641858312115
15.11,-7.259937740316207,-6.569304032735213,-0.5542943151265284
15.12,-7.285030751399231,-6.548537378114513,-0.463525874329112
15.13,-7.37949011050798,-6.436681556825316,-0.5304652130426469
15.14,-7.460603669711501,-6.333725801489462,-0.6266322440901457
15.15,-7.466893885585556,-6.316700453044721,-0.7175534949942849
15.16,-7.40798124212184,-6.374055018516788,-0.8143106173967009
15.17,-7.358359519049547,-6.4360726100812915,-0.7756858168967657
15.18,-7.365307465265174,-6.447477668917727,-0.5932124767255741
15.19,-7.405914635064849,-6.400615591385084,-0.5957032126402412
15.2,-7.44092970899901,-6.3483132158684645,-0.7082683862632912
15.21,-7.443134330786883,-6.329286500157054,-0.8426790157246913
15.22,-7.432744166100907,-6.32718397515033,-0.9441375258535372
15.23,-7.397224976425511,-6.370879007632513,-0.9291582114596226
15.24,-7.343146732534555,-6.44273649474084,-0.8600612271852515
15.25,-7.342377030644002,-6.452349861991421,-0.7918473024442122
15.26,-7.382950603739284,-6.403698765536893,-0.8092462907937775
15.27,-7.366310407856747,-6.407353404306918,-0.9235039603439298
15.28,-7.242579287488717,-6.5286555727527755,-1.0445170987712593
15.29,-7.101384268184115,-6.673438629091547,-1.09762347996157
15.3,-7.145144126004554,-6.65653445889412,-0.8973320982183063
15.31,-7.334748834672002,-6.458237298367483,-0.8126994763704073
15.32,-7.481741788497331,-6.272493550683954,-0.9214763450986825
15.33,-7.543147520668197,-6.188165116931898,-0.988730038450845
15.34,-7.589093068425981,-6.126481703616074,-1.0189079287038112
15.35,-7.677669506387566,-6.051793443406539,-0.7738686942272173
15.36,-7.671549146473284,-6.043671879364802,-0.8884396405115002
15.37,-7.551129689274192,-6.175364114004232,-1.0050903240035423
15.38,-7.367196457596851,-6.378147458122366,-1.101362805616102
15.39,-7.306052996407368,-6.439326369020878,-1.1499907410212276
15.4,-7.441865177761771,-6.309439854339859,-0.9882658187092723
15.41,-7.563400239717663,-6.153657095305492,-1.0472307225433513
15.42,-7.5984685990426435,-6.0937780943530715,-1.1394648341416853
15.43,-7.533334121242973,-6.155944658315237,-1.2327310590867175
15.44,-7.426409039269274,-6.2555910247784485,-1.373154816490063
15.45,-7.377074630550677,-6.322688609619532,-1.3300261677930054
15.46,-7.428962069387688,-6.294746541831719,-1.1625867504431615
15.47,-7.552220114901852,-6.125837671241947,-1.2670984342780829
15.48,-7.626909194958706,-6.014645171674038,-1.3502370611172227
15.49,-7.592974566264631,-6.028337528933583,-1.4741064555587426
15.5,-7.527840805234217,-6.078277643775142,-1.5984675250370282
15.51,-7.507074305243775,-6.130957555140656,-1.4901172440806856
15.52,-7.5513823473815735,-6.116048887080047,-1.318496288630735
15.53,-7.609617505734571,-6.025023060179318,-1.4008101650288667
15.54,-7.59114077204157,-6.026397697844631,-1.4911772965022274
15.55,-7.484902424212334,-6.129214149321776,-1.604027506778271
15.56,-7.370125956044385,-6.23572395574155,-1.722317545812114
15.57,-7.329107030831987,-6.30151514747766,-1.6555991973530892
15.58,-7.27591956563773,-6.3965814815316895,-1.520927200290263
15.59,-7.244696217640257,-6.448111352134769,-1.4501961902788318
15.6,-7.354041947115068,-6.33883631405442,-1.3779164293034987
15.61,-7.5057800427157,-6.150908669279367,-1.4109065649000785
15.62,-7.581142342200943,-6.01843496462534,-1.5724987380638158
15.63,-7.52823712551052,-6.05728039201989,-1.6724575983726968
15.64,-7.37772861794882,-6.243103774353485,-1.6591676596504257
15.65,-7.234429434294226,-6.425850032140432,-1.5928854968643316
15.66,-7.175899335658894,-6.515915269972099,-1.4890596486571828
15.67,-7.214510170793085,-6.497107414721416,-1.3809216634798855
15.68,-7.272336470242767,-6.442929121339132,-1.3310455708770084
15.69,-7.30475781233762,-6.401244588101429,-1.3541945832352449
15.7,-7.3330156158039115,-6.357428330123067,-1.407059052094832
15.71,-7.36988541368619,-6.311534166904741,-1.4208561795271608
15.72,-7.400077519430494,-6.267728213373455,-1.4572004471356568
15.73,-7.370708820185575,-6.280043415210816,-1.5490065389908678
15.74,-7.267939160666313,-6.372999173561002,-1.6507249177878522
15.75,-7.153816559953102,-6.485538884808411,-1.7114266620215335
15.76,-7.107323202861847,-6.552522275890051,-1.6488021040893934
15.77,-7.105374737726243,-6.576876721006057,-1.5582305640450531
15.78,-7.141891930450759,-6.54638834095147,-1.5187565793371431
15.79,-7.217694354673096,-6.459748066542054,-1.5302427640749923
15.8,-7.311390904811691,-6.335802251843077,-1.6015767744287643
15.81,-7.3914235055485245,-6.22073574330744,-1.6845095676411965
15.82,-7.4387653569535,-6.157785391250157,-1.7077087280249796
15.83,-7.460115731919107,-6.145351264261523,-1.6584132967226852
15.84,-7.451565772575983,-6.171430099818423,-1.5992210602007135
15.85,-7.408645511353145,-6.21713536743333,-1.6205912960061022
15.86,-7.330500570393361,-6.284751744827712,-1.7118832589187023
15.87,-7.247366637605293,-6.353285929809268,-1.8109694855760918
15.88,-7.206314697821611,-6.387337804357419,-1.8550570622858067
15.89,-7.216187963905538,-6.3862318416743795,-1.8198469456417692
15.9,-7.247765838661918,-6.366927398131604,-1.7611922817621746
15.91,-7.280180263831621,-6.333036446654421,-1.7495673854335265
15.92,-7.319195965338314,-6.283081321820618,-1.7665375393910479
15.93,-7.377997443303596,-6.226368291716578,-1.7222767837519546
15.94,-7.410967177962445,-6.19649752028129,-1.6885903919314889
15.95,-7.391567167221542,-6.221428352029738,-1.6815742134991465
15.96,-7.333318240916904,-6.289891900808811,-1.6811697086637625
15.97,-7.244899212894314,-6.381269143293949,-1.719594652661763
15.98,-7.1656822535807665,-6.466749705540408,-1.732821851902512
15.99,-7.145400241986363,-6.508122064955744,-1.6589678569911233
16.0,-7.212590647344181,-6.472010356714752,-1.5003301037964103
16.01,-7.328544983615437,-6.371463415665055,-1.3634990103700868
16.02,-7.430863887204023,-6.267277810964916,-1.2925950055362867
16.03,-7.469400258547536,-6.223640657062443,-1.2821847298005038
16.04,-7.430008370334547,-6.2617199456519925,-1.3241877635987958
16.05,-7.338267420500177,-6.3714997504965645,-1.3086664996863697
16.06,-7.213336336620853,-6.535815090647284,-1.184552851319237
16.07,-7.116610195616962,-6.6702482794130376,-1.0120997793645627
16.08,-7.10074561781752,-6.706307082790391,-0.8785392027926361
16.09,-7.168989380097139,-6.6440187847439045,-0.7919426264932331
16.1,-7.260967925578989,-6.547714450067299,-0.7570047713847319
16.11,-7.316568279777452,-6.487196773941238,-0.744296008058689
16.12,-7.335746997908982,-6.473369487998601,-0.6693674189602403
16.13,-7.364167095665736,-6.4547639738857505,-0.5168177520761527
16.14,-7.40982662027789,-6.407429676571517,-0.4547306714099073
16.15,-7.419020146689248,-6.392950450436201,-0.5082246895241467
16.16,-7.363525877292782,-6.455363137248171,-0.5216917967544977
16.17,-7.260803692408543,-6.568485917897859,-0.5468467630662852
16.18,-7.169284286766029,-6.673342715042326,-0.4772388846893534
16.19,-7.1510418380551775,-6.702941128145904,-0.3132119221761504
16.2,-7.221447754587769,-6.6284853817015295,-0.2744061879310989
16.21,-7.318611773292879,-6.517692123846515,-0.35141077902888707
16.22,-7.338416024352332,-6.4898679539051765,-0.4412121664607849
16.23,-7.257683460674727,-6.570888642689724,-0.5570059280883543
16.24,-7.170874553527953,-6.670460000632695,-0.48088483408154975
16.25,-7.147589807295467,-6.708364848569045,-0.2782846791075788
16.26,-7.172241296197778,-6.681201946809725,-0.2910502148287744
16.27,-7.216753036736828,-6.627891066399499,-0.39689539147712194
16.28,-7.272185375788869,-6.560672835020523,-0.48712109460335795
16.29,-7.348815704407902,-6.472797388380367,-0.5121852123584644
16.3,-7.432619411682793,-6.382073893145946,-0.43721695418038775
16.31,-7.476135154612184,-6.33006772952237,-0.4527587651393795
16.32,-7.461299965496275,-6.334911716680935,-0.5993182232644417
16.33,-7.399412611674099,-6.3872528743525505,-0.7816630680903086
16.34,-7.308233418520722,-6.470543588620045,-0.939687693474258
16.35,-7.206149387194193,-6.575569804984589,-0.9987460969982973
16.36,-7.116274292460629,-6.683591041706492,-0.9221237193572892
16.37,-7.072530612298178,-6.743998398676173,-0.8163388786666876
16.38,-7.104652507765242,-6.711568303538864,-0.803444453829133
16.39,-7.220204869368095,-6.576424450593716,-0.8794278235276499
16.4,-7.369428982225889,-6.392084255394371,-0.9926884863194673
16.41,-7.476272400730347,-6.247443944292166,-1.112497300374743
16.42,-7.498434641020068,-6.20664345107827,-1.1919314921169242
16.43,-7.446856812828443,-6.270062953675526,-1.181577607423267
16.44,-7.377192767795095,-6.368460233786097,-1.0877927770258888
16.45,-7.342753514195687,-6.420239222334711,-1.017131090571122
16.46,-7.361845580967785,-6.400098460526409,-1.005637381342554
16.47,-7.414690355125499,-6.332000082806644,-1.046336190827743
16.48,-7.429551338090571,-6.296982879141632,-1.1473075965187105
16.49,-7.375377334828692,-6.342014419163541,-1.2444308319561985
16.5,-7.302032399769573,-6.417059992516753,-1.2920767551268266
16.51,-7.264568479170555,-6.461405039087112,-1.283043134436802
16.52,-7.264936045862885,-6.470854516814116,-1.232138288269282
16.53,-7.265467702411542,-6.472824096889492,-1.2189328483339954
16.54,-7.232401360366089,-6.503802373219803,-1.2497138998812132
16.55,-7.155763305174994,-6.589226497930769,-1.2418951295238498
16.56,-7.12539341091376,-6.640529204832241,-1.1390935510420848
16.57,-7.268025337394747,-6.5029588645207,-1.0149472150902337
16.58,-7.498851498801124,-6.220275718186292,-1.095833643609382
16.59,-7.662439939268562,-5.9966800495116015,-1.2189382467775767
16.6,-7.657774896815452,-5.982729032303037,-1.3153861040315205
16.61,-7.48999459367521,-6.162875861098984,-1.4357430477935509
16.62,-7.277578346068028,-6.417522728218355,-1.4121297959972237
16.63,-7.085134646755263,-6.668104255409861,-1.213473534963742
16.64,-6.932617921195172,-6.856093325581422,-1.0439430880457328
16.65,-6.894789464332985,-6.903001498881092,-0.9903028436160806
16.66,-7.106305139541456,-6.696714333912842,-0.8807628535369569
16.67,-7.6467285476113265,-6.068593119386947,-0.7966074117437723
16.68,-8.092361053034969,-5.458414671868817,-0.8940106966493956
16.69,-8.24836965689959,-5.224560298701164,-0.9139347242380401
16.7,-8.163568783233144,-5.349337985568564,-0.9449983712604629
16.71,-7.875661410927522,-5.739587290542734,-1.0603525333800112
16.72,-7.534844451680974,-6.184655501555564,-1.0391970675420812
16.73,-7.2390098860349426,-6.555386153215706,-0.8621307717419018
16.74,-6.996335898779996,-6.83438425841689,-0.695960601626426
16.75,-6.872497736273265,-6.958471714176451,-0.7174430005084852
16.76,-6.924104397916979,-6.907068747695677,-0.7174044955650567
16.77,-7.085488079725139,-6.74844369411444,-0.639723457195671
16.78,-7.263397531590623,-6.556194470731696,-0.6444228459211016
16.79,-7.4300804551193735,-6.3617442439941785,-0.6922004738261314
16.8,-7.555324238119543,-6.20796911138287,-0.7362109952648573
16.81,-7.669382536458676,-6.090073727056583,-0.4794074956299155
16.82,-7.7446189809060835,-6.006238331448567,-0.3376124769598893
16.83,-7.740219798314018,-6.011033057847198,-0.35513285730488114
16.84,-7.672307963598913,-6.1008479881688364,-0.2821852623692068
16.85,-7.5792453775130175,-6.217264105458511,-0.2581080802439896
16.86,-7.458470756731653,-6.3598325804072475,-0.2940038587986298
16.87,-7.210419058365924,-6.636447316651709,-0.3223501849294436
16.88,-6.613578384022684,-7.212215277911339,-0.48958365157654266
16.89,-5.8287021177405025,-7.854364831370886,-0.5609524211729506
16.9,-5.527087267260152,-8.089577152468271,-0.4086239854266658
16.91,-5.765710654510191,-7.920881131639537,-0.39170190528063004
16.92,-6.445935531765122,-7.3763700129536085,-0.13154996547143616
16.93,-7.208236291595949,-6.627745387235288,0.24335132003577126
16.94,-7.664343799395819,-6.108741681216147,0.22979583309465704
16.95,-7.8243683448264,-5.904370232509789,0.2852951469726308
16.96,-7.8550847059432325,-5.858359566480466,0.3822232515321016
16.97,-7.736134721573861,-6.023184370793424,0.05511253639383316
16.98,-7.356117949822327,-6.478323233794983,0.11428478541570118
16.99,-6.870982507684547,-6.990287084580675,0.13468661874680135
17.0,-6.464324462127851,-7.371344850457655,0.0668714196109173
17.01,-6.208380732743915,-7.584046762922487,0.2894239115644445
17.02,-6.119691866364604,-7.639535082374535,0.5863727617006963
17.03,-6.352421228278944,-7.440769338051447,0.6565785674291831
17.04,-6.808291407497337,-7.024462017212817,0.6427713186109677
17.05,-7.275213169164677,-6.541224189091676,0.6266296897832351
17.06,-7.6436339307980665,-6.111723147008357,0.5938413235219062
17.07,-7.783776827142309,-5.936065579358145,0.5855132005513437
17.08,-7.715095202422002,-6.006158187899093,0.7524466968127704
17.09,-7.541665278360793,-6.2211263933490795,0.7617279881116433
17.1,-7.297244529920624,-6.5033566062566255,0.7804547749879908
17.11,-7.053676379399135,-6.770490725887994,0.7493132719578754
17.12,-6.867481056323869,-6.972504172534413,0.6181932372383485
17.13,-6.750697517062375,-7.087550667531464,0.6022087266964524
17.14,-6.7040969102515895,-7.124694700522562,0.6805271862558092
17.15,-6.76310613146928,-7.063507551654731,0.7323486023459663
17.16,-6.960042164503586,-6.858584891371265,0.8232211360624437
17.17,-7.243308146460265,-6.547705384544259,0.9021273626418295
17.18,-7.517172577721234,-6.2310307653783426,0.905984912457444
17.19,-7.670960919647196,-6.022901457123608,1.0221516452243622
17.2,-7.692433898843803,-5.987790501433095,1.0691362967997855
17.21,-7.598450005448885,-6.110936286313412,1.0430263474136638
17.22,-7.413853391690583,-6.337818960700285,1.0149027040001424
17.23,-7.208641335517152,-6.582153698050859,0.9343901612205272
17.24,-7.0457899485422635,-6.762102932012359,0.8928763460801097
17.25,-6.951442352894821,-6.858567669154423,0.8982406892714934
17.26,-6.9414872217010455,-6.868611226215379,0.8990666816744733
17.27,-7.00007323120172,-6.809341373055336,0.8954158175226333
17.28,-7.1060916973672255,-6.698424135055871,0.8964561278292643
17.29,-7.241555056454815,-6.5551108220714855,0.8710790739786507
17.3,-7.372430944215831,-6.414146205531152,0.8213292432208702
17.31,-7.457187798654438,-6.313915219109113,0.8333729078248172
17.32,-7.4628307473134585,-6.306234778685181,0.8413935021295775
17.33,-7.392452404957723,-6.39197827847935,0.8149761261905446
17.34,-7.271836853096589,-6.537767057767386,0.7396996687956456
17.35,-7.136762945613803,-6.6948437551246105,0.6440414030348911
17.36,-7.026193628448471,-6.818860391493172,0.5526422089171983
17.37,-6.957567046843568,-6.894707710147045,0.474761129577034
17.38,-6.945707462891807,-6.9104410849277205,0.4162971253179548
17.39,-6.997451361723559,-6.861556891675617,0.3536080635105692
17.4,-7.088626987212747,-6.770732895164703,0.2808477330126444
17.41,-7.191482190836393,-6.662544880049476,0.25180556468527326
17.42,-7.2863171930999595,-6.555489216399025,0.3247545171963242
17.43,-7.348487514839709,-6.485918565112165,0.32083013626845375
17.44,-7.350756400107538,-6.486071581323778,0.2594331415403259
17.45,-7.268804446794416,-6.5803171065612185,0.18263674091962984
17.46,-7.14746878091423,-6.71409296514592,0.06738367749339283
17.47,-7.060485877400355,-6.80586039063967,0.012573954718458093
17.48,-7.048345024459208,-6.818318729516883,0.0396493167618747
17.49,-7.095560069099106,-6.769260271496673,0.012369341615202981
17.5,-7.151833432329442,-6.709634536360172,-0.044678035444690234
17.51,-7.1796685058847185,-6.678429141140658,-0.14389855948389038
17.52,-7.1883410460710815,-6.665839623306668,-0.25430743706942877
17.53,-7.208971588449599,-6.643459475159334,-0.2559318436095058
17.54,-7.230430751984394,-6.620199235301764,-0.2531026383912021
17.55,-7.242603282933584,-6.604856844655311,-0.3012673333024076
17.56,-7.233700890003289,-6.6116514282241425,-0.3592134857391163
17.57,-7.196359326045739,-6.645425019285904,-0.4693345271315625
17.58,-7.146348321396836,-6.693030952563174,-0.5504257006961268
17.59,-7.094143795598598,-6.746780040219542,-0.5693856901567319
17.6,-7.0564324592912016,-6.7867531068607,-0.5630854724344361
17.61,-7.040041660000163,-6.803537707640678,-0.5656087569838945
17.62,-7.049088045465649,-6.790233624426119,-0.6105268617145978
17.63,-7.087963792088488,-6.74327451850244,-0.6768616815241227
17.64,-7.168152263515165,-6.657234499079838,-0.6838519735518173
17.65,-7.2478552107686935,-6.572492198142506,-0.6640295348217644
17.66,-7.272728493009523,-6.541213789413376,-0.6999792362769066
17.67,-7.235189992437323,-6.578506017768158,-0.7377865513424205
17.68,-7.16425193356013,-6.650891650129033,-0.7801408576562195
17.69,-7.109162939764995,-6.707012069966084,-0.803716041418953
17.7,-7.090727268629214,-6.729838948478923,-0.7753261890004867
17.71,-7.097601129364664,-6.725927620666496,-0.7457857353171851
17.72,-7.114734284242948,-6.710125133078908,-0.7246605223482889
17.73,-7.123620622339547,-6.700455731895695,-0.7267532611065943
17.74,-7.127066791221504,-6.693813653052842,-0.7537010675805188
17.75,-7.146563230503325,-6.674069065472518,-0.7440425030565041
17.76,-7.162134718126134,-6.6604763967721015,-0.7157197720802736
17.77,-7.154333808623912,-6.669507683055962,-0.70943851280904
17.78,-7.123274421975075,-6.703468644069501,-0.7015736302308198
17.79,-7.083796420853414,-6.746428134307748,-0.6896986063382193
17.8,-7.079438928543227,-6.754929109308586,-0.6498414061683595
17.81,-7.10114711410814,-6.736949624780773,-0.597660673000159
17.82,-7.1316331114242475,-6.707566592367598,-0.5640620122853404
17.83,-7.166568568596145,-6.672780926089925,-0.5332604443817454
17.84,-7.189753945491918,-6.649782735675462,-0.5079969700509839
17.85,-7.202085235956423,-6.637711821943292,-0.49099009142626837
17.86,-7.186429146481423,-6.655774639570632,-0.47496348535605
17.87,-7.145872686735744,-6.701204581649293,-0.446992631508386
17.88,-7.099889267916343,-6.751916459132716,-0.41542638813867466
17.89,-7.057199709829808,-6.798613336273961,-0.3801993307768021
17.9,-7.039261566178302,-6.819608030876097,-0.33410158119275674
17.91,-7.063027085993221,-6.797330122455112,-0.27982379098840837
17.92,-7.130138434713153,-6.729191316403626,-0.2138208428981618
17.93,-7.213605504238803,-6.6414631433709665,-0.151844602844038
17.94,-7.273147329180304,-6.576777077664644,-0.13242091043174556
17.95,-7.285153733050214,-6.563450575085029,-0.1338640346393221
17.96,-7.268984937052543,-6.581785018983416,-0.10638213797853348
17.97,-7.241800377170864,-6.612381977787887,-0.040975423011838805
17.98,-7.201871170899697,-6.655937965875144,0.02151726005930862
17.99,-7.152795589891967,-6.708432447481749,0.061965592248158154
18.0,-7.1205301814485775,-6.7425410903129155,0.08088857870394442
18.01,-7.1426781796729175,-6.718687113041582,0.09854788695557418
18.02,-7.208753261516595,-6.647231164263336,0.12782705913892525
18.03,-7.268711799355854,-6.581837482847115,0.12253232485468334
18.04,-7.286014280070851,-6.56316481426933,0.09488494991139504
18.05,-7.265697683675578,-6.585619256119047,0.09374541830035538
18.06,-7.242225214660947,-6.610157421771057,0.15664014025764303
18.07,-7.229903318781963,-6.6216788846440915,0.22823731123521562
18.08,-7.215620315892036,-6.636387365890471,0.2512140147108613
18.09,-7.178942273809792,-6.675655394474261,0.25980214325448575
18.1,-7.136010321265139,-6.722058865840588,0.24775339519357087
18.11,-7.13245233995672,-6.725331855027004,0.2587457488340208
18.12,-7.182903799378777,-6.668585424935075,0.3199360613148492
18.13,-7.259143635303388,-6.58313934932037,0.3672361407914738
18.14,-7.314194366239567,-6.521883584287374,0.3710521654027413
18.15,-7.321975813000944,-6.514567015485551,0.3449066129061212
18.16,-7.298545273779247,-6.539900198230953,0.35797883477265385
18.17,-7.270678473719888,-6.5644959423043385,0.46153588141718416
18.18,-7.263333635328336,-6.568611623264099,0.5173190129193597
18.19,-7.273137532761206,-6.559958636313146,0.4876010458838971
18.2,-7.267753492636818,-6.572057544327824,0.3908795541878121
18.21,-7.23043550042117,-6.619754443122493,0.2547261787108903
18.22,-7.167913772364349,-6.689749774649311,0.19104879201489308
18.23,-7.122870738817314,-6.735957607782413,0.24401955427311792
18.24,-7.125780372566022,-6.729183885343376,0.33190508797209983
18.25,-7.164404451145741,-6.685981530995706,0.3714207397270731
18.26,-7.214292291913165,-6.633992185342439,0.334193931218397
18.27,-7.258291547107603,-6.588876521390312,0.27069234835553746
18.28,-7.29244120250193,-6.551493863826394,0.2612290828652383
18.29,-7.300773455262243,-6.542363770054605,0.25725887718495793
18.3,-7.281080889620662,-6.565250055341959,0.23081576602428383
18.31,-7.252536733834269,-6.597518961971206,0.20753328918800493
18.32,-7.229772831921822,-6.623441207065112,0.1744420847518188
18.33,-7.219093716480716,-6.635757187009166,0.14720247618598262
18.34,-7.1939596534416985,-6.663218760319963,0.13314791985766436
18.35,-7.149766883324768,-6.710734615276223,0.12767291573142953
18.36,-7.1204944440824525,-6.741857136363964,0.12739558345450458
18.37,-7.141078440934457,-6.71998830047246,0.12309879820400033
18.38,-7.227166139864228,-6.627034604639389,0.11645491318662077
18.39,-7.327597149015852,-6.516396274196347,0.09666778078142418
18.4,-7.369175169852387,-6.470090223870571,0.05427111037670596
18.41,-7.321071858407982,-6.52429483971726,0.0080367517222167
18.42,-7.217508538346815,-6.63862636533748,-0.004456845101085956
18.43,-7.139505014070087,-6.722335228875989,0.061672033315044734
18.44,-7.131980146977028,-6.7294742899993,0.1367569440746297
18.45,-7.1798438157741185,-6.6783617553100125,0.12992227441215295
18.46,-7.237151476825842,-6.617136267976181,0.07044327571759994
18.47,-7.266917506009541,-6.584904399227424,-0.0023133935000433058
18.48,-7.270854426406795,-6.580526278548103,-0.041488049338265186
18.49,-7.264436916124861,-6.5876593517087185,-0.02654305283347854
18.5,-7.248291139164252,-6.605472745784157,0.0015840250266591963
18.51,-7.233784706803717,-6.62136914366373,0.013634805453866472
18.52,-7.239220465633338,-6.615369077487239,0.02639073012936049
18.53,-7.2575633221586235,-6.595213756691316,0.03309070899497293
18.54,-7.264797138446508,-6.587278835436684,-0.00077836857573779
18.55,-7.236242121590475,-6.618264806383831,-0.059439135618838825
18.56,-7.171881361765115,-6.686946178314256,-0.1227202627472657
18.57,-7.115090078728566,-6.746745726437965,-0.16259389720497
18.58,-7.130895413214138,-6.730822711696239,-0.10604333812061041
18.59,-7.220266875568791,-6.635517021843434,-0.013486408139134686
18.6,-7.320740899907933,-6.524729189790952,-0.0037444344244751517
18.61,-7.366449676218256,-6.472938177851227,-0.07034314368484516
18.62,-7.333739603261687,-6.5076788301269834,-0.17597319879519102
18.63,-7.263372726068387,-6.583698989604772,-0.2554477541189071
18.64,-7.207465823188641,-6.645696727158298,-0.23507411999831693
18.65,-7.188928566225024,-6.667151851608851,-0.1968217258724089
18.66,-7.193350231917228,-6.6618836277333795,-0.21225447147208304
18.67,-7.1916443524061355,-6.661781667971235,-0.26505293845178385
18.68,-7.171490567255686,-6.68025095858367,-0.33566001307684606
18.69,-7.154503087019827,-6.6975637663499725,-0.3549406618998512
18.7,-7.17202360306349,-6.681003818349419,-0.30826200710248564
18.71,-7.215042563119487,-6.635812913976732,-0.2798999720057336
18.72,-7.2668752562392145,-6.577975203395774,-0.3019619169042927
18.73,-7.318367179440641,-6.519729743999322,-0.3219871303559388
18.74,-7.355009470224647,-6.47939948493743,-0.30139468583262696
18.75,-7.3582681907521925,-6.4762970072895,-0.28941338255069177
18.76,-7.299927929582326,-6.542092307176244,-0.2800621137392565
18.77,-7.190428493664701,-6.662522751839876,-0.2668303019531156
18.78,-7.076814498806995,-6.782682351963557,-0.2802868177193073
18.79,-7.025982565801337,-6.836062366584082,-0.2717460121002052
18.8,-7.075823649537298,-6.785849976524267,-0.22592168290437042
18.81,-7.18114327871345,-6.6746215499972825,-0.21107511376829863
18.82,-7.272082928805452,-6.575166438540065,-0.226358556816698
18.83,-7.304634599088707,-6.5381114338925785,-0.25590086157444547
18.84,-7.2955428162022375,-6.548628769284674,-0.24592180723458115
18.85,-7.279448564499791,-6.568872199013726,-0.16550014431739377
18.86,-7.247449543985553,-6.605213089810343,-0.12328007531841845
18.87,-7.195675250682188,-6.661101387326324,-0.1433983214546256
18.88,-7.14171931387122,-6.7179741979109515,-0.18288610468147978
18.89,-7.123920923628707,-6.736540553232101,-0.19789639791030478
18.9,-7.1632583866584385,-6.695381307051332,-0.1674394559774157
18.91,-7.225641213534621,-6.628780980677004,-0.13301964480032727
