time,seconds_elapsed,z,y,x
1789317609079036400,0.065036376953125,8.72028275026977,4.331879741768539,-1.1669905001051724
1789317609089069300,0.0750693359375,8.723030587673186,4.3249654323354365,-1.1720916957017034
1789317609099103500,0.085103515625,8.725687239661813,4.316069885957241,-1.185033229535073
1789317609109136400,0.095136474609375,8.727209919184446,4.310417267023027,-1.1943576688498259
1789317609119170300,0.10517041015625,8.72902895130515,4.307279261258245,-1.1923861495811492
1789317609129204200,0.115204345703125,8.732131593495607,4.303741734781861,-1.1824016389224679
1789317609139237400,0.1252373046875,8.73652661358416,4.297899730755389,-1.1711284766927361
1789317609149271600,0.135271484375,8.742429700148104,4.2880356316059824,-1.1632125890016556
1789317609159304400,0.145304443359375,8.749681278711558,4.27364236459434,-1.1616568839922548
1789317609169338400,0.15533837890625,8.757604472926259,4.255777329818904,-1.1675229995466767
1789317609179372300,0.165372314453125,8.765017964053154,4.236900779913365,-1.1804739587955175
1789317609189405400,0.175405517578125,8.771282285144924,4.218979923297464,-1.1980015783101319
1789317609199439400,0.185439453125,8.776385745763779,4.202845657837391,-1.2171809836197645
1789317609209472500,0.195472412109375,8.781446536284685,4.186324438886344,-1.2374446770347654
1789317609219506200,0.205506103515625,8.789205479848384,4.164312513564527,-1.256486208243668
1789317609229540400,0.215540283203125,8.800593135303258,4.135041703155636,-1.2733338826701044
1789317609239573500,0.225573486328125,8.816078289204835,4.0973821268469095,-1.2878716727189718
1789317609249607400,0.235607421875,8.835849742123484,4.0505584163516755,-1.3004327558673918
1789317609259640600,0.245640625,8.856272352427244,4.000839861197769,-1.3153348491840064
1789317609269674200,0.25567431640625,8.87421951252818,3.9528333706587553,-1.3392982008345424
1789317609279708400,0.26570849609375,8.890806490191817,3.906000892335176,-1.3664185552112758
1789317609289741300,0.2757412109375,8.909006748270988,3.858701673282683,-1.3821718585297464
1789317609299775500,0.285775390625,8.929356293338536,3.811322666992247,-1.3823176967412232
1789317609309808400,0.295808349609375,8.94969590153396,3.7674958002254364,-1.3708767036639153
1789317609319842300,0.30584228515625,8.967647153288125,3.729058809803426,-1.3586043743290006
1789317609329876500,0.31587646484375,8.982997867155074,3.6958380927249785,-1.3479270591005683
1789317609339909400,0.325909423828125,8.995195085427165,3.6679999454677104,-1.3426212077774107
1789317609349943300,0.335943359375,9.003218817406893,3.645103638526797,-1.3511658948913217
1789317609359976200,0.34597607421875,9.007170185381174,3.6281709161654114,-1.3702708467252551
1789317609370010400,0.35601025390625,9.002899668455123,3.622048049370944,-1.4138408161215483
1789317609380044500,0.36604443359375,8.989315964260697,3.625939211590588,-1.4883356467440723
1789317609390077400,0.376077392578125,8.968556669348478,3.636214814150333,-1.5853458221659062
1789317609400111400,0.386111328125,8.94263078545332,3.649164019833505,-1.6980417886279522
1789317609410144300,0.396144287109375,8.91271670870483,3.6619510206922885,-1.8231788651205598
1789317609420178400,0.406178466796875,8.88113908265829,3.6710625479087233,-1.954239048051834
1789317609430212400,0.41621240234375,8.848078524577618,3.6744919378355143,-2.092845116318017
1789317609440245500,0.42624560546875,8.812491662889718,3.6753918092846867,-2.2364868406638503
1789317609450279400,0.436279541015625,8.76797213768363,3.6860379987224934,-2.388758738449961
1789317609460312300,0.446312255859375,8.710222544026374,3.716972942951321,-2.546865333738923
1789317609470346500,0.456346435546875,8.645750948637723,3.7681115940362213,-2.6875094837039706
1789317609480380400,0.46638037109375,8.587925951656699,3.819858147886395,-2.797605350670218
1789317609490413300,0.476413330078125,8.549080380433796,3.8402155839994547,-2.8872742234185336
1789317609500447200,0.486447265625,8.529199621921776,3.819916015553474,-2.9717627709195016
1789317609510480400,0.49648046875,8.523575936821103,3.7713875469669698,-3.0488810819134113
1789317609520514600,0.5065146484375,8.53402660368681,3.7143341188803314,-3.0894167981803413
1789317609530548200,0.51654833984375,8.563281924265622,3.669547174909711,-3.0618647743880745
1789317609540582000,0.526581787109375,8.606787888514996,3.650257075767219,-2.9612858005687595
1789317609550616000,0.536615966796875,8.655517724892496,3.659938511826098,-2.8030776446014642
1789317609560649000,0.54664892578125,8.68440128954947,3.690705113750696,-2.6702532284766436
1789317609570683000,0.556682861328125,8.691241364702583,3.7346941853418945,-2.585492878296971
1789317609580717000,0.566717041015625,8.68850112608373,3.7735517392635343,-2.5378414848059414
1789317609590750000,0.57675,8.672586933115124,3.824434954282641,-2.516012514835596
1789317609600784100,0.5867841796875,8.642106454655528,3.890955006633699,-2.5188988839268682
1789317609610817000,0.596817138671875,8.60931653020978,3.9611221833154557,-2.521818278504908
1789317609620851000,0.606850830078125,8.587504511374235,4.019594830550253,-2.503599023464322
1789317609630884900,0.616884765625,8.584291979068517,4.0625712179675695,-2.4445514989510175
1789317609640918000,0.62691796875,8.601610193616152,4.099161411479115,-2.3193889957562086
1789317609650952200,0.6369521484375,8.633118846079707,4.1429739574596285,-2.115515651679039
1789317609660985000,0.646985107421875,8.663620367327333,4.206218641401827,-1.8492668077096341
1789317609671019000,0.65701904296875,8.672755859941244,4.301858697514236,-1.5645147771917283
1789317609681053000,0.667052978515625,8.644391350722312,4.444192115740478,-1.3015538688518107
1789317609691086000,0.677086181640625,8.588228149473666,4.61755897013396,-1.0444478240199386
1789317609701120000,0.6871201171875,8.529253397935628,4.787234861055016,-0.7103579082287848
1789317609711153200,0.697153076171875,8.467380002346635,4.932223762226104,-0.38344124506786464
1789317609721187000,0.70718701171875,8.399513503822684,5.059969852173328,-0.12355072974977083
1789317609731221000,0.717220947265625,8.335431784534453,5.165328169223666,0.10174105813493951
1789317609741254100,0.727254150390625,8.28033007503748,5.245918540242314,0.2947271340274252
1789317609751288000,0.7372880859375,8.231495609241724,5.309566544288397,0.4704970857735723
1789317609761321000,0.747321044921875,8.182424996602535,5.366587239149212,0.6465651619497687
1789317609771355000,0.75735498046875,8.12631498684585,5.42657145999074,0.8280726527009159
1789317609781389000,0.76738916015625,8.05840990987718,5.497456429553032,1.0051752595566212
1789317609791422000,0.777421875,7.983546099811792,5.57927663462758,1.1423869508549571
1789317609801455900,0.787455810546875,7.91448893019855,5.659730227524042,1.2242154123011977
1789317609811489000,0.797489013671875,7.8589768863350145,5.726167570027709,1.2719582104027272
1789317609821523000,0.80752294921875,7.818799774247408,5.772789035949111,1.3083064118519425
1789317609831557000,0.81755712890625,7.790126052948832,5.802391562530398,1.3478013868942855
1789317609841590000,0.827590087890625,7.765081043541431,5.823319784268737,1.4010156752094625
1789317609851624000,0.8376240234375,7.7342217948973175,5.847350063675641,1.4699324134387075
1789317609861656800,0.84765673828125,7.684577181762457,5.886437626960873,1.57082922103554
1789317609871691000,0.85769091796875,7.606830509737134,5.948249063229561,1.710216064415872
1789317609881725200,0.86772509765625,7.501841025999188,6.031738662821054,1.8737403008393942
1789317609891758000,0.877758056640625,7.381473940387368,6.124563076990842,2.0430242698334156
1789317609901792000,0.8877919921875,7.265240593579411,6.2122279164403675,2.1897250894889235
1789317609911825000,0.897824951171875,7.165760228651761,6.2933274060249325,2.283922399447113
1789317609921859000,0.907859130859375,7.087556460508703,6.366976579603552,2.323474803765118
1789317609931893000,0.91789306640625,7.03409375039041,6.4219432645440095,2.3346412176847458
1789317609941926000,0.92792578125,6.9974652706950895,6.458504524222016,2.3438395464017985
1789317609951960000,0.9379599609375,6.964960592931509,6.48682577882111,2.3623731280885636
1789317609961993000,0.947992919921875,6.9296706683635705,6.510360383665561,2.401094342279434
1789317609972027100,0.958027099609375,6.886445274621248,6.532767445784807,2.4637781774684786
1789317609982060800,0.968060791015625,6.833905524566769,6.561537028673291,2.532657652427256
1789317609992094000,0.978093994140625,6.78063804475963,6.594371961304545,2.589904264998436
1789317610002128000,0.9881279296875,6.741387984389067,6.621064737918973,2.624037420746684
1789317610012161000,0.9981611328125,6.722591513982414,6.634034109607338,2.639459446284175
1789317610022195200,1.0081953125,6.708335025092959,6.6395742080777875,2.6617063494056463
1789317610032228900,1.018228759765625,6.674868808820843,6.651868456983566,2.7146187321648
1789317610042262000,1.028261962890625,6.614935441383719,6.676566844910383,2.7993679764285684
1789317610052296000,1.0382958984375,6.52878977432549,6.71745415109396,2.9019112360581754
1789317610062329000,1.0483291015625,6.410535150822997,6.778039260438084,3.0221845059067007
1789317610072363000,1.058363037109375,6.266548120170832,6.848707956901192,3.1616374002605676
1789317610082397000,1.06839697265625,6.109592886874079,6.918030499452352,3.3142283008679745
1789317610092430000,1.07843017578125,5.9271010612607,6.992170086896419,3.4856010588347908
1789317610102464000,1.088464111328125,5.71352143894434,7.076302076044678,3.6676971631288526
1789317610112497200,1.0984970703125,5.47362371854484,7.1684390924721955,3.850105109851062
1789317610122530800,1.10853076171875,5.206971262210607,7.265974168550968,4.032798303255438
1789317610132565000,1.11856494140625,4.904999655213952,7.370654440209269,4.2172050225794315
1789317610142598000,1.128597900390625,4.552373673518002,7.487911284846067,4.401985835912823
1789317610152632000,1.138632080078125,4.147070286862552,7.623087817054986,4.567353215984999
1789317610162665000,1.1486650390625,3.7236177877932786,7.770635755059122,4.68212467354685
1789317610172699000,1.158698974609375,3.3203155118271708,7.916658675453067,4.740508181193471
1789317610182733000,1.168733154296875,2.9452555800050497,8.039353327229618,4.781700607803463
1789317610192766000,1.178765869140625,2.5752725130558014,8.133523895311356,4.83571686015129
1789317610202800000,1.188800048828125,2.198676165446639,8.204084455224871,4.901958095560968
1789317610212833000,1.1988330078125,1.7977625381827353,8.265325398129225,4.9621384234964845
1789317610222867000,1.208866943359375,1.3024281674683094,8.322304007413983,5.02128619351387
1789317610232899800,1.21889990234375,0.7007426692739128,8.380988836094737,5.043644155794381
1789317610242934000,1.22893408203125,0.03292030935976654,8.428886897823213,5.012299753981829
1789317610252968200,1.23896826171875,-0.6481059616509824,8.452250822275877,4.930495330998301
1789317610263001000,1.2490009765625,-1.3155300794951617,8.442279463359712,4.813279987415671
1789317610273035000,1.259034912109375,-1.965684863434732,8.392517945846915,4.676760808426142
1789317610283068000,1.26906787109375,-2.59245161139369,8.300996430969239,4.532447030037641
1789317610293102000,1.27910205078125,-3.173175570102036,8.17698835850656,4.3861388629615305
1789317610303136000,1.289135986328125,-3.6832369698271155,8.032329712203145,4.2527462915599346
1789317610313169000,1.2991689453125,-4.12433939961642,7.872976185593009,4.144449290709197
1789317610323203000,1.309203125,-4.519518867142498,7.7051202035754915,4.0466622856959695
1789317610333237000,1.319237060546875,-4.8968894139945505,7.540051221928,3.9164372384145856
1789317610343270100,1.329270263671875,-5.278952794837951,7.381043147754669,3.7179634152933954
1789317610353303800,1.3393037109375,-5.676870162895321,7.218722588032484,3.440000168132782
1789317610363337000,1.3493369140625,-6.086349958452582,7.037280563732981,3.0989430436775085
1789317610373371000,1.359370849609375,-6.489383062088489,6.826570943894982,2.730616804024577
1789317610383404000,1.369404052734375,-6.865944338384271,6.585319470798969,2.3796485264077782
1789317610393438200,1.379438232421875,-7.206417817732691,6.321123175445199,2.0691466992139813
1789317610403472000,1.389471923828125,-7.510124285697937,6.041862581950426,1.806734510798007
1789317610413505000,1.399505126953125,-7.783288900405168,5.748621978420019,1.5950367567054926
1789317610423539000,1.4095390625,-8.033968127059936,5.4361161179274315,1.440276841495931
1789317610433573000,1.419572998046875,-8.258273726052046,5.116878903353214,1.3374666014932095
1789317610443606000,1.42960595703125,-8.446457041305303,4.816251696702838,1.277311992520839
1789317610453640000,1.439639892578125,-8.592197053104638,4.559968658691645,1.245462125404179
1789317610463673000,1.449673095703125,-8.696472835615277,4.365085261277854,1.2197317640811205
1789317610473707000,1.45970703125,-8.772360143509507,4.223096126444638,1.1753869378548114
1789317610483740200,1.469740234375,-8.837856990292668,4.105106875880062,1.1003598269864916
1789317610493773800,1.47977392578125,-8.905903521558642,3.9838866805702446,0.9919186684247105
1789317610503808000,1.48980810546875,-8.978338058650493,3.8472365686774253,0.8709700565978884
1789317610513841000,1.4998408203125,-9.050115008616446,3.6973558038115497,0.7716223781391978
1789317610523875000,1.509875,-9.114933225485682,3.5481583450347185,0.7063298217564821
1789317610533909000,1.519908935546875,-9.170503137016295,3.4114307839915154,0.6590943155899643
1789317610543941400,1.52994140625,-9.216477537205815,3.294052358801663,0.6132950527716428
1789317610553975300,1.539975341796875,-9.253254485461115,3.1957465906113383,0.5786881785644218
1789317610564008200,1.55000830078125,-9.2835315503031,3.112483785513043,0.5467229049071669
1789317610574042400,1.56004248046875,-9.306738238367437,3.0470304856106636,0.5201761126346885
1789317610584075300,1.5700751953125,-9.319016705182195,3.0073563546091315,0.5311738189239055
1789317610594109200,1.580109130859375,-9.322049204745888,2.990029664494097,0.5740134282190352
1789317610604143000,1.59014306640625,-9.31794235394895,2.994988748206198,0.6134907214742154
1789317610614176300,1.60017626953125,-9.306385771667957,3.0243095352366565,0.6443154833268374
1789317610624210400,1.61021044921875,-9.287945275092124,3.0678853498518466,0.7017951740015298
1789317610634243300,1.620243408203125,-9.264480812874435,3.1133062078118323,0.8044363410476595
1789317610644277200,1.63027734375,-9.243751328578591,3.144505063673854,0.914104191860184
1789317610654311200,1.640311279296875,-9.234007348677515,3.153344495950639,0.9797301449157297
1789317610664344300,1.65034423828125,-9.237446090954542,3.1408520941242575,0.9874247180063277
1789317610674378200,1.660378173828125,-9.251039732021093,3.1102769231185317,0.9564729687731712
1789317610684411400,1.670411376953125,-9.268465498596429,3.0709938372611996,0.913735796939209
1789317610694445000,1.680445068359375,-9.28252441908717,3.0387375813007353,0.8781780152153223
1789317610704479200,1.690479248046875,-9.286486308455467,3.0312942795574664,0.8618397516157478
1789317610714512400,1.700512451171875,-9.277738938376308,3.056619859471917,0.866621140673384
1789317610724546300,1.71054638671875,-9.257579362922906,3.109220399802923,0.8946419510211795
1789317610734579200,1.7205791015625,-9.22655878623724,3.179650903595984,0.9647826050221919
1789317610744613000,1.730613037109375,-9.181823572453856,3.2629724531441924,1.1033934225287287
1789317610754647300,1.740647216796875,-9.124050597921013,3.3550846273913977,1.290550390408933
1789317610764680200,1.75068017578125,-9.053030603802204,3.4493539796724915,1.5215096020713448
1789317610774714000,1.760714111328125,-8.970763239482045,3.537172548379004,1.7844300322704016
1789317610784747300,1.770747314453125,-8.890857928118109,3.600004267606139,2.040347451839596
1789317610794781200,1.78078125,-8.832975647991896,3.6131183084622025,2.257051197525859
1789317610804815400,1.7908154296875,-8.81457548342645,3.5596181889429688,2.40890253181234
1789317610814848300,1.80084814453125,-8.83343332863152,3.4490900680392977,2.4989184644326565
1789317610824882200,1.810882080078125,-8.869524632710219,3.3127102975204585,2.554966807129979
1789317610834915000,1.8209150390625,-8.899179766261577,3.1826182289689777,2.616476630103588
1789317610844949200,1.83094921875,-8.911564616060257,3.0745307792156935,2.702158479042351
1789317610854983400,1.8409833984375,-8.910451686382293,2.9874630288764834,2.8016555028438566
1789317610865016300,1.851016357421875,-8.903840743809939,2.915503415820002,2.8968589211046694
1789317610875050200,1.86105029296875,-8.897986172562836,2.8526223044931887,2.976372602802515
1789317610885083100,1.871083251953125,-8.894667257273197,2.7923274102672933,3.042732496155798
1789317610895117300,1.881117431640625,-8.896276446035504,2.729059637710452,3.0949747245684263
1789317610905151500,1.8911513671875,-8.904680701765418,2.6589357156485316,3.131629800009727
1789317610915184400,1.901184326171875,-8.917840627589822,2.5838962567552923,3.156888452167809
1789317610925218300,1.91121826171875,-8.932795035615563,2.5113822246864435,3.1730861382529136
1789317610935251200,1.921251220703125,-8.95260448245704,2.4487865061722696,3.1661820579528808
1789317610945285400,1.931285400390625,-8.980757394751906,2.4018084818981587,3.122133365128934
1789317610955319000,1.941319091796875,-9.012556554594635,2.3718581647925077,3.0526153000056744
1789317610965352200,1.951352294921875,-9.039788844913243,2.3534335964381694,2.98562295396775
1789317610975386000,1.96138623046875,-9.065070001164079,2.3252822915785014,2.9305186141222714
1789317610985419300,1.971419189453125,-9.093406453332305,2.2666991697065533,2.888332500299811
1789317610995453400,1.981453369140625,-9.118607530084251,2.184685195625573,2.8720281389698386
1789317611005487000,1.991487060546875,-9.135423640328645,2.100554960042983,2.881340741716325
1789317611015520300,2.001520263671875,-9.13873554135561,2.0328946516156194,2.919108454574644
1789317611025554200,2.01155419921875,-9.135132548427581,1.9883206197433172,2.9607997706174847
1789317611035587300,2.02158740234375,-9.12847425958216,1.9636931050956248,2.9975463237345217
1789317611045621200,2.031621337890625,-9.124026048001646,1.952156542689353,3.0185408887073395
1789317611055655200,2.0416552734375,-9.128824972715973,1.9420311622552573,3.0105609958693385
1789317611065688000,2.05168798828125,-9.140895349738,1.9294985745489597,2.981849572908878
1789317611075722200,2.06172216796875,-9.160876061493157,1.9132238777048884,2.930581157964468
1789317611085755400,2.07175537109375,-9.191454155108332,1.8781003957450388,2.8566213110014793
1789317611095789300,2.081789306640625,-9.228620394942164,1.8069272568911312,2.781715415360033
1789317611105823200,2.0918232421875,-9.268414060670137,1.7003098796904086,2.715849443003535
1789317611115856100,2.101856201171875,-9.30859994058609,1.5801120131656528,2.6501991592243312
1789317611125890300,2.111890380859375,-9.34655294688344,1.4678409941174089,2.5802690061688422
1789317611135923200,2.121923095703125,-9.38000922628343,1.37248092399016,2.5103975975632666
1789317611145957000,2.13195703125,-9.405488535454868,1.3035560024544597,2.4511039893344044
1789317611155991300,2.1419912109375,-9.421573408815265,1.266172904999554,2.4085519648090004
1789317611166024200,2.152024169921875,-9.433016009327769,1.2460120143719018,2.3740289329603312
1789317611176058400,2.162058349609375,-9.445274017876386,1.2234379981879144,2.336741550964862
1789317611186091300,2.17209130859375,-9.461966794002056,1.1867938825320452,2.2876026953950523
1789317611196125200,2.182125244140625,-9.479652088296413,1.1400945290688425,2.237579750467092
1789317611206159400,2.192159423828125,-9.49715033558607,1.0895410574607551,2.188015655222535
1789317611216192300,2.202192138671875,-9.510991813933849,1.0458121711757034,2.148890828666836
1789317611226226400,2.212226318359375,-9.521801377239823,1.028278268050775,2.1091116298556325
1789317611236259300,2.22225927734375,-9.528088494685292,1.0421390356209128,2.073610254494101
1789317611246293200,2.232293212890625,-9.530858543920516,1.0705255374759435,2.0462445470541715
1789317611256326100,2.242326171875,-9.532185993131995,1.0950876587372274,2.026961754435301
1789317611266360300,2.2523603515625,-9.533529224434494,1.1090026407126337,2.0130371278487145
1789317611276394200,2.262394287109375,-9.53555050112903,1.116275188998878,1.999385180723667
1789317611286427100,2.27242724609375,-9.537114681705832,1.1290304795451462,1.9847319476015866
1789317611296461300,2.28246142578125,-9.535984800893068,1.1545992936309426,1.9754288433358071
1789317611306495200,2.2924951171875,-9.53206382805705,1.1810398490499705,1.9787102030940353
1789317611316528400,2.3025283203125,-9.526633035179971,1.191230622870475,1.9986659265384077
1789317611326562000,2.31256201171875,-9.519425880280137,1.1841967787109315,2.0368067104928196
1789317611336595200,2.32259521484375,-9.512301142966747,1.1637241917856036,2.0814115758948026
1789317611346629000,2.332629150390625,-9.504840890088676,1.1463027360592037,2.124704335784912
1789317611356662300,2.342662353515625,-9.499633384573459,1.1432239862009883,2.149513929001242
1789317611366696400,2.352696533203125,-9.498389521992205,1.1543649003531784,2.149057563535869
1789317611376730000,2.362730224609375,-9.499360412850976,1.1814023987520486,2.1299821300573645
1789317611386763300,2.37276318359375,-9.50119814967215,1.220237594711408,2.099680807556957
1789317611396797200,2.382797119140625,-9.503034717449545,1.2593043344043195,2.068070740545541
1789317611406830300,2.392830322265625,-9.503052253106237,1.29407184253335,2.046405436704308
1789317611416864300,2.4028642578125,-9.499870700460672,1.3275246148020028,2.0397376493781803
1789317611426898200,2.412898193359375,-9.494518233516812,1.3673274867497385,2.0383573009356857
1789317611436931000,2.42293115234375,-9.485223166427016,1.429913268391788,2.0387066988952456
1789317611446965200,2.43296533203125,-9.476103455904125,1.5056917090840636,2.026505827361345
1789317611456998400,2.442998291015625,-9.472547809249162,1.5684712597325443,1.9952629862271247
1789317611467032300,2.4530322265625,-9.473772967129944,1.606243648765981,1.9590715827748177
1789317611477066200,2.463066162109375,-9.478225854885578,1.6190416094101965,1.9267267717480658
1789317611487099100,2.47309912109375,-9.47997299081385,1.6261441348917782,1.912097065632045
1789317611497133300,2.48313330078125,-9.474485499313474,1.6480707200177014,1.9205210489757358
1789317611507166200,2.493166259765625,-9.463790502297877,1.683333610448241,1.9425449569962918
1789317611517200100,2.5032001953125,-9.452804997903108,1.7221785971492527,1.961881671759486
1789317611527234300,2.513234375,-9.444750286263227,1.7681725788220761,1.9597507972106336
1789317611537267200,2.52326708984375,-9.43887058057487,1.8331917250908911,1.9280913380995393
1789317611547302000,2.533302001953125,-9.434124262830615,1.9189517538323997,1.866910308688879
1789317611557334800,2.543334716796875,-9.434106727173925,2.0028493497028945,1.776689501146227
1789317611567368700,2.55336865234375,-9.439216033011673,2.0688341261334715,1.6707770573444662
1789317611577403000,2.56340283203125,-9.443754260963201,2.129672041194886,1.5653670101068913
1789317611587435800,2.573435791015625,-9.439546872401237,2.213328521785885,1.4718981605537236
1789317611597469700,2.5834697265625,-9.424441073206067,2.3308413870103655,1.3847336718417704
1789317611607502600,2.593502685546875,-9.403273782014846,2.467883566960692,1.2877832637831568
1789317611617536800,2.603536865234375,-9.378336909157037,2.6125518578752875,1.1797496631089597
1789317611627571000,2.613571044921875,-9.351305694368481,2.749932037608325,1.077642895200476
1789317611637603800,2.623603759765625,-9.330612450429797,2.8496614088609813,0.9947221815381199
1789317611647637800,2.6336376953125,-9.324043008911609,2.8881065825894474,0.9441599421016872
1789317611657670700,2.643670654296875,-9.331542424756288,2.8699644844383,0.9251939603470265
1789317611667704800,2.653704833984375,-9.343051660764218,2.8278853381216527,0.9385386681538075
1789317611677738800,2.66373876953125,-9.349857249125838,2.795595472152531,0.9670651630014181
1789317611687772000,2.67377197265625,-9.34895650089383,2.7896085066974163,0.99271003799811
1789317611697805600,2.6838056640625,-9.34425636037886,2.8013164801478383,1.0039475443925707
1789317611707838700,2.693838623046875,-9.34398046604693,2.8025989211738107,1.0029097988426685
1789317611717873000,2.703872802734375,-9.352319255325197,2.7767788357406853,0.9969934144057333
1789317611727906800,2.71390673828125,-9.37042365181446,2.721840500111878,0.9783147982250898
1789317611737939700,2.723939697265625,-9.388505251950026,2.666544729347527,0.9570253419589251
1789317611747973600,2.7339736328125,-9.392392322516441,2.6563918763846157,0.9470418542135506
1789317611758006800,2.7440068359375,-9.384191480404137,2.6850904398635027,0.9474057190898806
1789317611768040700,2.754040771484375,-9.379137119624017,2.705015914300084,0.9407890043638646
1789317611778074600,2.76407470703125,-9.38500688844025,2.691289002242684,0.9214080851327627
1789317611788107500,2.774107421875,-9.398760103982687,2.655951146879792,0.88294048037678
1789317611798141700,2.7841416015625,-9.414222461530565,2.616679459199309,0.834157452507317
1789317611808174800,2.7941748046875,-9.426361227613686,2.586325237467885,0.7906066992681473
1789317611818208800,2.804208740234375,-9.436525478753447,2.5616177894517778,0.7486389043714851
1789317611828242700,2.81424267578125,-9.444363917294144,2.5444696707740424,0.7071388731170445
1789317611838275600,2.824275634765625,-9.448151034617423,2.5395187703683972,0.673589873932302
1789317611848309800,2.834309814453125,-9.449216033500432,2.5415844707265496,0.6504339662071317
1789317611858342700,2.8443427734375,-9.447014724063873,2.5547686542093753,0.6304802885893732
1789317611868376800,2.854376953125,-9.443294242236018,2.576911804695427,0.5950574583567678
1789317611878410800,2.86441064453125,-9.437019399750232,2.611228792577982,0.542711367710866
1789317611888443600,2.874443603515625,-9.432204692944884,2.6427184480801222,0.46899259949475525
1789317611898477800,2.884477783203125,-9.431362981423735,2.6602751475587487,0.37777331896666433
1789317611908510700,2.8945107421875,-9.4313536290735,2.672559459592402,0.27814108794555065
1789317611918545000,2.904544921875,-9.431603804442286,2.6796821510791777,0.18600503963241352
1789317611928578800,2.914578857421875,-9.432308737841248,2.680750072571635,0.12465705615701153
1789317611938611700,2.92461181640625,-9.433115962570906,2.67845611641556,0.1122586618901696
1789317611948646000,2.93464599609375,-9.433683533325791,2.6741175026893615,0.15859335589259863
1789317611958678800,2.9446787109375,-9.43364963105619,2.666471664111316,0.2580571167453192
1789317611968712700,2.954712646484375,-9.429419446140527,2.665072903229296,0.39223534036558116
1789317611978746600,2.96474658203125,-9.420991225013136,2.668196588207781,0.5441226958135142
1789317611988779800,2.97477978515625,-9.414561484226583,2.654944307924807,0.6983589890077709
1789317611998814000,2.98481396484375,-9.416585099008678,2.6052713454782963,0.8431542673029006
1789317612008846800,2.994846923828125,-9.431274718618392,2.508723819132149,0.9631728317379951
1789317612018880800,3.004880859375,-9.456446569275855,2.3731894133962688,1.0554629929006099
1789317612028914700,3.014914794921875,-9.482233921483159,2.229788219808042,1.1338837647952138
1789317612038947800,3.02494775390625,-9.505835161823034,2.0839463550694286,1.211035831928253
1789317612048981800,3.034981689453125,-9.528504089748859,1.9204165656879544,1.2999955334939062
1789317612059015000,3.045014892578125,-9.546118656894564,1.7308182690702378,1.4304817159295082
1789317612069048600,3.055048583984375,-9.547537291520833,1.538387671636045,1.6273513187244533
1789317612079082800,3.065082763671875,-9.524554475340247,1.3794094080790877,1.884275284987688
1789317612089116000,3.075115966796875,-9.481972055676579,1.2567965893670916,2.16403184530586
1789317612099149800,3.08514990234375,-9.425849186438322,1.1504770991344004,2.4495263647541403
1789317612109182700,3.0951826171875,-9.364373265734315,1.0499548239383847,2.715974238426983
1789317612119216600,3.105216552734375,-9.301777985611558,0.9557085602719336,2.95531666303128
1789317612129250800,3.115250732421875,-9.234141204190253,0.8687912512540816,3.18530849096626
1789317612139283700,3.12528369140625,-9.15844678851962,0.8005017780777066,3.4135730567172167
1789317612149317600,3.135317626953125,-9.084278559502959,0.7691745465956628,3.6131194775059816
1789317612159350500,3.1453505859375,-9.017962797552347,0.7728541118912399,3.774840902291238
1789317612169384700,3.155384765625,-8.946924683254956,0.7938900317877531,3.9360678215578195
1789317612179419000,3.1654189453125,-8.861846353167294,0.8346027120567858,4.116009962688386
1789317612189451800,3.17545166015625,-8.789201388195156,0.9261092485610395,4.250018620161712
1789317612199485700,3.185485595703125,-8.700649829038976,1.152160595241934,4.3751171182096
1789317612209518600,3.1955185546875,-8.611445358932018,1.3877018739975988,4.481930894765258
1789317612219552800,3.205552734375,-8.509858961635828,1.6476843510486185,4.586699429228902
1789317612229585700,3.215585693359375,-8.398101883459091,1.9197144087679683,4.6858223590210075
1789317612239619800,3.225619873046875,-8.278646651995182,2.2103110736608502,4.769581130942702
1789317612249653800,3.23565380859375,-8.136600234016775,2.5272785897374153,4.85582324411273
1789317612259686700,3.245686767578125,-7.95229229889214,2.866134404756129,4.9715872198432685
1789317612269720800,3.255720947265625,-7.73770379179418,3.209738875606656,5.098623115694522
1789317612279753700,3.265753662109375,-7.515877150136232,3.525944467400014,5.220124758294224
1789317612289787600,3.27578759765625,-7.427482827368379,3.720976333373785,5.2112610683590175
1789317612299821800,3.28582177734375,-7.544353303036093,3.7015193532317876,5.0548856807768345
1789317612309854700,3.295854736328125,-7.594736751839518,3.647253510037064,5.018756967297196
1789317612319889000,3.305888916015625,-7.572060225129127,3.5785298101618883,5.101809929037094
1789317612329921800,3.315921875,-7.5088371684968465,3.57856371243149,5.194384752359986
1789317612339955700,3.325955810546875,-7.404618084609508,3.6949993038132787,5.262036731350421
1789317612349989600,3.33598974609375,-7.27169546880722,3.8896252193346617,5.306942041003704
1789317612360022800,3.346022705078125,-7.155027237713337,4.105140485888719,5.303185318818688
1789317612370057000,3.356056884765625,-7.077581594461202,4.306835316883027,5.246845007437467
1789317612380089900,3.36608984375,-7.050173947575688,4.473472278499603,5.143291109460592
1789317612390123800,3.376123779296875,-7.063602168947458,4.590435108625889,5.02033634544313
1789317612400157700,3.38615771484375,-7.097136774280667,4.61651442951709,4.948616094100475
1789317612410190800,3.39619091796875,-7.14845604262948,4.5464071663290255,4.939650697356462
1789317612420224800,3.406224853515625,-7.191847440588474,4.413027162148058,4.997295661595463
1789317612430258000,3.4162578125,-7.1919935710608955,4.254609747344255,5.13262826114893
1789317612440291600,3.42629150390625,-7.127510285234451,4.115723254701495,5.33195782431662
1789317612450325800,3.43632568359375,-6.998641328737139,4.025179644945264,5.566625827369093
1789317612460359000,3.44635888671875,-6.802949245288968,4.006213955451548,5.817258876794576
1789317612470392800,3.456392822265625,-6.557836420589685,4.05545495622158,6.05957184164226
1789317612480425700,3.46642578125,-6.283931801170111,4.144422110441327,6.2854118105947965
1789317612490459600,3.476459716796875,-6.013809038376808,4.232260552892089,6.487871488481759
1789317612500493800,3.486493896484375,-5.773634254601597,4.279492259666323,6.672438366803527
1789317612510526700,3.496526611328125,-5.559623839652538,4.246445437850058,6.872311535328627
1789317612520560600,3.506560546875,-5.352704844269156,4.092605413964391,7.125272150918841
1789317612530593500,3.516593505859375,-5.109543738159537,3.799731597919762,7.4582158192843195
1789317612540627700,3.526627685546875,-4.78946598110795,3.3832889776125548,7.86032830094397
1789317612550662000,3.536661865234375,-4.384970403704047,2.89048850928992,8.281755723926425
1789317612560694800,3.54669482421875,-3.9528576283171772,2.369216418112069,8.656333717450499
1789317612570728700,3.556728759765625,-3.5175264754056927,1.8345780648827552,8.968371375909447
1789317612580761600,3.56676171875,-3.031232027976215,1.3001508701860904,9.235344150239229
1789317612590795800,3.576795654296875,-2.4835586904764173,0.7759856879152357,9.455164712771772
1789317612600830000,3.586829833984375,-1.8735174518689512,0.26108203579075634,9.62248059656322
1789317612610862800,3.59686279296875,-1.2374946536563336,-0.24985729754632338,9.725047237068415
1789317612620896800,3.606896728515625,-0.5373475391227752,-0.7703549885518849,9.761565826648473
1789317612630929700,3.6169296875,0.22907739823749287,-1.30322896245718,9.716969729074835
1789317612640963800,3.6269638671875,0.9888000980127603,-1.8216726983413098,9.585101006239652
1789317612650997800,3.636997802734375,1.449718477449566,-2.2724007423490287,9.428939553669094
1789317612661030700,3.64703076171875,1.4530148886464536,-2.615113232795894,9.339181541332602
1789317612671064800,3.65706494140625,1.4277929152369497,-2.8717162965416905,9.267418035370111
1789317612681097700,3.66709765625,1.4815563618674874,-3.065227236558497,9.196724788987636
1789317612691132000,3.6771318359375,1.5487746256157755,-3.2211624791577456,9.132129274958372
1789317612701165600,3.68716552734375,1.6809733110576868,-3.373057214194536,9.053573624637723
1789317612711198700,3.69719873046875,1.8648077834516763,-3.5409853846654293,8.952893820792436
1789317612721232600,3.707232666015625,2.053810013872385,-3.732068805274367,8.83311534872353
1789317612731265800,3.717265869140625,2.2457081118650732,-3.941031581445038,8.69456495616734
1789317612741300000,3.727300048828125,2.4709084677398203,-4.147510431845486,8.535991766279935
1789317612751333600,3.737333740234375,2.741073608370125,-4.321810475435853,8.365336508932709
1789317612761366800,3.74736669921875,3.0546283933937546,-4.444460995809734,8.190629345846176
1789317612771400700,3.757400634765625,3.3614877724319694,-4.502753318041563,8.037163708230853
1789317612781433900,3.767433837890625,3.6191567118436097,-4.4952682229831815,7.928723207256198
1789317612791467800,3.7774677734375,3.825395908269286,-4.4274227672472595,7.869857761311531
1789317612801501700,3.787501708984375,3.9983386920318007,-4.315573334611952,7.84598705638051
1789317612811534600,3.79753466796875,4.204515636876225,-4.169487285853922,7.817147915387153
1789317612821568800,3.80756884765625,4.450934867998957,-3.985920524485409,7.776374590972066
1789317612831602000,3.817601806640625,4.651609416034818,-3.7667853138685223,7.768155628681183
1789317612841635600,3.827635498046875,4.773914776232838,-3.5216561225563288,7.808844781944155
1789317612851669800,3.837669677734375,4.878900460578501,-3.2554268600702283,7.859319416162371
1789317612861702700,3.84770263671875,5.0138803011715405,-2.978720334972441,7.8840733336687085
1789317612871736800,3.85773681640625,5.163610259389877,-2.710896204510331,7.88406982653737
1789317612881769700,3.867769775390625,5.320902761816978,-2.464799044948816,7.860224840569495
1789317612891803600,3.8778037109375,5.454965195304155,-2.2446792072087525,7.834229398569464
1789317612901837800,3.887837890625,5.535736768108606,-2.0468284844219684,7.831762716194987
1789317612911870700,3.89787060546875,5.580230574351549,-1.8650196726366877,7.8455790601015085
1789317612921905000,3.90790478515625,5.617433054542541,-1.6978446586206555,7.856980744081735
1789317612931937800,3.917937744140625,5.6807309299767015,-1.5506072478704154,7.841893649587035
1789317612941971700,3.9279716796875,5.792996542197465,-1.4279405070140958,7.782837064984441
1789317612952006000,3.938005859375,5.90371317141056,-1.325052233339101,7.7175640900850295
1789317612962038800,3.948038818359375,5.949616844451427,-1.2353947587676346,7.697157846394181
1789317612972073000,3.958072998046875,5.921892386701702,-1.156746023336053,7.730685437464714
1789317612982105900,3.96810595703125,5.8442667107075446,-1.100365818335861,7.797700287595391
1789317612992139800,3.978139892578125,5.7325669156759975,-1.0742851092051715,7.883779319158196
1789317613002173700,3.988173583984375,5.602694919615984,-1.0808377457190304,7.975712337446212
1789317613012206800,3.998206787109375,5.489464846277237,-1.1146554788425564,8.049454450005292
1789317613022240500,4.008240478515625,5.424941228440404,-1.1601081201802939,8.086688494378327
1789317613032273700,4.018273681640625,5.415845483314991,-1.2008975189473479,8.086831117719411
1789317613042307800,4.028307861328125,5.454969871479273,-1.2255510448191314,8.056780847370623
1789317613052341800,4.038341796875,5.5419058121323586,-1.2298710269100963,7.99656690942645
1789317613062375000,4.048375,5.676007408586144,-1.2167870158661156,7.90397045879364
1789317613072408600,4.05840869140625,5.850180903187394,-1.1869763264268636,7.78054340108931
1789317613082441700,4.068441650390625,6.064411682888865,-1.1379368395783007,7.622230907964706
1789317613092475600,4.0784755859375,6.301778423506021,-1.0695512856163083,7.437340204516053
1789317613102509800,4.088509765625,6.518164919936656,-0.9846085646070539,7.260471479481458
1789317613112543000,4.09854296875,6.673433807581663,-0.9001223551936447,7.129196046364307
1789317613122576600,4.10857666015625,6.756081695652008,-0.8558239253923297,7.05643709962368
1789317613132609800,4.11860986328125,6.777335496082902,-0.8799960244227201,7.033045118120312
1789317613142643700,4.128643798828125,6.750747933408618,-0.9741059483584016,7.0461980296820395
1789317613152676900,4.1386767578125,6.677154873931408,-1.120009845482558,7.094474277073145
1789317613162710800,4.148710693359375,6.521388558158278,-1.3133483515419064,7.205344635543227
1789317613172744700,4.15874462890625,6.264937762364744,-1.5434455395475029,7.38503309417367
1789317613182777600,4.168777587890625,5.921029632392525,-1.7892672431685028,7.609882883045077
1789317613192811800,4.178811767578125,5.5465679587244985,-2.0243452883265913,7.829942515030503
1789317613202845700,4.188845703125,5.190791111782193,-2.236571011815965,8.013976309388875
1789317613212878600,4.198878662109375,4.843526072597504,-2.4213800283305345,8.176035587826371
1789317613222912800,4.208912841796875,4.489243848127127,-2.5806729107946156,8.328097203862667
1789317613232945700,4.218945556640625,4.125091094766557,-2.738066827769577,8.465045421919227
1789317613242979800,4.228979736328125,3.7886481861084698,-2.924527264752984,8.559419988140464
1789317613253012700,4.2390126953125,3.5173838520646092,-3.1245164608731866,8.604405377292633
1789317613263046700,4.249046630859375,3.3262013549953697,-3.307183643053472,8.612159644681215
1789317613273080800,4.259080810546875,3.2158997363239523,-3.4563574286937713,8.595460438814758
1789317613283113700,4.26911376953125,3.1709047025606036,-3.5488799373075364,8.574450384011865
1789317613293148000,4.27914794921875,3.1532723074972626,-3.5693197910070418,8.572468270283936
1789317613303181600,4.289181640625,3.11525938770622,-3.5339228989332914,8.600985339716077
1789317613313214700,4.299214599609375,3.0555358636274934,-3.4766681030556557,8.64562702999711
1789317613323249000,4.309248779296875,2.961357112239301,-3.4418171544268725,8.692218100780249
1789317613333281800,4.31928173828125,2.8436013781696556,-3.4254847360461946,8.73786984488666
1789317613343315700,4.329315673828125,2.710875453983247,-3.395566275383532,8.791569286370278
1789317613353349600,4.339349609375,2.5610978572309016,-3.3417204111665484,8.856866811189056
1789317613363382800,4.3493828125,2.4268270416900513,-3.264303117226064,8.923295970386267
1789317613373416700,4.359416748046875,2.354239359863102,-3.1679630961507557,8.977302285861969
1789317613383449900,4.369449951171875,2.361638091812283,-3.060228989879787,9.012661768534779
1789317613393483500,4.3794833984375,2.480720544441044,-2.9433456547304986,9.019597120755911
1789317613403516700,4.3895166015625,2.687214300149679,-2.819521998924017,8.999975305441021
1789317613413550800,4.39955078125,2.929820110464096,-2.707198226775229,8.958660713756084
1789317613423584800,4.409584716796875,3.1586192214831708,-2.620206464281678,8.906627744179964
1789317613433618000,4.419617919921875,3.3466721883550283,-2.571182613393664,8.852072562649846
1789317613443651600,4.429651611328125,3.5286259615689515,-2.5587498328000304,8.78475785278976
1789317613453685800,4.439685791015625,3.7179903033003208,-2.566511406712234,8.704019597733021
1789317613463718700,4.44971875,3.8727021415844556,-2.574633046108484,8.633876970970631
1789317613473752800,4.4597529296875,3.9913787898913022,-2.569413557894528,8.581223823669552
1789317613483786000,4.469785888671875,4.053784100399911,-2.5764134997844694,8.549813370883465
1789317613493819600,4.479819580078125,4.066746165564656,-2.6218051316499706,8.529835581737757
1789317613503853800,4.489853759765625,4.051071918831766,-2.7300790438860654,8.503286012986301
1789317613513886700,4.49988671875,4.063871194650233,-2.9579803292825817,8.420551615676283
1789317613523921000,4.5099208984375,3.87800054025352,-3.326630101801455,8.370486731302737
1789317613533953800,4.519953857421875,3.7970615019276734,-3.8585771701201796,8.177046226173639
1789317613543987500,4.529987548828125,3.75708195823878,-4.3964097893461584,7.919992788311839
1789317613554021600,4.540021728515625,3.764394619339704,-4.8141357274621726,7.669668950966
1789317613564054500,4.550054443359375,4.020547016708552,-4.9807010851472615,7.42954969677031
1789317613574088400,4.56008837890625,4.485175575774908,-5.079715001606941,7.088729595941305
1789317613584121300,4.570121337890625,5.025737327703833,-5.130889893049002,6.677299250838161
1789317613594155500,4.580155517578125,5.594043411126733,-5.1481157531380655,6.1946735550493
1789317613604188400,4.5901884765625,6.183063781276345,-5.134426835003495,5.619411076617241
1789317613614222600,4.60022265625,6.726085201317072,-4.944069682842493,5.146487859675288
1789317613624256500,4.610256591796875,7.078039275100827,-4.558044120369852,5.02951100102365
1789317613634289400,4.620289306640625,7.143629060864448,-4.355820297065377,5.115250425368547
1789317613644323600,4.630323486328125,7.003829545029998,-4.3328442028865215,5.323835892659425
1789317613654356500,4.6403564453125,6.85177026708126,-4.376687728527188,5.4834518695980305
1789317613664390700,4.650390625,6.763750038322806,-4.410579476734996,5.564966954246163
1789317613674424300,4.66042431640625,6.742324972978234,-4.412866418628394,5.589100109505653
1789317613684457500,4.67045751953125,6.776251207977533,-4.388270322032272,5.567395058175921
1789317613694491400,4.680491455078125,6.837792595133185,-4.353347477211058,5.519361387369036
1789317613704524500,4.690524658203125,6.891594912469387,-4.326976772157848,5.472984836119413
1789317613714558700,4.700558837890625,6.915561478990316,-4.318580991995335,5.449335080462694
1789317613724592400,4.71059228515625,6.920111981901526,-4.3203041625261305,5.442188131317496
1789317613734625500,4.72062548828125,6.925834451201558,-4.320496762488782,5.434750674793124
1789317613744659500,4.730659423828125,6.939865314641595,-4.312922235581278,5.422855069816112
1789317613754693600,4.740693603515625,6.938989116328954,-4.297145405256748,5.436483197674155
1789317613764726500,4.7507265625,6.93166622609496,-4.272255878672003,5.465365008765459
1789317613774760400,4.760760498046875,6.925753202658891,-4.248248980140686,5.491511841934919
1789317613784793600,4.770793701171875,6.92793697643876,-4.228374066847563,5.504082569694519
1789317613794827500,4.78082763671875,6.934714507749677,-4.20410676381439,5.514127578368782
1789317613804860700,4.790860595703125,6.943172539493442,-4.181213379482925,5.520887574023008
1789317613814894300,4.800894287109375,6.951895359653234,-4.1567014540389176,5.528415046918392
1789317613824928500,4.810928466796875,6.9495946814954275,-4.133925850868225,5.548348996922374
1789317613834961400,4.82096142578125,6.941448199918866,-4.11000604609847,5.576247057673335
1789317613844995600,4.83099560546875,6.939855962291359,-4.08067006149888,5.599724963894486
1789317613855029500,4.841029541015625,6.945846727138758,-4.049278313413262,5.615063987323642
1789317613865062400,4.8510625,6.96604020486176,-4.016594479690492,5.613522603100538
1789317613875096600,4.8610966796875,6.992980818757414,-3.9863445951163765,5.6015761447191235
1789317613885129500,4.87112939453125,7.00399204211533,-3.965249200117588,5.602791950249672
1789317613895163600,4.88116357421875,7.001819374251365,-3.9485006021514533,5.617316734686494
1789317613905196500,4.891196533203125,6.9992416327178475,-3.935755686868727,5.6294601769447326
1789317613915230500,4.90123046875,6.991463984453678,-3.9290105965226885,5.643818372642993
1789317613925264600,4.9112646484375,6.987010512176155,-3.917094241018593,5.657600814279913
1789317613935297500,4.921297607421875,6.989851288560033,-3.9040237470433112,5.663123377093672
1789317613945331500,4.93133154296875,6.998738359370828,-3.896431684479117,5.657372266221046
1789317613955364400,4.9413642578125,6.996705392238497,-3.8991953039735554,5.6579836761176585
1789317613965398500,4.9513984375,6.982785003435612,-3.9007372727185485,5.67409485296309
1789317613975432400,4.961432373046875,6.976910558444261,-3.8941087944895028,5.68586186312437
1789317613985465600,4.971465576171875,6.978636067062616,-3.8841739681914444,5.690538038241863
1789317613995499500,4.98149951171875,6.983619116172194,-3.8712142411142585,5.693254311463236
1789317614005532400,4.991532470703125,7.000874786877632,-3.8582857859581705,5.6808238689571615
1789317614015566600,5.001566650390625,7.008738359859585,-3.8540859961807725,5.673975025975704
1789317614025600500,5.0116005859375,6.99882603765428,-3.8546447991073127,5.685818608504533
1789317614035633700,5.021633544921875,6.989625663110614,-3.851990485206246,5.698919497618079
1789317614045667300,5.031667236328125,6.982736488118768,-3.849962194249034,5.70872719040513
1789317614055700500,5.041700439453125,6.977572821745276,-3.8446269707009195,5.718627822172642
1789317614065734400,5.051734375,6.977517292165756,-3.8351676529601213,5.7250435344338415
1789317614075768600,5.0617685546875,6.979350352811813,-3.827538180994987,5.727914121434092
1789317614085801700,5.0718017578125,6.978336791855097,-3.821253986158967,5.733343160745501
1789317614095835400,5.08183544921875,6.976047219613194,-3.817055657686293,5.738923006704449
1789317614105868500,5.09186865234375,6.9760524803102015,-3.8097415352806445,5.743774538388848
1789317614115902500,5.10190234375,6.981324867755174,-3.79592080745995,5.746518868660926
1789317614125936400,5.111936279296875,6.985896413454413,-3.782498431307077,5.749812649509311
1789317614135969300,5.12196923828125,6.985448085165023,-3.7741616878554223,5.755832640451192
1789317614146003500,5.13200341796875,6.983606256690621,-3.7671447948306795,5.762659856122732
1789317614156036600,5.14203662109375,6.987130339163541,-3.752714118418097,5.767800726142525
1789317614166070500,5.152070556640625,6.9938500028073785,-3.734716981695592,5.7713376680970185
1789317614176104400,5.1621044921875,6.997269455862045,-3.7204286363631485,5.776418332362175
1789317614186137300,5.172137451171875,6.995621688655018,-3.7088331833764907,5.785863037055731
1789317614196171500,5.182171630859375,6.997335506835579,-3.6920474682703612,5.794520975285768
1789317614206204400,5.192204345703125,6.995398985815048,-3.675406714592874,5.80742371147871
1789317614216238600,5.202238525390625,6.989533308652043,-3.6618823393702504,5.8230082341015335
1789317614226272500,5.2122724609375,6.9827318119436494,-3.6512913872510193,5.837800729563832
1789317614236305400,5.222305419921875,6.983068496552109,-3.6373505401819943,5.846094510656595
1789317614246339600,5.232339599609375,6.98482089317739,-3.621669863708317,5.85373187366724
1789317614256372500,5.24237255859375,6.98064214618802,-3.609941139730811,5.86594721211791
1789317614266406700,5.25240673828125,6.9774062330067155,-3.5986639589130878,5.876718196979165
1789317614276440600,5.262440673828125,6.978781028491258,-3.588213292047381,5.881473282551765
1789317614286473500,5.272473388671875,6.979326971936225,-3.5816783373206853,5.8848073954105375
1789317614296507600,5.282507568359375,6.973450188857316,-3.5766909042969344,5.89479921259284
1789317614306540500,5.29254052734375,6.966191011509299,-3.5655680372580885,5.910100826621055
1789317614316574500,5.302574462890625,6.961738708275556,-3.545876371577382,5.927168865799904
1789317614326608400,5.3126083984375,6.960093863677978,-3.5247225243896243,5.941700664499401
1789317614336641500,5.3226416015625,6.961723510706424,-3.5021406902253625,5.953134497183561
1789317614346675500,5.332675537109375,6.971569197416305,-3.4734777825817464,5.958402208453417
1789317614356708600,5.34270849609375,6.984606958165765,-3.440577968020737,5.962220889958739
1789317614366742500,5.352742431640625,6.990456853237748,-3.4188518739029763,5.967859772628546
1789317614376776400,5.3627763671875,6.990889399436115,-3.403203053872287,5.976290916365385
1789317614386809600,5.3728095703125,7.000081590673327,-3.370117361350357,5.984275485378504
1789317614396843500,5.382843505859375,7.010269222688675,-3.343763315171003,5.987132628375291
1789317614406876700,5.392876708984375,7.0044117288321255,-3.330520387238264,6.001352292385697
1789317614416910300,5.402910400390625,6.987513785523176,-3.3239225964084267,6.024664194390177
1789317614426944500,5.412944580078125,6.973190076616406,-3.3181723623186348,6.044397653385997
1789317614436977400,5.422977294921875,6.9584589559525245,-3.3082918965563177,6.066749185925722
1789317614447011600,5.433011474609375,6.949262673062086,-3.283424581803381,6.090752577325701
1789317614457044500,5.44304443359375,6.954850702327489,-3.245845084993541,6.10450053217113
1789317614467078400,5.453078369140625,6.978482337805628,-3.2037419732794166,6.099771165561676
1789317614477112600,5.463112548828125,7.0031281187623735,-3.1649253358900546,6.0917836739391085
1789317614487145500,5.4731455078125,7.009560782158374,-3.136102561509609,6.099287181437015
1789317614497179400,5.483179443359375,7.007215095815062,-3.110332160437107,6.115158119785785
1789317614507213600,5.493213623046875,7.010635133391618,-3.084941698592901,6.124092536869645
1789317614517246500,5.50324658203125,7.019312945365906,-3.0580472619265318,6.127640584740043
1789317614527280600,5.51328076171875,7.024453230863809,-3.0326082847654816,6.134389474478364
1789317614537313500,5.5233134765625,7.02480569756329,-3.0039456693828104,6.148073131915926
1789317614547347000,5.533346923828125,7.023809087741374,-2.974729219509661,6.163397542297839
1789317614557380900,5.543380859375,7.025154072609543,-2.9462112732946872,6.175550921428203
1789317614567413800,5.553413818359375,7.02825554575622,-2.9194723194509744,6.18471388657093
1789317614577448000,5.563447998046875,7.032275302791595,-2.8948487503260374,6.191715289765596
1789317614587481000,5.573481201171875,7.0409157053649425,-2.8693194645330307,6.193779236558079
1789317614597514800,5.5835146484375,7.052036818838119,-2.844336706706881,6.192649355745315
1789317614607549000,5.593548828125,7.056742220050096,-2.8229379448473453,6.1970794471472495
1789317614617581800,5.603581787109375,7.055673714035749,-2.7995556079551576,6.208892050015926
1789317614627616000,5.613615966796875,7.060536936157941,-2.7745570680379865,6.214582955133914
1789317614637649000,5.62364892578125,7.065882388839126,-2.751029185195267,6.218966284784674
1789317614647682800,5.633682861328125,7.068062070965767,-2.73155291583091,6.2250704468786715
1789317614657717000,5.643717041015625,7.070097376185656,-2.7156170955523846,6.229730255383252
1789317614667750000,5.65375,7.0687260878324505,-2.703868790091574,6.236392051360011
1789317614677784000,5.6637841796875,7.059502332413196,-2.6976614598840474,6.2495151523053645
1789317614687817000,5.67381689453125,7.053347316914796,-2.691214475701749,6.259236335852742
1789317614697851000,5.683850830078125,7.050894078543782,-2.6868957357198,6.263854643303156
1789317614707883800,5.6938837890625,7.048238011077046,-2.6850965773433444,6.26761370357573
1789317614717918000,5.70391796875,7.044964103972911,-2.682121068663895,6.272566357547045
1789317614727952100,5.7139521484375,7.044312362065911,-2.68532863253355,6.271926306077837
1789317614737984800,5.72398486328125,7.040597725456952,-2.701610197509825,6.2691042343944305
1789317614748019000,5.73401904296875,7.033819025102257,-2.733249490615725,6.262996565169096
1789317614758052900,5.744052978515625,7.027283485853672,-2.772486691504717,6.253078397744893
1789317614768086000,5.7540859375,7.024294825431704,-2.8077245936244726,6.24070114673078
1789317614778119700,5.76411962890625,7.019027114161848,-2.8439602746099233,6.2302113168984645
1789317614788152800,5.77415283203125,7.007458841443062,-2.884133002783358,6.2247635728865855
1789317614798187000,5.78418701171875,6.9964464490413665,-2.9315850743100045,6.214975753843784
1789317614808220000,5.794219970703125,6.986178153005242,-2.984529605773091,6.20131313919425
1789317614818254000,5.804254150390625,6.982934641039371,-3.0358275390729306,6.180028943625092
1789317614828287700,5.814287841796875,6.97723029191792,-3.0959272029876708,6.1566124122023576
1789317614838321000,5.82432080078125,6.961980700337886,-3.1679113659635183,6.137226159209012
1789317614848354800,5.834354736328125,6.94929189915657,-3.2424516431629655,6.112628893569111
1789317614858389000,5.844388916015625,6.94257691168785,-3.314464739972353,6.081557463479042
1789317614868422100,5.854422119140625,6.9394836218476295,-3.3808275559350847,6.048467094781994
1789317614878455800,5.864455810546875,6.935200245440006,-3.4458439257249234,6.016605975618958
1789317614888489000,5.874489013671875,6.926508404940367,-3.5119206182226534,5.988345511296391
1789317614898523000,5.88452294921875,6.918863443145155,-3.5752655476689337,5.959630288943648
1789317614908557000,5.89455712890625,6.921768516936898,-3.6305695017397404,5.9227083792597055
1789317614918590000,5.90458984375,6.91984310183227,-3.6865880338206884,5.89026566081643
1789317614928623900,5.914623779296875,6.913139220279454,-3.743650521996617,5.8620794307738535
1789317614938656800,5.92465673828125,6.915059374687075,-3.7947178614109753,5.826873677358031
1789317614948691000,5.93469091796875,6.916597251778841,-3.8410277771651744,5.794615667831898
1789317614958724900,5.944724853515625,6.918167862096428,-3.882733706255257,5.7648699333876365
1789317614968757800,5.9547578125,6.9124769569784394,-3.9277272787138817,5.741167570760846
1789317614978792000,5.9647919921875,6.900687734985351,-3.971934961491823,5.724913186052441
1789317614988824800,5.974824951171875,6.8955848588883875,-4.009710565395653,5.704692235800623
1789317614998859000,5.98485888671875,6.901532953637838,-4.038013699816167,5.67747046687603
1789317615008893000,5.994892822265625,6.898942352622747,-4.068414098776877,5.658885008871555
1789317615018925800,6.00492578125,6.888835969150066,-4.09818233731389,5.649709768769145
1789317615028960000,6.0149599609375,6.88049308821857,-4.117623535364866,5.6457396960943935
1789317615038993000,6.024992919921875,6.878044526022673,-4.132697185856103,5.6377031046330925
1789317615049027000,6.035027099609375,6.8794760201305145,-4.148200167675316,5.624556038290262
1789317615059060700,6.045060791015625,6.892164236789942,-4.1545284939140075,5.604315798816084
1789317615069094000,6.055093994140625,6.908829540386796,-4.150474250087142,5.586773127862811
1789317615079128000,6.065128173828125,6.917371158760786,-4.1499551946491,5.576577897062897
1789317615089161000,6.075160888671875,6.919374315276742,-4.152703324313461,5.572045514330267
1789317615099195000,6.08519482421875,6.922887291833758,-4.1526323049038645,5.567734080871939
1789317615109228800,6.095228759765625,6.9238955920934675,-4.148140254181623,5.569829007324576
1789317615119262000,6.105261962890625,6.916482685488462,-4.145909134128689,5.580688839513063
1789317615129296000,6.1152958984375,6.904324630182981,-4.142938593885303,5.597922882908582
1789317615139329000,6.1253291015625,6.8977230399608604,-4.133503826063871,5.61301640714407
1789317615149362700,6.13536279296875,6.896603096020221,-4.121401300337911,5.623281780570745
1789317615159396900,6.14539697265625,6.901199776160716,-4.107354654806852,5.627918208199739
1789317615169430000,6.155429931640625,6.910689489039778,-4.094549826030433,5.62560350151658
1789317615179464000,6.1654638671875,6.915570246818661,-4.086261890156567,5.625632727611064
1789317615189497000,6.1754970703125,6.913293534058332,-4.07996162096858,5.632997703421116
1789317615199530800,6.18553076171875,6.9170917572975155,-4.06971290641576,5.635747878912091
1789317615209565000,6.19556494140625,6.920755540502071,-4.064188297775387,5.635237006780505
1789317615219597800,6.205597900390625,6.915911607602238,-4.066811632016301,5.639289497041702
1789317615229632000,6.215632080078125,6.910104382628202,-4.06838048876822,5.645273832148313
1789317615239665200,6.2256650390625,6.91087302891314,-4.064024631646276,5.647469880887866
1789317615249698800,6.23569873046875,6.911268750232458,-4.0571947856262325,5.651894711592793
1789317615259732000,6.24573193359375,6.905802886041998,-4.056699403324723,5.658926509925723
1789317615269766000,6.255765869140625,6.904011326450109,-4.0539436748757955,5.663086552214622
1789317615279800000,6.265800048828125,6.894111863726377,-4.057260544338822,5.672763312098383
1789317615289832700,6.275832763671875,6.882889627966285,-4.065117687579989,5.680759571549296
1789317615299867000,6.285866943359375,6.889184344196319,-4.065634112669527,5.672753375226259
1789317615309901000,6.295901123046875,6.89927319201231,-4.061161643430591,5.663689194282889
1789317615319934000,6.305933837890625,6.902500337365269,-4.0548286410167815,5.6642947589606045
1789317615329967900,6.3159677734375,6.9081000570684665,-4.043950688649714,5.665245191553235
1789317615340000800,6.326000732421875,6.912734146609902,-4.03700189242512,5.664548441460728
1789317615350035000,6.336034912109375,6.909481866815685,-4.0353421425193545,5.669696325743198
1789317615360067800,6.34606787109375,6.901191592854261,-4.034510367870331,5.680375540667772
1789317615370102000,6.35610205078125,6.89028324534893,-4.033706358011067,5.694172010830044
1789317615380136000,6.366135986328125,6.882228533709049,-4.027616808964312,5.7082063814014194
1789317615390168800,6.3761689453125,6.882217427793145,-4.018166551312804,5.714875776162743
1789317615400203000,6.386203125,6.882676861998439,-4.013048769907653,5.717917628076672
1789317615410237000,6.39623681640625,6.8835700114458795,-4.008230263710022,5.720221228843927
1789317615420270000,6.40627001953125,6.887517287766933,-4.00255426390022,5.7194443992525335
1789317615430303700,6.4163037109375,6.891989464744925,-3.9975200691252946,5.717578605380654
1789317615440337000,6.4263369140625,6.892817732262611,-3.9943396855235096,5.718802009695768
1789317615450371000,6.43637109375,6.8943865890145295,-3.990988037008047,5.719250337985158
1789317615460404000,6.446404052734375,6.894038213968277,-3.9887300289481877,5.721245311194658
1789317615470438000,6.45643798828125,6.8908858874171965,-3.988660470843315,5.725090296185016
1789317615480471800,6.466471923828125,6.8869292587459086,-3.988699633809924,5.729822585403919
1789317615490505000,6.4765048828125,6.884738470703363,-3.9857591964438557,5.734500514087081
1789317615500539000,6.486538818359375,6.881884250316023,-3.980819986476004,5.741353448721767
1789317615510572800,6.49657275390625,6.881427738720178,-3.973137030757963,5.747218541362881
1789317615520605700,6.506605712890625,6.883059139314294,-3.964064666508138,5.751527636733651
1789317615530640000,6.516639892578125,6.882966784855723,-3.957962550240755,5.755839654713869
1789317615540673000,6.526673095703125,6.880001505309343,-3.953568406935036,5.76240149744749
1789317615550708000,6.5367080078125,6.881980111905932,-3.943917366014421,5.766649218019843
1789317615560740900,6.546740966796875,6.882547098138928,-3.9350776414766906,5.772009283748269
1789317615570775000,6.556775146484375,6.881284530857205,-3.9275601054534315,5.7786319167584175
1789317615580809200,6.566809326171875,6.87769556645453,-3.9232872504398224,5.785802246779203
1789317615590842000,6.576842041015625,6.876796571788192,-3.917474764768779,5.7908069231987
1789317615600876000,6.5868759765625,6.880016118356585,-3.9091646170631047,5.792597898268699
1789317615610910000,6.596909912109375,6.878444923517107,-3.905722367654741,5.796784828564524
1789317615620943000,6.606943115234375,6.873903772956132,-3.9021170366391535,5.804594625532626
1789317615630977000,6.61697705078125,6.871026171693205,-3.8959623134016987,5.812130866256356
1789317615641010000,6.627010009765625,6.873230403739213,-3.88392087021321,5.817581532877683
1789317615651043800,6.6370439453125,6.876017988631129,-3.8709848162725566,5.822906527292728
1789317615661078000,6.647078125,6.874760682046413,-3.8607887086898085,5.831154131156206
1789317615671111200,6.657111083984375,6.870769566583633,-3.8518741653501984,5.841744498753547
1789317615681144800,6.667144775390625,6.870740925011038,-3.837576175406575,5.851179851096868
1789317615691178000,6.677177978515625,6.874101341354846,-3.82572440957129,5.854993856427073
1789317615701212000,6.6872119140625,6.872169496509432,-3.816046188382804,5.863571715158224
1789317615711245000,6.6972451171875,6.869891030183434,-3.8046281377896665,5.873651795145869
1789317615721279000,6.707279052734375,6.872247822442651,-3.78593337419182,5.882966735979914
1789317615731313000,6.71731298828125,6.875032484725117,-3.7653319001898167,5.892926404458284
1789317615741345800,6.727345703125,6.873514481377601,-3.7472064609125253,5.906235967886448
1789317615751380000,6.7373798828125,6.875582519823312,-3.7248262868002056,5.917974336475133
1789317615761413000,6.7474130859375,6.880636296081542,-3.6974987194135784,5.9292263828516
1789317615771447000,6.757447021484375,6.884322875639796,-3.671695000593364,5.940971181181073
1789317615781481000,6.76748095703125,6.8822215194463725,-3.6524738750338552,5.955237022420763
1789317615791513900,6.777513916015625,6.877323226010799,-3.6371348516046997,5.970264495682716
1789317615801548000,6.787548095703125,6.874204217207431,-3.620373686417937,5.984028817141056
1789317615811581000,6.797580810546875,6.874366714292765,-3.5995430798351764,5.996394962239265
1789317615821615000,6.807614990234375,6.8731152529269455,-3.5828155246570703,6.00783756275177
1789317615831649000,6.81764892578125,6.875250511389971,-3.571782966250181,6.011962533727288
1789317615841682000,6.827681884765625,6.880877119100093,-3.5572008986681696,6.014170272904634
1789317615851716000,6.837716064453125,6.890133023223281,-3.538063067477941,6.0148611777782435
1789317615861749000,6.8477490234375,6.892674524399638,-3.523958846540749,6.020227088725567
1789317615871783000,6.857782958984375,6.886027925992011,-3.5187174387559295,6.030889937037229
1789317615881817000,6.867817138671875,6.879114785602688,-3.5152906791776415,6.040769526016712
1789317615891850000,6.87785009765625,6.8786050825148815,-3.508087323670089,6.045535717505216
1789317615901884200,6.88788427734375,6.877593275123834,-3.5034856750935313,6.049353814488649
1789317615911917000,6.8979169921875,6.879359700274467,-3.504655595655739,6.04666735188365
1789317615921951000,6.907950927734375,6.8811033290714025,-3.5108372069001197,6.041095104709267
1789317615931985000,6.91798486328125,6.882367065396904,-3.513181431938708,6.038291737726331
1789317615942018000,6.92801806640625,6.887730638256668,-3.511867426730692,6.032936932694912
1789317615952052200,6.93805224609375,6.894658976215124,-3.5124744527131315,6.024664194390177
1789317615962086000,6.9480859375,6.8974021374434225,-3.5194530595541,6.017448271661997
1789317615972119000,6.958119140625,6.892873261842131,-3.5292318185076117,6.016910511523485
1789317615982153000,6.968153076171875,6.890505948188901,-3.533977259469032,6.0168362772434945
1789317615992186000,6.97818603515625,6.891245368379354,-3.5374899437651037,6.013924189189076
1789317616002220000,6.988219970703125,6.886416048526764,-3.546456217291951,6.014175533601641
1789317616012253000,6.9982529296875,6.882509104216099,-3.554149986664951,6.0141059754967685
1789317616022286800,7.008286865234375,6.881525353875756,-3.558034134621918,6.012935178151726
1789317616032321000,7.018321044921875,6.878457198476791,-3.56097720233649,6.014703356868028
1789317616042354200,7.028354248046875,6.874736716648936,-3.5616067324116822,6.018582828649878
1789317616052387800,7.038387939453125,6.875141790318489,-3.5590009338274595,6.01966185605824
1789317616062421000,7.0484208984375,6.874715089339017,-3.558317919999361,6.020551498374343
1789317616072455000,7.058454833984375,6.87008509145081,-3.5603339359968897,6.0246449051678175
1789317616082489000,7.068489013671875,6.87045801641643,-3.558399168542027,6.025362113526463
1789317616092522000,7.07852197265625,6.87694796295762,-3.5515991331383585,6.021969548478722
1789317616102556000,7.088555908203125,6.880606485465169,-3.5451062639877198,6.021616497257352
1789317616112588800,7.0985888671875,6.879743146634102,-3.537531444819271,6.027054304397105
1789317616122623000,7.108623046875,6.880618760424852,-3.5236461273297666,6.034184886929393
1789317616132657200,7.1186572265625,6.884292480501532,-3.5029634047850964,6.042032677820324
1789317616142690000,7.12868994140625,6.88397976129055,-3.4774995854437347,6.057078855782747
1789317616152724000,7.138723876953125,6.879163300919532,-3.4481656466707586,6.079280166196822
1789317616162756900,7.1487568359375,6.878988528874516,-3.41748409268111,6.096777828964591
1789317616172791000,7.158791015625,6.881836319521069,-3.383484500184655,6.1125073130160565
1789317616182825200,7.1688251953125,6.885358648428321,-3.3491362403810023,6.1274389246881
1789317616192857900,7.17885791015625,6.889343918672203,-3.3167019975051284,6.14058657555282
1789317616202892000,7.18889208984375,6.894345087960362,-3.28279271364063,6.153182437753677
1789317616212925000,7.198925048828125,6.900635712537169,-3.253844559314847,6.161502522331475
1789317616222959000,7.208958984375,6.908335034868121,-3.2253231059685348,6.167866796666384
1789317616232992800,7.21899267578125,6.9211272964239114,-3.1974381969600914,6.1680439067989585
1789317616243026000,7.22902587890625,6.925056452566385,-3.1812533703565595,6.172001119992137
1789317616253060000,7.23906005859375,6.92142890971899,-3.16579159733057,6.184008953171968
1789317616263093000,7.249093017578125,6.922493324080109,-3.147338825795054,6.1922308380723
1789317616273127200,7.259127197265625,6.919498233917355,-3.1287346630901096,6.204993873533606
1789317616283160800,7.269160888671875,6.919598771682381,-3.106846364147961,6.215869487813115
1789317616293194000,7.279194091796875,6.91820176436603,-3.09060425439924,6.225514683514833
1789317616303228000,7.289227783203125,6.922365898308158,-3.073011899085343,6.229593477261066
1789317616313261000,7.299260986328125,6.9272092466861,-3.056672466441989,6.232247206640243
1789317616323295200,7.309295166015625,6.930785936129093,-3.044128626689315,6.234409937632083
1789317616333329000,7.319328857421875,6.9328937220633025,-3.0295503584995864,6.239166192248463
1789317616343362000,7.329362060546875,6.937589186403155,-3.0151132523462176,6.240939047139882
1789317616353396000,7.33939599609375,6.942859235760569,-2.999364479072392,6.242667478367686
1789317616363429000,7.34942919921875,6.945399567893147,-2.986689121894538,6.245918004596233
1789317616373463000,7.359463134765625,6.943748878076672,-2.976131487523019,6.252789643931388
1789317616383497000,7.3694970703125,6.939457318362593,-2.9680779449269172,6.261375685968995
1789317616393529900,7.37952978515625,6.936893020832538,-2.960157965582609,6.2679632476657625
1789317616403564000,7.38956396484375,6.936527694651484,-2.9515736771106718,6.272414381855726
1789317616413597200,7.39959716796875,6.933180722311139,-2.942872484260797,6.280198459860682
1789317616423630800,7.409630859375,6.929425169169902,-2.93472687946707,6.2881497111260884
1789317616433665000,7.4196650390625,6.9313540914058684,-2.92680982273221,6.2897133071810005
1789317616443698000,7.429697998046875,6.940965384837985,-2.9163699695214627,6.283961027264595
1789317616453732000,7.439732177734375,6.9472057405322785,-2.90877498434782,6.280584828829765
1789317616463765000,7.449764892578125,6.9486331429868935,-2.902958699284494,6.281696589463949
1789317616473799000,7.459798828125,6.953902023300528,-2.892861083640158,6.280524038553238
1789317616483833000,7.4698330078125,6.952213339561224,-2.883181693407893,6.28684213565886
1789317616493866000,7.479865966796875,6.94789255375266,-2.874228279362619,6.295711670812964
1789317616503900200,7.489900146484375,6.94796795707643,-2.8612971938580274,6.301516557699442
1789317616513933000,7.49993310546875,6.949667746731638,-2.849656732685864,6.304914967966079
1789317616523967000,7.509967041015625,6.948774012762308,-2.8400603445619343,6.310227687421441
1789317616534001200,7.520001220703125,6.95158614757359,-2.8269007109984754,6.313039822232723
1789317616544034000,7.530033935546875,6.95805738941431,-2.8102292699217797,6.313353710487484
1789317616554067700,7.540067626953125,6.958858184403181,-2.795145974819362,6.3191638580709695
1789317616564100900,7.550100830078125,6.9592065594494334,-2.778534154975414,6.3261027174234385
1789317616574134500,7.560134521484375,6.963318670943379,-2.760180752161145,6.3296110178053375
1789317616584168700,7.570168701171875,6.967184114199877,-2.743883989615738,6.332443026360869
1789317616594201600,7.58020166015625,6.969293653699755,-2.730124928854406,6.336067646598815
1789317616604235800,7.59023583984375,6.968226316729187,-2.7169764012068507,6.342889601573348
1789317616614268400,7.600268310546875,6.971040789628028,-2.6997818130388853,6.3471373221457
1789317616624302600,7.610302490234375,6.974900387665629,-2.6810049241155385,6.350854881364107
1789317616634336800,7.620336669921875,6.975165760603547,-2.662163737784326,6.358485230112075
1789317616644369700,7.63036962890625,6.977142029112577,-2.639315653899312,6.365836761918664
1789317616654403600,7.640403564453125,6.98275051664412,-2.6139403896242377,6.370155794161557
1789317616664436500,7.6504365234375,6.988318672165274,-2.5896415224090217,6.37397389114499
1789317616674470700,7.660470703125,6.984702819755673,-2.572022279088199,6.3850611023485655
1789317616684504600,7.670504638671875,6.992197559425234,-2.5484537719741462,6.386308472061157
1789317616694537700,7.680537841796875,7.008743036034703,-2.5231004272699353,6.378234471198916
1789317616704571600,7.690571533203125,7.015683064430951,-2.5074551143705843,6.376774335518479
1789317616714604500,7.7006044921875,7.011532374492287,-2.4975609123438596,6.385216000649333
1789317616724638700,7.710638671875,7.011102166381478,-2.4838138342812655,6.391048360064626
1789317616734672600,7.720672607421875,7.014686454609036,-2.4670710815340278,6.393599798113107
1789317616744705800,7.730705810546875,7.0136541889518496,-2.45572843426466,6.39909664196372
1789317616754739500,7.740739501953125,7.0097601041227575,-2.445959319922328,6.407099915677309
1789317616764772600,7.750772705078125,7.010006772360205,-2.433984658359736,6.411388552781939
1789317616774806800,7.760806884765625,7.019861811420321,-2.4187810978785156,6.406358157399296
1789317616784840700,7.7708408203125,7.025857252442837,-2.4125819509774447,6.402122127264738
1789317616794873600,7.78087353515625,7.0173039436310525,-2.4168542214691637,6.409886916047334
1789317616804907500,7.790907470703125,7.006253557306528,-2.420878654679656,6.420447473028302
1789317616814940700,7.800940673828125,7.007313295492529,-2.4179594062320886,6.420391358926892
1789317616824974600,7.810974609375,7.018974507191777,-2.4117682965070006,6.409973425287008
1789317616835008500,7.821008544921875,7.026770275634527,-2.40797927948758,6.4028533641487355
1789317616845041400,7.83104150390625,7.0332076152056455,-2.4008380294308065,6.398464773800969
1789317616855075600,7.84107568359375,7.037446567949652,-2.392791208836436,6.396818175637722
1789317616865108700,7.851108642578125,7.0347332173377275,-2.3897199846975505,6.400948991832137
1789317616875142700,7.861142578125,7.027299852466583,-2.393232961254567,6.407798419335484
1789317616885176600,7.871176513671875,7.019206562381982,-2.398329699871689,6.414760075041651
1789317616895209500,7.88120947265625,7.014077967321873,-2.4014264968432486,6.419208871144056
1789317616905243600,7.89124365234375,7.009249816513061,-2.403701894429326,6.423630194717645
1789317616915276500,7.901276611328125,7.007650564622879,-2.405127397187799,6.424841908594965
1789317616925310700,7.911310791015625,7.0119275112897155,-2.402329437032342,6.421220210966467
1789317616935344600,7.9213447265625,7.015455685415864,-2.401626695590466,6.417628323954343
1789317616945377500,7.93137744140625,7.016594918578862,-2.403189560993016,6.415798185917735
1789317616955411700,7.94141162109375,7.019055755734443,-2.3998513564810153,6.414355585893988
1789317616965444600,7.951444580078125,7.022241400033235,-2.390600566924363,6.414322852668166
1789317616975478500,7.961478515625,7.019295994231104,-2.3855929678954184,6.419408777630329
1789317616985512700,7.9715126953125,7.015681895387172,-2.3844182250276207,6.423794445368647
1789317616995545600,7.981545654296875,7.0166264827609055,-2.3832713930800558,6.423188880690932
1789317617005579800,7.991579833984375,7.022685636669397,-2.378455224969983,6.418350208488106
1789317617015612700,8.00161279296875,7.027443060329556,-2.3689603975243867,6.416654510486126
1789317617025646600,8.011646484375,7.0309461000144475,-2.3580462048001585,6.4168368813157075
1789317617035680500,8.021680419921875,7.034618066525459,-2.348508268865198,6.4163102270931
1789317617045713700,8.031713623046874,7.034555522683262,-2.341801172441989,6.41882951643765
1789317617055747600,8.04174755859375,7.035867774325609,-2.3323086830839515,6.420847870522737
1789317617065780700,8.05178076171875,7.039645539298653,-2.3220301579147575,6.42043227545917
1789317617075814700,8.061814697265625,7.038264898595213,-2.317006484533846,6.423760543099045
1789317617085848600,8.0718486328125,7.031685520204901,-2.3112604882277545,6.433029306703806
1789317617095881700,8.0818818359375,7.028437916585802,-2.3019969853200015,6.439895685341954
1789317617105915600,8.09191552734375,7.024332819354534,-2.2968339034684,6.446214951491355
1789317617115948800,8.10194873046875,7.019134081667661,-2.29751457920894,6.45163346940875
1789317617125982500,8.111982421875,7.019674764415622,-2.2956861947380003,6.451695428729057
1789317617136015600,8.122015625,7.024822648698091,-2.2932234578862785,6.4469660621196025
1789317617146049800,8.1320498046875,7.027494498255848,-2.2950841371916235,6.44339112624228
1789317617156083500,8.14208349609375,7.026848017045855,-2.3018080386191606,6.441697766327858
1789317617166116600,8.15211669921875,7.023831884095072,-2.307280624811351,6.443029307192564
1789317617176150500,8.162150634765625,7.023504551836848,-2.3088978507496414,6.442806604352593
1789317617186183700,8.17218359375,7.021706562504172,-2.3136174266174434,6.4430731463342905
1789317617196217600,8.182217529296874,7.018194170469045,-2.322480824291706,6.443711444237828
1789317617206251500,8.19225146484375,7.016230761441588,-2.329780041389167,6.4432146006315945
1789317617216284400,8.202284423828125,7.01387689179182,-2.337031035430729,6.443151472267508
1789317617226318600,8.212318603515625,7.011369877406954,-2.345146975738555,6.442931692036986
1789317617236351700,8.222351806640624,7.012249582850933,-2.352675179286301,6.439228161343932
1789317617246385700,8.2323857421875,7.014612220329046,-2.3601244723789394,6.433925963282585
1789317617256419600,8.242419677734375,7.012843457090854,-2.3719079952836037,6.431520071184635
1789317617266452500,8.252452392578125,7.015214862397313,-2.3836335043907164,6.424596409401297
1789317617276486700,8.262486572265624,7.015474974638224,-2.3981126961201427,6.41892187089622
1789317617286519600,8.27251953125,7.00889734981358,-2.4166977157332004,6.419136974951624
1789317617296553700,8.2825537109375,7.001029100656509,-2.434063276553899,6.421161174255609
1789317617306587600,8.292587646484375,6.997844040879607,-2.4497892534740267,6.418651821783184
1789317617316620500,8.30262060546875,6.991670320680737,-2.466833765646815,6.418852312791347
1789317617326654700,8.31265478515625,6.9873694086164235,-2.479838793170452,6.418524980533123
1789317617336687600,8.3226875,6.990730409482121,-2.485000998239219,6.4128650550752875
1789317617346721500,8.332721435546874,6.991240112569928,-2.4932307741850614,6.4091147626310585
1789317617356755700,8.342755615234376,6.986691363224387,-2.5044348897665736,6.409706883305311
1789317617366788600,8.35278857421875,6.987195805615186,-2.5124329027831553,6.4060255644440645
1789317617376822800,8.36282275390625,6.990142380461096,-2.518317576907575,6.400497740933298
1789317617386855700,8.372855712890624,6.988992625904083,-2.526803081180155,6.398408659699559
1789317617396889600,8.3828896484375,6.986361692878604,-2.5375524387314914,6.3970274344742295
1789317617406923500,8.392923583984375,6.985647407129407,-2.547508600078523,6.393849973481893
1789317617416956700,8.402956787109375,6.981387996119261,-2.559685067823529,6.393638376557827
1789317617426990600,8.412990478515624,6.973414533022046,-2.574565533830225,6.396364586651325
1789317617437023700,8.423023681640625,6.968360756763816,-2.5870062054693697,6.396853246951103
1789317617447057700,8.4330576171875,6.966234850651025,-2.599251354536414,6.3942041937470435
1789317617457091600,8.443091552734375,6.959805694386363,-2.6166096088334916,6.3941252832919355
1789317617467124700,8.453124755859376,6.956726433071494,-2.6313980126425625,6.391406671983003
1789317617477158700,8.46315869140625,6.958745956200361,-2.6437033674642443,6.3841264518469565
1789317617487191600,8.473191650390625,6.957883786413073,-2.6605741305053234,6.378054438456893
1789317617497225500,8.4832255859375,6.955106138393282,-2.677992006035149,6.373792689359187
1789317617507259600,8.493259765625,6.951891852521896,-2.6944237931370734,6.370373236304522
1789317617517292800,8.503292724609375,6.948879811224341,-2.7096406514912843,6.3672051276624195
1789317617527326500,8.513326416015625,6.942819488272071,-2.7272999345615503,6.366276906901597
1789317617537359600,8.523359619140624,6.93819416655898,-2.7428721822246906,6.364629139694571
1789317617547393800,8.533393798828126,6.9342217557966705,-2.753759486941993,6.364256214728951
1789317617557427700,8.543427734375,6.931769686469435,-2.7594898472875355,6.3644455998212095
1789317617567460900,8.5534609375,6.930371510109305,-2.76676451446563,6.362809523051977
1789317617577494800,8.563494873046874,6.930739174377917,-2.77608880764991,6.35834611390233
1789317617587527700,8.573527587890625,6.9297571776032445,-2.784819518855214,6.355598276498913
1789317617597561900,8.583561767578125,6.928540787550807,-2.7919711441755295,6.353786843162775
1789317617607595800,8.593595703125,6.922666342559457,-2.803528895500302,6.35510084837079
1789317617617629000,8.60362890625,6.911499636378884,-2.822634870247543,6.358796780279278
1789317617627662600,8.61366259765625,6.90719872431457,-2.836694375260174,6.357212725958227
1789317617637695700,8.62369580078125,6.907876185184716,-2.8485253905683754,6.351183382666111
1789317617647729700,8.633729736328124,6.9084566154211755,-2.8604855852141973,6.345173328596353
1789317617657763800,8.643763916015626,6.909346842259168,-2.8731334698632356,6.338486982700228
1789317617667796700,8.653796630859375,6.910977073809504,-2.884001193097234,6.33177024166584
1789317617677830700,8.66383056640625,6.911482685244083,-2.892105881358683,6.327520767527818
1789317617687863800,8.67386376953125,6.908444340461492,-2.9016274506807327,6.3264797340422865
1789317617697897700,8.683897705078126,6.9070800663709635,-2.910226644460857,6.324017727842927
1789317617707931000,8.693930908203125,6.905018457666039,-2.9224963434472677,6.320609965226054
1789317617717964500,8.703964599609375,6.903533187544346,-2.9378689768850803,6.315104353547096
1789317617727998700,8.713998779296874,6.900231223389506,-2.9559745424181223,6.310261589691042
1789317617738031900,8.724031982421875,6.89404931988418,-2.9744691072687504,6.30832799127996
1789317617748065800,8.734065673828125,6.890368001022934,-2.9910636837169524,6.304502295511961
1789317617758099000,8.744098876953124,6.888901435601711,-3.006494477082789,6.298762875077128
1789317617768132600,8.754132568359376,6.885231222656369,-3.0229198344439268,6.294912629389763
1789317617778166800,8.764166748046875,6.881641089209914,-3.0386949112027883,6.291241831922531
1789317617788199700,8.77419970703125,6.884058671745658,-3.051092035961151,6.282591492477059
1789317617798233900,8.78423388671875,6.88448420368135,-3.06748670592308,6.274135798820853
1789317617808266800,8.794266845703126,6.878376534456014,-3.086536566568911,6.2714920063138
1789317617818300700,8.80430078125,6.872703164994716,-3.1067303365528582,6.267739375782012
1789317617828334800,8.8143349609375,6.871488528507948,-3.123748691371083,6.260609377771615
1789317617838367700,8.82436767578125,6.869210062181949,-3.143584733958542,6.253176012900472
1789317617848401700,8.834401611328126,6.87260262722969,-3.159044168896973,6.241646903148293
1789317617858434600,8.8444345703125,6.877949833476543,-3.1692206949964166,6.230587748995423
1789317617868468700,8.85446875,6.877575154945254,-3.182612091489136,6.224173205778002
1789317617878503000,8.8645029296875,6.876319017404318,-3.1960584330394863,6.218667594099045
1789317617888535800,8.874535888671875,6.876690773326158,-3.209169843547046,6.2115007712095975
1789317617898569700,8.88456982421875,6.874326966804266,-3.2225071717649696,6.207209796017408
1789317617908602600,8.8946025390625,6.869993321514129,-3.2339044718310235,6.206080499726533
1789317617918636800,8.90463671875,6.871250628098845,-3.2386247783511877,6.20222557786405
1789317617928670700,8.914670654296875,6.873566503825783,-3.242510972134769,6.197627728679776
1789317617938704000,8.924703857421875,6.8708689353048795,-3.2473841311290856,6.19806728914082
1789317617948737800,8.93473779296875,6.867442467987537,-3.251557617421448,6.1996758933812375
1789317617958770700,8.944770751953126,6.868728416144847,-3.2498359081953763,6.1991550843775265
1789317617968804900,8.954804931640625,6.869256239411235,-3.247337369377911,6.199879306998849
1789317617978838800,8.9648388671875,6.864212984547018,-3.248014830248058,6.205108439823984
1789317617988872000,8.974871826171874,6.86182345906198,-3.247808786281943,6.20785803079307
1789317617998905600,8.984905517578126,6.863882729679346,-3.246512901252508,6.206259947946667
1789317618008938800,8.994938720703125,6.869150440949201,-3.2416847504436967,6.202955061182379
1789317618018972700,9.00497265625,6.8759817482739685,-3.2302655308067796,6.201342365288734
1789317618029006600,9.015006591796874,6.880746770718694,-3.219382317742705,6.2017170438200235
1789317618039039700,9.025039794921875,6.880158741697668,-3.208720638474822,6.207891348540783
1789317618049073700,9.03507373046875,6.876701879242062,-3.195252961875498,6.218658826270699
1789317618059106800,9.04510693359375,6.875874196246266,-3.180840405641496,6.22695728353858
1789317618069140700,9.055140625,6.871400850224495,-3.1698134001925586,6.237508488169312
1789317618079174700,9.065174560546875,6.862911838820576,-3.161758980813622,6.250928526234627
1789317618089207600,9.07520751953125,6.859363206428289,-3.147316613963246,6.262102246677875
1789317618099241700,9.08524169921875,6.857206905177235,-3.1354449743837116,6.270414147949219
1789317618109275000,9.09527490234375,6.858842397424579,-3.124179484003782,6.274247442501783
1789317618119308800,9.105308837890625,6.862256005260348,-3.114743254877627,6.275205473878979
1789317618129342700,9.1153427734375,6.867029211011529,-3.1050171028941866,6.274803322818875
1789317618139375600,9.125375732421874,6.872611395058035,-3.0942423186406494,6.274015387311578
1789317618149409800,9.135409912109376,6.875510039108991,-3.0846856780052185,6.275545081096888
1789317618159442700,9.145442626953125,6.875842047542333,-3.077151775369048,6.278879193955659
1789317618169476900,9.155476806640625,6.8745800647825,-3.0712349525406957,6.283155556100606
1789317618179509800,9.165509765625,6.873100639879703,-3.064156100195646,6.288228037059307
1789317618189543700,9.175543701171875,6.87180183224082,-3.05496420121938,6.294117679619789
1789317618199577900,9.185577880859375,6.87029025863409,-3.045502253130078,6.300349852007627
1789317618209610800,9.19561083984375,6.871573868703842,-3.0360370901703835,6.303517960649728
1789317618219644700,9.205644775390626,6.874712166729569,-3.025465135012567,6.305178587338328
1789317618229677600,9.215677490234375,6.877603211995959,-3.01506210668087,6.307008725374937
1789317618239711700,9.225711669921875,6.873469473192095,-3.010171996551752,6.31384704696238
1789317618249746000,9.235745849609375,6.864903304898738,-3.0094398828849194,6.323509193798899
1789317618259778800,9.24577880859375,6.861145998191833,-3.00845087184757,6.328055605056882
1789317618269812700,9.255812744140625,6.883785700023174,-2.9918565876603123,6.311312560048699
1789317618279845600,9.265845703125,6.9252136889547105,-2.9640362683206796,6.279035261300206
1789317618289879800,9.2758798828125,6.953461293795704,-2.9480364428952335,6.2553054261445995
1789317618299913700,9.285913818359376,6.957080653336644,-2.9461192110970615,6.252184079253674
1789317618309947000,9.29594677734375,6.945790613037348,-2.9502541189447045,6.262777369460463
1789317618319980800,9.305980712890625,6.9388201895028345,-2.947444029960036,6.2718205076158045
1789317618330013700,9.316013671875,6.934703986355662,-2.9424913759887215,6.278695069560408
1789317618340048000,9.3260478515625,6.9154095032989975,-2.9427301531806584,6.299827873960137
1789317618350081800,9.336081787109375,6.897156638249754,-2.9395117756560443,6.321303792709112
1789317618360114700,9.34611474609375,6.8961553522527215,-2.9302178776100276,6.3267088666230435
1789317618370148600,9.356148681640626,6.901526523897052,-2.916820928159356,6.3270426286220545
1789317618380181800,9.366181640625,6.903676395407318,-2.9041175139307973,6.330539823088049
1789317618390215700,9.376215576171875,6.899833163982629,-2.8952681447818875,6.338777490079402
1789317618400249600,9.38624951171875,6.909668329298496,-2.8784701547160743,6.3357145953774445
1789317618410282800,9.39628271484375,6.921451706072688,-2.8605276707902547,6.330977045461535
1789317618420316700,9.406316650390625,6.917621918651461,-2.8528894309967754,6.338605056121945
1789317618430349800,9.416349853515625,6.909374314787984,-2.846293685993552,6.3505550216346975
1789317618440383700,9.4263837890625,6.908581118583679,-2.8332115015804766,6.35726357936263
1789317618450417700,9.436417724609376,6.9135402022957795,-2.816347752802074,6.359366104599833
1789317618460450600,9.446450439453125,6.918679903271794,-2.796031817743182,6.362739380425214
1789317618470484700,9.456484619140625,6.916520094889402,-2.777523808889091,6.373186540159582
1789317618480518000,9.466517822265626,6.9030801830798385,-2.759888491216302,6.395379082745313
1789317618490551800,9.4765517578125,6.892296338737011,-2.74224878962934,6.414569520905614
1789317618500585700,9.486585693359375,6.891656871789693,-2.7203447085961696,6.424576535657048
1789317618510618600,9.49661865234375,6.896878405830264,-2.6997671999916433,6.427651705318689
1789317618520652800,9.50665283203125,6.905944924861192,-2.6760738974541423,6.4278253083199255
1789317618530685700,9.516685791015625,6.915155236276984,-2.655117326404154,6.4266141789644955
1789317618540719900,9.526719970703125,6.927137935015558,-2.6340888591617344,6.422360613173246
1789317618550753300,9.536753173828124,6.939492974197864,-2.6155919562235472,6.4165796916842455
1789317618560786400,9.546786376953126,6.949052245181798,-2.5977093857914206,6.413498092281818
1789317618570820400,9.5568203125,6.952374083080888,-2.5801529785737394,6.416984180831909
1789317618580853500,9.566853515625,6.951403192222118,-2.560865509779751,6.425756685352325
1789317618590887400,9.576887451171874,6.954249229303002,-2.5415727802887558,6.43033524531424
1789317618600920300,9.58692041015625,6.956165292057395,-2.5230890290930867,6.435539828220009
1789317618610954200,9.596954345703125,6.956821125617623,-2.502493108049035,6.44286797915101
1789317618620988400,9.606988525390625,6.964113620713353,-2.4741285988301036,6.445944317856431
1789317618631021300,9.617021240234376,6.974892788881063,-2.4460374997250733,6.445009667354822
1789317618641055200,9.62705517578125,6.978899686434865,-2.427610154891759,6.447639431336522
1789317618651088400,9.63708837890625,6.981847430324554,-2.411233166716993,6.450593020445108
1789317618661122300,9.647122314453124,6.988658863905072,-2.3930738251700996,6.449979272460937
1789317618671156500,9.657156494140626,6.993484092104435,-2.379469078187644,6.4497828731060025
1789317618681189400,9.667189453125,6.994805696097016,-2.370179125664383,6.451769663009047
1789317618691223300,9.677223388671875,6.998672308397293,-2.3592383371941743,6.451586707657575
1789317618701256200,9.687256103515624,7.004409975266456,-2.348387418964505,6.4493181782037015
1789317618711290400,9.697290283203126,7.00445965962708,-2.3429867289647457,6.451227811217308
1789317618721324500,9.707324462890625,7.002865668433905,-2.3387875237092373,6.454481260055303
1789317618731357400,9.717357421875,7.005942007139325,-2.3287020368941125,6.454789887613058
1789317618741391400,9.727391357421874,7.003765247622132,-2.3239047196149825,6.458879787275195
1789317618751424300,9.73742431640625,6.99134824911952,-2.324800353280455,6.471997043001651
1789317618761458400,9.74745849609375,6.976742216140031,-2.3252008969053626,6.487595594149828
1789317618771492600,9.75749267578125,6.968937679868936,-2.322341854212433,6.497000551354884
1789317618781525200,9.767525146484376,6.97023648750782,-2.31938183536306,6.496664451268315
1789317618791559400,9.777559326171875,6.97579353711307,-2.3192245989747344,6.490754350441694
1789317618801592300,9.78759228515625,6.984995080700516,-2.3185709573715925,6.481085189342498
1789317618811626500,9.79762646484375,6.987762207326292,-2.3225318238265813,6.476681985947489
1789317618821660200,9.80766015625,6.982216263636946,-2.3285151360198855,6.480514111456275
1789317618831693300,9.817693359375,6.9797086647301905,-2.3316747690945863,6.482078876554966
1789317618841727500,9.8277275390625,6.98524876320064,-2.3316706774413585,6.476109739017486
1789317618851760400,9.837760498046874,6.986607776594162,-2.333850067307055,6.473858745220303
1789317618861794600,9.847794677734376,6.981860289806127,-2.3366828065149483,6.477956828188896
1789317618871828200,9.857828125,6.975014369434118,-2.3405324676804242,6.483938825207948
1789317618881861400,9.867861328125,6.963337375643849,-2.349208526089042,6.4933455359786745
1789317618891895300,9.877895263671874,6.956963748958707,-2.3512600517913698,6.499432162415981
1789317618901928400,9.887928466796875,6.963968659284711,-2.348165592907369,6.4930462607711545
1789317618911962400,9.89796240234375,6.980743268474936,-2.349067071791738,6.474681167519092
1789317618921995500,9.90799560546875,6.986115024641156,-2.362791645761579,6.463884463694692
1789317618932029400,9.918029541015626,6.984176165533065,-2.3752517527535555,6.461412520623207
1789317618942063400,9.9280634765625,6.99345428148806,-2.378551232690364,6.4501534599840635
1789317618952096500,9.938096435546875,7.0012512189745895,-2.3818996663354337,6.440451565659046
1789317618962130400,9.94813037109375,6.999868824705481,-2.391783785359561,6.438291172754764
1789317618972163300,9.958163330078126,6.999197209054231,-2.401837707992643,6.43527737789154
1789317618982197200,9.968197265625,6.997510863402486,-2.4121327459052204,6.4332601928502315
1789317618992231400,9.9782314453125,6.984880514410138,-2.4261546953864395,6.441708287721872
1789317619002264300,9.988264404296874,6.971481519132852,-2.435719227067381,6.45260377574563
1789317619012298200,9.99829833984375,6.966451123750209,-2.4408184499025345,6.45610973803997
1789317619022331400,10.008331298828125,6.964240461963414,-2.4453536091141403,6.4567778465598815
1789317619032365300,10.018365234375,6.965536931514739,-2.4512450052402914,6.453145043015479
1789317619042399500,10.0283994140625,6.972483389651775,-2.45772399199605,6.4431713460117574
1789317619052432400,10.038432373046875,6.981568613383174,-2.4629312052503227,6.431334193223714
1789317619062466300,10.04846630859375,6.9824261069953435,-2.4688415983378884,6.428136273965239
1789317619072499200,10.058499267578124,6.977218016958236,-2.472880644595623,6.43223727954328
1789317619082533400,10.068533447265626,6.972540088275075,-2.473039342288673,6.437247801181674
1789317619092567600,10.078567626953125,6.967593279522657,-2.474684186886251,6.441969569006562
1789317619102600400,10.088600341796875,6.962512030735612,-2.4755276519730685,6.4471367425113915
1789317619112634400,10.09863427734375,6.96014647064805,-2.4724694334462285,6.450863069558143
1789317619122667300,10.108667236328126,6.960103800550103,-2.465924249586463,6.453415092128515
1789317619132701400,10.118701416015625,6.963102397844195,-2.4577988107979296,6.453279483050108
1789317619142735400,10.1287353515625,6.967257763957977,-2.4520745879322288,6.4509723751515144
1789317619152768300,10.138768310546874,6.970081004685163,-2.4458229801915583,6.4502949142813675
1789317619162802400,10.148802490234376,6.9730497913628815,-2.4371770246602593,6.450359211689233
1789317619172835300,10.15883544921875,6.977647056025266,-2.427108342849463,6.449183738169074
1789317619182869500,10.168869384765625,6.981584395474195,-2.418553572732955,6.4481362749427555
1789317619192902400,10.17890234375,6.980834453889727,-2.41435699782595,6.450519955208898
1789317619202936300,10.188936279296875,6.980223628515005,-2.408631459785998,6.453321568626165
1789317619212970500,10.198970458984375,6.979872330859303,-2.398519377224892,6.457466997867822
1789317619223003400,10.20900341796875,6.9812418656468385,-2.381685877454281,6.462215069177747
1789317619233037600,10.21903759765625,6.98657270528078,-2.365936081267148,6.462239034575224
1789317619243070500,10.229070556640625,6.991680257552861,-2.3532686151348052,6.461340624430775
1789317619253104400,10.2391044921875,6.999300669428706,-2.3397642597869037,6.457992483046651
1789317619263138300,10.24913818359375,7.00973613872528,-2.3207915560305117,6.453518552502989
1789317619273171500,10.25917138671875,7.024128821215033,-2.297509318511933,6.4461956622689955
1789317619283205400,10.269205322265625,7.026361110311746,-2.2861282389283177,6.44780952720642
1789317619293238500,10.279238525390625,7.019588255175948,-2.281155565082282,6.4569420972108835
1789317619303272400,10.2892724609375,7.016984794679284,-2.268434176805615,6.464249789875746
1789317619313306400,10.299306396484376,7.013446099159121,-2.253019896183163,6.473473545295
1789317619323339500,10.309339599609375,7.0054165219604965,-2.240102985334396,6.486636978250742
1789317619333373200,10.319373291015625,6.998232163414358,-2.2304560360670087,6.497706653797626
1789317619343406300,10.32940625,7.00667733567655,-2.2153097587309776,6.493785680961609
1789317619353440300,10.339440185546875,7.0223951292902225,-2.1953082964487374,6.4835922037273646
1789317619363474400,10.349474365234375,7.0338839070320125,-2.177946681150794,6.476991198027133
1789317619373507300,10.35950732421875,7.038025244620442,-2.1628782913565634,6.477541817647218
1789317619383541200,10.369541259765626,7.044268522924185,-2.1449445752590894,6.47671822630465
1789317619393574400,10.379574462890625,7.044376659473777,-2.1292269277758895,6.481784862044453
1789317619403608300,10.3896083984375,7.0402739003300665,-2.114325565111637,6.491113831403851
1789317619413641500,10.399641357421874,7.038033427926898,-2.0974578708104787,6.499010722133517
1789317619423675400,10.40967529296875,7.040521153089403,-2.0806516974382103,6.5017182275265455
1789317619433709300,10.419709228515625,7.043609182232618,-2.06670632032454,6.502821220332383
1789317619443742200,10.4297421875,7.04735362945795,-2.0548286893956362,6.50252837486565
1789317619453776400,10.4397763671875,7.051741050761938,-2.042302531430125,6.5017182275265455
1789317619463809500,10.4498095703125,7.0511477610439055,-2.032527571868896,6.505422927263378
1789317619473843500,10.459843505859375,7.05009562164247,-2.0229070722170173,6.5095613422423595
1789317619483877400,10.46987744140625,7.049764197731018,-2.0166070952899755,6.511874295359849
1789317619493910300,10.47991015625,7.053091296327113,-2.013122614175081,6.509349160796403
1789317619503944400,10.4899443359375,7.056528285038471,-2.0079300139680503,6.507227930858731
1789317619513977300,10.499977294921875,7.05966307593286,-1.9988284236237406,6.506628795921802
1789317619524011300,10.51001123046875,7.063273667645454,-1.9869721277438104,6.506341795673966
1789317619534045400,10.52004541015625,7.064479536303877,-1.9796127048917114,6.507276446175575
1789317619544078300,10.530078369140625,7.063632564085721,-1.9753115005664525,6.509502890053391
1789317619554112500,10.540112548828125,7.064030623492598,-1.9716538548417388,6.510179766401648
1789317619564145700,10.550145751953124,7.0638336396157735,-1.968076288615912,6.511475651431083
1789317619574179600,10.5601796875,7.06372901019752,-1.9662443970136343,6.5121425909072155
1789317619584213500,10.570213623046875,7.066659802952408,-1.9659407378919422,6.509053392720222
1789317619594246700,10.58024658203125,7.069117717498541,-1.9676897735163568,6.505855473461747
1789317619604280600,10.590280517578124,7.065521738833189,-1.9710801466070114,6.5087348282903426
1789317619614313700,10.600313720703125,7.060104389959573,-1.9738499035812913,6.513772237935662
1789317619624347400,10.610347412109375,7.0564464519739145,-1.9737278846368191,6.517770952183008
1789317619634381600,10.620381591796875,7.058374205166101,-1.973205175936967,6.515842029947042
1789317619644414500,10.63041455078125,7.064551432496309,-1.9717678366102278,6.50958004694283
1789317619654448400,10.640448486328125,7.071802426537871,-1.9710690406911073,6.50191404235959
1789317619664481500,10.6504814453125,7.079438620504736,-1.9691879031196236,6.494169711843132
1789317619674515500,10.660515380859374,7.081023843869566,-1.9680410711720584,6.492788486617803
1789317619684548600,10.670548583984376,7.076080542248487,-1.9711999735943972,6.497217408975958
1789317619694582500,10.68058251953125,7.07047965350151,-1.9770390550114214,6.501539948350191
1789317619704616400,10.690616455078125,7.066378647923469,-1.9854354196958244,6.503439644491672
1789317619714649300,10.7006494140625,7.060861930328607,-1.993240102097392,6.5070426374197
1789317619724683500,10.71068359375,7.058344394549727,-2.0013217017441987,6.507293981832265
1789317619734716700,10.720716552734375,7.060486667275429,-2.012198631197959,6.501613013586401
1789317619744750600,10.73075048828125,7.066425994196534,-2.0180492569223043,6.493342028847336
1789317619754784500,10.740784423828124,7.065185054224729,-2.0207272439599038,6.493859915241599
1789317619764817400,10.7508173828125,7.062949257996678,-2.0214365612730383,6.496071161550283
1789317619774851600,10.7608515625,7.0603037119239564,-2.020833773074299,6.499132302686571
1789317619784884500,10.770884521484374,7.058337380287051,-2.026400759551674,6.499535038268566
1789317619794918700,10.780918701171874,7.06188192102611,-2.0340026128575204,6.493307542055845
1789317619804952600,10.79095263671875,7.068363684260845,-2.042161077132821,6.483686896273493
1789317619814985500,10.8009853515625,7.072053186428547,-2.0467334996148945,6.4782198630392545
1789317619825019600,10.81101953125,7.072652321365475,-2.052827724836767,6.47563686080873
1789317619835052500,10.821052490234376,7.0657450261950485,-2.0626681508496403,6.480048247510195
1789317619845086500,10.83108642578125,7.057852227118611,-2.074971752105653,6.484720915496349
1789317619855120600,10.84112060546875,7.053455453464388,-2.08773960987255,6.485407144194841
1789317619865153500,10.851153564453124,7.0494082239001985,-2.102621244923025,6.484999732437729
1789317619875187700,10.861187744140626,7.041661555296182,-2.1222953749470412,6.487005811563134
1789317619885220600,10.871220703125,7.034639693835377,-2.140923503049463,6.488502772122621
1789317619895254500,10.881254638671875,7.027887881487607,-2.158821855572611,6.489889842566847
1789317619905287400,10.891287353515626,7.022308620050549,-2.173070453416556,6.491174037158489
1789317619915321600,10.901321533203125,7.016788979846239,-2.19148450037688,6.490951918840408
1789317619925355500,10.91135546875,7.0200137871116395,-2.207456999403983,6.482046727851033
1789317619935388700,10.921388671875,7.022227371507882,-2.2259615011267364,6.4733145553410045
1789317619945422600,10.931422607421876,7.02230628196299,-2.2412207373179496,6.467961503875255
1789317619955455500,10.94145556640625,7.026255311849713,-2.25040503750965,6.460479623687267
1789317619965489700,10.95148974609375,7.02087128072381,-2.2682383619725703,6.460096177327633
1789317619975523600,10.961523681640625,7.0095818249464035,-2.2884359313488005,6.46523061760664
1789317619985556500,10.971556396484376,7.007687974023819,-2.2996869548119605,6.46329058945477
1789317619995590400,10.98159033203125,7.011523022142052,-2.305723750758171,6.4569777530461545
1789317620005623600,10.99162353515625,7.01443686376214,-2.312913808392733,6.451239501655102
1789317620015657500,11.001657470703124,7.0172250331759445,-2.320667637389898,6.445420001721382
1789317620025691400,11.01169140625,7.020760221564769,-2.3274847700588404,6.439109503400325
1789317620035724500,11.021724609375,7.02135584937036,-2.3352219401821492,6.435656732597947
1789317620045758500,11.031758544921875,7.018256714311241,-2.343269929820299,6.436112075150013
1789317620055791600,11.04179150390625,7.013638406860828,-2.3520817434377967,6.437931691792607
1789317620065825500,11.051825439453125,7.0084612964838735,-2.359793486858904,6.440747333735227
1789317620075858700,11.061858642578125,7.004824985808134,-2.3666744785442946,6.44217882784307
1789317620085892400,11.071892333984374,7.003451359367371,-2.370759555900842,6.442170060014725
1789317620095926500,11.081926513671876,7.001154772862791,-2.377414922136813,6.442213899156451
1789317620105959700,11.091959716796875,7.000807566860318,-2.38419069988206,6.440086823999882
1789317620115993600,11.10199365234375,7.0042907328009605,-2.387277706111967,6.435153459250927
1789317620126026800,11.11202685546875,7.006700132030248,-2.388757715536654,6.431980674433708
1789317620136060400,11.122060302734376,7.000727487361431,-2.395955371955782,6.435806370201706
1789317620146094600,11.132094482421875,6.9928159835845225,-2.4066015613935887,6.4404334454804655
1789317620156127500,11.14212744140625,6.988066158708929,-2.413813100207597,6.442889606460929
1789317620166161700,11.15216162109375,6.982531905457377,-2.420804128138721,6.446266389417648
1789317620176194300,11.1621943359375,6.976376889958977,-2.4288253759004172,6.4499114679217335
1789317620186228500,11.172228515625,6.974081472498178,-2.437793841384351,6.449010719689727
1789317620196262700,11.1822626953125,6.974477193817496,-2.446991731709987,6.445097345638275
1789317620206295600,11.192295654296874,6.9759595413297415,-2.454775079062581,6.440531645157932
1789317620216329500,11.20232958984375,6.98015874658525,-2.4583883011236787,6.434602255108953
1789317620226362400,11.2123623046875,6.978755894050002,-2.467344345517456,6.432694960182904
1789317620236396500,11.222396484375,6.973850586351752,-2.4812740866705774,6.432656381738186
1789317620246430700,11.2324306640625,6.971272260296344,-2.49008137024343,6.4320478944510215
1789317620256463600,11.242463623046875,6.9707666488617654,-2.496160690157115,6.430239383724332
1789317620266497500,11.25249755859375,6.96266459094882,-2.508699561473727,6.434135806640982
1789317620276530400,11.262530517578124,6.952762790137529,-2.5253806471616027,6.4383174762398
1789317620286564600,11.272564697265626,6.9476207510739565,-2.539049107030034,6.438491663762926
1789317620296597500,11.282597412109375,6.946271674552559,-2.5521689931049942,6.434759491497278
1789317620306631700,11.292631591796875,6.94226185438931,-2.568729082761705,6.4324973917841906
1789317620316665600,11.30266552734375,6.939331061634421,-2.5827637455940247,6.43003830819428
1789317620326698500,11.312698486328125,6.938904945176839,-2.5961858294859526,6.425090914919972
1789317620336732700,11.322732666015625,6.936431833061575,-2.610042213141918,6.4221478472054
1789317620346765600,11.332765625,6.92871965124905,-2.62362504055351,6.4249383547067636
1789317620356799500,11.342799560546876,6.927372912815213,-2.6265315756499765,6.425202558600902
1789317620366833400,11.35283349609375,6.92556907826364,-2.628768833182752,6.42623248617053
1789317620376866600,11.362866455078125,6.923860520780086,-2.632225111116469,6.426658018106222
1789317620386900500,11.372900390625,6.924348012036084,-2.6366902738317846,6.424301810368895
1789317620396933600,11.38293359375,6.9279960131496185,-2.6418799514293667,6.418234473153948
1789317620406967600,11.392967529296875,6.931523018231988,-2.645376269112527,6.412983713018894
1789317620417001500,11.40300146484375,6.93220749336481,-2.653348270905018,6.408949342936277
1789317620427034600,11.41303466796875,6.930911608335375,-2.6588041982233523,6.408088926714658
1789317620437068500,11.423068603515626,6.924332814466953,-2.6680413976460695,6.411360495731234
1789317620447101700,11.433101806640625,6.921312589862942,-2.671973184137046,6.412985466584563
1789317620457135400,11.44313525390625,6.922949251154065,-2.6738381012260914,6.4104404582768675
1789317620467168500,11.45316845703125,6.928089536651968,-2.672150586530566,6.405588926592469
1789317620477202700,11.46320263671875,6.9320531795859335,-2.6717510658189654,6.401466878226399
1789317620487236600,11.473236572265625,6.934207727271318,-2.6725474768936635,6.398800289365649
1789317620497269500,11.48326953125,6.934479529950022,-2.674392812499404,6.3977341214388606
1789317620507303400,11.493303466796876,6.935926806148887,-2.675711201621592,6.395614060544967
1789317620517336600,11.503336669921875,6.93778441671431,-2.6727178650245067,6.394850674957037
1789317620527370500,11.51337060546875,6.936723509484529,-2.6765935374140737,6.394380719357729
1789317620537404400,11.523404296875,6.934611047375202,-2.681292801146209,6.394702790918946
1789317620547437300,11.533437255859376,6.93605014026761,-2.680576761831343,6.393441977202892
1789317620557471500,11.543471435546875,6.937631856501102,-2.676615164723992,6.393385863101482
1789317620567504600,11.553504638671875,6.937693231299519,-2.672413621380925,6.395076884928345
1789317620577538800,11.563538818359374,6.932528395882248,-2.6714506215676663,6.401077002125978
1789317620587572500,11.573572509765626,6.931759749597311,-2.666695535995066,6.403892059546709
1789317620597605600,11.583605712890625,6.931913478854298,-2.659806068742275,6.4065896280676125
1789317620607639600,11.5936396484375,6.929731458640098,-2.658634979136288,6.4094356651484965
1789317620617672700,11.603672607421874,6.928959305223822,-2.6589623113945127,6.4101347533285615
1789317620627706600,11.61370654296875,6.931302653479576,-2.654065479263663,6.409630310937762
1789317620637739800,11.62373974609375,6.936375718960165,-2.644132698792219,6.408247332146764
1789317620647773700,11.633773681640625,6.941690776503085,-2.6344872108295556,6.40646454038322
1789317620657807600,11.6438076171875,6.947308616384864,-2.627171919380128,6.403378264805674
1789317620667840800,11.6538408203125,6.953018226203322,-2.6208810025423763,6.399758905264735
1789317620677874700,11.663874755859375,6.954014836025237,-2.6154189377442,6.400909828865528
1789317620687907600,11.673907470703124,6.950960124629735,-2.612351366867125,6.405479036477208
1789317620697941500,11.68394140625,6.946804173994064,-2.6072622270345684,6.412057245823741
1789317620707975700,11.6939755859375,6.942698492240905,-2.603353821419179,6.418088927203416
1789317620718008600,11.704008544921875,6.9380866145312785,-2.602766669180989,6.4233122148096555
1789317620728042500,11.71404248046875,6.938409855136275,-2.6029694982767104,6.422880837655067
1789317620738075600,11.72407568359375,6.9409238837838165,-2.6032699425280095,6.42004181483686
1789317620748109600,11.734109619140625,6.94558135420084,-2.601317639416456,6.415795847830176
1789317620758142700,11.744142822265625,6.952807213801145,-2.5985543121829626,6.409085536536574
1789317620768176600,11.7541767578125,6.957238474246859,-2.597457456856966,6.404719158020615
1789317620778210600,11.76421044921875,6.953556570863723,-2.60174813978821,6.406975997036695
1789317620788243500,11.774243408203125,6.954148107016086,-2.6002643309712408,6.406936249548196
1789317620798277600,11.784277587890625,6.958994378003478,-2.594123051737249,6.404163277703523
1789317620808310500,11.794310546875,6.959335154265165,-2.5927976483523842,6.404329866442084
1789317620818344700,11.8043447265625,6.960355144962668,-2.5920903768658636,6.403507444143295
1789317620828378600,11.814378662109375,6.964522201514244,-2.5877695910573,6.400723366382718
1789317620838411500,11.82441162109375,6.969681776234507,-2.583579738152027,6.396798301893472
1789317620848445700,11.83444580078125,6.966840415328741,-2.5863757986113427,6.398763464486598
1789317620858478600,11.844478515625,6.959977543821931,-2.5929931709244847,6.4035524523288005
1789317620868512500,11.854512451171875,6.958419792985915,-2.595223121933639,6.404341556879878
1789317620878546700,11.864546630859374,6.954362626549601,-2.5994460003256794,6.407035033747554
1789317620888579600,11.87457958984375,6.9518281396359205,-2.605332720276713,6.4073956837534904
1789317620898613800,11.88461376953125,6.953052712994814,-2.606983702354133,6.405394865325093
1789317620908646700,11.894646728515625,6.956794822132587,-2.6039853973209857,6.402550581809878
1789317620918680600,11.9046806640625,6.958034008538722,-2.600584648966789,6.402586822167039
1789317620928713500,11.91471337890625,6.9520625329136845,-2.605053611074388,6.407253644934296
1789317620938747600,11.92474755859375,6.945311889609694,-2.610972771990299,6.412163628807663
1789317620948781800,11.93478173828125,6.942319722056388,-2.614604114229977,6.4139242087394
1789317620958814700,11.944814697265626,6.939167980027198,-2.621092014944553,6.414687009805441
1789317620968848600,11.9548486328125,6.937119230803847,-2.6305177226766943,6.413043918773532
1789317620978881500,11.964881591796875,6.936741045141219,-2.643696937723458,6.408032228091359
1789317620988915700,11.974915771484374,6.937611982756852,-2.6536615746378898,6.402969099482894
1789317620998949600,11.98494970703125,6.939674760505556,-2.658114754654467,6.398884460517763
1789317621008982800,11.994982666015625,6.939459656450152,-2.6614818930000066,6.397718339347839
1789317621019016700,12.0050166015625,6.9362962239831685,-2.667102363230288,6.398808472672105
1789317621029049600,12.015049560546874,6.937826502290368,-2.66849644793719,6.396567415747046
1789317621039083800,12.025083740234376,6.941710065725445,-2.669979379971325,6.391734004241227
1789317621049117400,12.035117431640625,6.939125309929251,-2.6773285736903545,6.391466877737641
1789317621059150600,12.045150634765625,6.934638519904017,-2.685088394036889,6.393079573631287
1789317621069184500,12.0551845703125,6.929086730995774,-2.6955916678726672,6.394679994565248
1789317621079217700,12.0652177734375,6.925647988718747,-2.7042352853164076,6.394755397889018
1789317621089251600,12.07525146484375,6.92402067977786,-2.7129265412941574,6.392836412525177
1789317621099284700,12.08528466796875,6.920211935144662,-2.7233687325924634,6.392520186182856
1789317621109318700,12.095318603515626,6.918501624095439,-2.729910117059946,6.39158085950613
1789317621119352600,12.1053525390625,6.919065687718987,-2.734207521992922,6.3891334663540125
1789317621129385700,12.1153857421875,6.924983971852064,-2.733425723965466,6.383052685135603
1789317621139419600,12.125419677734374,6.927494493368267,-2.7330700423955916,6.380480204299092
1789317621149452800,12.135452880859376,6.924438612928986,-2.7365301197215914,6.382315018510818
1789317621159486500,12.145486572265625,6.9206509110838175,-2.74338626922667,6.383479386115074
1789317621169520600,12.155520751953125,6.916276933783292,-2.7545509295806285,6.383412166097759
1789317621179553500,12.165553466796876,6.910322409293055,-2.765080214640498,6.385308939629793
1789317621189587700,12.175587646484376,6.90596947478056,-2.7756945476353168,6.385412984526157
1789317621199620600,12.18562060546875,6.903665289491415,-2.7851208398893474,6.383798535066843
1789317621209654500,12.195654541015625,6.899651962196827,-2.796889603616297,6.3829930639028545
1789317621219688700,12.205688720703124,6.898782778146862,-2.8039687482222915,6.380826241257786
1789317621229721600,12.2157216796875,6.902438962566852,-2.807926838198304,6.3751283218771215
1789317621239755500,12.225755615234375,6.90167908411026,-2.8167306146398183,6.372067765262723
1789317621249788400,12.235788330078124,6.896089301279186,-2.8285084384560584,6.372902462521195
1789317621259822600,12.245822509765626,6.891615955257415,-2.8391514130234716,6.373008260983228
1789317621269855700,12.255855712890625,6.8893883423358195,-2.850421579578519,6.370385511264205
1789317621279889700,12.2658896484375,6.887654650411009,-2.863775566670298,6.366269308117031
1789317621289923600,12.275923583984374,6.884124138197302,-2.880078466695547,6.3627329506844275
1789317621299956500,12.28595654296875,6.884106602540612,-2.891921172441542,6.357377561131119
1789317621309990700,12.29599072265625,6.883055047661066,-2.902775451672077,6.353568816497922
1789317621320023600,12.3060234375,6.8852382369190455,-2.9086136563062666,6.348530822330713
1789317621330057700,12.3160576171875,6.887782076182961,-2.913152176518738,6.343688058474659
1789317621340091600,12.326091552734376,6.886399097391963,-2.920694262461364,6.341721726837754
1789317621350124500,12.33612451171875,6.8808373716115945,-2.9273399840861556,6.3446946051687
1789317621360158700,12.34615869140625,6.878096548470855,-2.9310367927774785,6.345958926016092
1789317621370191600,12.356191650390626,6.879075622636079,-2.9383918317154047,6.341494932344555
1789317621380225500,12.3662255859375,6.8806959173142905,-2.948800120744109,6.334901525428891
1789317621390258400,12.376258544921875,6.88474373140037,-2.9501527043968436,6.329872299090027
1789317621400292600,12.386292724609374,6.887083572524785,-2.947526447546482,6.328550695097446
1789317621410326800,12.396326904296876,6.882696151220798,-2.9491695385783907,6.3325564236074685
1789317621420359700,12.406359619140625,6.880037161144614,-2.949727756983042,6.335185018545388
1789317621430393600,12.4163935546875,6.88190880023539,-2.9482363493815065,6.333847047939896
1789317621440426500,12.426426513671874,6.879949482861161,-2.949559122417867,6.3353592060685155
1789317621450460700,12.436460693359376,6.870323576381802,-2.9554031722709535,6.343076648578047
1789317621460494600,12.44649462890625,6.864066854074597,-2.955784572803974,6.349670055493712
1789317621470527700,12.45652783203125,6.864305923527478,-2.9516771374851465,6.351322498875856
1789317621480561700,12.466561767578124,6.866567438718676,-2.951892241540551,6.34877749056816
1789317621490594600,12.476594482421875,6.864556683418154,-2.959964196576178,6.34719343624711
1789317621500628700,12.486628662109375,6.867015182486176,-2.9620255130201576,6.343571154096722
1789317621510661600,12.49666162109375,6.875066386994719,-2.9565669553533196,6.337393926766515
1789317621520695800,12.50669580078125,6.879766527509689,-2.9531448719501494,6.333887964472174
1789317621530729500,12.5167294921875,6.874063347432017,-2.958668311546743,6.337501478794216
1789317621540762600,12.5267626953125,6.871871974867582,-2.9585172126382586,6.339947702902555
1789317621550796300,12.53679638671875,6.877718362808227,-2.947461565616727,6.338757616335153
1789317621560829400,12.546829345703125,6.87741324238181,-2.940025570397079,6.342541226527095
1789317621570863400,12.55686328125,6.87551296171844,-2.9367367579847574,6.346123176667094
1789317621580897300,12.566897216796875,6.8786711334884165,-2.9347257104232907,6.34363077532947
1789317621590930400,12.576930419921876,6.887072466608881,-2.929590685622394,6.336885392722487
1789317621600964400,12.58696435546875,6.8977955206751815,-2.9238717234537,6.327856867614388
1789317621610997500,12.59699755859375,6.905487244221567,-2.920694262461364,6.3209314522653814
1789317621621031200,12.60703125,6.910310134333372,-2.917247336877882,6.317251886969804
1789317621631064300,12.617064208984376,6.914592341697215,-2.9100995109498498,6.315862478438019
1789317621641098200,12.62709814453125,6.917554698634147,-2.903717408697307,6.315555604445934
1789317621651132400,12.63713232421875,6.916847427147626,-2.8965976398199795,6.319599326878786
1789317621661165600,12.64716552734375,6.913736601650714,-2.888183739478886,6.326849151876568
1789317621671199200,12.65719921875,6.909692879217863,-2.8788743516027924,6.335503582975268
1789317621681232400,12.667232421875,6.901928674957156,-2.872422398984432,6.346885393211245
1789317621691266300,12.677266357421875,6.889842515844106,-2.871268845035136,6.360524626985192
1789317621701300500,12.687300537109374,6.881373962706327,-2.8677091067269442,6.371288597583771
1789317621711333400,12.69733349609375,6.876271086609363,-2.86349324259758,6.378689813750982
1789317621721367300,12.7073671875,6.875839709454774,-2.8580788163334128,6.381582612583041
1789317621731400400,12.717400390625,6.883256123191118,-2.847573204410076,6.37828298651576
1789317621741434400,12.727434326171876,6.894092574504017,-2.8352050134852527,6.372087054485082
1789317621751468500,12.737468505859376,6.903420374819636,-2.819871835274994,6.36878976650536
1789317621761501400,12.74750146484375,6.908006533566117,-2.8047160594582556,6.370509429904818
1789317621771535400,12.757535400390625,6.912672771811485,-2.787507442764938,6.373001246720552
1789317621781568300,12.767568359375,6.918560660806298,-2.7694670514225956,6.374477164492011
1789317621791602400,12.7776025390625,6.920554464972019,-2.7541379648655653,6.378952848601341
1789317621801635300,12.78763525390625,6.916326033622026,-2.7431127129822968,6.388282987004518
1789317621811669200,12.797669189453124,6.912596199443936,-2.730536432264745,6.397700219169259
1789317621821703400,12.807703369140626,6.910691827127337,-2.720633462409675,6.4039727235674855
1789317621831736300,12.817736328125,6.911589068228006,-2.7116560829669236,6.406812915429472
1789317621841770500,12.8277705078125,6.911282194235921,-2.7039029846221205,6.410419415488839
1789317621851803400,12.837803466796874,6.909955914068222,-2.695786021400988,6.415265101954341
1789317621861837300,12.84783740234375,6.910316564074158,-2.6846058712169527,6.419563675931096
1789317621871871500,12.85787158203125,6.911814693677425,-2.6704823610574007,6.423840038076043
1789317621881904400,12.867904296875,6.917813641831279,-2.653637024718523,6.424363769689202
1789317621891938600,12.8779384765625,6.926068259957432,-2.635068810109794,6.423112892845273
1789317621901971500,12.887971435546875,6.932485725784302,-2.620107972343266,6.422309175246953
1789317621912005400,12.89800537109375,6.941580301865935,-2.6036682941958307,6.419170877221227
1789317621922038300,12.908038330078124,6.947821242082118,-2.588645204848051,6.418495754438639
1789317621932072400,12.918072509765626,6.947555284622311,-2.5790537851601836,6.422643521767855
1789317621942106400,12.9281064453125,6.944242799073457,-2.569625154818594,6.4300003142714495
1789317621952139300,12.93813916015625,6.939871744382381,-2.561768596099317,6.43784985872805
1789317621962173400,12.94817333984375,6.939232861956953,-2.5493805314302445,6.443453670084476
1789317621972206300,12.958206298828125,6.944047568762302,-2.533024439913034,6.444716821888089
1789317621982240500,12.968240478515625,6.95130557706654,-2.5173408408299087,6.44303690597713
1789317621992274200,12.978274169921875,6.954255074521899,-2.5043013265147804,6.444935433074831
1789317622002307300,12.988307373046876,6.955647990185022,-2.4895897873342037,6.449130546677112
1789317622012341200,12.99834130859375,6.961060662883519,-2.4717773595288395,6.45014176954627
1789317622022374400,13.00837451171875,6.968812007662653,-2.4558085137635466,6.4478714865267275
1789317622032408600,13.01840869140625,6.97284637774527,-2.447918052774668,6.4465101350456475
1789317622042441500,13.02844140625,6.977244320443273,-2.4396106815479692,6.44490094628334
