seconds_elapsed,z,y,x
0.0,-0.4934206306934356,0.2969096899032593,-0.7641440033912659
0.01,-0.5034721853524232,0.3262487994493369,-0.7813672037600317
0.02,-0.49638362451088014,0.4348149112609258,-0.7137444658741657
0.03,-0.4917544789349245,0.5161431943860738,-0.6221973177403242
0.04,-0.43779525365272703,0.36624607099234113,-0.554157976877952
0.05,-0.3653155006125647,-0.1740898061328983,-0.4705568771216329
0.06,-0.35023508625018834,-0.48564916745301223,-0.3824942712076051
0.07,-0.38266812564103,-0.4673939825409497,-0.3255103215219859
0.08,-0.4691610014190884,-0.3184834821226357,-0.24202320726430143
0.09,-0.5839797571192684,-0.052263601037818255,-0.1429776550731526
0.1,-0.6770555424400226,0.15694840309013583,-0.055062015026877645
0.11,-0.7288679217620435,0.1999155533680104,0.026736763672602998
0.12,-0.7437082684431636,0.21026896346550802,0.09124237335212416
0.13,-0.7217447632986289,0.18396440169273512,0.11297942015575595
0.14,-0.6165235739545103,0.17509436656707394,0.06689836504342984
0.15,-0.5341143584657492,0.1234032157833936,-0.0015863590374673988
0.16,-0.4374496562680895,-0.12261202040003542,-0.053904378611949744
0.17,-0.3362074312784924,-0.3581214496429126,-0.09511231742631517
0.18,-0.21762359258613992,-0.4763077518939147,-0.1449727136158213
0.19,-0.023601704510081627,-0.43565505438252206,-0.18393295978941096
0.2,0.20285867359251014,-0.2924993657833626,-0.17164671303074294
0.21,0.36889627467361247,-0.04570259656727787,-0.14639697784086098
0.22,0.4830400030579136,0.1960792365707644,-0.242971077872825
0.23,0.5177437713836529,0.41070663218371173,-0.48764155337410936
0.24,0.45237867659717856,0.5500196067706011,-0.679810478374373
0.25,0.430760317229275,0.5629019286992845,-0.642839260806318
0.26,0.4526308341052405,0.45638804486633444,-0.458855217886671
0.27,0.3934940833483612,0.19325437677652335,-0.3826363920799983
0.28,0.28368879565646793,-0.11455630881219327,-0.47531166248078405
0.29,0.18478167930317377,-0.21931849901632802,-0.5773828614620711
0.3,0.09356519317525366,-0.18395502350273868,-0.6003210977328288
0.31,0.09392664591362689,-0.09015938278821467,-0.5816956258008639
0.32,0.16376474178621367,0.1604258882745933,-0.5553939544995016
0.33,0.15364692838690946,0.563423062245819,-0.4683900929897148
0.34,0.04035785671758378,0.9049323502683351,-0.33329210092116185
0.35,-0.09347101134221694,1.0645138344915386,-0.19951307872787563
0.36,-0.15988293837665135,1.0286887093636596,-0.08616509716569949
0.37,-0.1760898178250247,0.875306171273087,-0.037373728497439716
0.38,-0.1333288316744014,0.7665796665988553,-0.05168044341660428
0.39,-0.1026970747204043,0.8019509286441056,-0.11431103636379437
0.4,-0.19538710246446017,0.900080529404733,-0.24351909188948018
0.41,-0.3581582630254157,0.9384160154190514,-0.4355229353250175
0.42,-0.44837274407673927,0.8031407931077097,-0.6392629053630543
0.43,-0.4501248198404335,0.4117399972674519,-0.7679011914694851
0.44,-0.3497681280679554,-0.15651263098534698,-0.7615419151301552
0.45,-0.1821314352562217,-0.7049503750174677,-0.6017919295025537
0.46,-0.016219051869777148,-1.0345605315823034,-0.31661027081370874
0.47,0.1122543862349278,-1.064262412407061,0.018727226195340674
0.48,0.17577557323188198,-0.8394926081927535,0.29554133647660513
0.49,0.116776026155049,-0.39782830825100596,0.46483865143893355
0.5,-0.08418193187475644,0.14006517393624426,0.5058675281704009
0.51,-0.426064812824343,0.5212239200997049,0.4802419822581497
0.52,-0.8230954067360521,0.6649387055121935,0.4799598852102076
0.53,-0.8535560466758766,0.18849363874719494,0.21028812011405912
0.54,-0.8363770977960585,-1.2150683848624988,-0.6201315389008984
0.55,-0.8377283502088578,-2.9300923962866774,-1.6818783089835507
0.56,-0.7839251685011989,-3.999150046588741,-2.6062241948347125
0.57,-0.7070165027406179,-4.155377374136247,-3.0438076418275317
0.58,-0.553601043400626,-3.543550365440677,-2.972542667720738
0.59,-0.21744285257701734,-2.619954983567402,-2.428222017903122
0.6,0.3809329722854198,-1.9101048456230447,-1.5921975622995252
0.61,0.7286528518115019,-1.7617016446155938,-0.9411796539655672
0.62,0.3296896529310759,-1.9784478798631586,-1.1398421117351107
0.63,-0.16473750922840752,-1.4589737890613201,-1.1998394069648408
0.64,-0.2253607248742928,-0.3160255408884267,-1.2572083281311635
0.65,0.03411503066150447,0.10686670630783436,-1.8495775615071524
0.66,0.3928212919731959,0.12667702960835897,-2.12220446293468
0.67,0.6325585931735446,-0.038131384406877196,-1.9963629283609052
0.68,0.7493166897983765,-0.18186147202642705,-1.5971098335709155
0.69,0.7960670095887699,-0.48612658249667057,-0.8364037128110623
0.7,0.7406634445883468,-0.9253102751530402,0.05044219344655817
0.71,0.6655082112840899,-0.8168377359622926,0.6331726265489291
0.72,0.628105848397489,-0.417604172911933,0.9874200866969216
0.73,0.640639872033231,-0.1274018095303144,1.1640551202488667
0.74,0.6564084855757415,0.05141859966842451,1.1331043815524486
0.75,0.6505821451102428,0.1365414894466552,0.9707821179451249
0.76,0.6172456100952848,0.10530367940881233,0.7934030395630048
0.77,0.58354230354816,0.17994999196265335,0.6232565986851393
0.78,0.6074974675422167,0.2754507639166646,0.4393635158273427
0.79,0.6551623704920674,0.3227930010605001,0.28773298049496476
0.8,0.625861198197338,0.2651891844702688,0.21269413377804702
0.81,0.5203242387801916,0.0985398874707163,0.20924618923026161
0.82,0.45389873908338346,0.0032405191988448103,0.26612205764056346
0.83,0.49064432239091116,-0.007168662824610341,0.29063264023672375
0.84,0.5288262494669275,0.007079492991019209,0.34105086111597155
0.85,0.49325690054109794,0.10885765241548659,0.5004758773204079
0.86,0.3258323723970845,0.262663647962117,0.7376430129122719
0.87,0.0288208104076577,0.3271678703104504,0.9631030985539857
0.88,-0.29075234461599087,0.3577066235269613,1.0959850388141612
0.89,-0.49334255263980203,0.48525426406727046,1.2100055303540866
0.9,-0.4909917612375035,0.6271342346173915,1.3443765862962223
0.91,-0.3755435941689044,0.619524255547202,1.528355594882154
0.92,-0.24548098113225275,0.3762065099674588,1.7152146948506735
0.93,-0.12338434332411202,0.11158828742756915,1.8617257019235376
0.94,-0.0036480067605934286,0.13246911640195821,1.993638373421933
0.95,0.10728776890170565,0.38176590592478665,2.1080511511119138
0.96,0.18811193310256014,0.6776048355471193,2.1799250914379464
0.97,0.2524648471542873,0.9386790206600824,2.244780451909186
0.98,0.3480342310427337,1.1205207766452627,2.3259183582115286
0.99,0.4603910235147626,1.2105431271629687,2.3945280671137117
1.0,0.5948798953834359,1.1558029113604693,2.275561692940911
1.01,0.676132098822513,0.9284929441631905,1.782193294171538
1.02,0.6274203296856126,0.8795246010122688,0.9535016173900812
1.03,0.5296494879252698,1.129832763706688,0.2064583378611332
1.04,0.5025724316161637,1.2116899049126313,-0.12314902894708715
1.05,0.5423411764774679,0.9543475452201607,-0.15485148350692857
1.06,0.5689159196459614,0.49036204816066614,-0.09710363199981206
1.07,0.5515513406545256,0.07069527965506964,-0.02408793477781006
1.08,0.47538740393041423,-0.128221838224081,0.04694663729682233
1.09,0.315253195829283,-0.1792600137516983,0.11902491102183534
1.1,0.12086171510420118,-0.1669483379334453,0.17009913876543653
1.11,-0.06615744028858464,-0.08426308940291043,0.17376942110077656
1.12,-0.19572467488115192,-0.04518480245985209,0.1531220615659192
1.13,-0.2039466203053028,-0.14671913356813865,0.1776330040634593
1.14,-0.12241990182322295,-0.3348911216009602,0.2087233822635346
1.15,-0.011836924524117491,-0.5067903387654988,0.12381089761552225
1.16,0.09574588842265665,-0.6152844752455294,-0.12335277002232015
1.17,0.1406644780155532,-0.6413765091156884,-0.4024322790505965
1.18,0.09579693153219143,-0.6707468829252687,-0.5862112286801612
1.19,0.016011397026822076,-0.7540082462338656,-0.6709691241651856
1.2,-0.023440898835348382,-0.779688577880655,-0.6896307674961751
1.21,0.002359883482007006,-0.7601398760687845,-0.8056020639178315
1.22,0.10155156855982178,-0.8015256308726205,-1.0997300287523073
1.23,0.23067315317510248,-0.877576054819101,-1.4226034976796906
1.24,0.27475187282202634,-0.7942341783679078,-1.5951659854601166
1.25,0.2532392776012418,-0.43614610760750994,-1.5334139858719191
1.26,0.2216124356915517,0.048429936520126636,-1.2761860510352425
1.27,0.1443488530285212,0.41240384279233844,-0.9183404956159448
1.28,0.045918699842825574,0.5409619394072455,-0.5418318625061651
1.29,0.005535473218020149,0.5271350088518375,-0.18332748903700227
1.3,-0.008588875215501359,0.48736794710159176,0.15886133641005673
1.31,-0.07313448155601833,0.46394786379346503,0.455641975252503
1.32,-0.167724390266047,0.4621747060803513,0.6779576790223002
1.33,-0.2511701531646646,0.4503306290035976,0.8298046954327902
1.34,-0.33542587841357335,0.4238242689134785,0.9221925121414873
1.35,-0.4236876289961216,0.40594121866496435,0.9585495238916802
1.36,-0.5095353734479352,0.40044305372588546,0.9607854726784558
1.37,-0.6045591478771227,0.39628817960583684,0.9577130738082014
1.38,-0.6958133915131975,0.3932814117765775,0.9565023352978004
1.39,-0.7615736904959494,0.3807086442252346,0.9540099877006809
1.4,-0.803678124322221,0.35105812634284495,0.9349786003314641
1.41,-0.8523420517346008,0.3073154253391152,0.8912214915827812
1.42,-0.8984933054425703,0.28443639730268955,0.8264693827940979
1.43,-0.8999686280306234,0.31492834293494365,0.7418809732381427
1.44,-0.8781727681049746,0.3474551278381748,0.636877210369359
1.45,-0.8792068682695487,0.3519365770943616,0.5358705734462803
1.46,-0.8888714052986925,0.34165853376226035,0.4763900614944962
1.47,-0.8577521192940484,0.3133694858185567,0.42737300811022755
1.48,-0.7737026308057239,0.27763875703421903,0.34507355179523624
1.49,-0.6844526207679033,0.26328634243376975,0.24112690852505453
1.5,-0.6410271827126139,0.2642355573090606,0.1355334371643621
1.51,-0.6201748888249892,0.29735631289069686,0.012048648039657803
1.52,-0.5894762660813151,0.3599911508507983,-0.13610797678902506
1.53,-0.5536157676347381,0.38002596693384827,-0.2803207575322105
1.54,-0.5020757771462925,0.29648616224145796,-0.4063521513478119
1.55,-0.399277685654403,0.13112178837483607,-0.5247312875864462
1.56,-0.2639538656349357,-0.06223744006376332,-0.6774314767633006
1.57,-0.15335746566538155,-0.23690549042332903,-0.8283105762588621
1.58,-0.05866626855751888,-0.3582986132891215,-0.9549543640474328
1.59,0.02596855661400661,-0.4971741787997724,-1.1655862583471843
1.6,0.09858936016359503,-0.6199882643936327,-1.4763677923348717
1.61,0.16942494477058342,-0.6352147946532207,-1.7320448207045447
1.62,0.23592652610329232,-0.614283285889313,-1.8116443464065688
1.63,0.30262873217427383,-0.5868568617177979,-1.695527956178293
1.64,0.3530668366958373,-0.49383562787315494,-1.4311587818348108
1.65,0.3645532673945391,-0.3934816191666312,-1.2269441663783827
1.66,0.3661604942704067,-0.317010187776416,-1.1813851462953577
1.67,0.4086443679867319,-0.19172729266624314,-1.1909092511044288
1.68,0.507895325697838,0.017792484069984453,-1.1927528895890915
1.69,0.6513870443566847,0.22024103206874437,-1.1938282417728951
1.7,0.7978104511400739,0.30379599833031906,-1.1639420304602517
1.71,0.8801821391367863,0.17838767920992987,-1.0640968610335364
1.72,0.8544582582085506,-0.13468156146558788,-0.9255841378747688
1.73,0.7352092479799592,-0.46639130928509326,-0.7606826912408694
1.74,0.5427597452783532,-0.6877068320576579,-0.577180107074933
1.75,0.32200263780477534,-0.7158004172718537,-0.4257962577328194
1.76,0.1136239173811036,-0.5816221893415017,-0.3427759312478795
1.77,-0.06809447666924716,-0.3433935638728787,-0.3639170740338309
1.78,-0.19002259665727825,-0.008122358437509282,-0.5142918687315974
1.79,-0.23526410902869702,0.33659942168418333,-0.6978831175264149
1.8,-0.20543310034376677,0.49818593933417016,-0.7857731388621668
1.81,-0.11755758840770779,0.34613852134585005,-0.7428865483745263
1.82,0.0026115636422870316,0.07939431970458657,-0.697967745928968
1.83,0.14550830631650905,0.04842498893454383,-0.7664531489648403
1.84,0.33681322860086077,0.14536734489842706,-0.891589509798298
1.85,0.5499442326000058,0.12545349349098328,-0.9709212947848933
1.86,0.7371568343896082,-0.04497678869380325,-0.9890360306784975
1.87,0.889075119373576,-0.30941199561686067,-1.0644352820435916
1.88,1.0211676874648092,-0.6274172541521028,-1.274210785670883
1.89,1.1222598297450201,-0.9136324255470916,-1.5972867893809848
1.9,1.152566769766978,-1.05870193539455,-2.0053609224073736
1.91,1.03661468791556,-1.0837716116406333,-2.3238953796442376
1.92,0.8127067772928684,-1.0242367597315203,-2.462168458012911
1.93,0.5798343767736812,-0.8940742011313818,-2.500514840731655
1.94,0.400892651656261,-0.8262195132571089,-2.396269330798789
1.95,0.31451846032848474,-0.8393774447892073,-2.039803753259116
1.96,0.2769102026866587,-0.7434419906023338,-1.4883814088445475
1.97,0.2133817414186228,-0.38059241563177476,-0.8308667650799657
1.98,0.09941930671122386,0.06310474733944123,-0.16427763311289242
1.99,-0.030312505310947355,0.3125648871535578,0.36145343278738745
2.0,-0.1282504675070318,0.38962035084986696,0.6593596970818357
2.01,-0.2138295280051372,0.4078761568308516,0.8074178155221166
2.02,-0.2792788396743125,0.38415924446425775,0.8780391497420592
2.03,-0.31970772969191874,0.328086424534204,0.9045898247198484
2.04,-0.33531465325602977,0.2830446337253417,0.9139164911923044
2.05,-0.3376007081325328,0.24124341224231935,0.9393661063024881
2.06,-0.33024681264353173,0.17908072721650875,1.0017965311313557
2.07,-0.3158220421312449,0.10090425041183858,1.100539561240257
2.08,-0.2852491692834393,0.05746581853668863,1.1596107924328256
2.09,-0.24908458128752814,0.06284427428332537,1.11241255513073
2.1,-0.22668104906151823,0.05301902104358986,0.9457586856305908
2.11,-0.26985683703929214,-0.19093379952553122,0.6970201930841107
2.12,-0.35573821222260055,-0.863442976927304,0.6089067765019186
2.13,-0.33495546975130236,-1.3441725861185208,0.8146004392630867
2.14,-0.2531448152508868,-0.7476071992470762,0.8677936304549055
2.15,-0.24271875689500638,0.17995779268283404,1.0179507771895724
2.16,-0.46595242878529347,0.5513136337621176,0.8898440177770918
2.17,-0.6741177628432392,0.33805500636455443,0.5926657201245976
2.18,-0.6826678528315817,0.09493917764792138,0.5709211876038567
2.19,-0.5690621404483176,0.1744921484190274,1.0748298582423044
2.2,-0.4008242042841303,0.49089941712562446,1.904385246016155
2.21,-0.45161219720715057,0.45475135956073964,2.652392349103975
2.22,-0.6921531022336084,-0.07908519374647666,2.9617149546133645
2.23,-0.6161339975234574,-0.48823270660485935,2.6012562918566333
2.24,-0.39825697638546737,-0.20588209748991357,1.95290607684428
2.25,-0.15335537764420346,0.29598141035472897,1.3322904694311062
2.26,0.023226687475197138,0.5478421604448523,0.6634904774958599
2.27,0.13909436105647363,0.4017602135393475,-0.10994951485441558
2.28,0.3787130289737653,0.06212442051146796,-0.9302939335451739
2.29,0.5848175383472217,-0.1980164812672538,-1.7543173251371662
2.3,0.653238790426803,-0.27863616833104693,-2.3891941321041745
2.31,0.575755471848817,-0.21418666773738507,-2.7301202614599442
2.32,0.41165456057743544,-0.049407389228164525,-2.8537101759761136
2.33,0.21435599442617306,0.15216569097784333,-2.847804433232381
2.34,0.03186284102407777,0.2462072297865403,-2.666083484415281
2.35,-0.13082682077648033,0.08254865597490349,-2.3287399055778053
2.36,-0.2383764718485499,-0.3453372404623948,-1.9016632263466338
2.37,-0.29336243036889736,-0.6122962539213473,-1.521446426628258
2.38,-0.2989891733508321,-0.6978141742263155,-1.168769094851158
2.39,-0.28621419878235776,-0.7383318206984077,-0.8261365096716712
2.4,-0.27070500188935254,-0.6778749004332635,-0.5572956674094467
2.41,-0.2480321005340229,-0.6224404062278428,-0.35627323955381474
2.42,-0.21278065759306308,-0.6383834277809952,-0.15816368414361562
2.43,-0.16413002840938917,-0.6031856934186014,0.04746495056403511
2.44,-0.1299936972458301,-0.40018368308106267,0.19510386158387763
2.45,-0.08467111434662296,-0.147568669733478,0.2638569210249392
2.46,-0.06805193608721834,0.047655546292116394,0.2754621500944279
2.47,-0.1262616830633433,0.22973675332460827,0.27725777994058737
2.48,-0.27019656862721975,0.4330423316254311,0.31374180567822085
2.49,-0.5067812124199091,0.5962712364692744,0.40769236776296053
2.5,-0.8031469442545454,0.5983777707925408,0.900646541547378
2.51,-1.12621881077217,0.4764476861719382,1.9820882667778896
2.52,-1.3051049779308441,0.3738016614070942,2.581254436337482
2.53,-1.2918814212498915,0.1593143856157709,2.6906608086513497
2.54,-1.0020066530687732,-0.055863422733877066,2.6090025533715897
2.55,-0.3453861329821546,-0.16420581489330358,2.494594410654977
2.56,0.5295693122481223,-0.2554265693268463,2.404664699426632
2.57,1.165179466632707,-0.7212869709375876,2.065984371065499
2.58,1.5157726487398147,-0.9949789642301125,1.4051844846001298
2.59,1.6820020110705796,-0.5340488669003791,0.4301805614294512
2.6,1.6063263086506916,0.09637482048050894,-0.5620718075788237
2.61,1.3802414928087514,0.4102805314435185,-1.2274746942928616
2.62,1.138450622362793,0.3740890369700086,-1.6157119953719645
2.63,0.9268674524175486,0.21656044038072947,-1.953332833472282
2.64,0.8243547421971403,0.41377085470588104,-2.357541399057992
2.65,0.7563839182453449,0.7306601236611968,-2.6823143731416565
2.66,0.6478205170128972,0.7143240157825747,-2.7139597808262987
2.67,0.48310867954296494,0.5987844241095005,-2.4313102048743813
2.68,0.25743041734944355,0.49131054203147706,-1.9883563362913321
2.69,0.016507677920077804,0.2712404323723815,-1.4630466003079128
2.7,-0.09074039170979904,0.1451913381289074,-0.9298641728180779
2.71,-0.06718814853650956,0.11978917707327573,-0.4663241731587915
2.72,0.013028488601018028,0.24616683082511664,-0.10590508786867656
2.73,0.11937866206655914,0.3869953674677962,0.20402513537931244
2.74,0.16959220319550278,0.3807442395414347,0.43334704441458033
2.75,0.11280546908397485,0.3341192813792108,0.5348141435831432
2.76,-0.057835545324670674,0.4032048260186071,0.4821813961340516
2.77,-0.2777218023438228,0.5637785134262001,0.3146685937847594
2.78,-0.44282666254880615,0.7554066088481706,0.16664413058582866
2.79,-0.5283470972718124,0.9181685846734747,0.04143685686610505
2.8,-0.5804218611301496,0.9621072516768796,-0.10313160857710119
2.81,-0.640890740863261,0.8562712612416075,-0.14388016679240537
2.82,-0.6412110972231615,0.6283920278192315,0.05158984254427266
2.83,-0.6230791707439787,0.2071564947923861,0.4732841834273766
2.84,-0.7763623164779254,-0.3007443807682132,0.8808155184462233
2.85,-1.127849660858619,-0.5907082714408823,1.095590822215026
2.86,-1.4408003682130066,-0.5099400518894589,1.134835322856526
2.87,-1.5779977769080153,-0.08711525641580817,1.2943390718660805
2.88,-1.5110492129091595,0.31552473236835865,1.4134655505909726
2.89,-1.367156456617801,0.5809013908116898,1.393874031310679
2.9,-1.0643099074162938,0.5717745419321185,1.366809722443265
2.91,-0.4622716710590389,0.2191515019203723,1.2549610162478038
2.92,0.26404930331518206,-0.19978496672613585,1.0523060472020747
2.93,0.8979571518236361,-0.14481135477332943,0.7643183423872815
2.94,1.228713353301876,-0.08217706920040486,0.3725989512724282
2.95,1.3520047181180352,-0.07391477877562813,-0.05508719306681064
2.96,1.3095602832625597,-0.0677733342985721,-0.47577380817515397
2.97,1.172754406592542,-0.09012420777712164,-0.8776983422984173
2.98,0.9427413628795913,-0.08057939405916954,-1.216893372689342
2.99,0.692364756623127,-0.14114938317633288,-1.3969884887368589
3.0,0.41341537624378244,-0.2952293286249683,-1.4093298421288936
3.01,0.0832204211700038,-0.3870322322377379,-1.2791562958514002
3.02,-0.23097107042940568,-0.3009702497300175,-1.1015764610842829
3.03,-0.4382915987121472,-0.06951439066815385,-0.9598937680367451
3.04,-0.5714913676156873,0.2340183465073365,-0.8842287370599209
3.05,-0.6907625424513929,0.48489663664878596,-0.743549911479871
3.06,-0.7954542348225087,0.7279435275244825,-0.4393624563216391
3.07,-0.854193946392871,0.9008167434231914,-0.1350706817071724
3.08,-0.8751084197205374,0.9177867817618839,0.020212873762747177
3.09,-0.8703370155660239,0.7431214234133374,0.027156086002399802
3.1,-0.7881829762241379,0.43673639243323203,-0.029297718426109617
3.11,-0.6315176150620567,0.139100998671795,-0.1121790109097862
3.12,-0.42473305550514173,0.046495573474249964,-0.16979885275201692
3.13,-0.18488794517341853,0.1998628364383822,-0.18883943666506936
3.14,0.07118749653413133,0.4883126386619437,-0.13830756237790015
3.15,0.285708061279382,0.7653488697883764,0.0244431058379
3.16,0.3832711173771663,0.7330526981185526,0.8487650987961038
3.17,0.3692439460027493,0.19090288837529162,1.6765592277900199
3.18,0.2552824815085218,-0.16219915198151807,1.7060908748807666
3.19,0.20455920251181028,-0.06617734020751175,1.6127000600462014
3.2,0.2946814672728761,-0.07477874798320712,1.507891167311825
3.21,0.3312343473199515,-0.3765324948677374,1.2965060685672867
3.22,0.2784970425341206,-0.7132911039312637,0.9162108051515554
3.23,0.1383354668192398,-0.6740526454199985,0.5203364904741308
3.24,0.0797426540631159,-0.3534793500511622,0.2639644313699729
3.25,0.2112751870172725,-0.29322553429580395,0.038191520027872336
3.26,0.3863096866136518,-0.6221632634548091,-0.19992732636585941
3.27,0.5060063458533267,-1.002541076414805,-0.44537243521345893
3.28,0.529880750689498,-1.1969908199164643,-0.707042032462737
3.29,0.4936572945401619,-1.2465428804178864,-0.8363453562498863
3.3,0.420270799845095,-1.24019651438488,-0.7238799475289328
3.31,0.31026091926211063,-1.2259902130638287,-0.40734631098252316
3.32,0.21606339502941566,-1.0715706049779399,-0.022749501901932978
3.33,0.17046348652262652,-0.8147767616387218,0.3153201855553302
3.34,0.1651736005225951,-0.5387561401342419,0.5715573828682569
3.35,0.17455883278028872,-0.33225517556613954,0.732070731838263
3.36,0.16139273123573583,-0.16983090232099424,0.8383243720289867
3.37,0.10690733466705322,-0.055539028267683116,0.9441675047949851
3.38,0.020917816349282203,0.021035261520176197,1.0633276420643123
3.39,-0.04353619154215367,0.1050913744234974,1.1881847875275757
3.4,-0.06861095944895475,0.18836394303907078,1.2967012651123335
3.41,-0.07647671430215414,0.29972131024603366,1.4145103369896284
3.42,-0.09916882504127063,0.42312957180161764,1.5517927080043301
3.43,-0.11322811350879036,0.4538235247715259,1.637452327857054
3.44,-0.10891416674330258,0.4375918010508048,1.6987441251747821
3.45,-0.07988914459779532,0.3742041427425754,1.7607007466869076
3.46,-0.036972110871127034,0.26455301102640866,1.8182383549590455
3.47,-0.011459995590676002,0.1503492766488205,1.8562890159648704
3.48,0.007521975897942402,0.10034900655040527,1.8592384404810298
3.49,0.07244852437669713,0.09493199273708236,1.8516726580414455
3.5,0.15587287247726136,0.09766992443850772,1.6230411704583898
3.51,0.15169171570696224,0.3650696908832703,1.100647547903913
3.52,0.12228694528558634,0.6122399309952038,0.5595925949611465
3.53,0.16728426357034237,0.36841455367509723,0.30003334539249427
3.54,0.19641123794656046,-0.04562390503607401,0.27110933880582344
3.55,0.22279719606550025,-0.2243837463594927,0.49526165629105706
3.56,0.2969199556057652,-0.14989845401304228,0.7498099523137906
3.57,0.4389935616379919,0.05406139148350753,0.7209697375623338
3.58,0.5514587417148558,0.32684989474744325,0.5057030447823184
3.59,0.5564198210639681,0.375056811017132,0.2733763070705526
3.6,0.4309104211124498,0.2380851381647345,0.1442028683097705
3.61,0.25271322058946033,0.12112000904177005,0.0993925179714927
3.62,0.09615841943416095,0.1726961517812629,0.17378874146808537
3.63,-0.017016180143167775,0.2930359442796838,0.23461440548409912
3.64,-0.0726884519491441,0.2392116800654707,0.17298471756361627
3.65,-0.0681097472599615,0.12217178585021052,-0.014811559482635794
3.66,-0.043917468676202866,0.06273651220520737,-0.2618211451444765
3.67,-0.004310667071778716,0.009488069794131039,-0.5235229372206611
3.68,0.043120208508727303,-0.09111664461282522,-0.7703232431484045
3.69,0.06988279009387208,-0.1530620433792528,-0.9555450733560521
3.7,0.0705844104916173,-0.06984711408848295,-1.0743823441338278
3.71,0.054730163683203645,0.04277034077131816,-1.0746996118059409
3.72,0.02195241126478256,0.13339668835929286,-1.0448592749535268
3.73,-0.01426478146266928,0.17560190549107962,-0.9531817427864546
3.74,-0.031389168329183995,0.10363270431430023,-0.7302879899087457
3.75,-0.07418828267953315,0.004552395462227397,-0.4294305153085938
3.76,-0.1770577206497191,-0.05061138422942698,-0.14408224048093524
3.77,-0.2918108145323631,-0.06811480360762948,0.046987030005835574
3.78,-0.34573292848477993,-0.07991663224447872,0.14589001751923167
3.79,-0.33233374531328164,-0.07447851290247097,0.20086648988968944
3.8,-0.2940378948516801,-0.06643193506683312,0.23025361364122715
3.81,-0.2822149916923163,-0.04529814017695421,0.25309914880003365
3.82,-0.2784710714764839,-0.023715259504035663,0.2810476353438227
3.83,-0.2788313944702248,-0.027617900852019272,0.3187762296692376
3.84,-0.29181203369676695,-0.04038596221891672,0.3819675449211258
3.85,-0.3290592526311412,-0.06014017912388499,0.45635308892962867
3.86,-0.36941320371614916,-0.07049020916200303,0.5159797405450558
3.87,-0.39775875374638536,-0.08121389319028001,0.5448416052798575
3.88,-0.41860039589941517,-0.09370729471104819,0.561781673535061
3.89,-0.4263602841771745,-0.10074752335632649,0.5851259406121888
3.9,-0.42113422373785503,-0.0894720635129859,0.6180860313823948
3.91,-0.3965855701761144,-0.06834847326239456,0.6283953356645401
3.92,-0.37546357775480566,-0.052174761993609445,0.6003654524631392
3.93,-0.3496664288487729,-0.013185900273002387,0.5334834772913948
3.94,-0.313161886214201,0.049148701340282576,0.4201592573670039
3.95,-0.28583489652431,0.13545258689580977,0.2688822391413841
3.96,-0.2900387202011113,0.2557654757453258,0.08583113915692978
3.97,-0.3169922587878776,0.33490453883503896,-0.03974070780832337
3.98,-0.3425001177510161,0.36114429145005156,-0.11641745910354756
3.99,-0.34244711585176796,0.3362323552824649,-0.22388916537115375
4.0,-0.3287908013828463,0.2738915244984719,-0.34746710892360205
4.01,-0.32236126779439644,0.2690108556559368,-0.461781865590542
4.02,-0.29267066643039297,0.2904970494510851,-0.5817593956501752
4.03,-0.24680026608154365,0.29823461411063107,-0.737155636714325
4.04,-0.20732560900230118,0.28357237280705533,-0.9064171050719285
4.05,-0.22754620430326217,0.23023542969444621,-1.0148353690883465
4.06,-0.24498910015516911,0.22661620162264207,-1.1403521845694558
4.07,-0.1943039292495745,0.21121836538208677,-1.3183942813560559
4.08,-0.12342607055135647,0.1424090172377067,-1.4909129624337987
4.09,-0.06504179874290977,0.053668581922959466,-1.6137541678482328
4.1,0.0026051826741927127,-0.04236104800633503,-1.656496251977306
4.11,0.08363748869607447,-0.16866779589204353,-1.7090984680910346
4.12,0.15489435064387233,-0.3273214707177519,-1.828057294936091
4.13,0.20877139593570626,-0.45878266669087364,-1.9557726130369122
4.14,0.24945745897578828,-0.5082210464420565,-1.9896650185750135
4.15,0.2832663312445614,-0.4745281137906677,-1.8997135801210796
4.16,0.30303177523504066,-0.4321334119204041,-1.8104007440128513
4.17,0.32595785028200935,-0.43176143606703044,-1.790200590063451
4.18,0.36904261283340534,-0.44094884924935,-1.7727049111275794
4.19,0.41396037867334384,-0.41623500100025057,-1.6904197262972631
4.2,0.43536546487007743,-0.36426600419909055,-1.532429000794731
4.21,0.46118989938439936,-0.3075574209372434,-1.334851374240376
4.22,0.49157610154553927,-0.2917821267588456,-1.1439404461736427
4.23,0.48399450106559716,-0.27503265399567195,-0.988928497790413
4.24,0.4344551809794268,-0.22374538252222806,-0.8639107397134537
4.25,0.3735628690176317,-0.19213960583180748,-0.7795839938442344
4.26,0.30671924477074686,-0.2262798498074337,-0.7683378237862994
4.27,0.24332923991722966,-0.25655902051230106,-0.8010009162129984
4.28,0.2107119560415719,-0.16637354430691118,-0.7970412051901883
4.29,0.20756240876124168,0.03047830132437771,-0.7268110609765135
4.3,0.2137021563997781,0.2458091440515637,-0.5892591024202697
4.31,0.2107390674729044,0.38744068965154843,-0.4364157088171371
4.32,0.19199026352297371,0.4009708875069601,-0.29920262403621556
4.33,0.14799406740831836,0.43897246278381136,-0.14513909913074827
4.34,0.09415166979883388,0.5749218181944742,0.040930010761272506
4.35,0.07072958213490309,0.6722009868898892,0.19665372471164486
4.36,0.08535862631606418,0.6372810928055818,0.2982001666590553
4.37,0.13648377947958623,0.48525849738641325,0.40099146980946726
4.38,0.19742880985949188,0.31140259874864434,0.5046762951235771
4.39,0.2294815566055371,0.17774049587875235,0.5577283043495914
4.4,0.21846119801276215,0.11010425119939721,0.5320108566841125
4.41,0.16197478267446005,0.10387686934182369,0.4640889919391815
4.42,0.06956493296150194,0.11776147299747602,0.41837255160086256
4.43,-0.039981404102828334,0.10966709944725288,0.4103413150918167
4.44,-0.11490894087981555,0.05676694792181332,0.4236680374402982
4.45,-0.11649230388448607,-0.012274486249870402,0.447891943322046
4.46,-0.055194521225287216,-0.07083802482630198,0.46875212809277295
4.47,0.03264620839748833,-0.11124860729656498,0.4647498002043354
4.48,0.07867354968567297,-0.13289425028320714,0.42517976214777065
4.49,0.06484101898908916,-0.1339462885167239,0.36485744164170164
4.5,0.043309257267166924,-0.12835913167691262,0.3048370209953273
4.51,0.035290897982942646,-0.13855096420087412,0.25838794752302735
4.52,0.030233384250505757,-0.16544693434717558,0.247572605913116
4.53,0.021496794770151574,-0.20432161389781123,0.298057259333578
4.54,0.035438994647883824,-0.2703244012420264,0.41249354346608774
4.55,0.08380875643839251,-0.37074572356090746,0.5644105375342504
4.56,0.12695577153110438,-0.4781686077863567,0.7231485140988119
4.57,0.15038224140404252,-0.5753396108478265,0.8726693929735522
4.58,0.16617643415617608,-0.6410103661702855,0.9965480247465293
4.59,0.18905420596763248,-0.650962349280483,1.0976130946968914
4.6,0.20763823221409045,-0.5966474142621149,1.1757573741063283
4.61,0.20139931265853975,-0.4748418846886004,1.2319687102716894
4.62,0.18577499529523692,-0.2934660503398992,1.2984202594652567
4.63,0.18298767992819728,-0.12360464081460766,1.3683139802858562
4.64,0.18012111620311286,-0.006608597989806619,1.423170541727921
4.65,0.1511465418469251,0.0685354075842846,1.4776635286146762
4.66,0.10665802208752599,0.12068474176168945,1.5428004390428027
4.67,0.07767159527616489,0.16193617516189873,1.6113817021446435
4.68,0.06612704249810446,0.20664642219234441,1.6494355263791232
4.69,0.05785955133021522,0.23336202559929511,1.6485758864756017
4.7,0.06739188998222172,0.22683786467768494,1.644081290580352
4.71,0.10454441150707752,0.20061109156593185,1.6697351187115939
4.72,0.16042611825225148,0.1938916835466665,1.7195542246330255
4.73,0.23461636522753837,0.19572761337977457,1.7533308297323205
4.74,0.3178359612803019,0.22265091232306694,1.681006829328688
4.75,0.3780986630284873,0.37603312227838165,1.392122372025853
4.76,0.35842534881148946,0.630835693329199,0.9251661814100505
4.77,0.3184082853026616,0.7119991426331679,0.4512795667604327
4.78,0.37596231495156074,0.3600966006317334,0.16434173814800312
4.79,0.5034483373382793,-0.256023849005846,0.054465094939492815
4.8,0.5823240313870135,-0.6371425962810144,-0.05809181814008074
4.81,0.5087066271617805,-0.5445886686425765,-0.27459764655203545
4.82,0.28979094717180703,-0.2110494971976824,-0.5463821810463855
4.83,0.009459216906298192,0.06044472963533115,-0.7568782997827536
4.84,-0.23350752947143802,0.1350881009122822,-0.8056148609011847
4.85,-0.39472906917880984,0.10434802509105501,-0.6817731667687594
4.86,-0.4467218809710783,0.06990658302069924,-0.4687651869697957
4.87,-0.4152318606898961,-0.053626964953272425,-0.30031804832919634
4.88,-0.3738737454062921,-0.1853931254728916,-0.2799753075684694
4.89,-0.3681434822343552,-0.16912638698181753,-0.4226538018414467
4.9,-0.38567032131586887,-0.03785054358324173,-0.6317234322950487
4.91,-0.3858317739235665,0.04701629126309266,-0.8167591580912681
4.92,-0.3346813124331163,0.04065445621336857,-0.9578272503861055
4.93,-0.2308268540357755,0.05990755801669086,-1.0201810922189682
4.94,-0.09599583975253498,0.15439258019662044,-0.9680197330100451
4.95,0.03293793746010242,0.23584796321363424,-0.8135320377175728
4.96,0.11244948480692843,0.2920863539007326,-0.6270371162893331
4.97,0.10699416388571173,0.2807923363430944,-0.41350941439145905
4.98,0.04550056919781711,0.1979689174868755,-0.19534822496836718
4.99,-0.02476005037819781,0.16840166004654758,-0.013703894840254189
5.0,-0.11133579486938937,0.18374907553910919,0.12449148470870856
5.01,-0.1660639829038098,0.19464762915079845,0.2027487578951859
5.02,-0.11775645432894152,0.1930149348990239,0.2572397655435149
5.03,-0.042966914126995784,0.20606831867538614,0.3177293045099757
5.04,-0.018108072530094353,0.21802825858766786,0.40082981251356986
5.05,-0.11036325575117852,0.14861390943754155,0.5167125490133815
5.06,-0.2509957596276553,-0.14187134878773924,0.773938317334188
5.07,-0.4138980434437935,-0.47494073655675134,1.1031391322779471
5.08,-0.5754937597144811,-0.5286406658919819,1.451539284431719
5.09,-0.6950829441477684,-0.3703884544043468,2.080153600758616
5.1,-0.8530911037343816,-0.44899559392848404,2.930797217092423
5.11,-1.0550734362753054,-0.7288069842215971,3.567718393437194
5.12,-1.0534301553130485,-0.8483267027410024,3.464331656248392
5.13,-0.9982493902958606,-0.32116465476196965,2.696896275083594
5.14,-0.7982128025638437,0.21155842215186416,1.5824657064516154
5.15,-0.6224839645390642,0.4113007973781173,0.493583465076851
5.16,-0.2591380457921933,0.6169910894820664,-0.610380673269926
5.17,0.11908365966992682,0.7493967087831531,-1.4032286077346328
5.18,0.2503059025314652,0.7253080716521522,-1.6954549208514373
5.19,0.30965759715444424,0.41429148214692574,-1.6004945233418122
5.2,0.35717228392179895,-0.0169000927929835,-1.3900904058539982
5.21,0.32253997223769043,-0.3638192353441477,-1.2434807281783715
5.22,0.23440476936608146,-0.5949127840579375,-1.181429935570786
5.23,0.12088789188584645,-0.6835843035310413,-1.1816049030285432
5.24,-0.010952200046359979,-0.6301035619442648,-1.217150371716686
5.25,-0.1323448013981093,-0.4412061829360238,-1.2618969116145013
5.26,-0.22501293679078407,-0.20646182770249413,-1.2678539871531391
5.27,-0.3113618617559852,0.013502604728428435,-1.1663736430935785
5.28,-0.39601652007497395,0.18398696457861205,-0.9635823354305808
5.29,-0.44675770840588636,0.25990578486680505,-0.7942906010049181
5.3,-0.4616894260984266,0.26334996520167675,-0.7271799087089347
5.31,-0.46826179889191766,0.3093172690702104,-0.7340493953550807
5.32,-0.4562684747043801,0.40241937091708935,-0.8859421174866674
5.33,-0.42936255711418325,0.4948778941973621,-1.1419865096572663
5.34,-0.4085145007926166,0.47503213893874985,-1.1821656772123326
5.35,-0.4342637216236514,0.06443742205194254,-0.8853099911345529
5.36,-0.5330607018969673,-0.6309072553386622,-0.8482033674067511
5.37,-0.5177312895092293,-0.8052703204106781,-1.1360373018536543
5.38,-0.26247451076416983,-0.4791353121767287,-1.3885751630953032
5.39,0.13148071120834792,-0.15372684115621152,-1.5508283164611398
5.4,0.4393135565054354,-0.11193442408044164,-1.5952303499000011
5.41,0.5991002447706871,-0.3572267316438323,-1.5272890925769953
5.42,0.7240484633585061,-0.5460072258528119,-1.4489289476923595
5.43,0.8208437068043846,-0.5051602235115552,-1.3362355091559208
5.44,0.8898869608872136,-0.29969894139162134,-1.2079882090067098
5.45,0.9277641038433477,0.020994880123569325,-1.1003749368399594
5.46,0.8875008373426517,0.40241963360593525,-0.9983397333803952
5.47,0.7716797695588901,0.7981996469962924,-0.8720751254963948
5.48,0.605234033833721,1.1191331641227646,-0.6774154894615536
5.49,0.40331778918038635,1.3131366154843518,-0.3854164702963692
5.5,0.18826087479007642,1.2727737576860627,-0.1680140308545352
5.51,0.04992720775460852,1.041968711510428,-0.08622596871526723
5.52,-0.0016481304190111817,0.7958039886151022,-0.0976623080931863
5.53,-0.009977379615897647,0.5919127250017002,-0.12243298687500045
5.54,-0.03858036218089716,0.5152215531508778,-0.12855987010404535
5.55,-0.07446343540565369,0.623448954736529,-0.07875852468094043
5.56,-0.09211097402088553,0.7409339701248473,0.045277528675531926
5.57,-0.0931578018537173,0.7191295600618305,0.10301476345657165
5.58,-0.10664918412257754,0.5634044513505069,0.012676148087847634
5.59,-0.19343151840541736,0.4061402061385221,-0.12823751277327197
5.6,-0.2986790971791257,0.2878673544823753,-0.24502530634258346
5.61,-0.3297372830610193,0.18717265153018114,-0.3489758535197199
5.62,-0.2596097867317229,0.1416812854044906,-0.4296900247749609
5.63,-0.12316473326609075,0.18310357577860462,-0.4543876785764474
5.64,-0.004576537325069555,0.2276227474288756,-0.4423422294724446
5.65,0.07216140328243076,0.19337000934817206,-0.3279991792573849
5.66,0.1594981166192602,-0.0009440343637217425,-0.07024621267823698
5.67,0.2638200540003105,-0.14783129494012057,0.18762701849540975
5.68,0.29360202985548495,-0.06948255171246769,0.3746183018856479
5.69,0.28049295881870073,0.004910632500882524,0.49813856654478916
5.7,0.25467350400458205,-0.0008884637695022124,0.587751192173538
5.71,0.22613142301237313,0.007044508665325102,0.6749115604641395
5.72,0.25813876243225986,-0.024739769265272007,0.8013113043978849
5.73,0.31449766854491,-0.12337491620030944,0.9069634404242479
5.74,0.3185082857452167,-0.2193904143115033,0.9594493688284045
5.75,0.273660039381955,-0.27756736868373194,0.951136669167555
5.76,0.16915354796006551,-0.2581109893848751,0.8852745481539747
5.77,-0.007837117791472599,-0.21405901148951828,0.8408626055485459
5.78,-0.14131887372431695,-0.27476784200626736,0.898412229183852
5.79,-0.2238933411276044,-0.42464392541511814,1.016308267353394
5.8,-0.2137341706854979,-0.6260038895494946,1.1405256600527174
5.81,-0.1617826807395235,-0.730453524123357,1.1358259712194523
5.82,-0.10077746657271405,-0.6725675249999722,1.115140761725379
5.83,0.027162336068877337,-0.4943414169063715,1.08118183114557
5.84,0.12342989595865568,-0.31403004976953747,1.0477660907881106
5.85,0.16400234801464128,-0.1859187156196962,1.0530586473413668
5.86,0.18451899149263964,-0.15071085483679372,1.135389615165099
5.87,0.21473348294441133,-0.17603799419027963,1.2864546858916153
5.88,0.23707777444975608,-0.24933847395523723,1.4115611863787687
5.89,0.23690959870961775,-0.4476790525445722,1.4676875921318902
5.9,0.21111859961959423,-0.5210549729951229,1.5643444793926686
5.91,0.15424724126460984,-0.3300453037456224,1.7122365880434423
5.92,0.060648448685146926,-0.17493966163794739,1.8324587659216647
5.93,-0.01037646659969327,-0.05085257181177313,1.9441605071951857
5.94,-0.07162959507837414,0.06017878209222587,2.027066074738494
5.95,-0.11517773120833742,0.05080380405152131,2.0255440513931053
5.96,-0.13827337165216197,-0.02455487407804749,1.9716305083992367
5.97,-0.11497821457243707,-0.04887400260944864,1.800067173654101
5.98,-0.1285861781304782,0.006661760755377446,1.4382292960855778
5.99,-0.27282557365244703,0.14629204050514233,0.901428996006895
6.0,-0.41266513927553944,0.20990417086618257,0.3522193869563442
6.01,-0.43119588065973846,0.054856972636498365,0.016275820937014632
6.02,-0.3299556329743623,-0.2657877028901851,-0.1159037490162263
6.03,-0.2326080980669157,-0.4801514763815526,-0.1366742270772059
6.04,-0.17361548035285368,-0.4937745405635695,-0.12310194029479535
6.05,-0.15129601323458797,-0.291931811437795,-0.05580796598081449
6.06,-0.11917441478959163,-0.0861332306078495,-0.05734497872369362
6.07,-0.12074826554170968,-0.03327577722106407,-0.19920250805645323
6.08,-0.1407869880738342,0.10869369325314174,-0.46813476266803944
6.09,-0.15375472940893423,0.30959180357220223,-0.6826120927901271
6.1,-0.1660749351075513,0.33768984573165634,-0.7630923161106288
6.11,-0.12254878129383018,0.23810261135760552,-0.7236126758454147
6.12,-0.05848424390543613,0.03793806369967648,-0.7154478157082037
6.13,-0.006719015488523305,-0.09770197520276293,-0.7913698879479653
6.14,0.03947573095303711,-0.16415490110279754,-0.7924681925541587
6.15,0.010604630235489588,-0.30102171504886,-0.7824141666582841
6.16,-0.08014243188463337,-0.3546956375615904,-0.7609150540527293
6.17,-0.15154407993503388,-0.3890784475272615,-0.7428092498848895
6.18,-0.15526648471500182,-0.3942844845333708,-0.7130506972367922
6.19,-0.2139790250196363,-0.37786357270620463,-0.6282341163000744
6.2,-0.4193116160520187,-0.46828425102062526,-0.5285673837809689
6.21,-0.6525976467852825,-0.48401155243369676,-0.434405719757658
6.22,-0.6576002070861922,-0.41592233583492044,-0.29152324051949824
6.23,-0.5773621071080987,-0.444023696943361,-0.08289946446886033
6.24,-0.48519919553841984,-0.38902284869872106,0.08548440024637698
6.25,-0.38123414576795,-0.3129108383304952,0.10910747256339791
6.26,-0.3079432373666033,-0.2913541410468191,0.04584199145471577
6.27,-0.25501133531296,-0.31156324623692844,0.0036863682360111605
6.28,-0.23174916144449614,-0.3461428553757213,0.016184879115004772
6.29,-0.19412684227936025,-0.34892540780297165,-0.005038343319337508
6.3,-0.1147201754468854,-0.3732260464911282,-0.019074387944093576
6.31,-0.04078770755133321,-0.3887123403814552,0.017790471323300305
6.32,0.01616480983318448,-0.3902351457598435,0.07216927363150354
6.33,0.09388353595902649,-0.378209789656134,0.14240625765933548
6.34,0.16029301471522991,-0.35416890479166285,0.2182691673901321
6.35,0.21822990482886656,-0.34603415886198463,0.3023854325291249
6.36,0.28222132411914136,-0.3582572407402162,0.3809579317348084
6.37,0.27786644051151915,-0.3593195959200152,0.41200107553149934
6.38,0.2177293958345643,-0.3089576559905799,0.352329092268037
6.39,0.1285461588314514,-0.2559491749861974,0.23265233712475164
6.4,0.04738782233082441,-0.22538841496871664,0.10701851843562428
6.41,-0.002709747509388438,-0.24437937270191165,-0.0742022331854887
6.42,-0.0613921859813546,-0.2729970412587177,-0.24196809817677412
6.43,-0.09377417169208098,-0.3424087162377395,-0.31454050402060874
6.44,-0.10199080402615583,-0.43813652971218203,-0.23001305431630828
6.45,-0.11329334883304737,-0.4946711564760102,-0.13415121653655
6.46,-0.17322983191985541,-0.5144012274482603,-0.051194242842550836
6.47,-0.248770761189744,-0.44834361797660227,-0.00020695368128458485
6.48,-0.24312065862173418,-0.3108635479987586,-0.05080686796216844
6.49,-0.2484242813623848,-0.06394902630071048,-0.19073440815100362
6.5,-0.233761394264497,0.22450984829510628,-0.3939433004449023
6.51,-0.14280925013124438,0.3235369094212873,-0.5843503356973415
6.52,0.05072830325307844,0.25973042871214225,-0.8082499613773342
6.53,0.25541303511180163,0.1286867471965259,-0.9715159867403889
6.54,0.47608766411123105,0.07910546708009338,-1.0982219085205966
6.55,0.6677877401265824,0.0731143477918548,-1.16158981258326
6.56,0.8072102580146518,-0.021863447002663457,-1.125172014770043
6.57,0.932395623113125,-0.19889977837567252,-1.0326274871478052
6.58,1.0341972347091828,-0.3856579921308555,-1.024628090151889
6.59,1.0773121803769075,-0.5072502626383988,-1.0176130592099346
6.6,1.1014948163683043,-0.5331235548876133,-0.9749817234103302
6.61,1.1220324227380662,-0.4538947945310984,-0.9266918763482015
6.62,1.1382825748105814,-0.2969504586231545,-0.8719384140952473
6.63,1.1383699900291995,-0.07165261070487204,-0.7780238958895214
6.64,1.130913121630676,0.1496565498677274,-0.6756137265993817
6.65,1.0842720175657323,0.16543906445728349,-0.6575173732877573
6.66,1.0319656995866173,0.06608931380964911,-0.6779775942685018
6.67,0.9901045326261313,-0.02460232514553151,-0.6616121531330449
6.68,0.918376231314498,-0.01499352606130307,-0.5998560993722899
6.69,0.7515888969107395,0.10274179984405186,-0.5553503871491954
6.7,0.5372966226282548,0.19281985331735343,-0.5682127448126089
6.71,0.33478321842858244,0.2771262858762448,-0.6052802967977128
6.72,0.16987320986617602,0.42635976162970846,-0.5928196993740547
6.73,0.01684815897937858,0.5662440969184208,-0.521047291944198
6.74,-0.10843255728714042,0.5758547282699841,-0.3961957423516536
6.75,-0.1459501380801367,0.5024417216373115,-0.23126464712568376
6.76,-0.1202890278689016,0.44712953411749445,-0.055360773299831585
6.77,-0.05925830691151801,0.41165022267579005,0.10143355695147473
6.78,0.021323613433975794,0.3693405987478234,0.22756086051422938
6.79,0.08919360585891073,0.31593804748389287,0.33051876713759154
6.8,0.12929342798547253,0.2550468477447982,0.4025900868072269
6.81,0.13689872882269494,0.21433923196087648,0.450005263573079
6.82,0.13885139447216766,0.2121836933630028,0.4763271686968402
6.83,0.12642341540698512,0.2519698522162373,0.46116302405153214
6.84,0.09289449707356036,0.3265930948593945,0.43188667072928055
6.85,0.06147457540189147,0.35338017634159163,0.4136333824364219
6.86,0.04786707399551942,0.30900511491915833,0.41534666194774045
6.87,0.04299536299439667,0.231927916280325,0.4297506775979926
6.88,0.03957675219887326,0.194131714077325,0.4378081014404335
6.89,0.029716209635879703,0.21878627936238407,0.43976401700562306
6.9,-0.002516607039293579,0.25873086609273205,0.421508609991865
6.91,-0.04351579453388633,0.284227916315526,0.4013577267636333
6.92,-0.08364978630870933,0.27558664263328836,0.4084621168976324
6.93,-0.11651637567496445,0.25954167965528924,0.4464752250863213
6.94,-0.1460547864495145,0.2732730963369386,0.5156652256302678
6.95,-0.16569399785675445,0.31739364527111297,0.5872865294452486
6.96,-0.1640400297055771,0.4101447616869711,0.6243370218814895
6.97,-0.1604034151782043,0.5122448754627335,0.6275045304868314
6.98,-0.15880991429779368,0.5898740796697672,0.6268254292025762
6.99,-0.1594739661922276,0.6526858542638414,0.647679415419155
7.0,-0.17015408159543954,0.7033707348222804,0.6926348419225832
7.01,-0.20008630947148812,0.7528535017741002,0.7308962690395168
7.02,-0.231926757791909,0.8061911832923773,0.7366774345154883
7.03,-0.2686079875464334,0.8596077380249879,0.7195156622416796
7.04,-0.29865524321359516,0.8812104830501144,0.6900926711321446
7.05,-0.3048367767699443,0.8510341839329166,0.647839103184477
7.06,-0.29092025728916854,0.7617218808907107,0.5931951437019193
7.07,-0.29636177748079245,0.637439714597663,0.5399667888836244
7.08,-0.32893827449881013,0.5045172934848515,0.49594146921854243
7.09,-0.3764948688070157,0.3616850738225487,0.45475546729565475
7.1,-0.40553832659611105,0.23011438104140966,0.3986896421076923
7.11,-0.41985152201303544,0.14969779061562635,0.3058377375550185
7.12,-0.4239975872709877,0.11338018614136783,0.19778851367096684
7.13,-0.38874746078121697,0.08904290234085173,0.07129162328357137
7.14,-0.32037233250247815,0.07683650378490639,-0.08351253691801763
7.15,-0.27718012465006536,0.0638964028008398,-0.23116124125523307
7.16,-0.2542803703687188,0.03249526671163251,-0.331280341080218
7.17,-0.24270531227002518,-0.0015201604954736448,-0.3909962469157905
7.18,-0.23089219931275953,-0.013974313313052305,-0.43776725760027435
7.19,-0.230911451420065,-0.0014188956357805641,-0.4718498149753493
7.2,-0.22357667082032984,0.019562903435512764,-0.48566667754828996
7.21,-0.19619116916436402,0.01809297900217012,-0.4815673557910703
7.22,-0.15568541687335044,0.0010135366510670033,-0.4704485882807814
7.23,-0.09648840944824584,-0.05020326855306638,-0.4491599823538669
7.24,-0.050433655738488965,-0.1335268753743937,-0.40731737220543257
7.25,-0.02392936089973624,-0.20512717073736345,-0.3695141521371605
7.26,0.024781290262833156,-0.2604194632346645,-0.37150263969045644
7.27,0.08111833938299573,-0.31348849133707934,-0.4042836047016462
7.28,0.10928941452043071,-0.3364533355020947,-0.4236672440087557
7.29,0.14131290786167902,-0.3152498313951362,-0.43551581272533707
7.3,0.21945269976219572,-0.32521418472276337,-0.46234257832060904
7.31,0.2827774034120067,-0.3826266934334583,-0.4856593158826482
7.32,0.26390750706993493,-0.4271063478033616,-0.49256382443464003
7.33,0.1846409359735453,-0.44498802099878493,-0.4708845191415018
7.34,0.04866475554219657,-0.44271491801043267,-0.4192720074049226
7.35,-0.11620950490019497,-0.4459539437381029,-0.34321229910328005
7.36,-0.24845751917923115,-0.4929695535259845,-0.24221720199416025
7.37,-0.34383996166641045,-0.5643973514579407,-0.1375272035389963
7.38,-0.43128410894940494,-0.6095981765634535,-0.045850895674877594
7.39,-0.4877535945059767,-0.6373792142237954,0.028081473497903468
7.4,-0.4827524669731778,-0.6530557058017563,0.07545531802176103
7.41,-0.435689928963818,-0.6349499564507299,0.09107973778334848
7.42,-0.36023818354147563,-0.6098703898134336,0.09233774380947536
7.43,-0.2619202674273465,-0.5759048800545822,0.1059259559597145
7.44,-0.15208329869556247,-0.5287515705881896,0.13940848208927747
7.45,-0.054397209896151225,-0.4954439465750248,0.20135047144568838
7.46,0.021781660518302597,-0.48338820282239786,0.28974793123412834
7.47,0.09312027454587646,-0.5008637295586877,0.38104180930121556
7.48,0.1646988014452717,-0.5403536466061389,0.4569599822779995
7.49,0.22104125063793761,-0.5789938620945116,0.5062557721158939
7.5,0.27629500563047693,-0.6074588026279892,0.5136442734806717
7.51,0.36471278823205233,-0.6099013643079139,0.46930145619559405
7.52,0.46977194800564653,-0.5522119416039494,0.3854617738316921
7.53,0.5435697034694971,-0.4810961258500136,0.3137124748646936
7.54,0.5571193835741088,-0.4437837197673243,0.3081487687066286
7.55,0.5222569857581348,-0.4003417923585676,0.36351971077688355
7.56,0.4757893822340162,-0.34337057304900587,0.44502165177279457
7.57,0.4450049041396494,-0.3080056712140124,0.5027935781183058
7.58,0.42020738706042493,-0.3113701245244363,0.5033965846384678
7.59,0.392278704280042,-0.31028076785898717,0.44425216582575267
7.6,0.378553116063422,-0.27062224999033957,0.3349663776101287
7.61,0.3620541244317415,-0.22539174160798853,0.19981004936012678
7.62,0.34421915869741376,-0.2152313539507832,0.05921033952380816
7.63,0.35828987184522293,-0.2444543519521871,-0.07335885703867598
7.64,0.39465000620491736,-0.2876558673057277,-0.1937192310184608
7.65,0.4056528010531678,-0.30968867029835406,-0.29488585742319345
7.66,0.3660033135678056,-0.2860461690304045,-0.366515229104355
7.67,0.29559353192906773,-0.22991143087544783,-0.40012420230852846
7.68,0.20850940535913162,-0.18597552120792948,-0.3743025689911827
7.69,0.10012915582265024,-0.1751452549476252,-0.2920121176399281
7.7,-0.022565491011408444,-0.16731186640207735,-0.17680772392527452
7.71,-0.13694560734555272,-0.15092321205433346,-0.05058141785300072
7.72,-0.20856736809019968,-0.11514512940129916,0.07262428132812049
7.73,-0.22945518413744403,-0.05606055739025197,0.18790225379658587
7.74,-0.2259053307391416,-0.013222627386507979,0.2977059706412985
7.75,-0.21889390739735495,0.002904325915361134,0.4147091403550305
7.76,-0.1839652218828226,-0.010604020321473315,0.5633947780931869
7.77,-0.1236945884589414,-0.08916575296013891,0.7425735991525999
7.78,-0.12334554884011696,-0.1865632406964787,0.9391958969570414
7.79,-0.18857683579706755,-0.21075219207472776,1.128199377561711
7.8,-0.26876706113284676,-0.20408540512030124,1.2873477882651951
7.81,-0.3498924715117286,-0.17732368482362587,1.3976727628968963
7.82,-0.44921208337209295,-0.09363426004059447,1.4465558731976187
7.83,-0.5299045897686846,0.019501624984436267,1.416555453635809
7.84,-0.5676361012625288,0.0957783520331921,1.3124841851194307
7.85,-0.570192872738314,0.14541426451900233,1.1716552121447665
7.86,-0.5242815810785024,0.24933539676060856,0.9929889891784253
7.87,-0.39997989303003156,0.3627297769758843,0.724350074277289
7.88,-0.2093424172855332,0.33664290899632765,0.3923589518151404
7.89,-0.015887767075380886,0.173751975956108,0.10560972497094073
7.9,0.13130414227066756,0.014521484704906107,-0.0425335967441097
7.91,0.23458555920498478,-0.09363393576530532,-0.04667946360216566
7.92,0.28661750660272645,-0.17826639786648685,-0.0036708921830597
7.93,0.25424637258487826,-0.18623512643749618,-0.016584677721607873
7.94,0.1595994063392269,-0.06062796198607845,-0.10479832211261293
7.95,0.06392055946336564,0.09515928851989666,-0.1476328237039956
7.96,0.013495760131711576,0.1384435672231377,-0.13995685346805292
7.97,0.0010496282665519443,0.056812152760490925,-0.20973660036957387
7.98,0.011709004677558674,-0.04405709703345562,-0.43844069714470385
7.99,0.06899912176632941,-0.023749538008873278,-0.670712940368077
8.0,0.18036712122659854,0.057433468623317906,-0.7835605005626263
8.01,0.30021563248990313,0.026372263703284504,-0.7529632011074815
8.02,0.36698308516876144,-0.0886365260597382,-0.6043979466020777
8.03,0.357292919320606,-0.20776027771107233,-0.4175200537312783
8.04,0.3071230892717472,-0.29543535470091253,-0.22643153733800336
8.05,0.25179760989464384,-0.3636961574471716,-0.10662167783787228
8.06,0.1654219998700124,-0.38544986030925343,-0.10026531543154166
8.07,0.02816136213476218,-0.3642189628157112,-0.18081163751768559
8.08,-0.10491221746163244,-0.29216295006704374,-0.34779267330795627
8.09,-0.17338525725106757,-0.1311397654204363,-0.5783318841718285
8.1,-0.24926132509322085,0.07900375609550939,-0.7900213340767006
8.11,-0.33211968803963254,0.2820660880268712,-0.8867088103326859
8.12,-0.3620706764566955,0.42847059065697063,-0.8581399307111836
8.13,-0.3186187185909937,0.5184071237737705,-0.7693405665328326
8.14,-0.22408099060679268,0.5057040764757751,-0.6952690456281189
8.15,-0.08308294396618489,0.39737184425627436,-0.6822582302186407
8.16,0.08862092011430085,0.2252415154001371,-0.7632819365134172
8.17,0.25290194711826286,0.16227678742348678,-0.919839447663055
8.18,0.36321496205390874,0.27644648200186783,-1.1267348102873584
8.19,0.38892895113307796,0.4630835253817469,-1.3521518525875937
8.2,0.3338806610145927,0.638924419624688,-1.554491574150698
8.21,0.19861035391136092,0.7612432306961666,-1.7045483047684127
8.22,0.003687214554721952,0.8143786273358473,-1.7689848231783154
8.23,-0.20611490071973282,0.8389136000281044,-1.74052306398191
8.24,-0.4094631609545312,0.8060811413248072,-1.656556052230577
8.25,-0.5885097502156845,0.8502147604698218,-1.5413382997529876
8.26,-0.708982832505931,0.9423700918428843,-1.381588874201074
8.27,-0.6409151579298275,0.9806383788455147,-1.1507840058127787
8.28,-0.34549989676767884,0.9102379764767031,-0.7828295378241307
8.29,-0.04625818648539397,0.7668676256045571,-0.33245000484406145
8.3,0.042870169105742074,0.5988064051392002,0.018094105553700064
8.31,-0.06595606493203232,0.4406389753078393,0.3003286316625814
8.32,-0.28658468579023305,0.37373209938611324,0.6007986487592382
8.33,-0.4528906432886109,0.32238038225637333,0.975413947005266
8.34,-0.3978845449868269,0.3034273928316922,1.3154891059607976
8.35,-0.18934904442867515,0.32506509752365353,1.4772793249612985
8.36,0.023003186977624667,0.28596999039658205,1.4483126228274883
8.37,0.19905103636519506,0.20864422245490974,1.296414418243736
8.38,0.3493762247034382,0.1026775031105887,1.0634716033555487
8.39,0.46394501483024153,-0.02771540193622653,0.8011671030673504
8.4,0.48253802139828733,-0.13159965570318838,0.5147871222076392
8.41,0.48842921752054247,-0.15498939341532159,0.22404160920423505
8.42,0.5024178011501106,-0.07924545622693531,-0.05033810317605276
8.43,0.4701419431558512,0.0700011198614171,-0.30752672340095066
8.44,0.35218850835779597,0.21523127694728142,-0.5088109873258664
8.45,0.22242324576628258,0.2773313895101746,-0.602289597033387
8.46,0.11144079709664771,0.21688157177354542,-0.5941377344285079
8.47,0.01867912849595231,0.10609586245348342,-0.47542697104655773
8.48,-0.09079066001586589,0.0005413163332962261,-0.26677897588531807
8.49,-0.20795924573196264,-0.0796127340293823,-0.0008716007319696812
8.5,-0.24212733059947383,-0.11897440750312047,0.3065452928354383
8.51,-0.18774974031967687,-0.16575877008864365,0.5824706896349131
8.52,-0.1093515782840421,-0.22638762574994004,0.7971325531405491
8.53,-0.009237517929234655,-0.27753752619615446,0.9479316168428693
8.54,0.08465714387750757,-0.2733210908720934,1.0710631567804427
8.55,0.17798893560690748,-0.263707777592725,1.1507864292382453
8.56,0.2582222469988601,-0.3022351152683797,1.1643885786515866
8.57,0.2946269271518705,-0.3591225188790448,1.1116409948577954
8.58,0.28829731952013393,-0.4071219787717653,1.0277331917444759
8.59,0.2595560840428505,-0.4345482773183346,0.9548402181449085
8.6,0.21824901735427898,-0.42048767263655695,0.9028782787765367
8.61,0.14230907397813286,-0.42546465732096256,0.846577010706351
8.62,0.05758604899862863,-0.49881323800034344,0.7753450641724957
8.63,-0.01313917252359506,-0.5432825596602947,0.6939612794042161
8.64,-0.08286240889323145,-0.5040411090583335,0.5656143416568947
8.65,-0.15209206079374332,-0.4808613047178006,0.4437597978854108
8.66,-0.2300717360857486,-0.5287462379808319,0.3191556982896749
8.67,-0.297591884978542,-0.5191527192005491,0.29348971691788556
8.68,-0.34206075171629796,-0.37937142864918566,0.37581238591832783
8.69,-0.35199439374993663,-0.24447796626015178,0.4994426399151049
8.7,-0.32855822343284485,-0.24477977805323087,0.5416004532732067
8.71,-0.3061088991128918,-0.2454001742260579,0.5892726228286497
8.72,-0.32528451290895044,-0.23043201208791114,0.6372280314948633
8.73,-0.37277840241028676,-0.191525474642094,0.6158100503204503
8.74,-0.46883457326251954,-0.03993251316625283,0.5737228335835204
8.75,-0.5163030525478813,0.19898028710465737,0.5013698097000212
8.76,-0.4761558133987272,0.44270601998135906,0.4173800518303884
8.77,-0.39166236081698524,0.5150439369765647,0.40737376509356027
8.78,-0.29349174813110185,0.36103813524959805,0.47921936435360085
8.79,-0.18589014087714012,0.09129998263794477,0.5609078216726772
8.8,-0.07546350637127432,-0.0754350582957967,0.5680526024407653
8.81,0.04812435974606883,-0.05632741817900175,0.520334393413332
8.82,0.18323426606509877,-0.05290035824217715,0.4168302357916249
8.83,0.23611367862980182,-0.08605895056536586,0.35004236306273234
8.84,0.21394521405681585,-0.14151698386583997,0.348675277885591
8.85,0.1638191145948535,-0.1599034027998142,0.41056423276443516
8.86,0.15828202468123323,-0.12199551988104698,0.20419836334115934
8.87,0.1191090943978044,0.08635504528912957,-0.34514862063252283
8.88,-0.022841361446366386,0.23588186251813192,-0.7584248435749763
8.89,-0.13056397340024137,0.12622369330873215,-0.9348335938181297
8.9,-0.16199044872591964,-0.04248327003670669,-0.9344006224996476
8.91,-0.151410761769315,-0.17354940788104012,-0.7615111276132819
8.92,-0.1601984721465721,-0.24008060730723152,-0.5479317699905297
8.93,-0.17339561196992512,-0.1869044022842719,-0.4023976678317654
8.94,-0.16302292319370143,-0.17783091874886164,-0.27464879769072015
8.95,-0.15259353140047377,-0.23636841946419154,-0.18115236067932294
8.96,-0.14813103240721662,-0.2797847321343423,-0.11554979167805796
8.97,-0.1661701400610642,-0.2965234064533754,-0.0481878906444947
8.98,-0.20918912727177832,-0.33595661757636747,0.01523017054981908
8.99,-0.23671437689200178,-0.3962970766973588,0.07623477128448009
9.0,-0.23942888444720098,-0.4617660848473691,0.11220668728152913
9.01,-0.24723171377704228,-0.47536695472515605,0.10404358173591192
9.02,-0.21109055001154087,-0.4221539865753092,0.06263142118001772
9.03,-0.16210964120217308,-0.4089411328917868,0.02448610060043732
9.04,-0.15021709522771814,-0.4351697136392818,0.021726635938505823
9.05,-0.14954501639111978,-0.4588083419114003,0.0442913686946838
9.06,-0.15248715355181985,-0.4670549752615141,0.07271821273020361
9.07,-0.14406058773034008,-0.4963369521256089,0.11385686246220084
9.08,-0.15577172930658484,-0.5137239849393408,0.1610065910742298
9.09,-0.16125470528350527,-0.5112833412329542,0.21918099111243858
9.1,-0.16072993941719113,-0.4803217122272201,0.2619239678949706
9.11,-0.15372738737984684,-0.4031841960382685,0.2758792193716154
9.12,-0.1436582838376792,-0.29900021648933633,0.23573548448368364
9.13,-0.10888716335925107,-0.1997290576795405,0.17346668755642133
9.14,-0.07699124245312652,-0.09567927925907616,0.1636309008528712
9.15,0.0018864765488835525,-0.013917572199194424,0.1469499357451675
9.16,0.04816897462823659,0.1104079957913105,0.06246083531463985
9.17,0.1400837378582855,0.2657455560779087,-0.08491877841635814
9.18,0.2747959181528088,0.3228648708936369,-0.21351131385314712
9.19,0.3856841679037067,0.2438679593932006,-0.34408481355131293
9.2,0.4960535910413628,0.22869702118446722,-0.5397561649365133
9.21,0.5574502587678114,0.2701372506670841,-0.6563794635567329
9.22,0.5547867305696425,0.3172050206330666,-0.684303605089516
9.23,0.5166721461028043,0.3150658428016363,-0.7170873484994402
9.24,0.4490072689509122,0.2748768956218297,-0.7375902971200424
9.25,0.3553781130931681,0.21040182022355242,-0.7708623737995929
9.26,0.25739229710892203,0.1670555455289799,-0.8697420436406762
9.27,0.20801219308534155,0.2612064161823907,-0.8976946359971611
9.28,0.1995422148961942,0.42992853194911884,-0.9214889184039317
9.29,0.19286122478878445,0.5214579494687671,-0.990733719735852
9.3,0.20149430408705957,0.4820427556099208,-1.0081137887010119
9.31,0.2741296272447484,0.27558601955972295,-1.0351399292650005
9.32,0.3834490143476224,-0.09781077022131941,-1.1601797846936612
9.33,0.4787006394019742,-0.38835203778481947,-1.3484848905152504
9.34,0.5707014927246314,-0.5631075358825945,-1.6336595996714116
9.35,0.6365113435584779,-0.607368953851786,-2.1195236069404233
9.36,0.7133964452404891,-0.6333890234270467,-2.6249382743411642
9.37,0.8565319932188318,-0.7349945946012089,-3.001215510113015
9.38,1.0783760879198954,-0.7499796977739042,-3.1542451473224533
9.39,1.2574097061744638,-0.42361124373790265,-3.2571935525363713
9.4,1.3223031483021415,-0.08893384001530595,-3.377146128007104
9.41,1.3139622365939057,-0.02075243792699562,-3.332895890300666
9.42,1.2233055231417507,-0.05653280298519724,-3.2363892580958895
9.43,1.043013379308049,-0.11034024086211622,-3.093637641768282
9.44,0.7881402992114394,-0.2123836429982783,-2.861041999907376
9.45,0.512214689492586,-0.4539997073930373,-2.5422894954739528
9.46,0.20735805271942867,-0.8255167718513933,-2.187737051740253
9.47,-0.050791589668176346,-0.925362136163856,-1.7883377958213333
9.48,-0.21574083800321453,-0.728089145447834,-1.2418669423190585
9.49,-0.3069759235719742,-0.44331985476813934,-0.5519355046286739
9.5,-0.37596945338297355,-0.1432252711747548,0.11822533562470278
9.51,-0.4807387479114575,0.13962332987039658,0.5832119332650133
9.52,-0.6238482361446323,0.34133056315134,0.7780724259292451
9.53,-0.7614712944170032,0.38681843093929524,0.801287636691636
9.54,-0.8941369259579852,0.22285374446857198,0.8758156838018233
9.55,-1.2000451833608148,-0.38334683284800786,1.4039540823255978
9.56,-1.5734511738131636,-0.7290463861105642,1.7825503102184754
9.57,-1.6790735017929033,-0.5638185676711808,2.021350708684926
9.58,-1.311599990633715,-0.0048546345226699135,2.2267602320178317
9.59,-0.7267433944148244,0.40877291243009434,2.3843819925210887
9.6,-0.1584230444245171,0.25233733458453694,2.4906102345254815
9.61,0.3763105958201581,-0.1830657472221182,2.544539614940122
9.62,0.7742639811369778,-0.4385821725852377,2.3894373260971307
9.63,1.0686628634588606,-0.47109353239584106,1.990129105009123
9.64,1.2729530559235593,-0.3485125348908339,1.5273806306172117
9.65,1.1994826371786995,-0.181800935125624,1.1890282094813385
9.66,0.8617253268983476,-0.11434588497899048,0.9373414487212381
9.67,0.42721318778097916,-0.0313603405292781,0.7169997115756147
9.68,0.01565564229051345,0.17385236003491847,0.5077982702543589
9.69,-0.28268135883727125,0.38617531758334467,0.3360477905827591
9.7,-0.43177603620945654,0.49773164319191904,0.2229177494658745
9.71,-0.4931488655635122,0.598695354618734,0.18319896562780214
9.72,-0.49985547555551435,0.7713660410590865,0.1956650983616584
9.73,-0.4881964588497958,0.9909499211480914,0.23624843807055043
9.74,-0.47988245492013487,1.172498455792824,0.2716076083978229
9.75,-0.46783510580115184,1.1956318955003806,0.288380613533684
9.76,-0.43358052180858353,1.034579014955924,0.2778444193834187
9.77,-0.3606421315117215,0.7899145469148695,0.24262658409570448
9.78,-0.19670374677999897,0.587724618963958,0.2308271648849013
9.79,0.011518681648158157,0.48193734394361076,0.2812594530836149
9.8,0.2001646492165308,0.35070342762648354,0.43464912380433324
9.81,0.3408949220166245,0.13836342037190852,0.6924107110399373
9.82,0.369043972082038,-0.1369373985058858,1.0761541209382532
9.83,0.35903940817821345,-0.3315072464666109,1.5709074066478843
9.84,0.3971118050400879,-0.3005727078520617,2.0994644190448644
9.85,0.46981829817868537,-0.1039151785511008,2.464231151139815
9.86,0.560790682019405,0.10999517518211754,2.6043436391738988
9.87,0.6200786190195341,0.26744438655183533,2.626503869007974
9.88,0.6007070017819897,0.33131578900018693,2.631457839245001
9.89,0.478459782035676,0.22421325565936845,2.625429897506281
9.9,0.3055536112022296,0.08218343458397488,2.5852269871449463
9.91,0.09406902839531486,0.2617076366455357,2.300773157273216
9.92,-0.13961105328838386,0.6714247699743616,1.7278082937668908
9.93,-0.28700634501276695,0.7514580304257131,0.9076245830006406
9.94,-0.30834388604053015,0.4576093834078641,0.10956293076030728
9.95,-0.2606006542492961,0.026145192386167044,-0.40446931229608407
9.96,-0.20028973463480199,-0.3181105311807562,-0.5930480182471155
9.97,-0.15142049167792065,-0.48921676015369364,-0.5660337505092485
9.98,-0.1497872509853587,-0.4758723480686561,-0.4448976734467202
9.99,-0.21095979128225667,-0.27870820445837163,-0.3290763873891244
10.0,-0.2937851907673488,-0.03670424518306492,-0.2538429132664092
10.01,-0.37497316354130356,0.14698027765264135,-0.20261590819594635
10.02,-0.4376712373464595,0.3265887646235492,-0.17123932543679965
10.03,-0.4660435489491334,0.48973495596827066,-0.13772215793568784
10.04,-0.43998559722049235,0.555242336239563,-0.09294139738103857
10.05,-0.380757007590158,0.5279967480375668,-0.11028653399680559
10.06,-0.31457674980900147,0.5789232951506678,-0.23242131855462742
10.07,-0.2591335808368785,0.7023549905519144,-0.3467937521476013
10.08,-0.23310624027553237,0.7342326268901808,-0.35260389270527204
10.09,-0.24113059919194915,0.6669179891483512,-0.3303925701120375
10.1,-0.28044596265701305,0.5567859492077638,-0.3218413507472265
10.11,-0.32238860473255243,0.49607183822007916,-0.28691874784536975
10.12,-0.3447059471546303,0.4850769676590775,-0.3148056719352473
10.13,-0.3564175320495996,0.43762931782569964,-0.5123430586765341
10.14,-0.336448517240084,0.335454425274949,-0.6953176803236767
10.15,-0.3075980888274435,0.16271598323958714,-0.6112355096191884
10.16,-0.34265763633758983,-0.03371093463435547,-0.2902843244633747
10.17,-0.4185709644647136,-0.1281470535948221,0.012621086042305057
10.18,-0.4780570585514533,-0.13349915075367327,0.18013722148799308
10.19,-0.49921477882121706,-0.15921372683174279,0.3003067631268155
10.2,-0.4865039006666339,-0.20531701009541495,0.45488972234556574
10.21,-0.4641267864068909,-0.17215720112813093,0.5846910621273047
10.22,-0.4647622338747834,-0.082327634043122,0.5939858900203884
10.23,-0.46155557977407274,-0.05468235120330494,0.5214738591273729
10.24,-0.422701011514714,-0.08198754461777194,0.4301541689719747
10.25,-0.36982236287355613,-0.0782471058329134,0.31294229145875746
10.26,-0.32608408010788453,-0.04747601670133251,0.17263357692533826
10.27,-0.254337549329236,-0.043201237221106144,0.05045149590235146
10.28,-0.17313465429626612,-0.05137290902558322,-0.029018434201886184
10.29,-0.13708700321234205,-0.06434703159324745,-0.08404711824535314
10.3,-0.12384830606426193,-0.11440371112647935,-0.12996236308085357
10.31,-0.10769625462559698,-0.21847354631823998,-0.15812968608859856
10.32,-0.1044981677340779,-0.3844101912392548,-0.15659520321953688
10.33,-0.14326877440270092,-0.554590627870874,-0.1586890218263733
10.34,-0.21483870307345382,-0.6112851558470987,-0.21203027268664745
10.35,-0.2744737289342541,-0.5428375005141877,-0.3053542877872883
10.36,-0.29749288281073727,-0.47168550741301574,-0.3974218162033576
10.37,-0.28468281279443064,-0.45727341873729827,-0.45221442880711354
10.38,-0.250445348452484,-0.47407848839516603,-0.4288645606694481
10.39,-0.21284005266766096,-0.4859094158159042,-0.36118692136809677
10.4,-0.1829142712285026,-0.4958787649630658,-0.342844071603607
10.41,-0.17386223832414757,-0.5438562074529352,-0.3425573011512507
10.42,-0.17911285781128491,-0.6368495481153784,-0.26585983139729646
10.43,-0.16911408873043401,-0.7472396415994254,-0.19487373874171457
10.44,-0.17108323011420246,-0.791125787524436,-0.20937995604609372
10.45,-0.1645917608239417,-0.6919690481142834,-0.26671134007203356
10.46,-0.11266079932414821,-0.5133106183396581,-0.3004216628606874
10.47,-0.08000522126047487,-0.3426666694208359,-0.32652803358059124
10.48,-0.05001823288743957,-0.16425540213357953,-0.486083514555063
10.49,0.0069165200082246,-0.025880248089480792,-0.7222749628116368
10.5,0.09364896170135796,-0.004922445706670165,-0.9192110694179708
10.51,0.2312719985081406,-0.12468270570439431,-1.0777553711494454
10.52,0.40698318150792473,-0.2577244978751597,-1.2666818042741295
10.53,0.5967143426307409,-0.3226321703575842,-1.413015850147567
10.54,0.7879146259631368,-0.35886775946820443,-1.456716780674131
10.55,0.9328216230550355,-0.31244953296334554,-1.5176356069304988
10.56,1.0076408948194755,-0.2347843946048837,-1.5245882656993202
10.57,1.035865486346892,-0.13772160686933493,-1.457761717121099
10.58,1.040693140714418,-0.019897689648213267,-1.390418808883705
10.59,1.033036167494846,0.09702671528169471,-1.397996451016661
10.6,1.0315950753761383,0.14051332341675196,-1.4974586585191105
10.61,1.0531054419808032,0.1890328810088236,-1.6178636480188198
10.62,1.0789347976228647,0.45007529233282884,-1.6548477359496772
10.63,1.0818285443358762,0.7562049803280279,-1.6781548978249956
10.64,1.0452661715985676,0.8698068719620362,-1.7274223417547732
10.65,0.9702295283142913,0.7782700680439101,-1.792056522030034
10.66,0.8850752595202027,0.5530415156708133,-1.9223512521366921
10.67,0.8264791792782316,0.3399746856332442,-2.1223411017644205
10.68,0.806588558628611,0.2692392984039868,-2.312055121210656
10.69,0.8366288292590475,0.3679062036787137,-2.449089391750334
10.7,0.8905388104741296,0.5102460424555875,-2.4950592218343033
10.71,0.8916259723887197,0.4234616651231641,-2.3642374310760106
10.72,0.7295362732898846,-0.04441270142570545,-2.0955476643795667
10.73,0.3712190414830732,-0.5542832967428953,-1.8283364479268926
10.74,-0.03678326509952065,-0.872090475402628,-1.4342090126371083
10.75,-0.3591394885563097,-0.8494265178205966,-0.8899286557673136
10.76,-0.5718127513134833,-0.37906675355423736,-0.33641148000756776
10.77,-0.7544633060853181,0.41642627927359155,0.07529128637716337
10.78,-0.906735654857442,1.200547256077146,0.38869945066008066
10.79,-1.049491879017692,1.3881823701231812,1.0027337052526708
10.8,-1.186842934708237,0.771761948799808,1.8564268413367604
10.81,-1.1799231648091284,0.0647985034999664,2.187526811166445
10.82,-1.0591136546539683,-0.23362343467087132,2.2482800802074627
10.83,-0.8131722086258082,-0.14680885526845833,2.1625365979562265
10.84,-0.5107176698646447,0.03874435172127204,1.9406634714307613
10.85,-0.19995495317668152,0.11350576518804463,1.6691436279997438
10.86,0.07818526760172541,0.11212889544096445,1.4560739433722578
10.87,0.28326729917758925,0.11259916000702633,1.3355110481127592
10.88,0.42384476603991283,0.08135739228591803,1.2410319968787822
10.89,0.506533582418394,-0.02951325828386044,1.1000016607078902
10.9,0.5124074188375108,-0.19966527032809153,0.8865980692936481
10.91,0.44156845644350373,-0.3437240202295503,0.6162463904250495
10.92,0.35100524506474623,-0.40717902262993266,0.35466191462434654
10.93,0.274553216939427,-0.450051010481631,0.15289364628983632
10.94,0.19895040257841504,-0.49963639144792904,0.04492319848826153
10.95,0.11553828155754896,-0.5462317252574544,0.03807276662580035
10.96,0.034688519903213,-0.5788639442444959,0.12396222962083261
10.97,-0.017026660523216802,-0.5282294607739025,0.26373371828982
10.98,-0.05220451030758105,-0.4061100920784427,0.35832253657421875
10.99,-0.08923260065180832,-0.28315325912767936,0.4293199124852527
11.0,-0.09533219274026873,-0.2079989293600911,0.5069773972811964
11.01,-0.08215102009710641,-0.16684815127193636,0.6150313544186515
11.02,-0.0691823157918275,-0.12640328791019917,0.7556578113127722
11.03,-0.07844677344437576,-0.07749017166728431,0.9475615612113784
11.04,-0.08437457171887489,-0.0398433516908085,1.1996560868120292
11.05,-0.07792470238613522,-0.004764546456599452,1.4789251878227063
11.06,-0.10123061188826879,0.027332306921652623,1.7493570801423801
11.07,-0.1627687095347838,0.03319667292166335,2.011328008284816
11.08,-0.2486459338310294,0.042039416246195796,2.274694027026247
11.09,-0.33887746218637393,0.08243299161430791,2.5071015437096027
11.1,-0.3977777993418865,0.1424558184013662,2.663429368281622
11.11,-0.38476614268909487,0.26134593120979543,2.7805367298620762
11.12,-0.33886510554746513,0.4731143866736798,2.8491978383702374
11.13,-0.2611167831485642,0.5876453606942543,2.7857944463394837
11.14,-0.1895906641713672,0.7875505210379902,2.4314866394463146
11.15,-0.2722314652735729,1.0583676421729207,1.6921243793770713
11.16,-0.4319678114710344,0.9412883054850479,0.7186915668817855
11.17,-0.42203051967587013,0.5601429579998244,0.055716850873821784
11.18,-0.28611562272493096,0.05368159148017663,-0.22672478095603305
11.19,-0.1322952696565841,-0.3468169486185083,-0.30961137394370286
11.2,0.05452155618997641,-0.32548107377343205,-0.2828580224102798
11.21,0.2231261151351002,-0.02542420676989797,-0.2568505712379198
11.22,0.3302797057940908,0.1985304821941672,-0.2944042175171438
11.23,0.3635021152069926,0.24101284809573523,-0.33193157555849
11.24,0.32947394497708565,0.22589687697860425,-0.3911738623552077
11.25,0.25386493446389036,0.1868648912895829,-0.4869308588182852
11.26,0.16363885255932234,0.10790245686776434,-0.570444901473922
11.27,0.06548218393909126,0.04309321159945542,-0.6382028263372223
11.28,-0.0012692731517112402,0.08514084265902935,-0.6925202823841337
11.29,0.018764147453554522,0.1174094805672547,-0.7531049074410199
11.3,0.07992922634158149,0.08040859537838156,-0.7813141960558166
11.31,0.06097318321016748,0.09706694458914172,-0.7413725436960663
11.32,-0.023931858473783083,0.16700989495880852,-0.6443359574523195
11.33,-0.09442502516314102,0.1123763228912503,-0.5377123818575701
11.34,-0.15407423619153449,0.022388012595935872,-0.4220013175741662
11.35,-0.19209322091503547,-0.09453838619844597,-0.3226434976401171
11.36,-0.21155998005624038,-0.1940919903163497,-0.17455424893075422
11.37,-0.21744287826428135,-0.21509351749743422,0.07770519761908194
11.38,-0.2502530322547349,-0.22359888748978132,0.38660361889857464
11.39,-0.28616855761169974,-0.2469893639665725,0.63902875638715
11.4,-0.30634706538306594,-0.2414402699720713,0.770248900225561
11.41,-0.29991064060865574,-0.1946290580134267,0.7975210509653152
11.42,-0.33495915471795623,-0.19792391647104599,0.7767538361623151
11.43,-0.397489819122782,-0.2175026413026082,0.7284194294118533
11.44,-0.4189737985109674,-0.24797461352739722,0.6725795666415413
11.45,-0.4064178500863737,-0.2972562567058411,0.677242676455714
11.46,-0.4319733305003582,-0.34426044366799863,0.7593712704387752
11.47,-0.4604105077804661,-0.3031001222640347,0.8300713302720882
11.48,-0.45885495448199587,-0.23882860618894483,0.8278912287631438
11.49,-0.47555119809878127,-0.13086271124572807,0.7682500531377614
11.5,-0.4749168299235985,-0.03180583377747655,0.6823531885776968
11.51,-0.4524871972631053,0.06799244676230848,0.5593636075082612
11.52,-0.43035822905908344,0.20743509257107706,0.3907504834669839
11.53,-0.40122350229214643,0.3269537100754762,0.19245519992775528
11.54,-0.4503940557693875,0.39862069039665016,0.04207989646464399
11.55,-0.4674686843547919,0.5236277869989548,-0.15413911732888175
11.56,-0.377390018486292,0.6015895401807541,-0.3403568257785965
11.57,-0.3201583147396931,0.5665422187234315,-0.5304086211128304
11.58,-0.25857915477765075,0.5310518615001278,-0.803729799729592
11.59,-0.18893966672448512,0.5375774382689276,-0.9963421863694503
11.6,-0.13794697555796023,0.5469770469022504,-1.0425398344338115
11.61,-0.10259750677888996,0.5540204337253511,-0.9603471825739355
11.62,-0.059860320649293766,0.45185772842517086,-0.7833861325605087
11.63,-0.0029839681771931356,0.21453749255420082,-0.6389862076740169
11.64,0.08990072027435352,-0.09699433195978667,-0.5146968972132151
11.65,0.23101264927941983,-0.2706763358954082,-0.49829505220817866
11.66,0.3845115707342347,-0.48855887870985976,-0.4356315422703187
11.67,0.4889955714734009,-0.6450014737995949,-0.44494234664575966
11.68,0.5228234957017103,-0.7503380515250501,-0.5428331524177753
11.69,0.49481764815167223,-0.727735008360768,-0.7693919157470487
11.7,0.41773897404217325,-0.6940729777453236,-1.0558471799709153
11.71,0.338075461505096,-0.62264158877137,-1.256073847443532
11.72,0.2820888862869888,-0.155763117852185,-1.3644251413530026
11.73,0.2510122763675495,0.23950639114184677,-1.462900536889869
11.74,0.2525681925342023,0.47786283317272993,-1.4790556684549745
11.75,0.2627439693445324,0.554919200199603,-1.4248404565115687
11.76,0.27324038959912744,0.5084727708281047,-1.369133801030993
11.77,0.27496687819487836,0.46802872048387506,-1.3429963079798237
11.78,0.28466297485449754,0.37496899124411426,-1.394350734016424
11.79,0.31286257810835666,0.2912464190660622,-1.5327692858493835
11.8,0.35155288784173494,0.2793268342581088,-1.7047649780445397
11.81,0.36166656114763673,0.4102556182741421,-1.8281578334081323
11.82,0.2920657805534607,0.604129014495146,-1.8924942166795218
11.83,0.16696045538635393,0.7633215063480675,-1.8531008845381727
11.84,0.034933127440470266,0.9270502830992832,-1.711640987741774
11.85,-0.018766973804072343,0.992021706063499,-1.4503392553212164
11.86,0.003685089759670045,0.9459788689662539,-1.144787807745873
11.87,0.07084314565875001,0.8541057651886903,-0.8319321945157121
11.88,0.19378014537048066,0.7522105615883254,-0.4515589432317294
11.89,0.35805254258090463,0.6091174125381171,0.007260218029329161
11.9,0.4587697995296314,0.43750355145792813,0.37545656894814644
11.91,0.4568938868538687,0.2776293002242391,0.5978880529029986
11.92,0.3549539711498671,0.23389960665772788,0.715633453997952
11.93,0.2214444703545184,0.29470145846806006,0.7763477107556249
11.94,0.09585866615877378,0.3251807271456763,0.7561446785596122
11.95,0.033460587098598386,0.24689627699826186,0.6956970374949679
11.96,0.0452559956039288,0.16316111795450472,0.6438626304746303
11.97,0.11712070378323294,0.1693360133710175,0.6525736720942706
11.98,0.1769809528902603,0.09535983439778242,0.680378355173594
11.99,0.18965513868086856,0.010223175658813968,0.7077349403811982
12.0,0.15572971765520635,-0.06369264404620326,0.7253841115029225
12.01,0.11054698707849053,-0.12011739322448291,0.7577342959274015
12.02,0.0556413286791434,-0.15934963457829146,0.7936945505544165
12.03,0.010592169948843945,-0.1865483000963376,0.8165853904045974
12.04,0.006775652920405792,-0.2124319391093971,0.8501247683406729
12.05,-0.0017088107250807772,-0.2398207131661304,0.8711899848453515
12.06,-0.0034727533056943573,-0.3070622114500656,0.896669098269536
12.07,0.009015753704494584,-0.3572058260005828,0.9495235413733564
12.08,0.04508198822106229,-0.36283931124891705,1.0443971552185622
12.09,0.10668049713315775,-0.33816378527799074,1.1372848620509348
12.1,0.18005494318608947,-0.3406303993071531,1.1942503557999307
12.11,0.2482956231249458,-0.41765771816681113,1.2508075953516022
12.12,0.30084945645210914,-0.5372159009475875,1.2867181391263556
12.13,0.29984583718607666,-0.6373817213544966,1.2833443512747866
12.14,0.25491742196018685,-0.6652185623837236,1.2674504433119074
12.15,0.1862194281555446,-0.6225263567040441,1.2425900573800082
12.16,0.09753087950052192,-0.49888540907285367,1.20645320734564
12.17,0.002656906728963642,-0.33232775915710355,1.2220860047061985
12.18,-0.06503885312962418,-0.13843820112826727,1.299846037054878
12.19,-0.052596357249636475,0.008341833340783153,1.4186656315127535
12.2,0.026316543294702417,0.05888752747245162,1.4936648649484798
12.21,0.07892089818980855,0.004388992733407178,1.4727664925749915
12.22,0.08678960188211352,-0.08195294276518833,1.4363012300442304
12.23,0.03989877684000573,-0.11607531819610636,1.440160991316005
12.24,-0.043011762549583846,-0.21239892691562964,1.4331483411372417
12.25,-0.1502597825654481,-0.18827024069362439,1.3066504873606761
12.26,-0.28245532608382184,0.10646537743350386,1.131915619495116
12.27,-0.4494115709882121,0.5619279393286157,0.8899681428338689
12.28,-0.5351040093982201,0.6159034950671846,0.6112825042467512
12.29,-0.5322612676162227,0.1913434788494609,0.34156174936726713
12.3,-0.4381888695508919,-0.10449163282860165,0.15894315927411864
12.31,-0.35928495134639304,-0.013203648976539067,-0.024666643006159023
12.32,-0.29583284805652477,0.21913033693876377,-0.22694816871900658
12.33,-0.2304441669837973,0.42176441178944757,-0.38403710555564063
12.34,-0.156638817315247,0.4849466944810642,-0.498043934431189
12.35,-0.059338668444427166,0.4246860389274616,-0.6014281940365062
12.36,0.046910601891653594,0.38539160423325614,-0.6353620281242661
12.37,0.11160257349411606,0.3322597610950474,-0.5925020742416386
12.38,0.11652426755901252,0.29427870539824763,-0.5265280826404066
12.39,0.11742782364361502,0.25744190518438004,-0.4196516250389221
12.4,0.1268638406139213,0.1578705618960217,-0.4355604275879748
12.41,0.0882755645126023,0.1496653370270953,-0.5816758759607898
12.42,0.023678393110971804,0.2097830923775453,-0.7207545610007974
12.43,-0.01733384134890357,0.1953596692057223,-0.8456707128196727
12.44,-0.029533997777537645,0.06336376651959012,-0.9143588891003017
12.45,-0.094162183292742,-0.0011664276704168896,-0.8430483769645521
12.46,-0.18885667079602836,-0.09052577742755676,-0.6065030303585668
12.47,-0.270038303127309,-0.18686932008496956,-0.3062095556045439
12.48,-0.324471874734509,-0.2216385381971609,-0.0390705226421981
12.49,-0.36073059511970124,-0.1983345117964747,0.15867274297681827
12.5,-0.36739579297341307,-0.1907329434874881,0.31974294663778186
12.51,-0.35417455970153533,-0.21101882116746395,0.478053962888489
12.52,-0.3491684003956326,-0.22384511179738592,0.6190037466162414
12.53,-0.3536531911800943,-0.20879503497045718,0.695601311164269
12.54,-0.35494660698004304,-0.21166924158695855,0.6744429270571448
12.55,-0.3619816598390362,-0.2619113699473707,0.6444874086467945
12.56,-0.37570401428375094,-0.30690436155367307,0.6227073099593535
12.57,-0.3704189297324831,-0.32015054243251967,0.5849165871862627
12.58,-0.34120073930772205,-0.31405458848455153,0.5079078693904135
12.59,-0.31117814170473246,-0.3097818917891696,0.4138030066368403
12.6,-0.2983587902171454,-0.330789824675871,0.3284990232938447
12.61,-0.3113553822910713,-0.36176824071546765,0.25529122397194315
12.62,-0.34661584762616177,-0.35743391350673054,0.1695002428371538
12.63,-0.35637397024786227,-0.3662312351919378,0.05681605702883151
12.64,-0.3661586125945528,-0.3608244458950343,-0.09390641207515053
12.65,-0.36659066701066445,-0.29649071959878165,-0.3071181580245657
12.66,-0.38448736553076834,-0.19219897131072805,-0.5219432917395032
12.67,-0.4157072864309777,-0.05653246745357921,-0.7029446833542987
12.68,-0.38496419655576847,-0.009172669941070412,-0.8091563314236504
12.69,-0.3544220344407231,-0.045930568106720235,-0.8156242973120115
12.7,-0.31150109304491913,-0.08289676425121664,-0.7749769993231588
12.71,-0.26449220971459836,-0.09025393520849008,-0.7184406200920981
12.72,-0.21909825463326676,-0.012585177788457432,-0.7287725635612067
12.73,-0.16372086621221982,0.05359724534934362,-0.752688504100718
12.74,-0.10988488072661336,0.04389252663133575,-0.828497463645878
12.75,-0.06826313239461922,0.01247315105098434,-0.9046588516452282
12.76,-0.04361614625410952,0.09447198764427932,-1.0050670324697757
12.77,-0.0484331812382473,0.2526924366427647,-1.1266002981369276
12.78,-0.06256339441607008,0.24222543527530047,-1.1370944024704415
12.79,-0.05670672191157582,-0.03724554488036442,-1.1073054380631535
12.8,0.011681893106636218,-0.22047603473256452,-1.034043235115634
12.81,0.15202307835298978,-0.2238458369022638,-0.8898420387464085
12.82,0.34554141740182776,-0.16547331108974997,-0.7884358634503497
12.83,0.5467388805651051,-0.18943963995238625,-0.7664301886342025
12.84,0.7179974874830983,-0.2872905092614392,-0.8479046252319455
12.85,0.8856083907368071,-0.41421905450798935,-0.9955062889937002
12.86,1.0400254665500062,-0.48619820368551003,-1.1568860518323252
12.87,1.1639861251325279,-0.3710677611124125,-1.300890238401844
12.88,1.234097222037071,-0.04667761184922625,-1.3952319258196166
12.89,1.2681877617418333,0.336095571452686,-1.4513481124648213
12.9,1.2736552687537537,0.6298348973000979,-1.481321719058888
12.91,1.2258378829905798,0.7763223293349928,-1.4527786986787543
12.92,1.1021891914724922,0.7186761414047489,-1.3885873658233565
12.93,0.9177798792296089,0.5659282032905587,-1.356968026793048
12.94,0.7166865570240462,0.4575301510533231,-1.3260742204868483
12.95,0.4960988652010085,0.4823704182666564,-1.2698342588348126
12.96,0.25464211406603154,0.6528393464479382,-1.1839570866097557
12.97,0.020543122685586255,0.8984847404662701,-1.0395935334189528
12.98,-0.16882577047283887,1.0881166401105271,-0.8353401493143257
12.99,-0.2877768167099246,1.1495769053190006,-0.5895811363032225
13.0,-0.31819986701867387,1.1474382997577242,-0.32471524818662056
13.01,-0.2567937913502967,1.1121547574407995,-0.0416061072965372
13.02,-0.15120350770343344,1.0472268867840682,0.26038989232261495
13.03,-0.05360085284762616,0.9357146269335568,0.5567046069082707
13.04,0.03705641160894832,0.7512309910297083,0.7896065202712594
13.05,0.10927547891319248,0.5072834627688834,0.9086247022569715
13.06,0.11129734800591758,0.26951052388461016,0.888380930279796
13.07,0.004122690874928333,0.14766880220914544,0.7477834677649569
13.08,-0.18911774995988725,0.21877981621853934,0.52228564165804
13.09,-0.4455905029505388,0.41848678516235605,0.24530439945528035
13.1,-0.72515677455546,0.5739344685393114,-0.027464869749748516
13.11,-0.9249551289099079,0.6023836427593444,-0.1829263094154643
13.12,-0.967733039682274,-0.3291027832472686,0.6073626086339
13.13,-0.7943362153711225,-1.4543525157304458,1.8044397282007651
13.14,-0.34089291131700233,-1.5337732347068027,2.54362914661946
13.15,0.19950267051203463,-0.98278184199605,2.9559886235500725
13.16,0.6995201146197709,-0.5326372365837789,3.052734161450646
13.17,1.1176554664672487,-0.36206253811825095,2.864551140084436
13.18,1.3196191456768112,-0.2651334934685496,2.4899579281789492
13.19,1.3534474740710243,-0.25620595981419714,1.9704921449657424
13.2,1.2706634676804818,-0.33176810226952436,1.3582346854420044
13.21,1.0107024791753974,-0.2708221158263876,0.707761042212134
13.22,0.6503371884663999,-0.06783182339784252,0.13205742269987059
13.23,0.3336502856681768,0.07085023287317696,-0.24868953890192164
13.24,0.13910712970724864,0.02758123031933503,-0.43645644530182165
13.25,0.06731106075776193,-0.1786555368138766,-0.46671513957802124
13.26,0.048832188415481155,-0.4658359622310692,-0.37838394249825297
13.27,0.037765313652309875,-0.744824467610272,-0.2637827935227499
13.28,-0.003458120198592575,-0.950207659808333,-0.16576238033582194
13.29,-0.08546626034540096,-1.0831758920495342,-0.08660459135144363
13.3,-0.1711821298544187,-1.1265511709292133,-0.011990923762787115
13.31,-0.2627322953567154,-1.0640158645252629,0.09890586090045378
13.32,-0.37642861481521267,-0.9665996871112401,0.23531991414279077
13.33,-0.5299755403638542,-0.911588117328005,0.3875649464521767
13.34,-0.6985865807981897,-0.849718361394694,0.5449690594922598
13.35,-0.8544521920843049,-0.7323540080513,0.6590545401671346
13.36,-1.0001511050778777,-0.43945274136365825,0.7453075625745561
13.37,-1.1222706652287446,-0.111523868624723,0.7585930128933359
13.38,-1.2136612755906786,-0.03155918575102121,0.6624406135274428
13.39,-1.242350110624826,0.014739590117639373,0.4658566239794824
13.4,-1.1532880087084514,0.05700595631749325,0.13668294525184443
13.41,-0.9303014799203374,0.027683946016210107,-0.30957943704516117
13.42,-0.6273292076848582,0.03046367472092157,-0.7007083450138234
13.43,-0.32948984433743544,0.034149426166358264,-0.8879538542389057
13.44,-0.10182087284537661,0.04627896376077901,-0.8869419845427756
13.45,0.03836959544109678,0.00895367216701044,-0.5952852530640278
13.46,0.13243877974452112,-0.15575231173616552,-0.10395642086961628
13.47,0.2417135320304999,-0.15794641300865406,0.31028512851366513
13.48,0.3164737893827685,0.16828913175157734,0.49807880372994695
13.49,0.314853667125212,0.4972530029115983,0.506664312451421
13.5,0.24851734772899414,0.545581331798106,0.4058764471158057
13.51,0.13869577162398003,0.41912618110642225,0.2866205287234103
13.52,0.02120782952349316,0.3059691499249886,0.20053868166178887
13.53,-0.06632658615774885,0.2568856534290718,0.13664278226137386
13.54,-0.13282266957462174,0.22382781245855837,0.09277981234684773
13.55,-0.1848559019112238,0.1689802172068014,0.06533670010135417
13.56,-0.21331005312859413,0.09499929099738612,0.05564266183328177
13.57,-0.21780403672469809,-0.01225561525326643,0.08215520281402508
13.58,-0.2476420068197007,-0.14475502861967351,0.13363673231879436
13.59,-0.32197629057762817,-0.2716879822425657,0.19674524666981852
13.6,-0.38885976359320973,-0.37495175221112303,0.26488643015585706
13.61,-0.4144294908439737,-0.45789059659063186,0.3316682750965589
13.62,-0.3950797146402315,-0.5188021443499771,0.3639469201751763
13.63,-0.33454409150744135,-0.559475827113844,0.3316458966622417
13.64,-0.262783105176518,-0.6003160724457127,0.26682198606703794
13.65,-0.20129977013830777,-0.6573599169902766,0.22995142837370328
13.66,-0.16026740408850754,-0.7075304730161467,0.24067578040017107
13.67,-0.12383406965799669,-0.721481760480211,0.28010530234735115
13.68,-0.08592094333049276,-0.7123812841963013,0.32770520134201353
13.69,-0.07270098910924609,-0.6890646013199239,0.3767234755035399
13.7,-0.06440777737702556,-0.641826946116584,0.4089217549433522
13.71,-0.06397486380480889,-0.5980144338436588,0.3994872889256162
13.72,-0.08043932151076241,-0.5704834704349889,0.3683648315700651
13.73,-0.09696092684307948,-0.545941514034491,0.35125718058183836
13.74,-0.11159822707193637,-0.511248613624245,0.34826472143404696
13.75,-0.09167707017640306,-0.4622566474428487,0.33381899909519835
13.76,-0.05233922714709941,-0.4199993564531765,0.29232567646281943
13.77,-0.01903326243823769,-0.4156750151885664,0.219020122666913
13.78,0.03985324298805798,-0.40936279129372855,0.05726810708927464
13.79,0.1263213206201391,-0.2847538604847167,-0.2374825576953826
13.8,0.22431815572318714,-0.15345145716991218,-0.5564461075621531
13.81,0.2848563236194989,-0.048827487836211575,-0.7919730053551148
13.82,0.32015790102655484,0.042913881757051436,-0.911969381666967
13.83,0.366473593550267,0.03827312967976841,-0.8634089863225781
13.84,0.4111928057003998,-0.16123457716276562,-0.627116745687483
13.85,0.43946177944359693,-0.46519800184561727,-0.4057693727970709
13.86,0.4151995375817653,-0.6587505723786197,-0.4299609533670338
13.87,0.3302713769046272,-0.6111535635990137,-0.6707753350192724
13.88,0.23511648908656646,-0.3719126308957868,-0.8948074246772552
13.89,0.1578341957399199,-0.05574098498606716,-0.9226739490119147
13.9,0.09853887603123954,0.21348400715255292,-0.7600193446677587
13.91,0.051298163986124634,0.3369477650269521,-0.6086888525346682
13.92,0.010886424048439121,0.3492033920699878,-0.5660202975487705
13.93,-0.0070690680423148985,0.23579422160537372,-0.48917522554174603
13.94,-0.007747967691521925,0.0645323483085439,-0.3862726051115679
13.95,0.01025689556791353,0.009058731218168543,-0.3161479110388571
13.96,0.0199573265808437,0.07148944372592932,-0.31398145072905426
13.97,0.04354722246959245,0.19915945039180183,-0.3467329629965687
13.98,0.10451170881192764,0.2472883452648804,-0.3674276803641406
13.99,0.19907642069068665,0.12651578176246445,-0.41352862385218936
14.0,0.33626427694974814,-0.01950868266160646,-0.5027365171967387
14.01,0.44303940494392013,0.05222830256412905,-0.5589195499440854
14.02,0.4861829515379046,0.14518205084940775,-0.5961605036957203
14.03,0.5108770206623193,0.13972428557613173,-0.6174880095420286
14.04,0.5344333990228548,0.11793591794159919,-0.6383912839389638
14.05,0.5424054236293129,0.13949091991260104,-0.6819756468760706
14.06,0.49658382923692695,0.1773227252647278,-0.710718095585382
14.07,0.3952780084083611,0.23920826377333124,-0.812823431065474
14.08,0.2780207358579695,0.31571248916162453,-0.980027622421024
14.09,0.1669679707753287,0.4009783033221399,-1.1322416066079495
14.1,0.0803451658999253,0.49554246313090444,-1.2684145340664252
14.11,0.040783753469041596,0.5743669785939924,-1.3653278492228014
14.12,0.03727994845912026,0.6216622004022132,-1.4062054952517455
14.13,0.0574367877826602,0.626714051861822,-1.4082569704061552
14.14,0.115406389604298,0.5722064916205526,-1.3834099677328155
14.15,0.20890432182907248,0.4838620771081971,-1.3178944130281114
14.16,0.290238305767519,0.3917383135909615,-1.2294313134416235
14.17,0.3304446067028398,0.3683636614288748,-1.1571566445171952
14.18,0.3706104775988656,0.4236166281180056,-1.0805824633349381
14.19,0.4136643525639,0.4572007978571621,-0.9230595527716289
14.2,0.4365301290611254,0.32120439334994283,-0.6300250876254007
14.21,0.39349081765397037,0.06822208254743325,-0.19559989138848183
14.22,0.28499357500790673,-0.0706336018250953,0.27095276606652313
14.23,0.17472462107550626,-0.03902468860639772,0.7109507404599663
14.24,0.09753022089957061,0.09865804845165638,1.1841271107537654
14.25,0.042747906512028803,0.06278292236633808,1.6607893502012083
14.26,0.005838576816102587,-0.027870946703184653,2.0789336860056875
14.27,-0.0017513567001524045,-0.11152382756212109,2.3907876872804743
14.28,0.0371678667225702,-0.2066146296781518,2.585797729966485
14.29,0.05659732717640004,-0.3107704210063822,2.6366772135156795
14.3,0.03457514205239705,-0.4536140476814587,2.5321271345444756
14.31,0.015395516719674653,-0.5918876359232581,2.333420980138747
14.32,0.0790275110860711,-0.6943353644180075,2.0814228830401715
14.33,0.19448035019062374,-0.7758909326367864,1.7985646485377336
14.34,0.2498261855776552,-0.8781905136896414,1.5010319372613279
14.35,0.2368953179160031,-0.9636823415074626,1.3119905669700649
14.36,0.16378150368934513,-0.9705390876965392,1.2690943797263148
14.37,0.04702628060351254,-0.9810040084102526,1.3446601799054805
14.38,-0.05119327408690625,-0.9117356513929936,1.486746010841257
14.39,-0.12577268041895256,-0.7660328899353078,1.6173181974231443
14.4,-0.15328166560551862,-0.5547976812183695,1.705922145327668
14.41,-0.1783604633956852,-0.33512555978301195,1.6601508416659376
14.42,-0.23232223299851926,-0.13754894349721522,1.4602772625694984
14.43,-0.3441239545726979,0.1196510604759054,1.1245889049158837
14.44,-0.43317590913053233,0.3653944333408791,0.8299225685515385
14.45,-0.4237674304324186,0.4824243749767946,0.6147488978672875
14.46,-0.29021371182330585,0.4657497233118822,0.44223912507991886
14.47,-0.07738267968239594,0.31833287902408736,0.31007307809633483
14.48,0.13596225513593893,0.12281093705652608,0.24162397187348844
14.49,0.2966064766950396,-0.0666130283074933,0.24821326726108672
14.5,0.4008583120069948,0.030722812533721593,0.23779459298237599
14.51,0.39317343957191936,0.04734416582956951,0.17114566136192882
14.52,0.35560227825582474,0.047960380975069376,0.08199711513622598
14.53,0.33396098041549743,0.030184901632320973,0.004519581374490758
14.54,0.28370735533083097,-0.050835381134188035,-0.031142167100075804
14.55,0.21994707788630163,-0.17263782440754497,-0.06367825903999942
14.56,0.18272001244851221,-0.3710775595089625,-0.0699765542698128
14.57,0.15776915814699422,-0.5107356642734188,0.0021764705967729815
14.58,0.08365032096515469,-0.558058801364532,0.0959230975637602
14.59,-0.035735696147653075,-0.38566507851675425,0.27297284395062604
14.6,-0.11616311372594533,-0.291636029368049,0.48260098653697414
14.61,-0.2225127123083683,-0.2297622845083937,0.5657490279025286
14.62,-0.28903391953439794,-0.09413520567344022,0.3836845333542965
14.63,-0.2841522592001491,0.06755156878140497,-0.092703747025022
14.64,-0.2075117987231504,0.3085533117487446,-0.7351453647047461
14.65,-0.07186930597536602,0.36191125651430617,-1.1209014354040625
14.66,0.14992505267155895,0.13478596317863067,-1.19086329710166
14.67,0.26483736362430355,-0.21116084607504249,-1.2790220287345755
14.68,0.2644708860162411,-0.339587546100603,-1.527518047228081
14.69,0.2564848139918293,-0.24867034518224793,-1.6967569447028035
14.7,0.30220955517455594,-0.32978683458326485,-1.4676185186323492
14.71,0.28517142277273094,-0.4764359267016028,-1.0554706064134016
14.72,0.2385166297175907,-0.446870867288388,-0.7366082031183094
14.73,0.1956931930682077,-0.3420283581496186,-0.5148027130538202
14.74,0.2166406191634711,-0.37610038762826276,-0.3425269579807934
14.75,0.2650494894103545,-0.40455433059169893,-0.16412655534418044
14.76,0.2659809521145257,-0.38181956563553326,0.029118567276311538
14.77,0.22073997120268937,-0.3442006125828996,0.21912611067236445
14.78,0.12767073617910948,-0.33170298157682365,0.38289086472848893
14.79,0.03706584623934803,-0.34495047097014675,0.48338126313418933
14.8,-0.026901054889199028,-0.37674122812104943,0.5415420287630146
14.81,-0.08128511628753955,-0.41407118480963045,0.6164379300910141
14.82,-0.15493703283797114,-0.45385054189079405,0.7317989881176484
14.83,-0.2578459933545158,-0.4677879263087198,0.8416443605347541
14.84,-0.35682077506486815,-0.42268998977803157,0.8958158875536326
14.85,-0.3987527175468375,-0.3013595084125674,0.8538399622670649
14.86,-0.4200184081447681,-0.16608734927617957,0.7284079588474697
14.87,-0.38310956622626835,-0.013432817222942787,0.5872851296171318
14.88,-0.3227005603829756,0.11650597904604543,0.4640474248771762
14.89,-0.2752100928464826,0.2374864311560097,0.3790602594831352
14.9,-0.278782840470375,0.3496688677078862,0.38318113412395205
14.91,-0.282235357963058,0.364983954629243,0.452090335714875
14.92,-0.2660693645564315,0.3719101961801809,0.40716842215136767
14.93,-0.2297448430427661,0.4757241907781014,0.20210398956488415
14.94,-0.21340711442804466,0.6120961662185402,-0.1472586542512327
14.95,-0.12801436435349672,0.8445045794042645,-0.6006197736769401
14.96,-0.05727037365353643,1.0004269521574054,-0.9017220102260903
14.97,-0.08139324613947993,1.011089011155794,-1.0171325337558013
14.98,-0.17137152712039938,0.847367005590393,-1.065511449627633
14.99,-0.26859881208947,0.7312764707581996,-0.9962703246421107
15.0,-0.3385845811569507,0.6968049218455659,-0.9300197107275072
15.01,-0.42284675121742993,0.7705582281997947,-1.0730957951946083
15.02,-0.49022252272029737,0.9346127278636699,-1.1414586911018965
15.03,-0.4817726192143658,1.0265569192898627,-1.0465537447712396
15.04,-0.3862340615918078,0.9910440966030066,-1.046160901706585
15.05,-0.23416982063613076,0.8226523717237305,-1.1303834805259876
15.06,-0.05603445245814127,0.5791854856991305,-1.1964474944187384
15.07,0.20766411238152274,0.3245199775851648,-1.255576733144907
15.08,0.5431271327788847,0.025073521568342548,-1.3373204723761836
15.09,0.8388387315169166,-0.16199641317561742,-1.6401716695104687
15.1,1.0795521044540595,-0.3941968064782256,-1.89206007643136
15.11,1.2726475023353148,-0.6806552729423838,-2.036365648847424
15.12,1.374589810948829,-0.6497129412033228,-2.0672506679626874
15.13,1.3560003398387002,-0.5182186361632203,-2.0664510419696045
15.14,1.2224949142097632,-0.2932837802889693,-2.006267215344161
15.15,0.9981616969197963,0.009452363846167577,-1.8489174328104359
15.16,0.7083123608958729,0.4765925319602016,-1.6161363557839636
15.17,0.3755140263211976,0.9536141022495996,-1.3843979177161716
15.18,0.05841007072634813,1.1638424963773348,-1.3303489230950087
15.19,-0.16701692014395808,1.0711861682920496,-1.4126886133990986
15.2,-0.29113208764973475,0.8791788072395292,-1.5190602377338147
15.21,-0.32985518661470126,0.8402480716621077,-1.515629825117742
15.22,-0.2970483688414001,0.8775132674539091,-1.3857923583533596
15.23,-0.2670855932630194,0.964950589752251,-1.1639091702012356
15.24,-0.2716468082534121,0.9465580446017722,-0.8692910016030655
15.25,-0.33287897549111584,0.7342585337800775,-0.48796731483483946
15.26,-0.4431754453186511,0.38167338769803233,-0.08787624100551514
15.27,-0.44600450223868787,0.07188525677560587,0.21946540041249654
15.28,-0.25875353939631657,-0.023481780862054276,0.4096137390464383
15.29,0.02476981954818603,-0.016380889108856447,0.577545670733555
15.3,0.29345721390432644,0.008085024101079114,0.6736475820422175
15.31,0.5187502794696549,-0.027178867714475818,0.6800002691467237
15.32,0.6378837911986306,-0.07564997874269208,0.5485175977704672
15.33,0.6880409700447144,-0.033468863574676946,0.3003458681604048
15.34,0.7383035624641267,0.1551792877552442,0.0245160950946763
15.35,0.8091540913903198,0.40722564129753996,-0.19060963770225878
15.36,0.8092647435369292,0.5628600508300857,-0.3270692196379547
15.37,0.6720894724511445,0.5381697687984657,-0.378271799759258
15.38,0.40144338701234,0.32129038773339647,-0.2669330967258488
15.39,0.09359686533479941,0.19804643647475653,-0.07527221380245248
15.4,-0.15256974503375126,0.18902907580700867,0.15766835140379148
15.41,-0.3154781344900087,0.10856234086775954,0.43372033588646464
15.42,-0.38374341522109806,0.0664612358401558,0.7426228417075297
15.43,-0.3677079416877684,0.05326253106197449,1.0030172061594962
15.44,-0.32069136833601186,0.015000333457243371,1.1533877304538507
15.45,-0.26119176953922085,-0.019191164797072842,1.216126274531776
15.46,-0.19732896995261226,-0.04539770770966641,1.2213576597472326
15.47,-0.15760777052622982,-0.04907300372938958,1.1829508772046677
15.48,-0.1431801994931669,0.0035749502770070765,1.0919954102114757
15.49,-0.14926856508141537,0.0536608732752717,0.9762424440719798
15.5,-0.14919347607802835,0.08094081198210162,0.8805879730459327
15.51,-0.10894649781014558,0.14493691429169858,0.7729219417502359
15.52,-0.03274790883262628,0.14501674989074306,0.6814212934179454
15.53,0.08763120628704373,-0.015173942018869471,0.5816214508901841
15.54,0.22341138313669234,-0.29942213530276396,0.5112422440124017
15.55,0.31049427529321894,-0.6069932228747716,0.5484826013192144
15.56,0.36294254936955844,-0.845057048041519,0.7257271300032685
15.57,0.4372975618149727,-0.9781824889161396,1.1773403609010087
15.58,0.5735301301862458,-0.822245315426416,1.7288793611005322
15.59,0.7478727492910178,-0.4925084933121315,2.1366814539297887
15.6,0.8818487430660822,-0.49393194797336304,2.299240245393069
15.61,0.9161461265026217,-0.671171255236407,2.4083654902277156
15.62,0.7555208147745687,-0.6626713330338174,2.488834244650507
15.63,0.3664171874310097,-0.2471446157250258,2.30699337544838
15.64,-0.2029943842038681,0.4254626671649669,1.8111396621466604
15.65,-0.6714806449469517,0.8114600130936656,1.1184188999171967
15.66,-0.8191826903587134,0.5713005754070946,0.4127273609858244
15.67,-0.7428098015402926,-0.007298950199891346,-0.07889600054148158
15.68,-0.5824874586518408,-0.6045150102593241,-0.363720834148602
15.69,-0.4099959464455634,-1.0923886136325267,-0.45805254897359193
15.7,-0.30595540585599484,-1.3074592385558839,-0.4717032766907752
15.71,-0.30623883207499336,-1.2408989275478208,-0.4420383419168812
15.72,-0.38080087889082315,-1.0583690901203215,-0.4463565648566529
15.73,-0.5098249521568999,-0.8309283086678855,-0.545686678503575
15.74,-0.640611963504538,-0.63912293061935,-0.6279413968447182
15.75,-0.7034648570902097,-0.4118300256811724,-0.6278468411871834
15.76,-0.7009256280367684,-0.18014709503800272,-0.6894663187709157
15.77,-0.6552255003462424,0.05034837252617203,-0.8402526353628244
15.78,-0.5652236863992668,0.21891485797225735,-1.0314842286422876
15.79,-0.47928083051009646,0.3128147257617347,-1.1877841589737597
15.8,-0.4228515326331364,0.35141599305503063,-1.1257782030802732
15.81,-0.3669148581712445,0.23946733245157784,-0.7379088010085632
15.82,-0.3252242612529482,0.11158518411486995,-0.1789048682694831
15.83,-0.32660813981063963,0.07914329938496817,0.3148722262618735
15.84,-0.34413528335788085,0.11222849521390114,0.5972408797405243
15.85,-0.3355549295693001,0.11515271878323548,0.642748532804209
15.86,-0.29605547844161056,-0.06769820028226577,0.5383792698402102
15.87,-0.25430753369643677,-0.33453028810560836,0.3974152764104219
15.88,-0.20638824981059262,-0.42861210247025844,0.2958169732998728
15.89,-0.11562794446689653,-0.37502893947411486,0.27362257989236993
15.9,-0.006123907812398093,-0.3075297620989929,0.33342191459113857
15.91,0.06835288661022851,-0.2800923378798204,0.40288351049824117
15.92,0.09953091039286675,-0.23049549058280172,0.40777471477818467
15.93,0.11485929545960848,-0.15184585647968243,0.32905161020593987
15.94,0.09312627554882356,-0.07137445928623867,0.1901926016575479
15.95,0.048054214755750384,0.013241404891160656,0.015182402808944255
15.96,0.04605174497569447,0.10798736326335583,-0.13997564471662277
15.97,0.07605621414753193,0.14559763325391875,-0.26231088800659913
15.98,0.08963842700523574,0.06768285679588967,-0.38289764688328526
15.99,0.06359276789434158,-0.05393045366191232,-0.4647235854125594
16.0,0.021706630925433307,-0.12960322460989457,-0.42398633222509324
16.01,-0.03569046148663488,-0.18882003761066218,-0.27333737740321673
16.02,-0.11067026505968042,-0.2463990269259776,-0.09593759714030839
16.03,-0.18973233332710074,-0.2744395085386149,0.056217086208735605
16.04,-0.26288797139945447,-0.2734504925595263,0.20711489504321348
16.05,-0.3358077122956671,-0.2640517209869201,0.3411378554684259
16.06,-0.4333437815112547,-0.22433485070358125,0.39255877317303195
16.07,-0.5427283150308198,-0.10728465652448406,0.36052499801756505
16.08,-0.6341679491115898,0.057518518720060315,0.2991360209445571
16.09,-0.7183435372942109,0.19958087980244324,0.2636805759997238
16.1,-0.7936654929001047,0.3458144107352414,0.28443196387187136
16.11,-0.8088363045024602,0.416502649412703,0.3392734285233274
16.12,-0.8070969565939584,0.391221027331331,0.3471708436425015
16.13,-0.8043348077874981,0.30678640717137273,0.28854439367342916
16.14,-0.7447040967407418,0.18599593937032136,0.10945831813148717
16.15,-0.61430144398757,0.10336315005842432,-0.18480838974539734
16.16,-0.41643132869053245,0.11434965697663611,-0.4886882798573267
16.17,-0.1796981418293063,0.26627490908104245,-0.7276905737942703
16.18,0.04938490571741157,0.45344638610399757,-0.93716931081445
16.19,0.2534384608776397,0.43976593336991654,-1.081025991228088
16.2,0.461817275879162,0.1896110447117688,-1.1264756697280436
16.21,0.6655763906137426,-0.23496396735413275,-1.197642550372402
16.22,0.8350033891925985,-0.6076760219004668,-1.279583697678684
16.23,0.9348640290370309,-0.7128515859503439,-1.3635690045845739
16.24,0.9540170268532828,-0.6670811453026128,-1.5170632619115518
16.25,0.9495576384467801,-0.5448314702684625,-1.6835612007823497
16.26,0.9524041823251503,-0.3320015213498272,-1.7832039002882223
16.27,0.9433335821446835,-0.10340450027570566,-1.8052143006838866
16.28,0.9023431966571617,0.07243467826864856,-1.7810745354783502
16.29,0.8337917165523226,0.19857750999560533,-1.7407785034106642
16.3,0.734881917904845,0.3186732034115942,-1.6778234078004006
16.31,0.5910550539138477,0.4231746308185517,-1.6044978530636889
16.32,0.4288467293064097,0.4559377059101189,-1.5590903388322706
16.33,0.3074135164869023,0.3896003845715712,-1.533165479994783
16.34,0.2628709949190764,0.3567969376483229,-1.4957466110606674
16.35,0.26912927164068673,0.45909852993678935,-1.4191359951142113
16.36,0.26551886403575514,0.5736730582449996,-1.2737363043580063
16.37,0.2220516200929099,0.6062756411564848,-1.0494831532183588
16.38,0.15858259377471656,0.5443812933542571,-0.7757033132637038
16.39,0.10630987172623241,0.4499982562355746,-0.4768293213365756
16.4,0.05610950785644281,0.36890661982513007,-0.1627762073202601
16.41,-0.004932064800064905,0.2945339945002123,0.14641576477707594
16.42,-0.0468446736628116,0.22520129421947988,0.42227054469220654
16.43,-0.05343595740039473,0.16809898086188027,0.6590870685242344
16.44,-0.04291005503390473,0.12413986165973419,0.8645940572386189
16.45,0.005127800270826705,0.07198232124550116,1.0374371093910006
16.46,0.07134054886397798,0.008972507780771646,1.153535670568641
16.47,0.0921433705977962,-0.018746194515756882,1.199923951564913
16.48,0.05631853372304987,-0.0037130503318237905,1.211910205112589
16.49,-0.007679202998954035,0.03711561152177171,1.2484687655426623
16.5,-0.0668052431637336,0.046575628580742025,1.320623934193528
16.51,-0.07274953055015079,0.0011757530469331677,1.406450361778441
16.52,0.013660874983132943,-0.0770013016723871,1.4831786960426494
16.53,0.16254784142906778,-0.16169034956582984,1.52899930997197
16.54,0.28485940785711933,-0.22275536287960387,1.5332774363856798
16.55,0.33341740168726414,-0.2401869269333998,1.516519069103108
16.56,0.3155552063215719,-0.22876468444736492,1.4883837120015786
16.57,0.26334327258949725,-0.21753589124212597,1.44693521548072
16.58,0.2015406102297569,-0.24895399222913328,1.407864338374208
16.59,0.16170791254303674,-0.34302115989673504,1.3756388475021333
16.6,0.15088802832212722,-0.43412986137355175,1.356907790707846
16.61,0.13832675222251398,-0.4748542740291685,1.3393253252400048
16.62,0.12013899987660594,-0.4820380504237074,1.289502574291286
16.63,0.11843204879431089,-0.46796772217519245,1.2459535628484768
16.64,0.08455054043207126,-0.4495357747043006,1.2339026119538548
16.65,-0.002790227811378395,-0.4400482912876219,1.2559562918043385
16.66,-0.11076265541379275,-0.41004610177519046,1.3016858971118948
16.67,-0.2104010959729355,-0.3524282578184981,1.3625067883290414
16.68,-0.3010486506563558,-0.3208851098424015,1.4258669712424021
16.69,-0.3741934993232336,-0.33070460382386496,1.47497130957834
16.7,-0.400381905626805,-0.2768993312931048,1.4776294427462306
16.71,-0.4241465949447784,-0.1375147693928268,1.3835622180470453
16.72,-0.4504532452699902,0.014024379575319382,1.1969107889085158
16.73,-0.4507838303245044,0.21149640297816377,1.0050223275673487
16.74,-0.4402181013115896,0.2810782317495617,0.8273686519222825
16.75,-0.4438215439569068,0.0016200831510398248,0.6349944651445701
16.76,-0.4527813338134667,-0.1843494376084558,0.4433394303988399
16.77,-0.4428365168082692,-0.11908943876782958,0.22190383239399317
16.78,-0.42561640112573207,0.05477489555561141,-0.06123136264844218
16.79,-0.4210858541850332,0.22155896914917253,-0.38409758374853054
16.8,-0.42900350202391657,0.3746899226634215,-0.6068314568868838
16.81,-0.4215120594689367,0.48329919565552937,-0.6427011005843936
16.82,-0.32479498558235925,0.3780012774336954,-0.4791148720801318
16.83,-0.1712514067999869,0.26643291929124,-0.36795369765329045
16.84,-0.05245562041385265,0.32991672118374,-0.4172536046195448
16.85,0.018556425846500465,0.4385190542624473,-0.5669690477488187
16.86,0.01839267868204374,0.47447252170231985,-0.717807754982965
16.87,-0.002663878989447095,0.3922374896071561,-0.8171941238501613
16.88,0.007946306211393497,0.25427067325861136,-0.8354762024074716
16.89,0.050647852032807514,0.08555843624261861,-0.7851374941140776
16.9,0.08933120661708781,-0.05762306002445513,-0.7097128795305332
16.91,0.10519041383813031,-0.07529842112666654,-0.631799730283708
16.92,0.06024681690220764,-0.08544135463717317,-0.4620729221091107
16.93,-0.013312976236073259,-0.17393184262251768,-0.19284703315850366
16.94,-0.06801460527024708,-0.24618636179038103,0.1330849239922801
16.95,-0.10570345716534842,-0.2828778729396374,0.41852706464387524
16.96,-0.1338226589682471,-0.28661726443691093,0.5517703493426531
16.97,-0.20384080776767405,-0.2376111297537898,0.5626351706941071
16.98,-0.26214881226565245,-0.14192822290952867,0.5358977302915736
16.99,-0.27447630546136764,-0.09257681273077845,0.4911260316892987
17.0,-0.2865537062217727,-0.07989035348259341,0.424633723130151
17.01,-0.3047662238530392,-0.06455773968007397,0.3587745858568942
17.02,-0.2997649610804081,-0.03537200447037699,0.3123632563622807
17.03,-0.2703274095377481,0.021434113253951385,0.27506672378874036
17.04,-0.2496619714525668,0.03734849904007829,0.23656714576853066
17.05,-0.2687342239952568,0.023895932844345998,0.18112400112284527
17.06,-0.3193313318121082,0.03257648884488746,0.09989676951815417
17.07,-0.3730737985256425,0.023515026230696585,-0.019588800331177693
17.08,-0.4143207069738177,-0.013967065992748856,-0.16857993234670948
17.09,-0.4670574723695436,-0.056615439311050175,-0.3133134406130851
17.1,-0.5349071516837351,-0.042504994729711296,-0.4270100106885553
17.11,-0.5434727062593002,0.0037022712837095862,-0.570505712075163
17.12,-0.4570851362476748,0.02038402172409324,-0.732251275020787
17.13,-0.41356119963385074,0.06875205107080012,-0.7662299023413854
17.14,-0.3609141275261531,0.021597817342095038,-0.7925361031299715
17.15,-0.2842590904623863,-0.09193625606450696,-0.9120894831172301
17.16,-0.1909394189664675,-0.162966048049068,-1.0641512130802777
17.17,-0.10102683199515904,-0.16338030933714864,-1.140238658045122
17.18,0.0012292447058081502,-0.07268456736691561,-1.1176020901708732
17.19,0.09035886132226151,-0.0234683324567143,-1.055434128930667
17.2,0.1773827970789241,-0.09939115542746034,-1.008608462378397
17.21,0.28334556233956176,-0.28963999745953795,-0.9861253159635412
17.22,0.4266413048781428,-0.513967426783474,-1.0399211886416742
17.23,0.603116935765649,-0.7318619156159333,-1.0315798941798469
17.24,0.7677148173421463,-0.7167571720514128,-1.01306821870928
17.25,0.8404091201806,-0.617495042974595,-1.0970493955537148
17.26,0.8290143167367138,-0.5053560335587131,-1.1775518248918273
17.27,0.7613071456884151,-0.39502745551125285,-1.2039682721450014
17.28,0.6354661265283829,-0.27886788666682477,-1.2489234574229735
17.29,0.5019491471872455,-0.0739660741400383,-1.189301935836731
17.3,0.430191765358945,0.162299845747751,-1.0771906275410188
17.31,0.4034096590315393,0.27864823590883786,-0.9959619665145891
17.32,0.36061316323169207,0.1674682846061699,-0.9943262100242891
17.33,0.32090549085151193,-0.008799384266385405,-1.070474993396831
17.34,0.33435747519534903,-0.05709087431484199,-1.169926170247034
17.35,0.3935297076471701,0.05723863145317855,-1.2562090136911561
17.36,0.4323105220623685,0.28291816830844996,-1.2825295727613684
17.37,0.40537851910738876,0.5460298635141733,-1.2188990813508211
17.38,0.3172301317964485,0.7256804164150528,-1.109499285987074
17.39,0.1896032875824104,0.7766616923863736,-0.9457106530795257
17.4,0.01665242375151028,0.7624109081231254,-0.8008259693132922
17.41,-0.16338043490755588,0.782279725167583,-0.6952494688393716
17.42,-0.2850180003838282,0.8285926264429851,-0.5697772410879008
17.43,-0.30196165305205114,0.8463204132695155,-0.3808656904320101
17.44,-0.17839143925090628,0.7291196743995529,-0.06441423757902354
17.45,0.002421222498699105,0.4525149352522335,0.26209297339012105
17.46,0.13759775521948214,0.1451711488512947,0.4378219981487431
17.47,0.18242300619935414,0.02766836604688146,0.5053044103386833
17.48,0.18423834573435016,0.020400208088129427,0.5660046680124147
17.49,0.16633145083683443,-0.012137216739347098,0.6204019937220216
17.5,0.1295294816132146,-0.09810200114247578,0.6169615557231449
17.51,0.1061095820448978,-0.18438027683470032,0.5756058605060376
17.52,0.0972678132599727,-0.20130502068729977,0.5322129039924722
17.53,0.12373875970388622,-0.21517267748714267,0.4676134807915428
17.54,0.14610953646528768,-0.24316538613237812,0.41674424191774817
17.55,0.17489353067399632,-0.2922824027547092,0.40220708682469447
17.56,0.22865197982192978,-0.3676236526265178,0.44677471101569377
17.57,0.26405623392353794,-0.4577026817670513,0.5415122742409351
17.58,0.2345156523773946,-0.5439177666004158,0.6580240893222916
17.59,0.20336633308634258,-0.6423263864636182,0.7769927952687
17.6,0.20080773703889143,-0.7562366001776827,0.899903418263756
17.61,0.19354822540026034,-0.852863570706003,1.0318099458088552
17.62,0.21958103727685468,-0.9067285792090892,1.1371385574920938
17.63,0.2910743946888351,-0.9249826406701034,1.2189406847216493
17.64,0.38255517888820023,-0.9046587479286696,1.2572072060053139
17.65,0.4344233304880014,-0.8023517907254807,1.2223356550781443
17.66,0.42126451815349314,-0.7018664842234901,1.1930461333180868
17.67,0.4085338779384765,-0.6501645698730082,1.2088625685693013
17.68,0.3656729424172043,-0.6240610527878536,1.2548148910595243
17.69,0.297555121543735,-0.6093430301133779,1.3538233177593313
17.7,0.22499059638342886,-0.6169790882763067,1.5249114029076514
17.71,0.16463874067117815,-0.6303473562665678,1.6963742468089626
17.72,0.06118173051441674,-0.6191122048817895,1.8386865353642095
17.73,-0.02679682557796375,-0.5340066838583396,1.9290644246586466
17.74,-0.09266997383029192,-0.4241196579750722,1.973806877420943
17.75,-0.16553391215132623,-0.21608080947183556,1.9217249227993134
17.76,-0.22793015660090438,0.06730227864709126,1.7573419268519308
17.77,-0.27081659723567053,0.3872565241350911,1.4762358950770729
17.78,-0.35147966684550885,0.6354943325016881,1.1432076089122778
17.79,-0.440152754342758,0.6231598664954343,0.833545066434395
17.8,-0.49472074325396886,0.445563103162766,0.6694884531042243
17.81,-0.5223891131082936,0.15644704054462416,0.5602360899560114
17.82,-0.5163750212732008,-0.08955625746050783,0.46936176900879156
17.83,-0.4871290086896449,0.03685533880567756,0.44707477116889976
17.84,-0.47447397478027714,0.14522298749803786,0.4144944421905151
17.85,-0.39470750239647134,0.12432361344477014,0.42528246612994836
17.86,-0.35956395994572665,0.07183841773791345,0.6048689403977748
17.87,-0.3546377057229551,0.013247086965909446,0.5234655191447735
17.88,-0.33708290332984936,0.09120471091872966,0.09290650759734442
17.89,-0.2995589384762935,0.28159915065187613,-0.2673305823283892
17.9,-0.28978829542988205,0.33211234825023384,-0.4040629531395171
17.91,-0.2741686400705748,0.20138007666014435,-0.26285964948308005
17.92,-0.23631471924537228,-0.02418013750750893,-0.1552294383127077
17.93,-0.21801817568842996,-0.14449658098760806,-0.11700943447639485
17.94,-0.1906221444402869,-0.24021677591975274,-0.11073267712107536
17.95,-0.1868853429380412,-0.2834312126250785,-0.08919111446488553
17.96,-0.13491814683009026,-0.35572069284241814,-0.10063628514364194
17.97,-0.08714666454158998,-0.3263919912056583,-0.2063793150715817
17.98,-0.07517807711359926,-0.26088642305411186,-0.24155214011959236
17.99,-0.06115372701016749,-0.27068163192649713,-0.13303442459224943
18.0,-0.03415081681398374,-0.2717125171946359,-0.018083708207018382
18.01,-0.022171346751331502,-0.17782707534347228,0.04073558084110591
18.02,-0.022320085153947716,-0.04389070380226282,0.0933472708473285
18.03,-0.03872026175615305,-0.006742516882879922,0.17037645989732483
18.04,-0.05432878676702338,-0.021109289893487714,0.26505701974941503
18.05,-0.03122446996186309,-0.08945288885447769,0.33571090047640195
18.06,-0.015810819734962265,-0.14882947444660588,0.3543849463877492
18.07,-0.03186458231708605,-0.23618016361664523,0.341435760904272
18.08,-0.03740589496644642,-0.3057608746111168,0.3188506913209467
18.09,-0.07017956621345063,-0.36028960982320846,0.2759964176903932
18.1,-0.13157269739993074,-0.373426744248016,0.20873038910404718
18.11,-0.21777061074610032,-0.3302349939688544,0.1408663879425533
18.12,-0.28378802381075896,-0.24200744169325852,0.06201153170071796
18.13,-0.36323192728406956,-0.09679349276659592,-0.09666928361968345
18.14,-0.43650936360776654,0.1349963562331861,-0.2784396741446735
18.15,-0.4762461859221742,0.33320110744869214,-0.37688496630482976
18.16,-0.5344121833289049,0.4923310248970213,-0.42042171574485937
18.17,-0.5800660202770135,0.5525554045070497,-0.39194947320323564
18.18,-0.5822166447169697,0.5822593341396032,-0.3919466890706673
18.19,-0.5031480717055348,0.6228699046633422,-0.4312470568024371
18.2,-0.3472788034709372,0.5772047678049449,-0.5710407279413727
18.21,-0.15520353131289225,0.5112660606109377,-0.7269850158947503
18.22,0.04156145750231211,0.4190846293836244,-0.861133057497284
18.23,0.22761664307573473,0.2898510848083695,-0.9868486384840722
18.24,0.42136124952894577,0.20820174752895917,-1.0892637054480288
18.25,0.5859280191444636,0.019797342164718765,-1.131046477908736
18.26,0.6955434943869933,-0.19522656610470743,-1.1540372489432678
18.27,0.8031430570857976,-0.385900125125745,-1.0620732774189052
18.28,0.9417066710915194,-0.6035113140783746,-0.9283115400960853
18.29,1.045274890089346,-0.6702900875361368,-0.9043890833622601
18.3,1.0339999317484683,-0.579761038511023,-0.9777751562079279
18.31,0.9420966029167233,-0.38020856844248885,-1.0226423374231695
18.32,0.8648546074589826,-0.14133684267739333,-0.9962414828603996
18.33,0.8017496255946683,0.0020587208353824485,-0.9681559239889921
18.34,0.7062899763305583,0.06188126256812255,-0.9578992928350633
18.35,0.5997511674246057,0.07987705569594479,-0.9594574476966117
18.36,0.5025984112015569,0.05212175240046632,-1.0075119717103744
18.37,0.39158424040461015,-0.02003388594767324,-1.141739287127905
18.38,0.26970205453971424,0.0007341991173261328,-1.3694111534607871
18.39,0.14671195037388712,0.16720283579647072,-1.5842580718019976
18.4,0.029456839281846347,0.4362862771265258,-1.706180225146908
18.41,-0.07140617324495203,0.7114592469717208,-1.7401907194437807
18.42,-0.1467175561291269,0.9154704735517193,-1.7024484536943565
18.43,-0.16236858765192375,1.0102639145948396,-1.6025497813321115
