seconds_elapsed,z,y,x
0.0,-0.8121773600578308,-0.6500025987625122,-1.0352727174758911
0.01,-0.6776886205171484,-2.4831979346709177,-1.0374510634604928
0.02,-0.8064549679005989,-1.0781391598852483,1.0257717559884152
0.03,-0.787697993486224,1.6180074733928789,0.6388250175615179
0.04,-0.3387480808728522,0.35688960723315216,-1.2415808525870191
0.05,-0.1657887182735052,-1.5316730415578041,-0.31355010691008034
0.06,-0.4035734849461024,-0.09925125448720748,1.6614043655607305
0.07,-0.2986516645263502,2.6753964441475118,-0.34745987715033744
0.08,0.1547130998528925,-0.5605625547023321,-1.8746732334753775
0.09,0.12611625298050247,-3.114264594867054,0.3145855654270256
0.1,-0.39194856760221547,-0.007717579672273432,1.6926496823632124
0.11,-0.37610958538942707,1.8929241505514955,0.08762778941337968
0.12,-0.0045201991926134815,-0.6447360236173315,-1.1410154612549541
0.13,-0.016263676050323028,-1.2671872349297164,-0.26202950180016493
0.14,-0.28445518128297764,0.8349005926713543,1.0545932320091251
0.15,-0.0938808482132285,1.3205308853906008,0.07058765293395337
0.16,0.6733108596304482,-0.261453326907239,-1.2359907883328163
0.17,0.8447816906809267,-1.1505955167900004,-0.3500344923256533
0.18,0.3487248445650204,0.6737101645292176,0.7752461073866607
0.19,-0.003057672710053908,1.430053422444209,0.5702769676025745
0.2,0.08685602584832887,-0.39870162885577803,0.009346048949478988
0.21,0.1876019787457036,-1.3929499610864846,-0.3052417605258036
0.22,-0.07581462295948233,-0.015077104888065834,0.4396221120198504
0.23,-0.15864194482668287,0.9672373346564341,0.42181884931604346
0.24,0.1623890366017661,0.09460398533757433,-1.2654905556331104
0.25,0.4884452578595556,-1.4799474145302474,-0.8153013176370935
0.26,0.35872322665591394,-0.32170110274317704,0.9848800200209278
0.27,0.28110144385797,1.5500698060610958,-0.05036348430237683
0.28,0.30113833946995183,0.0755942598961309,-1.3703028871391059
0.29,0.07920657399562839,-1.4696023912951903,0.05081880305503302
0.3,-0.3438729405398188,0.35531453223090526,1.5991254154768102
0.31,-0.21970967005806114,2.362749574140548,-0.057233905386737255
0.32,0.22313002328784826,-0.38956228142204236,-1.2929207584660574
0.33,0.24830009663255453,-1.8341432429067608,-0.01915360370229239
0.34,0.01820637329062023,0.2058447239204198,1.37072268284955
0.35,0.2712098624595544,2.05622168215103,-0.1365381994929784
0.36,0.8005634138329887,-0.3507708357559201,-1.448656414104653
0.37,0.6539964233848172,-1.704774757489042,-0.15944828876485687
0.38,0.17086600070953856,0.14460682606351438,1.020724938128596
0.39,0.17969768168186948,2.6297456481342922,-0.8271048181322229
0.4,0.5809817619699242,-0.19404679085970564,-1.1847585396580789
0.41,0.32082735458303374,-1.7933894389969265,-0.11479453304478353
0.42,-0.17602389831431273,-0.0596535925786186,0.7628303359529606
0.43,-0.15026520116727274,1.1307315671562785,0.22965456468369155
0.44,0.20785031862364908,-0.2832869208090495,-0.7578968183525762
0.45,0.20084739075526575,-0.8423973266883312,-0.37234014341865546
0.46,-0.06678056649575156,0.5651256531691656,1.2176753886019496
0.47,-0.1419799318386343,1.5617238758514773,0.6730012935758984
0.48,0.08392408670812183,-0.4296907704390539,-1.2509744835917942
0.49,0.12766855693618964,-2.368100325932458,-0.474935708927542
0.5,-0.18842565531237798,-0.46155172761806706,1.0789638078390753
0.51,-0.2664415836591087,1.9914790648368177,-0.1351804297211798
0.52,-0.00822435963119416,0.4145831180197567,-1.5607376164032414
0.53,0.09049127466884599,-1.8262996779300424,-0.08160692355399957
0.54,-0.10582509888835458,-0.18707794547195195,1.0266878972345543
0.55,-0.09697109532879848,1.290232019782026,0.34555530267559387
0.56,0.05237109642517759,-0.3906527384511312,-0.12531448921375635
0.57,-0.03943518846159,-1.0368115161207174,0.1451774381558311
0.58,-0.3047629714271337,0.46394370576204497,0.8462075453531663
0.59,-0.2738113408515297,1.0511924371203498,0.19002786142162115
0.6,0.08646655470117649,-0.6189498249966778,-1.2928618757519632
0.61,0.18568126622340114,-1.5517757972182378,-0.43234870671939124
0.62,-0.14802530094702626,0.1871317740279338,1.1686378469137746
0.63,-0.1485852958508881,1.2461216899062013,0.028491806831399173
0.64,0.2378047709632726,-0.5273289571360713,-1.4702854992074854
0.65,0.24740630770638924,-1.5915266621114104,-0.10890803311729344
0.66,-0.25113073646736833,0.7317847644377484,1.4847583872777173
0.67,-0.2528332948576454,1.9012403295822087,0.2669928932191246
0.68,0.21995267578425887,-0.5680269053709687,-1.0780988231913795
0.69,0.28678312416357554,-1.9186391322565297,0.24736527020723165
0.7,-0.23263410941809212,0.8516592268980456,1.82640090311522
0.71,-0.2714651395782601,1.181940086563367,0.7703503285080501
0.72,0.158240297929178,-1.4008175183085447,-1.7009374635189611
0.73,0.4922294254464667,-2.8327975913009986,-0.5252711433618192
0.74,0.2675623990930954,1.3761453788181144,0.8945307382725121
0.75,0.4321854351198306,3.9381851369840266,-1.1930965132574174
0.76,0.7588313388486757,0.40725813722319437,-2.0990132492927027
0.77,0.827467287669355,-2.988892907065834,1.2645357783874294
0.78,0.22138706643576891,0.28577461337448673,2.2313184888960054
0.79,0.09673641913096909,1.6227799769043454,-0.0416561891681988
0.8,0.2561306549185897,-1.1097638999875579,-0.9530193725464581
0.81,0.2968435508550728,-2.218656631729888,0.7527211358786045
0.82,0.09722072938164382,2.6150842063567437,0.2995318696106368
0.83,0.3232565886577087,3.9321331651257028,-1.8261362977824702
0.84,0.8029853348681231,-1.2936728022250843,-0.8120843164353564
0.85,0.6898207066193761,-2.866847389272563,1.736668620541159
0.86,0.29062517390939213,0.4708655598382146,0.9135546542041814
0.87,0.3042618052112683,0.8107661472549452,-1.3008741268154318
0.88,0.37094584236623374,-1.9133856384426322,-0.6943447263429356
0.89,0.12320856713810363,-0.6734277984289386,0.9728345931277708
0.9,0.05568061982596628,4.9717699131628885,-0.7008618732737275
0.91,0.4833363029699307,2.1875608376784217,-1.9867888148249357
0.92,0.98021728472351,-3.546925731874236,0.5202163829571
0.93,0.5701956004286849,-1.3970737504458342,2.49274863470364
0.94,0.38166362666010584,2.605707555561332,0.6374869989205839
0.95,0.5237915194309791,0.5543098662007393,-1.3611457589857316
0.96,0.4920612547993847,-2.3971168306589608,-0.1040093075246005
0.97,0.18212155168332034,0.9336206921114065,0.8743306233944372
0.98,0.3446814110642372,5.838860126780725,-1.4933796828637773
0.99,0.731446641791317,0.3318798700074801,-1.7806376666747499
1.0,0.8261251738478695,-3.9075032195927175,0.5079498425906424
1.01,0.46186109907871303,-0.7910498236013496,1.7204986995518898
1.02,0.3747648144148438,2.929934647094093,0.6313857153409965
1.03,0.5326057357768854,0.19109726907757824,-0.5352449714497852
1.04,0.5140916719702887,-2.094052845153142,-0.00755459838614736
1.05,0.16261745974943448,0.9572174852984774,0.9850638762228294
1.06,0.30863614493002095,5.470114050533134,-1.10967392485118
1.07,1.0069479858919155,1.4439075123921108,-1.8273620238607078
1.08,1.2828655320619027,-2.9360739875916773,0.9231922188320074
1.09,0.7527103504822548,0.03300655710796285,1.385284741296365
1.1,0.5055648473151381,2.7986615453319033,-0.836985152292197
1.11,0.6617389619882001,-0.8075206212365449,-0.7912422218734306
1.12,0.48133173169747084,-3.068340649796658,1.3363470969044986
1.13,-0.10366995755615868,1.0387203044140791,0.9016938938153842
1.14,-0.23531833783694817,3.1916677124332935,-1.3481117138323366
1.15,-0.19446567757503838,0.030517829233486837,-1.0735686071019224
1.16,-0.15534780306921175,-2.072398426128901,0.9657598076902119
1.17,-0.08998099065201154,2.406124207431389,-0.054409241945683695
1.18,0.17771235958967752,2.9814521078789635,-0.9236594144129264
1.19,0.06086343814486041,-0.9242575594688598,0.3522073118929472
1.2,-0.4014732299136831,-1.9247485301343314,1.5073008663532128
1.21,-0.7591641369665906,0.694110779479184,0.4011596607247436
1.22,-0.7704396382809993,-0.010679602023923096,-1.0902778660387389
1.23,-0.7803695008161463,-2.677440204516947,-0.7236663546033619
1.24,-0.9003964037092925,-2.0581717605312684,0.45634169011129333
1.25,-0.6039948161752475,2.7819121147893067,-0.522472242736763
1.26,0.0034604974149352423,3.029141178720569,-1.2484544613955089
1.27,-0.10564610313632883,-0.23516428098426484,0.5214525863724485
1.28,-0.8176696719835979,-0.46187370543970363,2.1396405182493083
1.29,-1.3134928767242824,0.34582390157230614,0.7430947039987907
1.3,-1.2778581521756682,-1.2614048290377073,-1.0251951282699867
1.31,-1.2840347087527122,-2.811916989064409,0.09318041339416193
1.32,-1.393561894063444,-0.753228844748685,1.2220099510927058
1.33,-0.9282780565642746,2.1591012286374855,-0.7469193841451507
1.34,-0.3614720912567748,0.9160884413017888,-1.9713479267326042
1.35,-0.2994780383129782,-1.3779286796476224,0.27181057362638555
1.36,-0.597798595152395,-0.6183925058082861,1.0559020546514795
1.37,-0.5569132867001235,0.6972935947190635,-0.6017182137705143
1.38,-0.6545765817259344,-1.9526994170789067,-0.6129377752241855
1.39,-1.2577511844842064,-2.2346110692061227,0.7019643022417426
1.4,-1.7485673848156016,-0.14949804754343626,1.549167339327404
1.41,-1.6068790289738752,0.46285521835454624,0.8024649885641172
1.42,-1.1016117020894178,-0.7441183400120599,-0.9840404517463174
1.43,-0.9768216924824504,-0.4226912210375623,-0.3216586849902367
1.44,-0.84175491979231,1.3949015183162472,0.7513633961147271
1.45,0.18719852696654782,2.6781558384473922,-1.157486706838143
1.46,0.6391618204085843,-0.9622459585721441,-1.6290970433108434
1.47,0.09992857766380343,-2.2685953954236617,0.7853240861726436
1.48,-0.6982978528521984,-1.096948131452489,2.666082168804717
1.49,-0.9988260533742975,0.5220487660523521,0.2535555155973534
1.5,-0.9230871696065415,-1.113518912957828,-1.774379149223257
1.51,-1.1234783110777844,-1.6026864301565302,-0.3590471891366927
1.52,-1.0900119753839046,1.0920684698812873,0.29516177428458135
1.53,-0.20837290161045127,3.3598496004961116,-1.8457895979352386
1.54,0.9651006389103967,-1.308491133431991,-1.0598834705774391
1.55,0.9188136974897837,-2.6610246295237476,2.401028052997814
1.56,0.2214669535700351,-0.5287328347948596,3.055711843562375
1.57,-0.0929756753935629,-0.5560122606733943,0.13994239539695952
1.58,-0.28129388171371333,-1.6524732532963806,-0.6169462093319937
1.59,-0.6612369717768863,-1.1323515342311494,1.4775291395933854
1.6,-0.7732644906131012,2.932904434797986,-0.5898606254746357
1.61,-0.5272623453320728,4.2905652020597715,-3.1798960407336168
1.62,-0.09503437181176205,-0.1657537330364196,0.32296640552946454
1.63,0.14079597538402483,-2.5863260315383734,2.7326336979914445
1.64,0.3900080225496747,-0.7499524012655313,-0.5362457248374066
1.65,0.4983592851099181,-0.6001172728074144,-1.307463605765224
1.66,0.398883150910927,-2.0005625893180636,2.049829411107965
1.67,0.28770499474168343,1.2213834210902406,0.49713444011385416
1.68,0.2697959300523907,3.4982541317289764,-2.832161847578227
1.69,-0.02156077165049481,-0.5543653085201957,0.22652333345795542
1.7,-0.7320811312029892,-1.5264891131538376,2.0704192999652267
1.71,-0.9469105763125242,-1.6107933437050392,-0.840622453950243
1.72,-0.7360391836859027,-2.0825805037380123,-1.9815373685603113
1.73,-0.475807889318628,-2.1844393009527336,1.5377433027877387
1.74,-0.16060251740057274,2.7531238787919627,0.925371650826838
1.75,0.23233049332957134,3.6404927520073276,-1.4199905619036293
1.76,0.18647986414370593,0.2709852414616791,0.4459663645102596
1.77,-0.33658064664375864,-1.345508150031068,2.698830826882188
1.78,-0.908738581408617,-1.0834141958670769,0.904636370808096
1.79,-1.0254305590403519,-2.3178161853035757,-1.0254339679554556
1.8,-0.9533343861111417,-2.3329514473023742,-0.12853740557853066
1.81,-0.664830517572721,0.809111681398303,0.7952750202399781
1.82,-0.20012104341535292,3.174259136108601,-0.8705757845973555
1.83,0.1044044317806857,1.4519604097207275,-1.2548731230351564
1.84,0.1334734373347975,-1.52585231978283,1.4500390036755637
1.85,-0.16700702618006588,-1.224156535672097,1.0068371068519606
1.86,-0.07672593960820878,-1.7101473124163797,-1.7384454855424407
1.87,0.02088576335240896,-3.008604469779429,-1.1155027540612068
1.88,-0.2292965978958227,-0.6649147716179401,1.1798688026484854
1.89,-0.4538997685916321,4.667145194395457,-0.09667860816400134
1.9,-0.42031342266403904,1.5248148218143975,-0.3959355921357823
1.91,-0.5627337080808346,-3.0963016179305396,2.253054787472851
1.92,-1.0306986735954324,-2.486653646279873,1.793515293091196
1.93,-0.8405957087617877,-2.037844749255368,-0.8793910861626845
1.94,-0.7127454693030402,-1.4114118205390758,-0.6257385276498808
1.95,-0.6397784475680687,0.7236317312483475,1.3425474603917453
1.96,-0.16295727773741284,4.151488867620974,-1.1835776990061375
1.97,0.10648290253470052,1.7271105707007064,-2.862156081661401
1.98,0.11097001422779933,-2.596828754472113,0.7175186356083318
1.99,-0.3296331210903371,-2.021472063004513,1.5636994317150403
2.0,-0.41283138674527975,-0.5054538700497876,-1.4936321653878548
2.01,-0.44615814746016086,-2.562001915399226,-1.0921877871586907
2.02,-0.8714083672865425,-2.159885787849837,1.5634084408457793
2.03,-1.0586612744052222,-0.06278202277782333,1.6039332640748296
2.04,-0.7455080877576356,0.8600581121418956,-0.5433020358916915
2.05,-0.4630062362400793,0.265830639469387,-0.26669116165381856
2.06,-0.4639465178094581,0.6322124048177031,1.0044577432375972
2.07,-0.24440819695805419,0.8353773032140053,-0.31463562747429097
2.08,0.5395059384335907,-0.8197550079160768,-2.0045761792755656
2.09,0.947361809333458,-2.784962142581269,-0.6921190723520926
2.1,0.4567538674747283,-0.6003500819282137,0.39002712114218113
2.11,-0.043495794570914986,1.1823730260926077,0.7566264187235554
2.12,-0.20557140419810058,-0.17622187842839954,0.667000357436767
2.13,-0.3205862325772973,-1.1744345951437924,-0.003442104866381343
2.14,-0.5142759676925932,0.27908410515232307,0.28549588082602023
2.15,-0.26646917268629894,1.2577175450322182,0.3092853771286347
2.16,0.5347920722390855,-0.10334617381538394,-1.2409626685613564
2.17,1.262896892866309,-1.8032836723665908,-1.0314662763863411
2.18,1.306224653961958,-0.713866287938713,1.3150157047121673
2.19,1.0146550179547613,2.01914846913143,1.2462781018768265
2.2,0.764635706550693,1.601805314846463,-0.7554538401110614
2.21,0.4843084132737897,-1.0713673631310536,-0.7890903014580198
2.22,0.08603635201371823,-1.4291505582407051,0.7345345877729742
2.23,-0.18096840828046257,0.7362856526340473,0.4283008155312734
2.24,0.14168417407387718,0.7379570283688925,-0.9689878811340643
2.25,0.8552288112964143,-1.4975775146391153,-0.5658733511431453
2.26,1.2955538624370557,-1.0304211715057838,0.8756270670140739
2.27,1.4634958143174144,3.2683395777588777,-0.13669693329485988
2.28,1.7190143373058657,2.374727729331762,-1.239824078068088
2.29,1.7349824635438953,-1.4327400642771,0.11119219528592311
2.3,1.1253997321179205,-0.9801408371470073,2.0115829067991875
2.31,0.4860490672501536,2.1918956449727154,1.2693007856532972
2.32,0.33658051465445965,2.1582763041164847,-1.2143511423672615
2.33,0.4797676406540018,-2.2329253717160538,-0.5739401122454795
2.34,0.50306062054239,-1.7780150336657718,0.47745207452538974
2.35,0.9659450005593647,4.52659275101944,-1.9454060400392716
2.36,1.6036933015494883,0.9516400825706262,-1.9517027056122276
2.37,1.668198065659499,-3.132764006398583,0.9744460422965531
2.38,1.0005208235441598,-0.17694412389751135,3.057006807186178
2.39,0.6817379698218644,5.938789693224909,0.267206885839809
2.4,0.5776816339954162,1.5441443012977385,-1.2080855498188001
2.41,0.2889610789097822,-4.485813899718914,0.9364850239007741
2.42,-0.29383190766629746,-2.4599229476122195,0.958958647340438
2.43,-0.17267088392101443,4.263980084996406,-2.2995245028607516
2.44,0.41512155074186835,1.5335981518882806,-2.2607040683521715
2.45,0.9974794507798463,-3.4198455211226015,0.5836212852068499
2.46,0.9161191503874856,-1.10543977695631,0.8577191069670105
2.47,0.7948914768713862,3.056851824663384,-0.3627662757148491
2.48,0.7456407703238513,1.9971282197221436,0.21566511708941247
2.49,0.5807465475484329,-1.1440361821314573,1.1818946837784778
2.5,0.11186798627057343,-1.3998767906032878,0.9471840092746343
2.51,-0.19957628568257882,0.8104388080834456,-0.09089733909362147
2.52,0.10117281846393036,2.0144191953703663,-0.6367319996498014
2.53,0.9867483222907769,0.36243805892179626,-0.6219835219903889
2.54,1.2557320284817366,-0.6824188834387831,-0.37099227805465107
2.55,1.089998989145707,0.1409300955563939,0.27338770438563437
2.56,0.9409605515904375,1.3081352495258776,0.34041437955125897
2.57,0.7569004212206976,0.815084820337194,1.5234533113539932
2.58,0.6105747830042016,0.5441637478137118,1.2457219867718257
2.59,0.45947442199410654,2.1457931237037986,-2.461804319292965
2.6,0.29376372715503335,-1.7619359628956728,-1.6598642227218572
2.61,-0.04629321508029173,-3.0206092524592876,1.1535357379540438
2.62,-0.0140509380051453,1.149726422444743,-0.38858017879948253
2.63,0.6888872976688711,4.51427211656295,-2.629530884763809
2.64,1.3442281547069863,-1.1860596465295117,1.6443507189101283
2.65,0.9588492666811125,-1.7249406407378411,3.8376978511854545
2.66,0.6466614400960494,2.5635522435578184,0.21966399834304634
2.67,0.33346499395602114,2.7869491613737125,-1.6169429483707671
2.68,0.1490203778691964,-3.8553848236779626,1.7027276222399748
2.69,-0.36850502533497076,-3.3192356580607165,0.5086034260204986
2.7,-0.31919736690848965,4.04584744809102,-3.6256293276919327
2.71,-0.38479675523648266,3.0343188225289657,-1.765232330891016
2.72,-0.09331755203522313,-1.606153401483757,2.4386831661418804
2.73,-0.09684130990586129,-0.4772405963158166,1.4710663025435424
2.74,-0.024006450587580566,3.077930333460945,-1.087318616451036
2.75,-0.07591458085460005,0.6427666266516502,0.8284879522549141
2.76,-0.19504840203374302,-2.5673177519380745,1.7498564578492064
2.77,-0.2357491585968343,-1.6147849275385702,-1.362232939488543
2.78,-0.3845017802667126,0.5940324457173763,-2.546406780059936
2.79,-0.6898021385450132,-0.05339716462640633,0.6641706953098451
2.8,-0.8251027288874923,0.792946322135002,1.2321908467478693
2.81,-0.3938583832567514,3.747802697820801,-2.0839981842030357
2.82,0.03246736941979661,-1.2311993097038967,-0.8740061207498198
2.83,-0.35689692278725016,-3.0985101882559265,1.9935141518080017
2.84,-0.8076476624045978,-0.2695891876385932,1.5544792802480534
2.85,-0.6627410487475084,2.4936443162048025,-1.0393929430792654
2.86,-0.4490855596055522,-1.3228625708770547,-0.31865822145404094
2.87,-0.8514551889473384,-2.5296216299254413,1.7854953496103696
2.88,-1.2695138383005626,0.2766356264434747,1.5553634900200595
2.89,-1.0432522306865095,3.236115559261658,-1.5435879727942474
2.9,-0.6945444070260136,-1.2127399093079916,-1.1086336182584384
2.91,-0.9904852235147993,-2.5711048831113397,-0.04402912872601544
2.92,-1.0845700749114229,-0.9437627934123562,-1.1823612745621692
2.93,-0.6263581596214154,-0.2944368560219639,-2.249269169483391
2.94,-0.11685092294566393,-2.2869475551415057,0.3638478338210357
2.95,-0.3854900068905749,-0.4686150784167922,2.262239512605832
2.96,-0.5383013415211955,2.2218839854026387,0.7765185683274013
2.97,-0.5701371344568331,1.435067138497713,-0.5242791031996044
2.98,-0.7553110262330397,-1.4779783534957252,1.0504713859799746
2.99,-1.083222715298712,-0.9275983087160495,1.037048074050844
3.0,-0.7650683821842621,0.6684767054001165,-1.7160105638164305
3.01,-0.08024808937505655,-0.8814206517912699,-1.9773918019474745
3.02,0.1409976981510025,-1.8461151541435092,0.8913616520692027
3.03,-0.03620195836728972,0.9853795082881236,1.3556316037366816
3.04,0.16713405129480075,2.1428991547579628,-0.874974052297653
3.05,0.43044397798004064,-0.7976905543838972,-0.6959044392442739
3.06,0.19170007693478766,-2.153629723920626,1.4045329420756842
3.07,-0.16410754762997204,0.30954052964451306,0.5859196902633673
3.08,-0.018475891591671664,2.138666291207331,-1.8393903204723483
3.09,0.3129483301360708,-0.596346719237415,-0.48935564378060403
3.1,0.22928999162163677,-0.9624911992997088,1.6884052355793442
3.11,0.1444513277230992,1.4171629510039936,0.43765020965896345
3.12,0.4090566763356162,1.2517287751904438,-1.2989694375082452
3.13,0.7233342007661886,-2.001471587263662,0.5068679269381159
3.14,0.5554444081340526,-1.223720451993048,1.4883205822218255
3.15,0.4698487735280972,2.2270483313658263,-0.6824313425872797
3.16,0.4262001103461692,2.317236068099387,-1.8130243465248446
3.17,0.3679758899429727,-0.9708603507231559,0.5302265774531381
3.18,-0.009425599671573907,-0.5695072589754713,1.1434992926672125
3.19,-0.13486421917583302,0.8374365389515093,-0.666083964022609
3.2,0.12609833171361687,-0.5115376532370423,-0.8577060664229782
3.21,0.35111818330037536,-1.9602272218500902,1.0937365344347825
3.22,0.27641516448421277,0.3399093246953327,1.0300958727121834
3.23,0.3991692364943887,2.2862814446166624,-0.9087187714799181
3.24,0.40165851933991487,1.2363517465396248,-0.7308516352934229
3.25,0.15859776192666897,-0.47860206954149914,1.2756696170891384
3.26,-0.2190713917125792,0.09128604049525121,0.5600866508300367
3.27,-0.24918033035085962,0.13198133572961623,-1.3141195777165935
3.28,-0.10623767918153854,-1.1560232382547462,-0.5121848766427257
3.29,-0.08252109613910895,-0.8816568540838308,0.8991436378996462
3.3,0.10588996123051464,0.865623999453399,-0.13346607740114236
3.31,0.3913689497583975,1.638800771448612,-1.2431859903283204
3.32,0.39932119621187895,0.1571367381176077,0.4298044302033117
3.33,-0.01427487989544441,-0.07443286237451585,1.5680833592775412
3.34,-0.2210326996586667,-0.18567363564251207,0.03337970174019883
3.35,-0.17148488767639058,-0.5734981446355673,-1.167169609349117
3.36,-0.2643660669683915,-1.3104684606552706,0.4415275850717376
3.37,-0.4739746478539774,-0.21432209785271034,1.0004438192135612
3.38,-0.2811291516904775,0.8864993875521938,-0.8999306452409266
3.39,-0.09055146260860542,0.7880949516707667,-1.3147147488740587
3.4,-0.18859399121500375,-0.589326259661298,1.0624071610630472
3.41,-0.4171768753159159,-0.31429015525002246,1.00543562399419
3.42,-0.28310798140339344,0.016378150668708152,-1.3075167611663592
3.43,-0.18763503252627506,-0.7721982592101797,-0.7429967684291925
3.44,-0.4675938270679335,-0.620488953182005,1.4004341772890885
3.45,-0.5224925262785383,0.4648437655676918,0.40367198824725414
3.46,-0.26486696989524766,1.1375423363602608,-1.6667875922562927
3.47,-0.1757373318665264,-0.5434542369365263,0.0456293606149496
3.48,-0.4844302470661713,-0.2913213191968758,1.4235797895245867
3.49,-0.5308480335815318,-0.02228617864717966,-0.0872377458836896
3.5,-0.38432006263420043,-0.6767633764765062,-1.166592092428414
3.51,-0.4302219432454629,-1.155174630179316,0.39322965590010306
3.52,-0.6358199248893751,-0.22613181189381032,0.9704983586760969
3.53,-0.44499507689709983,-0.10357155232840744,-0.43999736694882396
3.54,-0.14781349696693086,-0.013738315014977794,-1.0959679369240176
3.55,-0.2459161313376142,0.1881555870463123,0.24332340698602417
3.56,-0.5659231784624166,0.8312317282103825,0.5906644257293039
3.57,-0.48813883209857584,-0.46109812714801174,-0.4059239635605783
3.58,-0.24921796249792533,-1.637158722216215,-0.5006244593289586
3.59,-0.3094970891978662,-0.5817947929225042,0.61183332416972
3.6,-0.2902509929793056,0.6102268317558199,0.5055546752463685
3.61,0.11950298090635839,0.2336766261897001,-1.0210869652247638
3.62,0.4717591915637149,-0.33209772387336234,-0.9728586372627475
3.63,0.30719159446872324,0.4786304236584773,0.7346152292220272
3.64,0.09769311254607468,1.2635565819693002,0.8863954057226325
3.65,0.2216681523748368,0.586996221332089,-0.7522809157322398
3.66,0.4241097626413132,-0.9086333495975858,-0.5799553602423224
3.67,0.24541925876895432,-0.8518173352746461,1.183254217967474
3.68,0.08515451099442087,0.42127364112720833,1.073917844357654
3.69,0.3014476710235103,1.0977504010892687,-0.9073028014782576
3.7,0.5858442993288231,0.12028509212883712,-0.6527999673408439
3.71,0.5635865595121216,-0.4646993210681646,0.9812660232923551
3.72,0.473079312887322,0.38630297957165544,0.03902368096495412
3.73,0.5454433790164355,0.43348448977055454,-1.4802835931987615
3.74,0.5340212144285179,-0.600416245852781,0.009856472751160084
3.75,0.31886275536603265,-0.1504277030642015,1.1207911579123682
3.76,0.30593173740124396,0.8377902371318123,-0.747462735303275
3.77,0.34935717843923947,0.5154906797689656,-1.36252858656255
3.78,0.20367417944053987,-0.49831872662756427,1.0909837259960231
3.79,-0.0754294036705029,0.44943394965413996,1.194706861965921
3.8,-0.00021338505421787668,0.6598326722567492,-0.9541724901853068
3.81,0.05653615142018055,-0.26852296162381745,-0.5006054359411947
3.82,-0.15628941065733432,-0.5855631876433237,1.5855016527238845
3.83,-0.32435115990124247,0.0981471532690862,0.4394451880428413
3.84,-0.29066493892109013,-0.22059234877182812,-1.4048619720924858
3.85,-0.46071418576643053,-0.6561208107787007,0.15060249327643843
3.86,-0.65578554294318,-0.13331586853740376,1.3782962763452131
3.87,-0.4472155926915471,0.540798074549424,-1.0249819687933504
3.88,-0.20065025066348105,0.1520469748135337,-2.0424357494626135
3.89,-0.3277142317417039,-0.963913280776514,0.5841932334960346
3.9,-0.651226376673234,-0.17227832665224188,0.9204277958234844
3.91,-0.6062877961350491,-0.5461550573721539,-0.5487614058360896
3.92,-0.5420762797101658,-1.2235944508809267,-0.23366741105399008
3.93,-0.7520251007827453,-0.03294029831957618,0.760434967156833
3.94,-0.8541182906866289,0.9995693285612723,0.3424103971408954
3.95,-0.6199855432830259,-0.17227035955298803,-0.3387210098578994
3.96,-0.3100194852039902,-1.091004600105129,0.06362652561536755
3.97,-0.271403891664297,0.2701923818694376,0.5527065944278107
3.98,-0.18043970058167189,0.6663891155670083,-0.1736270522456076
3.99,0.04515104256031097,-0.9203866466847244,-0.9024959101979599
4.0,0.03345348182163817,-0.9460777146224416,0.14664746662428144
4.01,-0.15087736269412919,1.0803049692324422,0.9350067131790798
4.02,-0.06665192958673422,1.8831097971562634,-0.7283720335562032
4.03,0.1660408004954562,-0.07117537330730594,-1.2286605734712444
4.04,0.12781506194560863,-1.187861337244804,1.0462908134102449
4.05,-0.04730706009487484,0.8030436340894791,1.0275292739242232
4.06,0.20075705180359404,1.6432134493137731,-1.18099437895439
4.07,0.4330142780656489,-1.3394205716263707,-0.3391702501510484
4.08,0.19703207507622802,-1.7436351349260324,1.3428799105785647
4.09,0.03539286522716977,0.3569079211957555,-0.04140340611199522
4.1,0.16492792204452036,0.8658820244717517,-1.630098847707039
4.11,0.245893496764357,-1.5895736169419357,0.20716363287253092
4.12,-0.01866740527936183,-0.7222402276346231,1.0054530715522336
4.13,-0.11495738390514901,1.153389641329141,-0.780670870943974
4.14,-0.13204496787656522,0.6297244811773419,-0.9537162480761393
4.15,-0.22442584988697128,-0.9823081445128002,1.4000574909175114
4.16,-0.44553668572202415,-0.22917764259536627,1.095401066298498
4.17,-0.43648455067622993,0.24819579290443067,-0.8458721425560379
4.18,-0.5000563702260626,-0.1484203583637067,-0.20222902851590796
4.19,-0.4833529059505483,-0.5224010313754028,1.3001366064090738
4.2,-0.2970734893920637,0.6829660626244658,-0.7742322442876179
4.21,-0.11368417378667428,0.05029257047755309,-1.8525668149615204
4.22,-0.18714441952916028,-1.4403619986692298,0.5429357242694595
4.23,-0.3898046224861607,-0.7012957402621487,1.0311498674207313
4.24,-0.41013885956517365,-0.21072678664187042,-0.7026115698225974
4.25,-0.4742269277208283,-0.8633494967794977,-0.4046963888722732
4.26,-0.7068339164936165,-0.5497023663371815,1.3777064752690393
4.27,-0.9013600467191327,0.4450553279500449,1.0195640795501828
4.28,-0.8021304328957869,-0.4730605692811266,-0.26605348792765166
4.29,-0.6985618161889169,-1.0231368672805348,-0.0077956725151828166
4.3,-0.47767644236237905,-0.4355165334476184,0.8988837489730598
4.31,-0.07168400349804244,0.9636017341999809,-0.5552219786822006
4.32,0.2857570463462155,0.2687816264418632,-1.466247650401083
4.33,0.26573377887059696,-0.7059586820365924,0.3350282205596347
4.34,0.04869250341149396,-0.09865466211609597,0.9938534177187581
4.35,0.06434786693623068,-0.06588089372153205,-0.7578610235152272
4.36,0.15961797304940262,-1.3625702702811262,-0.8946884579895706
4.37,0.004837241985149392,-0.8610277697344254,0.6224528116850799
4.38,-0.061513437452497724,1.1849754674830362,0.2744365231464544
4.39,0.3195580228305527,0.706835287811489,-0.9342023875009519
4.4,0.6416666488705154,-0.920926140407685,0.024965200103448715
4.41,0.42036391286778363,0.1125121091333457,1.8666958846200032
4.42,0.2507847304444298,1.317674883372566,1.1548350780349663
4.43,0.4154804890809907,0.12849791368157948,-1.0501415094132025
4.44,0.4844850711243368,-1.4420695461603346,-0.358941530796994
4.45,0.20253152971535246,-0.08029220108083757,1.2293929529455871
4.46,0.2512998291984075,1.4652880476640378,-0.375158957798427
4.47,0.6813619417244189,0.2664690425453754,-1.8822011687129514
4.48,0.8823143139282683,-1.6968490718797975,0.5338401486253874
4.49,0.7170354909022431,0.5850299825088541,0.8228509883553841
4.5,0.919852108941971,2.4425959743889663,-1.695030684114114
4.51,1.016272425820478,0.005034914228922771,-0.40840477182217416
4.52,0.6984742774462702,-1.0918776064580205,2.4665876527461785
4.53,0.38302621862091546,1.0256080635579492,0.5825555215616414
4.54,0.4241743577063006,1.1020570265294718,-1.8522618814035972
4.55,0.35177640044702074,-1.81744999624292,0.3194106951896061
4.56,0.20742824894916995,-0.288084490879402,0.922438610865975
4.57,0.6367660432592028,3.573738500123651,-1.953874180005648
4.58,1.1595700293477145,0.7044847433949701,-1.3339234313063222
4.59,1.0827640125890707,-1.861371619913792,1.608107691704012
4.6,0.6087070164647973,0.13597702592908495,0.9777696157702891
4.61,0.41626499655614624,0.9287670563279988,-1.0964702297759727
4.62,0.303077315456149,-0.8217418873350845,-0.03170726172007132
4.63,0.2819935939275755,-0.3206701532408267,1.0178383518639522
4.64,0.4495675423038116,3.36842351082105,-1.663489576444082
4.65,0.6975996266451486,1.0353263691923937,-2.0517458827937887
4.66,0.7711499128730005,-2.2673289960189402,1.5147371430584595
4.67,0.45565519210736205,-0.49724961589449146,2.7258046668045783
4.68,0.40944251651007935,1.6560485957423385,-0.05575504495377537
4.69,0.3960991906285409,0.19010810637129905,-1.1308859164699636
4.7,0.2332021026540002,-1.3902587240153856,1.1019406716164
4.71,-0.014076750410559953,0.6262500763919783,0.6364744543582754
4.72,0.10524749339347127,1.5332407253486344,-1.9796644493119961
4.73,0.1306735625933675,-0.19629487940676993,-0.9316098882210362
4.74,0.04306485996842467,-1.5494942462539083,2.174654656472999
4.75,-0.07939651472550549,-0.395407654880668,0.748887598417386
4.76,-0.03840952121801275,-0.34772347748259014,-1.5596496539398212
4.77,-0.31485871323894404,-0.19641517552990273,-0.19336005481539553
4.78,-0.3606295705406841,1.4307581065616275,0.975247902311424
4.79,0.0328098923437371,4.012347139560385,-1.7500131851560323
4.8,0.33290452912748775,0.09581461933498403,-1.4315744078332433
4.81,0.13597844793743322,-2.602250733800231,1.7323754184569022
4.82,-0.25385661227005246,-1.111942859445743,1.2741399695629116
4.83,-0.06590166450744019,-0.043885064904303106,-1.1572618313354386
4.84,0.19031134834686203,-1.2834899401597077,0.10089147752270022
4.85,0.05488329433260654,-0.9062194791603759,1.3203000654497947
4.86,0.015102196043480835,0.9452465709151923,-0.7945816064891897
4.87,-0.07987894282960632,1.4602352994381531,-0.9658012736684487
4.88,-0.1993032710698419,-0.08379345789653048,2.091234098462497
4.89,-0.22854450625807976,0.32028571631314745,0.7905288671749056
4.9,0.017176832107314396,0.669441215019613,-2.290497968073692
4.91,-0.002283991607496181,-0.46289486263742674,-0.3408939038518912
4.92,0.017123699834083135,-0.08444390174055583,2.0191176487113136
4.93,0.2853735270714172,2.3910323919985905,-0.5228446487151357
4.94,0.5262662435766108,1.0668259854920112,-1.2839812291036297
4.95,0.43480421966098626,-1.3246527254368643,1.5535108551070895
4.96,0.1939238190329096,0.08585573838362204,0.9319571578796244
4.97,0.3016646348368511,1.3770635659159578,-1.725157521504134
4.98,0.2707605130828674,-1.0019454750713215,-0.40863523916568045
4.99,0.11737033056443094,-1.3667256129013783,0.7172795865336471
5.0,0.26738374496357553,1.2334593298932848,-1.4578916000040478
5.01,0.5187000377376321,1.4183149633753576,-1.3961273965040013
5.02,0.500730195200675,-0.9988607753032006,1.2550823565905191
5.03,0.16952628750429632,-0.21150529696856157,0.749567092791466
5.04,0.02298761316188372,0.14652612603121395,-0.47367740587074064
5.05,-0.11234207791004323,-0.6392860921581011,0.8512442049188986
5.06,-0.2147288965366499,0.020657728232427952,1.5175081449627403
5.07,-0.14871912540384327,1.7404777884264664,-0.8211927113624993
5.08,-0.07633320627945546,0.6697266359498498,-1.311986099291561
5.09,-0.11946723305665531,-0.8564447211974461,1.0825403946722818
5.1,-0.15005843205063493,0.42925601957376436,0.9088506083883148
5.11,0.09517083844877738,1.2405759577235536,-1.7167929457028068
5.12,0.20595972471160506,-1.2703144636289818,-0.9850554838917769
5.13,0.10251012398887241,-1.819387810518736,1.2914155811007777
5.14,0.03513491959506265,1.0413567315858354,0.11693473971354673
5.15,0.16923914098948495,1.636891830552051,-1.3652788118150192
5.16,0.05897231746217255,-0.34887734507099044,0.3026501650825216
5.17,-0.2448327068858821,0.04218197065747342,1.1494530504289293
5.18,-0.3456408607653329,0.937606498175918,-0.34949431787927066
5.19,-0.22048070582152152,-0.6513797968635208,-0.29011300142500884
5.2,-0.1778971813032113,-1.4480294102322646,1.1773402549794454
5.21,-0.10012984445687081,0.5115315907917801,-0.14820110493829508
5.22,0.14166526481120903,0.9100361612366742,-1.6147473500517715
5.23,0.1644044785956497,-0.7307572847205543,0.055208328877199286
5.24,0.040506277528858374,-0.14673452391596753,0.719608025139123
5.25,-0.06977302530591842,1.5289459251995905,-1.3254811210290807
5.26,-0.14482642647742838,-0.7248292015892353,-1.175167020505718
5.27,-0.2929708730970836,-2.270415574913147,1.1901388440736855
5.28,-0.5337681180750543,-0.21610705577602213,1.5299889434631964
5.29,-0.4164388404730557,0.42442255688984626,0.19366396352263754
5.3,-0.28414185322202806,-0.5322333377666082,0.15982581017513886
5.31,-0.28254489864961796,1.241824199823782,1.0858979872602972
5.32,-0.055468129653056364,4.822497099299451,-0.5607961703977948
5.33,0.28576122579576535,2.7322850186239203,-2.2656157300894364
5.34,0.46284045327659706,-2.4866881995826184,-0.1322376611810363
5.35,0.21818172434111494,-3.2121334433045123,1.8448647910452816
5.36,0.032497125289548096,-1.5274876777329491,0.46901674011568617
5.37,0.13945729855330039,-1.7819337202410088,-0.8755900088120925
5.38,-0.05436836964927044,-1.5155632013847575,0.40314138202073463
5.39,-0.24758645547409527,1.4668950363159219,1.161115903113564
5.4,-0.05244854472145379,4.943172914617548,-0.869115880276081
5.41,0.08335105099764056,3.2465428977803734,-0.98849463037382
5.42,-0.08056029942252822,-0.4710384725588315,1.1344016614720809
5.43,-0.46466424749114293,-1.3406934702164257,0.289546158210071
5.44,-0.4156868483988284,-2.360780135970759,-1.2223190744788268
5.45,-0.1920678403111281,-3.456866277331106,0.34859487894155367
5.46,-0.02013186932926672,-1.5447110588330748,1.4063264183975281
5.47,0.39067571784339755,2.1515627985778742,-0.8602680727515899
5.48,0.45231557502724207,2.7932958850531198,-1.5122322417944338
5.49,0.0584332760546071,1.0363938803265726,0.986546507096741
5.5,-0.3074466748218416,0.9458084842712728,0.8416058855992479
5.51,-0.3547445135412453,1.1214743460900674,-1.7393956554668415
5.52,-0.3595420691125612,-2.173463766897959,-0.35804965216717144
5.53,-0.5889692876937945,-3.1869090403103746,2.3695415396298203
5.54,-0.46717529107232036,-0.08669114712746673,1.3569240488250789
5.55,0.16248461508377718,3.3279750572249736,-1.5321467024685944
5.56,0.38688526150147073,0.39503000966974944,-0.35207118894307676
5.57,0.08993180609953212,-1.1115118167000189,1.2433710317023186
5.58,-0.10526282736853024,0.3690913178820413,-0.5734156158817503
5.59,0.09311575197866417,1.5968887351055916,-2.643853830697906
5.6,0.2546559548560853,-1.6179421573936308,-0.3952696475860582
5.61,-0.18670661370439698,-1.7451938483658975,0.8699811201421215
5.62,-0.542595644903537,-0.35474115544169327,-0.3612572395897019
5.63,-0.7286674060328648,-0.10261124597540311,-0.3843873827950661
5.64,-0.6796606382702487,-0.2884951849523597,1.4329189855216342
5.65,-0.22416672220122238,1.91608364450857,0.5952258454137471
5.66,0.2851348073746156,3.0541622778476567,-1.6256902111086902
5.67,0.33242125098334663,-0.028091120976569295,-0.3141848743146918
5.68,0.07580036413501381,-1.0675779290582414,1.9898721795939727
5.69,-0.1101601805109079,-0.3056033985880958,1.1380317108901585
5.7,0.021661560008277222,-0.35220402115921423,-1.4027075832252682
5.71,0.09145075284646959,-1.6485401617034636,-0.8918445162304527
5.72,-0.019280393998369547,-0.3745475489218084,0.8322679571163063
5.73,0.05491011190375225,3.2475691905780515,-0.7665177157139407
5.74,0.31357932131818167,2.6098178822193825,-1.9217661219712878
5.75,0.2961867110033659,-1.8303936188189898,0.8850313738055973
5.76,-0.1123055489974727,-2.233373016754947,2.007525020779168
5.77,-0.33136333409280033,-0.30805584228635596,-0.42611084069699023
5.78,-0.3451126412573709,-0.6505810123582293,-1.0245375243343333
5.79,-0.3868689729309182,-1.7664531537461232,0.9713047333364366
5.8,-0.18173547379486926,1.129215023044078,0.043189540710184104
5.81,0.32340909116575245,4.050553458692505,-2.1872079429105895
5.82,0.5078219057064308,0.6197538069475106,-0.44542213402832265
5.83,0.28620807317205454,-1.3196498723701011,1.1792502380488656
5.84,0.06756386821300753,-0.6300777577992358,-0.1692606358614931
5.85,0.14144756931257385,-0.6889513949198975,-0.9004790117503356
5.86,0.13754356886091373,-1.4778811635473168,0.626883723888045
5.87,-0.0845151601112826,0.17200936223584296,1.1316011364595095
5.88,-0.15637040385116996,1.9240041791938496,-0.07462445282514557
5.89,-0.14074437606317602,1.4725454753530323,-0.4069925206403624
5.9,-0.1645009072145516,-0.14829602596444574,0.8820875137807713
5.91,-0.2140439101331394,-0.06404517820565947,0.30479160935719973
5.92,-0.09022796127146074,0.21718831359693003,-1.5204929984568305
5.93,0.03349688740864439,-0.8576035690026762,-0.833252540537101
5.94,0.0687724371008141,-1.3413981622778706,0.9385058466568534
5.95,-0.006309927702802125,0.26794506712355826,0.6608458793050322
5.96,-0.17118038358980042,1.0224478892154176,0.19840354726947457
5.97,-0.46965451716994117,0.5411449244419131,0.8116942023026417
5.98,-0.7365243307702658,0.6063372932539397,1.0342826334447328
5.99,-0.7563365824976709,1.18430175283567,-0.8486436618519579
6.0,-0.5664257171995197,-0.37888913062845053,-1.6090020986931832
6.01,-0.4733451826416839,-2.8148516520209608,0.6401509403533011
6.02,-0.42614109195591693,-2.7455990971817634,1.1738425924810634
6.03,-0.14242151524798705,-1.4278870090152447,-0.939313665006875
6.04,-0.13014340480851963,0.07411404486404707,-1.082870982553049
6.05,-0.27582458369848933,1.7194673010838957,0.5313525987901515
6.06,-0.41009835664772115,3.2562280174285165,-0.22247296179012466
6.07,-0.8561171868442118,0.9870501784911938,-1.0997039984567494
6.08,-1.3822301572068263,-2.178684445174131,1.0156216091268508
6.09,-1.772188755897168,-2.9551199025107024,2.6601895565600246
6.1,-1.5946590244663867,-1.833506880477004,0.38646094382104845
6.11,-1.0908134839400394,-0.8979477877667392,-1.1716317754248837
6.12,-0.8365840357244296,-0.22359302882036214,0.7504180829202355
6.13,-0.47479545907408494,2.031731698496007,0.7976946936015341
6.14,-0.09017865846842249,3.6613654591480014,-2.022439395083924
6.15,-0.013327128934404485,0.19009634342832182,-1.5536454093163012
6.16,-0.07424857771916209,-3.9340763165485777,1.3525071740572796
6.17,-0.3296727129564558,-3.421412842003302,0.6830114843226671
6.18,-0.41153103019119397,-1.2487295760727797,-1.1645286964887316
6.19,-0.6578812788370633,0.12357627821300529,-0.15642153447373763
6.2,-0.7194566334076932,1.729226445164847,0.8363771752675841
6.21,-0.4611834578131504,3.2229169987461703,-0.1339533699999068
6.22,-0.2609366855420937,1.4075984716357857,0.018067312699273863
6.23,-0.2735253761927049,-1.4409826007495112,1.2590958397456296
6.24,-0.3685695969241441,-2.5159627971595673,0.9695234331001688
6.25,-0.23436018245306633,-2.4695088365360176,-0.6338832490222084
6.26,-0.11790210658504544,-1.3224335364710829,-1.0723174728892986
6.27,-0.13780553321365507,1.084582630149355,-0.36880336615270004
6.28,0.04624182126488642,2.9739565292804135,-0.8565388896219729
6.29,0.27159387737792506,1.1790723064760082,-1.3634603253517799
6.3,0.07255357913733368,-1.8274164580110095,0.33308876840470725
6.31,-0.5449050059244329,-1.7508637837997507,2.35030225389991
6.32,-0.9091331215343498,-0.8452481487625729,1.573406102133351
6.33,-0.792540125043409,-1.0354707457053047,-0.4863931291106137
6.34,-0.721298937803659,-0.7942874335640243,0.028838347908090367
6.35,-0.6744137149081628,0.881051055145492,1.0231074824902762
6.36,-0.24268816038705576,1.9408601974764474,-1.2248817461585373
6.37,0.3562054824444222,-0.40259410822474173,-2.3070891881637
6.38,0.5288288669515987,-2.7385898311813834,0.5510572525154471
6.39,0.2882166569224382,-0.847953797528276,1.3269827133133945
6.4,0.2760238575013688,0.7533886804923233,-1.016305447984842
6.41,0.1756240959003808,-0.707557838162402,-0.8550961741248584
6.42,-0.2914314333969784,-1.3568862405527056,1.5369152730530926
6.43,-0.7448089079906272,0.9538845236546241,0.8385042678524226
6.44,-0.6791631178850812,1.386381839839302,-0.9408446568119351
6.45,-0.4760723722392971,-0.6736933217421995,0.07684837865682626
6.46,-0.348580528896643,-0.8030792240937066,0.9413460221983319
6.47,-0.006923195009903044,0.42088162269397006,-0.7979194459785406
6.48,0.5330079617398935,-0.6314652906407094,-1.17576331646866
6.49,0.7195860741775327,-1.6228900011662852,0.9533141563266998
6.5,0.5250299249148893,0.3858757608751564,0.9600139111994489
6.51,0.4336710413141004,1.4502400225068006,-1.0562370788869124
6.52,0.19759200108773273,0.25879841465499365,-0.9448928336881317
6.53,-0.21757808900705297,-0.2732811990732623,0.8680655273184977
6.54,-0.3790775419468181,1.2967415905602202,0.1784457459348996
6.55,0.16854481702743135,0.4866587812778851,-1.2217525550134238
6.56,0.7214748656063789,-2.4593675995012174,0.021340926174777453
6.57,0.6568311960630049,-1.88078818780341,1.9470075205945157
6.58,0.4874272974689351,-0.3421569291711911,2.1337065241311017
6.59,0.48511084751053823,0.038383141377334895,0.3624056367572003
6.6,0.2947563939050244,0.27655886626798715,-0.4701653256825496
6.61,-0.1159948707904062,1.339694937858385,-0.12166523749297786
6.62,-0.19688470250675516,2.391328474644466,-1.7193466638604626
6.63,0.21987921424723209,0.443398378593308,-2.708608388784465
6.64,0.48365851984655117,-2.6534091687498997,-0.19745247654218834
6.65,0.2583556908564915,-2.1220541037496314,1.531528394199255
6.66,0.18369187599272568,-1.1724033169310084,0.6017045354019717
6.67,0.17161940402406684,-0.7474534424856649,0.21153323103887656
6.68,0.0413353997044739,0.9639584477105172,1.3003433660671684
6.69,-0.008776227140547389,3.226052370131967,-0.1534662652078067
6.7,-0.09904828504786667,1.6049696559701514,-1.6755908004306084
6.71,-0.3502563149769413,-1.1502958035495283,0.31100677632910134
6.72,-0.40444383095934167,-0.5342099289323752,1.3178799578204057
6.73,0.03710148702091881,1.2359723506675921,-1.2734252155679293
6.74,0.5442609036108759,-1.2599464534347073,-1.2531916377622856
6.75,0.3887266298049603,-2.708340584419456,2.024263367124348
6.76,0.1352383229648952,0.48114785855740605,2.1255050689249
6.77,0.43745817552341326,3.3337397648939637,-1.3056069134355344
6.78,0.7226319956332156,0.2661846319150043,-1.506279843157059
6.79,0.4967159682611453,-2.4891140914381986,0.36253996639691416
6.8,0.17355337124598075,0.17300993332026127,-1.2879446674889998
6.81,0.33041378208512884,1.8881368059898072,-2.4463108693765827
6.82,0.5496239115157573,-0.9668463457128561,0.803031832973031
6.83,0.4094402809631392,-1.9757198337690733,2.8808605193418053
6.84,0.27510761852097093,-0.4960275324507696,0.9196138481342773
6.85,0.2083840407162935,0.6411822973568153,-0.3829900526851808
6.86,0.15540666857293928,1.098499022005496,0.8185382951677822
6.87,0.31047514685270433,2.486291820813147,-0.21029195905445208
6.88,0.5082708116979564,2.3652844264661743,-2.8464005040962745
6.89,0.5975511158999155,-0.7785854437965463,-1.0153217238744583
6.9,0.5125984251091504,-2.4785446940428684,2.736546619563868
6.91,0.47706465174416524,-0.02559353058237357,1.0986573088439497
6.92,0.824165865640248,1.036487463811165,-1.5483400297023837
6.93,0.7674781277937579,-0.7298218607684281,0.4855811868787465
6.94,0.5035002104528921,0.11930311772513402,1.1130714597762614
6.95,0.5617594457662242,2.1825290209221784,-2.219104001667026
6.96,0.7256444849321814,0.8452625028304079,-1.8759136145208144
6.97,0.7488624145292635,-1.7901466192919364,1.9874755895950675
6.98,0.6199259960851207,-0.7440840470219712,1.4424425430388654
6.99,0.5712308910269508,0.8646985562819776,-0.6706420906603369
7.0,0.23507219129062518,1.3667664203683754,0.9102399894289444
7.01,0.11263054105539985,1.6617785717925095,1.485759288582926
7.02,0.23933055127614067,2.071844099528458,-1.4579583043094102
7.03,0.17454692399643118,-0.0003143642434022542,-0.8822639509142314
7.04,-0.014031891014947055,-1.5712471156114822,1.254375083164653
7.05,0.04997240145224677,-1.3549650640618167,-0.627955539333148
7.06,0.2978310461419469,-1.516725871564181,-1.7796714623467618
7.07,0.2890006923123129,-1.0095250027410012,0.16260016513362624
7.08,0.2840837844587009,1.7169466922552312,-0.4038525005624769
7.09,0.23931864365048705,2.233399854267859,-1.5336629446798595
7.1,-0.17593398129801852,0.010979183325772413,0.9221295287773204
7.11,-0.6364254406740257,-0.8213623953246725,2.2855675012834027
7.12,-0.8619120341292565,-0.5395145222484117,0.21691541754772525
7.13,-0.9077367526104176,-1.0573184328258234,-0.1350425380134277
7.14,-0.9202309075220735,-0.41272811683219823,1.3774432974497313
7.15,-0.6168475733246694,1.759907893202882,0.2689453497262124
7.16,-0.12119258787590889,1.5433618533998212,-1.3119489564787117
7.17,0.041459936918899216,-0.9463138195106775,0.06791303380969882
7.18,-0.04583385411740366,-1.70301570437115,0.6355889285008238
7.19,-0.05838419576522116,-1.3515020327098717,-1.2846430371068704
7.2,-0.1170423714618242,-1.2088140567258456,-1.1310928617142653
7.21,-0.30316987269319373,-0.3080185829277309,0.8283761462318106
7.22,-0.38345487489904784,1.6343368834841603,-0.11842699995081118
7.23,-0.3079825514880413,1.007625825685882,-0.731399053255857
7.24,-0.420122747999469,-0.7799767405930255,1.600881682072051
7.25,-0.48441683837964833,-0.6977006954922664,1.5095174926299872
7.26,-0.25727014043659313,-0.7528730553501098,-0.6913214713420501
7.27,-0.13109729217422988,-1.1337617373341304,0.09499002638727982
7.28,0.10919273010765435,1.673861856176186,0.5498578617626175
7.29,0.6212745905970055,3.8833439279224136,-2.0679267929739065
7.3,0.9941630889400153,-0.6122879034366824,-1.8001384933068199
7.31,0.862624090054976,-2.8862404146005085,1.0448891703247032
7.32,0.4995438631042332,1.0006894834432973,0.4020945171589878
7.33,0.5429959627265275,1.8707302243997974,-1.549842525520412
7.34,0.5094779730083971,-2.255485730388945,0.5301667146342754
7.35,0.21020809393744197,-0.40657897678908306,2.244271710182322
7.36,0.15575150790778514,5.222149980714291,-0.39562319033724025
7.37,0.525026915395687,2.810081606272669,-1.2430647720785417
7.38,0.7069324498067976,-2.920036658556731,1.3228375459655404
7.39,0.6011455175130161,-0.5395570804693675,0.6696469910291112
7.4,0.7961386444557759,3.052669197454915,-2.0176176999506032
7.41,1.130208881856225,-0.7806141596128588,-0.828821293449026
7.42,1.1113155908973802,-3.8081331823882647,1.477331630957656
7.43,0.8051823556183028,-0.13084055789491966,0.23559402361529913
7.44,0.6596236137328522,3.007490697201967,-1.2267679117120474
7.45,0.4674760016436058,1.0523920082807334,0.39015559227281305
7.46,0.2202247213564446,-0.09268767231616781,1.0372144936531829
7.47,0.02618812154696285,1.37110582772676,-1.092347641040494
7.48,0.039352318606707994,0.9723140561640133,-0.8948233743761751
7.49,0.13543006783369063,-1.104356027477074,1.740051804776149
7.5,0.33306534584478265,-0.010621678624169517,0.8250034926789973
7.51,0.5985175136085836,1.4046820914249578,-1.3789127465495483
7.52,0.535503288044118,-0.2263248263796871,0.2341580800831795
7.53,0.3025981239739205,-1.2171254120631594,1.519537774972413
7.54,0.1768355362451457,-0.17347765241454693,-1.0114716503439678
7.55,0.04798060241692961,0.12974404712966747,-1.956904744434729
7.56,-0.2697238806269384,-0.6975584759501768,1.0473247425899423
7.57,-0.4417234459513019,1.6180179612938899,1.1827529127336576
7.58,-0.4875586525833385,3.5195753636162532,-1.3718190608147425
7.59,-0.6729744343505135,-0.09267822926012892,0.26309879331168173
7.6,-0.8968462530183416,-2.6131093229117375,2.1908534706622733
7.61,-0.8674556419975306,-1.2021482002990207,-0.5108683310688353
7.62,-0.6163029422567764,-0.7570003797775431,-1.869639789330117
7.63,-0.6165921342308986,-1.9784298108422436,0.9331150461773261
7.64,-0.4456623505138694,1.7184481557113598,0.648281948086725
7.65,-0.2087059892773102,4.682506218530121,-1.7797869346976825
7.66,-0.40399569314926675,0.039574420526935494,0.2967074008244057
7.67,-0.951920765765241,-3.37738777306572,2.3357244392194407
7.68,-1.3993887784091636,-2.0201936490638435,-0.4113745495873389
7.69,-1.4588817458910974,-0.9065943787507906,-1.975696766950227
7.7,-1.522761490109349,-2.1126296426667035,0.9608367629518517
7.71,-1.200075369190306,0.2852972415735957,1.0542404916828456
7.72,-0.4912579750693494,3.428404284670988,-1.8594518839139447
7.73,-0.08127180266392522,0.988197251351532,-0.46940694573409125
7.74,-0.21181771447400524,-1.5912905145634857,1.9920925219581884
7.75,-0.5048706406199823,-0.8236659127196605,-0.30185184195692716
7.76,-0.5585058100569804,-1.3430664086544217,-1.7384956395158104
7.77,-0.7594755270841107,-2.820466467587386,1.0762231579003552
7.78,-0.8608627003250047,-1.0998554423904747,1.4554317130715841
7.79,-0.6107805622035989,1.354414832359073,-1.2928987766151583
7.8,-0.49041000832259873,0.9756907350062602,-0.4993236948934152
7.81,-0.43817326755944325,0.5554275373537557,1.5988626797033016
7.82,-0.13153227874253812,2.1669921520308657,-0.7515917071405731
7.83,0.29656380225665646,0.6825268829018345,-1.7949033783730814
7.84,0.2917392174944383,-2.26169221734816,1.3243780025216687
7.85,0.10162170921075533,-0.915587812583899,1.4358915094816163
7.86,0.30600141334790415,0.6566501482263845,-1.4140981380269417
7.87,0.5653592472342981,-1.2699687839540834,-0.9125583957674039
7.88,0.4681326710757182,-2.0529923858523813,1.1996950326828306
7.89,0.3518908293354396,1.7111685149778588,-0.4126989992594394
7.9,0.5094196902219676,3.111631109563156,-1.7850792204537926
7.91,0.5284090928976342,0.0452680523499005,0.8526491245991564
7.92,0.32437749033570845,-0.6526689799779251,1.9091073449441873
7.93,0.2676507446970301,0.9966325385539059,-0.6575848285167394
7.94,0.4933561183105748,-0.17003520175492248,-0.6195467345917798
7.95,0.5935190097123505,-2.057402569269841,1.6245884281806608
7.96,0.6639852434409353,0.038278780937416546,0.23031985542768885
7.97,0.8033579044671548,1.9478624129588604,-1.8187567918316137
7.98,0.6547682909501853,0.33387217666168256,0.2667239782171873
7.99,0.33710562420732243,-0.6357642922371765,1.6547443291119246
8.0,0.09430910356609334,0.6092749498050493,-0.9505373092726777
8.01,-0.06724371617482787,-0.011635556520817714,-1.2715635181319738
8.02,-0.26019173578143784,-1.508332392620488,0.94724853371562
8.03,-0.10325039388640159,1.101994082270172,-0.5617904088651002
8.04,0.34680775976061934,2.561190413172822,-2.2595679796530015
8.05,0.4892200194510643,-0.536115162570465,0.45419303562862323
8.06,0.2664258805824399,-1.1688007366802151,1.8227818941712752
8.07,0.045904429553558695,0.3250680187425296,-0.19173923117747238
8.08,-0.06614830458867443,-0.5634717401436558,-0.13843562164126944
8.09,-0.20396158792375213,-1.864470921786541,1.127440918918932
8.1,-0.2656700272475099,0.34572718992845175,-0.640014623238071
8.11,-0.37956408410708553,2.075743275767175,-1.5908101094999392
8.12,-0.5503900498199055,0.32941271942530226,0.5783575106608112
8.13,-0.5145298976910021,-0.4874075944052013,0.6055678209224402
8.14,-0.3710329255494667,0.0272229226805481,-1.483104501918635
8.15,-0.2605084827081543,-1.348398574887509,-0.31145040591770967
8.16,-0.29971788524998527,-2.033448709844052,1.654873691485217
8.17,-0.2841553057672773,-0.1835655331671333,0.10560777363820684
8.18,-0.32360402723216997,1.291488273239568,-1.1244514734067002
8.19,-0.5636465336823326,0.6569249754046905,0.8401207412109892
8.2,-0.6963948111224828,0.01766653848248101,1.2974969458657237
8.21,-0.662155034167258,0.2510130193002717,-1.0288922348121015
8.22,-0.5262052291630083,-0.5750113149199481,-0.7354757799552434
8.23,-0.3303084590557328,-1.2829107605552919,1.2331484695399864
8.24,0.029846181412045897,0.15148949164427428,-0.03761149096324168
8.25,0.31384697877553136,0.8801082775553822,-1.303692206848213
8.26,0.22208643110191928,-0.1346260200187132,0.5452166057495442
8.27,0.017892917732270447,-0.2495036635410302,0.9474171610449715
8.28,-0.1294072504478504,0.2257375666894342,-0.9934868690726671
8.29,-0.24374522639743845,-0.5532158079258576,-0.4916508151163821
8.3,-0.33282596748014737,-0.9257430208616458,1.0813288030864239
8.31,-0.2279149422240373,0.19447441587254855,-0.1194599477568501
8.32,-0.019493103921725805,0.5753132482804928,-0.8783126744339187
8.33,0.009172486160756256,0.09072923506315592,0.879420220557642
8.34,0.025831808587871163,0.44649503391171713,0.8101585856272571
8.35,0.10801599074430004,0.7346220780923896,-1.1363782144474688
8.36,0.07744137983913513,-0.5846221047803395,-0.30701825367180624
8.37,-0.11375483072848958,-1.1251591470720905,1.1831689892002604
8.38,-0.19347172380011196,0.05834063269091039,-0.2796798887572225
8.39,-0.10916173617627427,0.11986603593548106,-1.038187542831639
8.4,-0.1568359216501754,-0.6509824214979424,0.8260968960819548
8.41,-0.1628662301872599,-0.05641819068753018,1.0130009702267266
8.42,0.09482312316571537,0.8440706044074932,-0.7665172477247392
8.43,0.2937908885344427,-0.03773354588611055,-0.06650048597733038
8.44,0.1277366777552702,-0.7792573525120889,1.4248606541428472
8.45,-0.06590228878654467,-0.3621124084605941,0.16457324527060813
8.46,-0.15093651250345846,-0.4655639904591326,-0.601568055184512
8.47,-0.2984773542806036,-0.5643542468715458,0.8903120511584268
8.48,-0.23015093630144481,0.27203391477473293,0.5147457750889866
8.49,-0.02335305809419408,1.1445859974463848,-1.497883755998263
8.5,-0.005898177233895643,0.5035116980068441,-0.3483209658499675
8.51,-0.02915221439765183,0.24542023890096387,1.0160732316420258
8.52,0.19299900344754237,0.9054409548144009,-1.0412958269824215
8.53,0.3990177650838672,-0.7304863029013811,-1.201896472344888
8.54,0.1412375585675935,-1.9945432697080154,1.064250799726677
8.55,-0.13523682749045743,-0.24330711600022203,0.4760728089272286
8.56,-0.08268812691494572,0.4999181967398419,-1.0816829889442012
8.57,-0.08805204939169456,-0.5888509670721397,0.2615139686513679
8.58,-0.2596397461135233,-0.3067377692118336,1.4272510573309176
8.59,-0.26960856457901106,0.45287342340336545,-0.2026446225646008
8.6,-0.1733335346676602,-0.29666240166759716,-0.8495561190731896
8.61,-0.1554590181456917,-0.7629809152639386,0.9215190000720539
8.62,0.05646995160250445,1.2980348146241087,0.44489842061465446
8.63,0.41121856284389646,1.873250238005067,-1.7072095703350527
8.64,0.5304478375836508,-0.758070294694885,-0.44474588290457095
8.65,0.2378600657205241,-1.2104675099867876,1.695889393446722
8.66,-0.00931970935944634,-0.25833707605290956,0.542552721152348
8.67,-0.007798883856263049,-0.7018069926462802,-1.026774776580363
8.68,0.01960047179351653,-1.1335556557722946,0.1933972364157155
8.69,0.1147241143388519,1.3089784604720767,0.41217991796995057
8.7,0.21188234529758476,2.843949595043036,-1.3406147624201048
8.71,0.2190609705303361,0.193273687194488,-0.14803725642583032
8.72,-0.001713244370733169,-1.7093332818740614,2.00191000370196
8.73,-0.11472830968368851,-1.189789245108589,0.37343889424778265
8.74,0.04716481236517641,-1.049223818162986,-1.2406785769465878
8.75,0.036232515411017754,-0.9717791236260864,0.46850558919784013
8.76,-0.006605110820013138,1.0409605431179894,0.6177983593626772
8.77,0.029501261650021815,2.3895613558173,-1.3229381943061995
8.78,0.023504133613803723,0.2504459728089339,0.05318503648152184
8.79,-0.06825911943433123,-1.5590597752594857,1.6062784936867083
8.8,-0.04913967195193837,-1.197073588023925,-0.5677639697249937
8.81,-0.014985524321628328,-0.7632934123913806,-1.2876157691839452
8.82,-0.03207428478834188,0.5845937714461344,0.7845157368704689
8.83,0.21913085259881562,3.3673475866831883,0.009186357235247744
8.84,0.4721293144367418,2.215530908787873,-1.748330797761212
8.85,0.40155389558762056,-1.9960191437979444,0.5787446231800559
8.86,0.015251419510506903,-2.2043886810220537,2.6708216791932045
8.87,-0.1012961904368018,0.16398978184085533,0.34455757976977663
8.88,0.11370888587154138,-0.25598592335461934,-1.4357802914482787
8.89,0.11987285354667816,-1.3994446134136322,0.26388689774764895
8.9,0.1664026459905356,1.9636898790394965,-0.058957842538507776
8.91,0.3958245388011339,3.6341134001324638,-1.9493370228896083
8.92,0.5710304369547048,-0.2862378688458147,-0.12270149457837443
8.93,0.43900409127337103,-2.3929226487288426,1.6202728842557805
8.94,0.26440671210150907,-0.8870950292061432,-0.37586393086813685
8.95,0.23472571079013815,-0.49807571298911874,-0.9751884458313465
8.96,0.0795229874645973,-0.7371811294898478,1.1744405923752206
8.97,0.07809928855583684,1.6492621226471829,0.35865349872921826
8.98,0.2620983730432863,2.2747990195662435,-1.7314476443073572
8.99,0.2770041786930714,-0.6791404300920343,0.26406371032813736
9.0,0.02624266742900308,-1.5732243192988327,1.88323004632795
9.01,-0.04751781647024486,-0.7771433823802938,-0.47151111509891774
9.02,0.036069271130063627,-1.2217786452323,-1.1348119318086387
9.03,-0.1394911476131085,-0.5124866285971112,1.351505096191247
9.04,-0.10311528312748372,2.7616489464162606,0.5161043267638314
9.05,0.08939750623523565,2.7590529686459533,-1.9614653571035832
9.06,0.08260781510497371,-1.2466382977491022,0.0023778385651334055
9.07,-0.1289060954569139,-1.2196902132914582,1.4812880813908291
9.08,-0.19036486462590685,1.2873925718290744,-1.0274994911547182
9.09,-0.028234619423944188,-0.5042665661187455,-1.0232809577464872
9.1,-0.043959101691697984,-2.2864530026936363,1.5209992316921463
9.11,0.1000903851382965,1.3605497054576692,-0.08004498118894166
9.12,0.328089002699844,2.189487710415324,-1.942467636951419
9.13,0.2084694285443439,-1.439742992067881,0.7090180879115402
9.14,-0.11222081856165901,-1.0462991062039342,1.5718472323285637
9.15,-0.22290304158655955,1.2365434320907698,-1.4323969100104226
9.16,-0.152693863956206,-0.5646611285983196,-1.2575192383846223
9.17,-0.2892906207748002,-2.0633832132306105,1.8131554243587458
9.18,-0.23516432715567148,2.034680946009684,0.5508069154319393
9.19,0.11968341872578478,2.789614038661279,-1.7026775688860671
9.2,0.24110342075566465,-1.5981843112767282,0.5631716323315317
9.21,-0.03776928904836935,-2.2646687699841586,1.9778763350286774
9.22,-0.17657455265904826,-0.2820149170314139,-0.6002259713365583
9.23,-0.14721812875339874,-0.36379263688407765,-1.4902569469745104
9.24,-0.21371282697726396,-1.3497073925994476,1.1180773518502471
9.25,-0.045102250787915577,1.9711785382858125,0.6530499700025998
9.26,0.29507138256984056,3.7359675924972118,-1.7921446048585268
9.27,0.39597535351899094,0.13560691190638074,-0.057690165401541815
9.28,0.04866910297758986,-1.722207864433378,1.856279068335988
9.29,-0.21098922813595566,-1.006517969148355,-0.2693756996112129
9.3,-0.150629333805216,-1.260959676878283,-1.3005788327997365
9.31,-0.12030929882104346,-1.8052677299362812,1.040975035425584
9.32,0.09600653043809954,0.7668155256790712,0.5449435164239935
9.33,0.3223691247607406,2.59865830106878,-1.718035354170571
9.34,0.2820662850718026,0.44158916697012796,0.28767365886899965
9.35,0.08498603226827617,-0.23655363154927622,1.8651525710902082
9.36,0.043607206480460875,1.2747101578940612,-0.9244331006124438
9.37,0.12355712874433167,-0.24507254276892199,-1.3881593268130863
9.38,-0.025207120257605464,-2.148378308836978,1.645507275742389
9.39,0.04135063324196517,1.407338423675041,0.6385421120173644
9.4,0.40434241632736856,2.8944114093169953,-2.0022616615129323
9.41,0.5805257686375316,-1.0363184747884517,0.10297496566159525
9.42,0.32806192257907213,-2.1724198199801994,1.9916819525776355
9.43,0.1628272320601273,0.6448987928486005,-0.6942969936720256
9.44,0.22148235192063978,0.7663235348028523,-1.8808950544953498
9.45,0.1609448406076311,-1.7815632603438372,1.3083930269202422
9.46,0.20681471763138393,1.7897018772752942,1.03357292697632
9.47,0.3663957257258196,4.80477110480419,-1.9176134629938464
9.48,0.4675951427212879,0.3138607301749552,-0.0740534851571506
9.49,0.1692369017203812,-2.899122175955399,2.467167021093248
9.5,-0.07737688985330105,-0.9135724531652243,0.1097920002113506
9.51,-0.009089748889557311,0.2924216945253534,-2.2330605989674455
9.52,0.09260585974987753,-1.8632065452043733,0.3223112300026396
9.53,0.23354600227963956,0.1888597990719756,1.405707635211365
9.54,0.43915194526057877,4.694422282591997,-1.3728910223701467
9.55,0.5220922043349362,2.6083032027960575,-0.6439155755136774
9.56,0.09012874214564448,-1.3818684918718263,1.8513130038242305
9.57,-0.39147279700750015,-2.3272591233268263,0.16377600183674623
9.58,-0.5235552756067312,-1.909236161767445,-2.3279128845376933
9.59,-0.43939335232918,-2.4182471858756074,-0.04659229660425579
9.6,-0.09005502416899042,0.7455171500959947,1.331901540890047
9.61,0.33726276600360316,4.692345051745838,-1.0724856747261866
9.62,0.41315959406899117,2.636712983539842,-0.3110230207593574
9.63,-0.04227562473543195,-0.648413056641951,2.337334991189253
9.64,-0.567098801605946,-0.9896521320181091,0.5432421963943082
9.65,-0.8520725319873919,-1.4354389755225418,-2.0142731518044865
9.66,-0.9995890003878192,-3.1769920267012672,0.1382702334492789
9.67,-0.7592598203339208,-0.2202687576348592,1.308003518280416
9.68,-0.0797935912380554,4.913226579114285,-1.5562244377455352
9.69,0.3972008804196041,2.7971300059500894,-1.4708295563120488
9.7,0.1683568777531409,-1.673761370631389,1.3771808772398129
9.71,-0.32078092120603274,-1.9574621479584036,0.7526428280978135
9.72,-0.4426126701179305,-0.8712886502507833,-1.8818271130747761
9.73,-0.4186999556132229,-2.240609332686443,-0.6193787408379032
9.74,-0.6355092472074599,-2.4048373138901464,1.5959562788910184
9.75,-0.6766307197244775,1.1398121453551426,-0.004168292222444858
9.76,-0.6627761839902954,2.673011162255721,-1.0102391410022682
9.77,-0.7918230211508247,0.6601897103249037,1.0710912182502141
9.78,-0.8419080717223083,-0.7101057001521629,0.9155793190012047
9.79,-0.6899274509032479,-0.8401216708989079,-1.7003743601565577
9.8,-0.540210439433463,-1.6407062675069566,-0.8352770843333213
9.81,-0.6142273928093769,-1.3087851675946016,1.8788291072306118
9.82,-0.44266425049817787,0.4307127528832664,0.7770664854351401
9.83,-0.1666341151491447,0.7808852631141003,-1.4095058700075622
9.84,-0.27966730566887554,-0.35047354471865333,0.21255506976331517
9.85,-0.6754101285227223,-0.28188327850735895,1.3807504739143015
9.86,-0.9005910666811874,0.10222610187238045,-0.9946893045664624
9.87,-0.9612925968835185,-0.9891898581036676,-1.371051650490027
9.88,-1.094616302818078,-1.7285923920200539,1.5253102802640335
9.89,-0.9108179024603467,-0.4053938457789452,1.3207488859134526
9.9,-0.4455589705658449,0.7122677555040208,-1.3591702960996612
9.91,-0.26026988613440816,-0.20983172169347175,-0.2366880869363719
9.92,-0.2982647682253008,-0.07720537889962997,1.188567393371638
9.93,-0.14240587183213496,1.7587371014486728,-1.4069405381200442
9.94,0.003339177268374821,0.05782696605235538,-1.8729222323486119
9.95,-0.3038551448254086,-2.0678965005068153,0.9326270624961642
9.96,-0.6571624693212735,-1.1689887798496734,1.053850219939357
9.97,-0.5572463240163321,-0.500570030624147,-0.8675648785739523
9.98,-0.3304924222773173,-1.5228666556247534,-4.37636608683345e-05
9.99,-0.3659894685249254,-0.8251544501357462,1.4609840726043568
10.0,-0.29768238317487467,0.549814082726442,0.23834706186214416
10.01,-0.19234924556828384,0.7011234188859802,-1.1700700080141653
10.02,-0.1625975464579117,-0.17575798967862855,0.5068492110254026
10.03,-0.17010641052161166,1.142712577456515,1.1316290084741403
10.04,-0.10392357638880423,1.691478000538253,-1.2310022502220952
10.05,0.019840721947842102,-1.1912974397739278,-1.1198097579319422
10.06,-0.10431522836283097,-2.7140188323628442,1.574365764670861
10.07,-0.16154367400528002,-1.0895851111801031,1.3025796881428882
10.08,0.040849135299451333,0.391219527013717,-1.266794416385007
10.09,0.15063880074915303,-0.08551876454536689,-0.4349753818478781
10.1,-0.0329175879055206,0.6702968706193237,1.5520160726097654
10.11,0.0058434964997548244,2.420840486729953,-0.4870818285150613
10.12,0.25469041047088203,0.5856156388613916,-1.6220318830419798
10.13,0.30164669702837754,-2.4861781877197626,0.9900411014626513
10.14,0.2792350197880916,-0.8511264394463174,0.8302228773802185
10.15,0.37398982344198217,1.4831457366402065,-1.852670865909722
10.16,0.3900123590272414,-0.2719825049643041,-0.3407425825128718
10.17,0.06268074050176053,-1.013804553625882,2.169079850048206
10.18,-0.07927892208201223,1.3488964759910775,0.06985188756754779
10.19,-0.044552027432579105,0.6223206543123254,-1.2297245955603708
10.2,-0.09963427758903184,-1.96570141972059,0.4660971563484213
10.21,-0.09497895685986779,-0.7546189327098509,-0.20154342507741752
10.22,-0.026865923470324314,0.9255503543176058,-1.8238739116993234
10.23,0.07042351175564798,-0.5300954348960805,-0.09179388547952305
10.24,0.021255639195769976,-0.9895902475962695,1.499125119922434
10.25,-0.0309470549550742,0.07206923542700594,0.05437046925084754
10.26,-0.08048691153436019,0.0971402719887734,-0.7795322863576597
10.27,-0.12001606170963952,-0.9273221293603194,1.051865953441845
10.28,-0.1359619427770662,-0.6732388348200117,1.4397093424775478
10.29,-0.049675543855281376,0.14542871515487166,-0.6998193358780752
10.3,-0.03399841897467618,0.05059844393626689,-0.7875573220758219
10.31,-0.18540444545621748,-0.3716145421795048,1.3643540512521521
10.32,-0.22754733479909536,-0.7505568705753197,1.229051432835775
10.33,-0.12515370797549727,-1.1038467004567627,-0.644800529271929
10.34,-0.14154486470213395,-0.8677222417840316,-0.3262381486593813
10.35,0.048700678008243486,1.6809284683268855,0.16962796626778198
10.36,0.41765065251543965,3.0284363160217453,-1.631574582896047
10.37,0.553022740221262,-0.2785112943846366,-1.5434187849958751
10.38,0.24098101059380755,-2.9714466783962488,1.1277097698097074
10.39,-0.1420268216896379,-2.0993288833083295,1.650445383937809
10.4,-0.11687744555806281,-0.8979779249492236,-0.14214789859229282
10.41,-0.06938487753555916,-0.6857077183785307,-0.2225726685921252
10.42,-0.16089309344804084,0.601404026095274,0.9411147823260082
10.43,0.05899783309393386,3.2663578262658723,-0.2359115087404342
10.44,0.6848864312046934,2.5975698329192656,-1.626507298070037
10.45,1.153645518135657,-0.8652027704290348,-0.10974477288821705
10.46,1.0415440701123668,-1.4597795835391314,1.0816654321130486
10.47,0.8283776337750698,-0.1007806854791633,-0.29997852374244127
10.48,0.8125534585163442,-0.3403851296066991,-0.9769094457306505
10.49,0.7451264444588397,-0.8084321311269512,0.47994741181102607
10.5,0.553490433990409,0.8469757360605117,0.8833944846409993
10.51,0.5183566181711555,2.026120982478426,-0.5357652227734981
10.52,0.6648365620496508,0.6164633189368034,-0.3669151440543903
10.53,0.7276285213584431,-0.4829947292279462,1.2979336518227802
10.54,0.8658467941206457,0.9029522314784586,0.2784712479764355
10.55,1.1758914174738822,1.024541848725402,-1.6152402730452158
10.56,1.2849858529823532,-0.7256521046894835,-0.3375573809175323
10.57,1.0240562993940407,-0.6742425263368981,1.3332796579972817
10.58,0.8124750929922667,1.6643442649962383,-0.2536841517249504
10.59,0.756265594055912,1.6519941981933677,-1.5380518683644944
10.6,0.7416789697351459,-0.8861003377661641,-0.06988997776142036
10.61,0.6738797057728135,-0.011045203979152873,0.07445052568998245
10.62,0.7060959432991409,1.7703926454240801,-1.1229257359299862
10.63,0.8484659678176045,0.009399030640755424,0.18226340403919639
10.64,0.7072644073636043,-1.2596113862813065,2.3857024158508606
10.65,0.49830776390334774,0.25336840468073496,1.3968541772759224
10.66,0.4390179935754663,0.9494380780395812,-1.0382368264063333
10.67,0.43307445744292444,-0.7470835995675351,-0.6209445211727143
10.68,0.42513162285112843,0.15551059455601912,0.24833619243593585
10.69,0.5538433939709839,2.9654633676668025,-1.6523002537341869
10.7,0.8049598886618076,0.9914316443249165,-2.0834052078363277
10.71,0.7343725472402288,-2.4806940157907262,1.3717489531683302
10.72,0.2835934591021381,-1.6516590728263896,2.658247294780185
10.73,0.15459257662162812,0.7537255730392425,-0.3170772437472631
10.74,0.06344666366946144,0.5162195899935056,-0.882434326067624
10.75,-0.16837464601495394,-0.1433471909482853,1.4844385138297724
10.76,-0.03725784428780132,2.6585530693288963,-0.0032194027183485296
10.77,0.23601121110016926,2.975971805220212,-2.643252538181967
10.78,0.4522054168029064,-1.306244075772327,-0.22938114455082603
10.79,0.29574633886850965,-2.7475001496714757,2.000148549632349
10.8,0.3104945729364923,-0.8848712543769672,-0.22356537933441123
10.81,0.3355907026022343,-0.08651352048957894,-1.394624542460219
10.82,0.13156380464169576,0.06703019783962388,0.7423078071218807
10.83,0.07500235144706258,2.2725291223648374,0.6738576521439787
10.84,0.17335551156473133,3.527685275281082,-1.694728101761195
10.85,0.319719835804531,0.5628219035243047,-0.5383556856272307
10.86,0.23709480577493264,-1.7142675109610064,1.7846190110799456
10.87,0.2545337148408892,-0.12208995750355367,0.16207570903512147
10.88,0.5258181236097558,0.39415158327826294,-1.4321892121957833
10.89,0.6140745737187269,-0.8882419287255894,0.6966130354733602
10.9,0.41286070086635857,0.07422640090914778,1.7480567495014365
10.91,0.3628750671377122,2.3967830614992947,-0.8252989339679924
10.92,0.5007486790938912,0.948670338992522,-1.2552557284091508
10.93,0.4689260735752636,-1.6929219333260446,1.2408279211422213
10.94,0.43075722692227064,-0.741024273862978,0.7278940690969897
10.95,0.583664132131055,1.550382525674673,-1.7803593894585965
10.96,0.7456622660882473,0.5988942593170057,-0.1446926929304846
10.97,0.6469033174644989,0.2580342332752637,1.961505667902969
10.98,0.7014074496617914,2.555637657753402,-0.409894595010194
10.99,0.7911212018664021,2.1469307974087037,-1.7457497738009957
11.0,0.7003348544840851,-0.9655800857361923,1.0780882663444393
11.01,0.5382763635005535,-0.08335308401286623,1.3013327038349434
11.02,0.5759825819826846,3.603886916613963,-1.6980338696934312
11.03,0.8141657790708873,0.7298921188053491,-0.698016584014522
11.04,0.5550416623694239,-2.4939792112009385,1.592016158372027
11.05,0.16507273155633453,-1.4679363885351504,0.36779882737518776
11.06,-0.03362313273147206,0.5421518511153032,-1.3941920071720042
11.07,0.0529340737530721,-0.7363678306413726,0.6111192710698417
11.08,0.16475739599566558,0.8263268852243275,0.7031720061602087
11.09,0.14747942873151476,3.637386979109491,-1.9522681190921354
11.1,0.012741909671536322,1.7628136763996451,-0.6183943616372263
11.11,-0.33107806728726774,-1.2921971116470872,2.698997221165742
11.12,-0.4968349423476052,-0.9370666986480567,1.1110653280777032
11.13,-0.3637553834356023,-0.3860412431539338,-1.9270089917695787
11.14,-0.37338020041252373,-1.6184405353359148,-0.1785269471565769
11.15,-0.36887326413594124,0.043466219669903605,1.5424992142542888
11.16,0.039282319492904394,4.975785079233518,-1.1091831006331616
11.17,0.3696822888033016,3.266083161053777,-1.5889945016354952
11.18,0.2541046986793811,-1.075774100577088,0.9471957661653627
11.19,-0.21223046570185097,-1.3111019278497968,1.0830081398307407
11.2,-0.44815893445722876,-1.7317133790685566,-0.21968580205398935
11.21,-0.4614041368517985,-3.1271635988204034,0.10488711309608867
11.22,-0.5730427540217375,-0.990698814672724,1.1517047239866738
11.23,-0.6083626916731408,2.833547428454377,0.6676863760835741
11.24,-0.6274677070098988,3.462838650577175,-0.6656072603537291
11.25,-0.7788901876745102,1.0054080492883073,-0.09132099470868926
11.26,-0.8644643335666602,-1.2786215412418982,0.7171452704503115
11.27,-0.6891084078506986,-0.23691842095648008,-1.3406136321214985
11.28,-0.4373572262924095,-0.8518464417894169,-1.9759836387700225
11.29,-0.5169691141349836,-2.120452804077197,0.46271405869376636
11.3,-0.7856096450423395,-0.20363245995013868,1.2647645020406837
11.31,-0.8934251923865644,1.9176264596364594,-0.427485304546406
11.32,-0.9859470420898707,0.004596541897324613,-0.06477466157287681
11.33,-1.3906897831549236,-1.6535425319063866,1.7063451646613739
11.34,-1.694348607266864,-1.2541539301475142,1.091176112325387
11.35,-1.6708036924530518,-1.12745037050371,-0.7551542968493932
11.36,-1.71435082188801,-1.0405702289134304,-0.48233940071279113
11.37,-1.5874363946379306,0.12153002969537186,0.41015525722616847
11.38,-1.243640180386707,1.5670059323820038,-0.43270470212156376
11.39,-1.1565312538797101,0.48139632330437543,-0.7971394614973604
11.4,-1.4167544325149541,-1.8280364663886033,0.8712675781731773
11.41,-1.806760536928425,-2.716868600393419,1.995844352408376
11.42,-1.7988225746305258,-2.6432523989563466,0.42394128819169885
11.43,-1.6397824069008053,-1.5493845566658222,-0.8041022860098253
11.44,-1.626617692139198,0.24281550239989724,0.2764206416324194
11.45,-1.415394984570686,2.285631194207048,-0.39907855721646057
11.46,-0.9838892320932514,1.3179553276454214,-2.0775701866507807
11.47,-0.6519988735049724,-2.558203762415656,-0.04536720502384295
11.48,-0.7648564454795164,-3.451156436377693,1.9678613448722904
11.49,-0.5792576343589795,-1.9834475138904697,0.1560525242613262
11.5,-0.43242429509855373,-1.287923580947568,-0.3275030379803163
11.51,-0.6835283212010632,0.6007532635839041,1.3845009404101105
11.52,-0.6676884409897046,4.049683250646435,0.0638111763448097
11.53,-0.4404933845447143,2.605943350691207,-1.9834400282424816
11.54,-0.32480738199980375,-1.5383586464182342,-0.03642844862692174
11.55,-0.5684597759553669,-1.662759992656424,1.7652642507610932
11.56,-0.5643029124578338,0.0013545372964607338,-0.1894956902143461
11.57,-0.12628608120535256,-1.5258509104132583,-1.4140473535183853
11.58,-0.015174507710391263,-2.547411147518877,0.4537824827151762
11.59,-0.19079073418115258,-0.6372772733505083,1.6502315834209624
11.6,-0.0971637886282084,2.4155814241705382,-0.3545846809831201
11.61,0.2839201354322239,1.055251403606265,-0.9755930073856213
11.62,0.2216380088419181,-0.8306005982212269,0.33029583217682146
11.63,-0.14489119368109493,-0.23603781606584018,0.45497676992541025
11.64,-0.26921807065568315,0.19428599797457619,-0.5734608601998872
11.65,0.09109171996987736,-1.535219157528505,-0.2120296348449261
11.66,0.45889568111179135,-1.3924619588789175,0.49818262780563227
11.67,0.7386316923353772,1.7501943485901315,-0.4687625393492105
11.68,1.0460096374779475,1.9508221968385795,-1.0758403763174762
11.69,1.2313210455290218,-0.44959514302494497,0.07042538036198409
11.7,0.9035975382541425,-0.5183693108347572,1.1319046458050512
11.71,0.45470956800661033,0.3406270068823583,0.6146806525796432
11.72,0.3401234650404533,-0.4244282536378765,-0.5300782616742363
11.73,0.4813172831630361,-1.899312194917902,0.41712615947201837
11.74,0.3364225206313297,0.20667135099537237,0.9213666764315701
11.75,0.3526581686479463,2.3843481154718607,-0.8499645910568361
11.76,0.470744834207438,1.2769280401463363,-0.877087010202534
11.77,0.5329674774508047,-1.3486268418645941,1.7925989952905526
11.78,0.41875030752437153,-0.8408998113581925,1.2803446387822413
11.79,0.34734493564435476,0.3337162011130802,-1.384849383688926
11.8,0.17766542869680538,-0.39489938531638435,-0.35790324472287494
11.81,0.06636126453996177,-0.5193775884395231,1.398363765241128
11.82,0.3352019916086004,3.0588674290166593,-1.5641346216343415
11.83,0.5989805441920631,1.3365161985301786,-2.249264208581734
11.84,0.3817883756828732,-1.997058185729553,1.2086438124730796
11.85,-0.05622433929205867,-2.0884204953193732,1.7013750026357497
11.86,-0.11807916666246646,-0.7158989065897698,-1.3840399113496742
11.87,-0.0038052602135641295,-1.3679325754238514,-0.9291242994373814
11.88,-0.05603544263273907,-0.8391878582502512,1.5292717532569857
11.89,0.128695517898557,2.880927584034772,0.024341197865028086
11.9,0.2674483306167303,3.532103089413808,-1.6559090164576633
11.91,0.2563103407376107,0.05336618659389725,1.0547486026313104
11.92,-0.11035377951761888,-1.0315866654064856,1.893009159616473
11.93,-0.22119920419552563,-0.5770536294966727,-1.158022133242762
11.94,-0.11781798737580532,-1.6367177018984482,-1.6093383592069541
11.95,-0.06487484189505938,-1.8518825173874178,0.7530854052278002
11.96,0.1371222184258827,1.2742807005247943,0.5357922955360308
11.97,0.40819395631653466,3.0108029146620274,-0.9497749439862998
11.98,0.5379818356618637,0.8204739032847281,0.18281094638591622
11.99,0.2207082771998174,-0.3493094098780671,1.451804250157649
12.0,-0.12749793150287872,-0.029801488937726384,0.12274937707999234
12.01,-0.17168883025625628,-0.6574445685891559,-1.3470490037977605
12.02,-0.10347356412278552,-1.8310212296822583,-0.1889322495824468
12.03,-0.10546939582715593,-0.6238974552324872,0.7620524907626551
12.04,0.08025935675352995,1.5807023329737726,-0.5682375048263453
12.05,0.29814557890188814,1.3027156868645788,-0.898729386816769
12.06,0.20047909768729308,-0.08275769007798517,1.0669056143504154
12.07,-0.10099027105190528,-0.036950463717095094,1.1055254788552982
12.08,-0.24494299542858797,0.08979345712856109,-1.2101522548584698
12.09,-0.2888230895893612,-1.3443472904201788,-0.915592112704976
12.1,-0.4355655701652028,-1.7651323357293158,1.102926981360587
12.11,-0.2967664023931708,0.7905270677533305,-0.10799503523892451
12.12,-0.0434223133971012,1.928011435234606,-1.8473770946461758
12.13,0.0021905108635552895,-0.048865351052805206,0.25224485096130156
12.14,-0.21337578017693817,-0.5770228404150292,1.4153077466489408
12.15,-0.2843847218169244,0.4083287927097354,-0.8951745541833556
12.16,-0.2425238673031999,-0.8317833005648276,-1.3513232814183267
12.17,-0.34955103397148474,-2.107097660905369,1.0929898081698384
12.18,-0.39203671670624207,-0.37707106304588445,1.3254996216701787
12.19,-0.18862063409348728,2.162348323105265,-1.0456640029637736
12.2,-0.10006868353490984,1.1509888147891356,-0.5394157971861453
12.21,-0.28293192797638633,-0.27781154382515216,1.5133832267939227
12.22,-0.392354944669037,0.2651032091832465,0.12530484080707271
12.23,-0.2496125307955389,-0.3042350989799598,-1.8175304946835351
12.24,-0.12046639394149342,-2.374174344502293,-0.39793823496843705
12.25,-0.2001068532081705,-1.8981837458700197,0.9902863420726253
12.26,-0.1558419428670541,0.5827165570344177,-0.051320295317653475
12.27,-0.05437735484690555,1.3426331407613006,-0.7353953694021409
12.28,-0.1162823136321191,0.46426193910085256,0.5181665041407306
12.29,-0.33258275526058545,0.3328730990740451,0.9080361310005685
12.3,-0.3559540556284496,0.05818343583933888,-0.566984955832027
12.31,-0.11965630873264724,-1.4219186097954686,-0.9770026020213399
12.32,0.015608932248793304,-1.799350928334183,0.37792612940196424
12.33,0.06304991010305208,-0.04471158558244648,0.7687920068291074
12.34,0.24766549753285994,1.168281858340406,-0.43709922069239493
12.35,0.35899960072607023,0.47388660308116903,-0.3455487024734718
12.36,0.117954231213178,0.16707165552404749,1.0683538546139133
12.37,-0.13947564149408614,0.5412855394921612,0.48632913413553536
12.38,-0.11630351997391881,-0.20335912694569136,-1.346956014249551
12.39,-0.01252629016444147,-1.7619933538859909,-0.5901427377784167
12.4,-0.10388552182765154,-0.9816305139502735,0.8934055402019218
12.41,-0.018625854157896193,0.8317799157554804,0.07680884010454458
12.42,0.20304733802027963,0.8887188216599415,-0.9014724987344385
12.43,0.17412915640407037,-0.07688982571576275,0.4726762745804778
12.44,-0.14297052432461974,0.23993700064498136,1.2871554131960605
12.45,-0.2771350753548014,0.14377041069576696,-0.1904867880842125
12.46,-0.23982932003327917,-1.0567608953663956,-0.7481425562751699
12.47,-0.3762940738075031,-1.1957226424434413,0.6795285066043546
12.48,-0.34920405800618737,-0.4467087549881813,0.6976768881668496
12.49,0.029004261145240462,0.02105715153378271,-1.3281715653446404
12.5,0.3552756768622315,-0.47581439029499356,-0.89412754403367
12.51,0.267796282030925,0.3666439508761268,1.0207694409700587
12.52,0.09146177544764969,1.4502343679547076,0.34667416289339803
12.53,-0.04762725519087189,-0.09547068897069666,-0.8607203970940591
12.54,-0.24417968278179852,-2.1152411158927373,0.7840937208826735
12.55,-0.5962304233439961,-0.5860475448710982,1.8754132327178903
12.56,-0.49709329520901135,0.6246404428240298,0.051820061024268727
12.57,-0.16241788633862353,-0.22002786323651535,-1.2411800613532518
12.58,0.024543778390682183,-0.8005235979822101,0.790040054243756
12.59,0.13032993039244384,2.0924839559511614,0.6183252467914627
12.6,0.4343173291810922,2.4127297810219304,-1.9100090080209635
12.61,0.7451865418828666,-1.7961905971130383,-0.4239608295860675
12.62,0.38462301263612325,-2.8199232520363333,1.994842483529915
12.63,0.10305203848289948,-1.2796070854583936,0.6634924068557371
12.64,-0.0020584809784824215,0.2847003244342676,-1.4707793574281287
12.65,-0.11834457400365819,0.08903304466408202,0.41246787133024276
12.66,-0.20627516866982004,1.6463726876310607,0.8980482661395294
12.67,-0.0068150166668313195,2.638752843059619,-1.8660680689917877
12.68,0.28281839282301446,-0.16107958326275185,-1.0513058500403791
12.69,0.2695443673682468,-1.879460666196282,2.0665672422876002
12.7,0.34324361503127215,-0.5930459754309123,0.9637414499856389
12.71,0.537272052463646,0.1495740114689121,-1.4432067340333312
12.72,0.47706099244615574,-0.7997929750847008,0.2515041859141278
12.73,0.12533874024057257,0.2942715713127526,1.5834664091954167
12.74,0.0723865153358364,2.7325455305938737,-1.0135194573866237
12.75,0.28818659792594903,0.76013103858133,-1.6756901061762928
12.76,0.2630099230806022,-1.8398795028242505,0.7831904837421657
12.77,0.1957565005656217,-1.2803059962544758,0.6883695797193923
12.78,0.46086067123135516,1.4646101624695116,-1.6969980534882896
12.79,0.8239342182316968,0.013946427562229857,-0.28680504743851154
12.8,0.6032586261010915,-0.5124524235921651,1.901792402479034
12.81,0.35355807813347195,0.8078285308837811,0.5958092208249453
12.82,0.28294304370502193,1.441423692548257,-1.3628049574170713
12.83,0.3316034968809093,-0.853585465140523,0.28319194252325697
12.84,0.18451402120300395,-0.966470661844419,1.0354155695975529
12.85,0.2691900043361992,1.291347522325239,-1.2452740346068327
12.86,0.5281053654888093,1.1024935378965997,-1.5597879240478245
12.87,0.5945898253301033,-0.8042390102929573,1.445703692715092
12.88,0.49343354492757735,0.22857641994659472,1.295284475062415
12.89,0.5554817985904694,2.187931312132567,-1.7006661767613078
12.9,0.6919635121974859,-0.7288735585059953,-0.6608387261220132
12.91,0.43151931242540736,-1.7130995819091803,0.8863324723802606
12.92,0.18027760669023174,1.0889237404474352,-0.7643510910617368
12.93,0.11454144660932249,1.52688558948525,-1.5588483146335235
12.94,0.24432178081777695,-1.5721523837979512,1.30780014745996
12.95,0.16505464324299685,-0.36507866511736076,1.4380610083405878
12.96,0.2387012183120097,1.7565709182239828,-1.3046255450143405
12.97,0.19144749999970603,0.0717007003134893,-0.41270965300246854
12.98,-0.026499090672884668,-1.3222670722441896,2.246669375080399
12.99,0.02883918119692523,2.105118917653435,-0.08246268269224943
13.0,0.1856699960780271,1.2635475844354085,-2.600667300588711
13.01,0.2257467965598035,-2.8598734285922554,0.002050357844380013
13.02,-0.16710836201246537,-1.7206841483289081,1.8786029226687537
13.03,-0.19133687171583713,2.5481937168224875,-0.7099657635932726
13.04,-0.056177957585924754,0.6091164410316243,-1.2610047044646775
13.05,-0.24199649723453828,-2.038879816778984,1.2669810558524957
13.06,-0.5514083606894371,-0.24726367987194475,0.7524633042971918
13.07,-0.5527081919383241,1.415498791387415,-1.8662577070204307
13.08,-0.34882326808044717,-1.260768136889983,-0.502986203997569
13.09,-0.32711978820096044,-2.421491919772956,1.4166893694576705
13.1,-0.1854303877160944,-0.2609462454416698,0.10546795851906121
13.11,-0.1443681845512666,1.4777332103271794,-0.7648096887149427
13.12,-0.29549688946292385,1.1054616157366062,0.8951248714718718
13.13,-0.43967389505728194,0.7232040055972951,0.7324996323250818
13.14,-0.39887475382077026,0.23637524098797086,-1.2759964302319668
13.15,-0.2911772269195789,-1.1944121950077393,-0.8518142402696678
13.16,-0.34894192795169676,-1.323700000480583,0.6708516896884626
13.17,-0.2746780717568835,-0.6316252309826278,0.5201056679719189
13.18,-0.04361976065655812,-0.061977192815941884,-0.40731485525046407
13.19,-0.03224169453042128,0.8025113029383295,0.10485260930588136
13.2,-0.26251296989225414,1.7452280431696678,0.8985925364565865
13.21,-0.2837644529477887,1.0181015830082552,0.0034240678185655238
13.22,0.08771743633311013,-1.4963272889915582,-0.7051569391689437
13.23,0.22973325033638176,-2.240984954569596,0.6382774448229394
13.24,0.17090866015525794,-0.6065891277349964,1.1107562182804838
13.25,0.42359848123627075,0.854505651346356,-0.7409535732287098
13.26,0.6446432470299437,0.6348788235059669,-0.16261751961643345
13.27,0.46826379591655554,1.3002734025367597,1.3383139265910864
13.28,0.39889702019025325,2.3519388294485593,-0.8592352064061926
13.29,0.5782751497096769,0.4144296128576386,-1.9494858462308144
13.3,0.7037704482758934,-2.5908300641462465,1.3011896827554819
13.31,0.6508662030390584,-0.42399297414844295,1.2166054113486935
13.32,0.8751107723671104,2.243438891557726,-1.7417888753113724
13.33,1.0166559805621875,-0.03292692551529397,-0.1888043733997664
13.34,0.687690533759598,-0.4590043913913965,2.0293309277811105
13.35,0.46902452812010503,2.9776295704695883,-0.49628918188839277
13.36,0.4737647498069703,1.6830403943400571,-1.9190359767091651
13.37,0.5960925723122702,-2.7047121522005213,1.0959728111333105
13.38,0.4302171731500035,-1.3176668440550174,1.4630350817285902
13.39,0.5817384265158294,2.223614540346827,-1.4778534558106369
13.4,0.7702179642639174,0.541383537245034,-0.9671668381602285
13.41,0.6862745930989083,-1.2022161062600145,1.56489940588343
13.42,0.5664985594185149,1.944844148585943,-0.020203768739409433
13.43,0.4969401559798279,2.803541885686766,-1.997753889435129
13.44,0.5653997594712931,-0.941091191639071,0.283568762349645
13.45,0.3667067718453166,-1.4764226450837965,1.4651398989760933
13.46,0.31970631309056996,0.9094177628680713,-0.5461053130315796
13.47,0.3912096781663795,0.8956294553905807,-0.9634867112647502
13.48,0.3569905415878069,-0.0895336967998851,0.9002369875565936
13.49,0.35220138154085484,1.0176703786531711,0.5824760403007259
13.5,0.4611889075983181,1.9962972721734984,-1.1130159223693072
13.51,0.6062590731043664,0.041446097009850025,-0.28575846940137084
13.52,0.3870816974718186,-0.31349006140281654,0.8912901262095784
13.53,0.014936561882680888,0.981404727711193,0.2086501214075006
13.54,-0.07935044281834952,-0.025104573577181544,-0.4041571253019677
13.55,-0.08488486822281445,-1.6219402353081676,0.569658908109741
13.56,-0.2669439378392517,-1.1692219031488738,1.0449175341714072
13.57,-0.28580514774765897,-0.6541762547740197,0.21439186730106186
13.58,-0.2900251721431568,0.9612030041656261,-0.4055081303465861
13.59,-0.363285373542765,1.5864568940240926,1.02597832021511
13.6,-0.5654024683983603,2.0633512521116084,0.06195448864279496
13.61,-0.8334052946439799,1.3284964271301194,-1.997920539634287
13.62,-1.075997963617597,-1.1959633784634742,0.08417076548608593
13.63,-1.1696019469126346,-2.401315354843627,1.7412071543267604
13.64,-0.6205682175929341,0.7439809839316958,-1.493513116572128
13.65,-0.0853922359887948,-0.7022627772514118,-1.2832489118078276
13.66,-0.36552459479503235,-1.3319558081270584,2.02236458027883
13.67,-0.8813848390383325,1.0038712115110169,1.4216699511923685
13.68,-1.3473454454797982,1.1480455138690322,-1.1518461024155946
13.69,-1.7866609002995255,-1.339677467921054,-0.24647709200156553
13.7,-1.9266312087225903,-2.9052039730175796,1.7251163258925188
13.71,-1.4924769987506215,0.17736176765916323,-0.4162642013083926
13.72,-0.8789030325142333,1.2113961987087343,-2.3084436338436816
13.73,-0.5169637160553737,-0.6733401055413046,0.18121775901072512
13.74,-0.5667515060007606,-0.9587449917149456,2.3778539336144533
13.75,-0.4591567762252961,0.7203855664119043,0.1462607185868281
13.76,-0.346145948768759,-0.12293343920977806,-0.5021809255063379
13.77,-0.7131194413925106,-0.7827338196951281,1.0166196718428813
13.78,-1.0508678956478308,-0.1858127002829817,-0.22889590970279072
13.79,-1.0382351321087873,-0.46337895569253246,-2.4892237134992374
13.8,-0.7004389240507507,-3.0073947921158966,-0.10944433879964643
13.81,-0.5857311417844728,-2.008304583276261,2.163677280235065
13.82,-0.043204847064346685,1.4442344934292115,-0.1825651955491212
13.83,0.1971808302143131,1.7047544764058051,-1.1257025875438371
13.84,-0.023978513171211635,0.44974352717099597,1.695531288822826
13.85,-0.45645084602441716,1.2658395408242535,1.5930734846232182
13.86,-0.6011833209788949,1.611359405098255,-1.938403831292912
13.87,-0.4346927806708185,-1.9604118431794522,-1.2234704625165476
13.88,-0.5711399474662756,-3.025960473206692,1.8245955678131516
13.89,-0.40066663649679535,-1.0699408872938077,0.8498349621315944
13.9,0.22683431147696698,0.4043033440898094,-1.6554762789324253
13.91,0.6176067974244599,-1.1158144538676502,0.2569566538758732
13.92,0.5697358084356258,0.27879000902853,0.8212149656986368
13.93,0.5946833138958967,2.4642447291921883,-1.899313787693814
13.94,0.47901170090823075,0.7354435878613543,-1.4567821046994713
13.95,0.18126569323899627,-1.5583724470142941,1.930691521771689
13.96,-0.12468493329468472,0.4176352914681305,0.9396188905838487
13.97,-0.07742868018445373,1.2448563569804287,-1.6530093036892066
13.98,0.10469656205479147,-1.565358551473881,-0.013606690938544386
13.99,0.08302427769650733,-1.5263464711883024,1.8413281101932575
14.0,0.20042305325841164,1.3955297563731244,0.5185814227175449
14.01,0.44358649494967406,2.0834200304477837,-0.9473024774890487
14.02,0.5432277359676124,-0.07359128932850201,0.77522682260424
14.03,0.33241763130440716,-0.3351418923091515,1.3485362419762081
14.04,0.3818309887717519,1.3965827478712913,-1.854025667680364
14.05,0.5972897851101119,-0.49314492460849024,-2.35427352135503
14.06,0.5148229816697529,-2.3789347419958338,0.497552833485023
14.07,0.2877550610519284,-0.2456718452736375,0.44478406691797234
14.08,0.21036517184136017,2.086948573011381,-1.308532279114757
14.09,0.17691428351398364,0.1409588049889714,0.3024406767004433
14.1,-0.14988487034351872,-0.4937263577084299,1.8678401116078582
14.11,-0.3688128763920304,0.5392396659463476,0.38076548263387533
14.12,-0.38714441867756266,0.52370405032615,-0.9799315361386617
14.13,-0.3202877591288955,-0.9692416927723089,0.6381268555218995
14.14,-0.2330578551000435,-0.4178435513065001,0.6815168290868532
14.15,0.05775311988015078,1.1151477550837123,-1.8036847576417454
14.16,0.21841238592250128,0.010837443581884765,-1.4366143956964352
14.17,0.11546490171673218,-1.327973446496766,1.038086744699664
14.18,-0.08381695763774918,-0.3982993572047375,0.521979105059747
14.19,-0.22847439315878074,0.4665308063622058,-1.294472449301066
14.2,-0.5101812829709619,-0.08069262788836973,-0.08527348606874141
14.21,-0.8517359774728972,-0.5130030590956165,1.7433042997308876
14.22,-0.7544426516977355,-0.3455249152252773,0.21213272553254803
14.23,-0.16938003082638786,1.4685341565912418,-1.8452407246262157
14.24,0.3097324251996345,-0.24117371198331972,0.27912537257063574
14.25,-0.11039836494489458,0.30215897655754387,1.0258998006654607
14.26,-0.6271878208339319,-1.1820543424807144,0.6448908298375111
14.27,-1.049815954488617,-3.5826286209352824,0.7603010407122215
14.28,-1.1533632163644798,-2.000970399027145,0.9505441264294529
14.29,-0.8133356250278445,1.1295823820863733,0.1284055708909485
14.3,-0.3930770200392233,1.352127470691229,-1.1444809263897875
14.31,-0.26970315614186113,1.319976827363557,-1.309910314065921
14.32,-0.24636062250019478,0.8711366363610147,0.5332786968808996
14.33,-0.12309176858875716,1.0375699255510755,0.15398242503340753
14.34,0.08102725725678522,-0.7616562595929506,-1.5207833342251222
14.35,0.005907823972834916,-3.116974142899857,0.01305036739286125
14.36,-0.47223811854168163,-1.8387839716841095,1.913164897431565
14.37,-0.5552182451927253,0.35764932889993006,0.7230456803773009
14.38,-0.4187628509798136,1.018212239297036,-0.9717257066337475
14.39,-0.4157117319692333,0.13341289501786602,0.4641597438161713
14.4,-0.5452109820658746,0.36092495784825157,1.1738276750414052
14.41,-0.341007491501759,0.12488190355436712,-0.9687619566756562
14.42,-0.005777142123951751,-1.1647523712751289,-1.5276687858083393
14.43,0.11957249801989778,-1.8634533978418522,0.8153353685429408
14.44,0.10041201029921222,-0.10853157495380672,0.7628882136238069
14.45,0.18437718456082,0.829024149120132,-1.134324710778364
14.46,0.05223375904310576,0.13318219425581201,-0.16446782971958096
14.47,-0.2818034738834882,-0.08222760507942735,1.811045009956414
14.48,-0.43653163313575427,1.016939201564984,0.11638140406416841
14.49,-0.3521459552155244,0.425898201753404,-1.6121944601831772
14.5,-0.32833063766911913,-1.3123457837772914,0.5684611102309527
14.51,-0.4148364523172659,-0.9919598075692245,1.8846059452295072
14.52,-0.037187684702025436,-0.7371043877627727,-0.3330481694004588
14.53,0.3682669641628739,-0.9242424291620202,-1.8865075481689135
14.54,0.41741558309234644,-0.7137243240483602,0.33295555311997127
14.55,0.20709970477696452,1.999983794569184,0.8505363883924898
14.56,0.10231095578142792,2.019561165742386,-1.1997126745518063
14.57,-0.02538846242822808,-1.3251360597122241,-0.9295646872165148
14.58,-0.30348293403430837,-2.658453070807348,1.409043202604913
14.59,-0.47092916809339236,-0.36566531493040166,1.102296972079039
14.6,-0.28364601882019236,-0.15601107913800266,-0.021945946750571932
14.61,-0.3559467881469956,-0.7409066418710797,1.7479978159791716
14.62,-0.4524391272800737,0.7139341224849285,3.295826917470053
14.63,0.22829519948427596,4.540432517859123,-1.0001728613691778
14.64,1.0533508678457686,-0.9394221917831045,-3.5543280203729717
14.65,1.0527506003497071,-2.022042521717518,-1.5182625157533414
14.66,0.7165868199467484,0.46489325410707627,0.2516573555493977
14.67,0.739517655512955,1.0415179517103477,-1.5824513480733278
14.68,1.0782160076419485,-1.9420002213989778,-1.7402668059549602
14.69,0.7248028976443562,-3.138747929058897,2.130873814081706
14.7,-0.18365776981190762,0.5479880191874797,2.984702902380669
14.71,-0.5562198441211395,1.9567118348891417,-0.008432806304143003
14.72,-0.7316530847516811,0.4237120716581739,-0.8452090908825449
14.73,-0.8881159271631303,-0.580977807865351,1.806463144698352
14.74,-0.4873652047644711,1.7757595463791334,0.7167005360371654
14.75,0.7696703081385976,2.7951624612166333,-3.155343227833748
14.76,1.9025959113232567,-2.2602586228251953,-1.1884515929103574
14.77,1.77273501596439,-1.8125547440735885,1.5446754420116533
14.78,1.3318472137175408,0.5836769827507458,1.0354074121209202
14.79,0.9129966936874718,1.0968795583064153,-1.6256122139693998
14.8,0.4098353991587877,-1.1037420108578702,-0.4518033749743542
14.81,-0.14012534398260335,-0.3822816842900889,0.7580084991693705
14.82,-0.2558836896610004,4.176285812899297,-1.8580795117333078
14.83,-0.07893875553799093,1.0260841508340648,-1.8853732888975334
14.84,0.03649305638035359,-2.689382247637789,1.3075633963869153
14.85,-0.06867726284703429,-1.7429556167689206,3.3959265571735076
14.86,0.2796589121203323,1.605820615401138,1.040590305778697
14.87,0.7137317077119218,0.5930471605385239,-0.9400006385079369
14.88,0.6666437358214682,-1.3380717443244983,0.2393677291469245
14.89,0.333319196741406,0.60161810041587,0.3053976441694243
14.9,0.36853679095547887,4.167437717486459,-2.811875364310981
14.91,0.8545554798746835,-0.22437445316192406,-2.5557247537098657
14.92,0.8992634637411275,-3.720646196285518,0.8379744977856669
14.93,0.4545503794120933,-1.4064386051365756,1.7859178882415219
14.94,0.31609808670628514,1.1384014576436452,-0.15752387330166662
14.95,0.2620035194500369,0.4167274389394524,-0.25124080469865995
14.96,0.0030801451963612947,-0.5974748586540033,1.5936139382047454
14.97,-0.09746385200954369,1.8136360924765267,0.12375464962214133
14.98,0.21172480590396692,3.531499632988724,-2.500018639905538
14.99,0.7277727326606009,-1.2448563556957017,-0.3511376846108365
15.0,0.5131338554103406,-2.274551675624542,1.456146965031835
15.01,0.24606726764978865,-1.2089043116998328,0.6293999184120707
15.02,0.11943651917701871,-0.5291443083244769,-0.7993657296795929
15.03,-0.08930738165582527,-0.6155505142096831,0.6904353846100426
15.04,-0.12136159119797381,2.8084008122963326,0.4125226505241113
15.05,-0.02641659263078086,4.26703575833668,-2.571347800839099
15.06,0.10471116779331588,-0.08907008722240484,-1.934271498965537
15.07,0.13565738252218884,-3.3494141998751346,1.7582709336375417
15.08,-0.01790082216817665,-0.5592580366450011,1.595541220905866
15.09,0.2883354953375723,0.914598691899121,-0.9975866470424086
15.1,0.5002748996620046,-1.6480750735257952,-0.40729663378370995
15.11,0.19794958049003786,-1.0423432523637914,1.6941702438633317
15.12,0.07331932708539257,4.48260887414474,-0.07179176213523131
15.13,0.29247568011467395,3.206419957960513,-2.2805656435075083
15.14,0.6654829758682149,-2.8725478232360095,0.03541397362845933
15.15,0.27865602154579605,-2.329797069159074,1.9923025271989587
15.16,0.13576283849988632,0.6156732243467795,0.2931436988220977
15.17,0.31344651116335265,0.6229655375582897,-1.6263372262253972
15.18,0.41133730462563933,-1.4075206031271237,0.4882682670144627
15.19,0.18894941920194594,1.5206098720756218,1.2583906111266538
15.2,0.18848388390624932,5.273499069915284,-1.7415534950100209
15.21,0.4010155118944315,0.6845911265847162,-1.5822187314704463
15.22,0.425094659423387,-3.9909865775055424,1.7396187444500928
15.23,0.017295760889047274,-2.4881670661097126,1.7604936791002923
15.24,0.055224885360587055,-0.40217222426454,-0.8889382179149203
15.25,0.029705968004170996,-0.02402446969117844,-0.9499970653779903
15.26,-0.08469753376863058,0.23245391935227788,1.5034363185854853
15.27,-0.1442963247337401,4.28845058819723,-0.13027269541594944
15.28,-0.13592746738801137,3.212725278570609,-2.6758926224373765
15.29,0.08007376985376921,-2.3865359350380757,0.017549870393091194
15.3,-0.1856542722358861,-3.30435855377865,2.3808267835951127
15.31,-0.10231948236999078,-0.5913305180849338,-0.06224746465966158
15.32,0.11759926095663766,0.1543533518340477,-1.6784763271894951
15.33,0.17397510231021676,-0.5217263729668704,0.8845134818627698
15.34,-0.033320929922708103,1.8838330271208128,1.5861086181033615
15.35,-0.06835329136026073,3.362338779441143,-0.9193617575642952
15.36,0.04774540571690118,0.6384383449748761,-0.6686323717028894
15.37,-0.06084103570094723,-1.9169391524013348,2.4255557007128736
15.38,-0.10626062419841774,-1.5596513911951755,1.1737900079065549
15.39,0.3331864205172535,-0.6668026135963906,-2.330480732354547
15.4,0.4570290218500011,-0.434908101038552,-0.6655162768842442
15.41,0.3039759339417738,1.2042225134440134,2.0242101091791445
15.42,0.5986558746225947,5.427564982627366,-1.532432191317163
15.43,0.7542697825142464,2.2171137704601573,-2.623195891341418
15.44,0.6497829587449366,-2.871924329800425,1.7710764771788945
15.45,0.06663706740123743,-1.833499883818613,1.8590682810992072
15.46,0.03313933655983983,1.3096587096655492,-1.650542901623583
15.47,0.1770869905331522,-1.1263106841172243,-0.6676418559211885
15.48,-0.12220256311577293,-1.2474818204951381,1.948637596542925
15.49,-0.29043756170744184,1.5153277472223752,1.0717197382003902
15.5,-0.15857498463376818,3.3418962501572356,-1.696665839996374
15.51,0.05665903348941492,0.012656869473733678,-0.033702762643699646
15.52,-0.05691266004285679,-1.5022207843419684,1.8616934369585247
15.53,0.04785115098170366,1.1024552251419748,-0.8163136907096797
15.54,0.3227604930461673,1.6863191336144994,-2.491508482552714
15.55,0.3954353882087851,-1.4908616658687714,0.8828129527066331
15.56,-0.06464131761521325,-1.652487584729578,2.0835004639107044
15.57,-0.16314939216251906,-1.0696069743007852,-0.4582981906766683
15.58,-0.30366079299605087,0.04835241346375874,-1.2292109852774726
15.59,-0.46846304388871834,-0.1210943001441975,1.6442344526816024
15.6,-0.45674202388936813,1.5647249554904445,0.8461412090416804
15.61,-0.26120044053070224,2.6406005763792875,-2.3051831703983394
15.62,-0.26399378795988526,0.23975422740075913,-0.5381306250923266
15.63,-0.598115929724241,-1.3163820982798058,2.534575214629196
15.64,-0.8579880567368521,-1.4097247992103168,0.9890868383230069
15.65,-0.8344675269452444,-3.1741061727396294,-1.1114280166900323
15.66,-1.1185392268192695,-2.455526303617173,-0.17334719386190733
15.67,-1.073754554276603,2.6143862490642746,0.7743118203661787
15.68,-0.662431138041825,5.685695269298585,-1.084823324032253
15.69,-0.7287531566762415,1.1379469502994128,-1.6179221831879522
15.7,-1.1142505391825712,-2.959420563170437,1.0514464289329268
15.71,-1.673477827800858,-3.1626125405851373,1.5948101149503293
15.72,-1.4709573423580775,-2.688076272224283,-1.4006912428044784
15.73,-1.121671642249796,-2.900664587283657,-1.198314710965219
15.74,-1.1162804453282238,-0.8392868999648169,1.2112590547196949
15.75,-0.7808865129842617,3.5089816997062915,-0.058293866187001386
15.76,-0.5163300256628427,3.6933069923766175,-1.8673992180130914
15.77,-0.6289150862164075,-0.5304098574250888,1.0239217806812015
15.78,-1.3058941367724277,-2.094383424497721,2.678061341666215
15.79,-1.7201934798289307,-2.769794679727478,0.47884806779505595
15.8,-1.6667206075116803,-2.9925683420744074,-1.4459294433772514
15.81,-1.6140610723682955,-1.86206564776001,0.15134088569496673
15.82,-1.397125276966538,0.3907937494170006,1.1768725895087906
15.83,-0.648678286311998,1.1837771449146173,-0.8824251664151399
15.84,-0.02321909734786054,0.11995040318869776,-1.391044900780488
15.85,-0.1860837414615162,0.10605213036747288,0.946921441955781
15.86,-0.49943738742732513,0.44760436886724697,0.8765292146914929
15.87,-0.3761173102455529,-2.0455560353310602,-1.497400642706174
15.88,-0.19788948174898954,-4.070078814415521,-0.7814369807564435
15.89,-0.6684142941283341,-0.5623523062192644,1.285863973419328
15.9,-0.6039852853915029,2.351249214619965,0.5640103641051345
15.91,0.10698463601587438,1.1392481222456339,-1.2133453906145326
15.92,0.38475599258226334,-1.1024487108505814,0.8436467538645345
15.93,-0.05565076825264659,1.4862178919411075,1.553261512939459
15.94,-0.1208908651022684,1.2213207527640368,-0.7365980379164712
15.95,0.024799317115195216,-2.1383820826911273,-1.5452141865172189
15.96,0.18129216191608485,-3.8716893525762686,1.4951986856071846
15.97,0.23644288885654785,1.472513599071024,1.174676975560886
15.98,0.736946789848107,3.0736389458208517,-2.326223667286561
15.99,0.9963829781443333,-0.6047932142612162,-1.6225853612566876
16.0,0.7758245222498751,-1.973281247778678,2.6096334735511606
16.01,0.4167356406310062,0.5046463822857645,2.219826748204663
16.02,0.4971167492185089,2.630735439696275,-2.238348896878902
16.03,0.604996706889286,-1.3996028067935926,-1.1877525259161799
16.04,0.12340743469788223,-2.3826742417566575,2.4609329036095398
16.05,-0.12132368269670807,-0.9923358275896628,2.0177387503008335
16.06,0.44773367993904567,3.114196771315367,-2.629246262256217
16.07,1.1138953158170537,-1.153770291639912,-0.8925132265603692
16.08,0.7607910137017982,-0.822609899969482,0.8992295383386022
16.09,0.5840441313406518,1.0224641586788068,-1.0217405293414763
16.1,0.5663174814797246,0.8885077089831606,-2.511787545603478
16.11,0.7378484847147139,-2.045804937129888,0.5474637818895132
16.12,0.5080803262964739,-0.9522885152428417,1.378096090476097
16.13,0.6473127894593861,0.4366296805217935,-0.5947794177953214
16.14,0.7029657311035836,1.6236378855038283,-1.0622976133830873
16.15,0.704178159394336,1.833339290356645,0.9555008494045709
16.16,0.8075757603047431,2.878505725398055,0.4297495643506445
16.17,1.0142886623149971,1.8919937408507075,-1.104808610900465
16.18,0.8724244027252058,-0.09209388603280555,-0.4910750005660879
16.19,0.7814033375317,-2.1606388112680297,1.0346101907942429
16.2,0.9683921462114027,-2.2403143363432854,1.3376816295862817
16.21,1.3300150551840528,3.0069855964597503,-0.6375221746859803
16.22,1.1699137736806904,2.0514448436596346,-1.5497651019963652
16.23,0.8085591949585447,-0.5607663287367561,-0.2983019544646164
16.24,0.5049572025054918,-1.518634123143193,0.6018509569367199
16.25,0.4690980267735281,0.08376999955440434,-1.00720745691838
16.26,0.9131745747411812,-0.629035669666161,-0.6096229875246629
16.27,0.96924343186304,-1.1472045787048701,1.754972824524497
16.28,0.7870554395466216,-0.5126936127714026,2.0767736693647376
16.29,0.7573300597183417,0.5871181138664399,-0.009050511703584618
16.3,0.5249857916461123,2.7432409871005596,-0.7426570428610909
16.31,0.45918557498967055,3.248062048587517,1.0709309271580847
16.32,0.2928528178476285,3.4547362937032786,-1.0420707723955585
16.33,0.17678876880682004,0.8350924667020676,-2.6575904176376826
16.34,0.34860013448501176,-3.5789699916612543,1.0900043734440312
16.35,0.27769732286668025,-2.8812825447998733,1.986579927806504
16.36,0.7759014068963388,0.6356567645734015,-1.7758440726749862
16.37,0.7937331581526939,-0.05418614677303735,-1.1978862197199591
16.38,0.28316477408063323,0.04606459225031308,1.9918511239186825
16.39,-0.042808615063237576,4.27055277379055,-0.13722289055171544
16.4,-0.46692164194283875,4.572796000674921,-2.1398837806536526
16.41,-0.5230467240126838,-1.604304881010858,1.5068473549639365
16.42,-0.9003331409175312,-3.4522499584717097,2.146199367211282
16.43,-0.7166408228763057,-1.5563107982432989,-1.130768188465578
16.44,-0.42119793522655197,-0.2914376910791421,-1.1490632100629465
16.45,-0.1914535743989416,-0.29956310446406276,1.5894572150201483
16.46,0.2508536549798899,1.8550452538935742,0.22654917605674574
16.47,0.5293226905025283,3.4410148392287714,-2.2069486418533857
16.48,0.4331524351723661,0.34722534833552965,-0.05481459709507108
16.49,-0.04896831588987405,-1.6535090955684193,1.299806025421626
16.5,-0.3771539047885044,-1.6834918719392027,-0.3785505035481036
16.51,-0.3625146683208578,-0.8094549503637352,-1.0348938754907553
16.52,-0.31803965952147417,-0.1755541203343023,0.3521455229928443
16.53,-0.30422327066114285,1.1324118839664716,0.9218254012439989
16.54,-0.17021136612805468,1.3874562187684858,0.469657655689586
16.55,-0.06547031747547256,1.2249609191267057,-0.137175964787774
16.56,-0.06718829003528716,0.24130062992608814,0.8116062837177337
16.57,-0.1902598694232222,0.18986398638464985,0.40508325161784997
16.58,-0.11960815256061727,0.06016246715326448,-1.7156843102482182
16.59,-0.011777573686707773,-1.2004310370549138,-1.0619094789400476
16.6,-0.21530834751150338,-0.9824122728860885,1.1976802370147621
16.61,-0.19797256339946256,0.13353303584750287,0.1984542942417522
16.62,0.004901458146325421,0.3726362844688076,-1.951457517974569
16.63,0.05505176542982301,-0.8442643738685829,0.3478169231909338
16.64,-0.18560625867561903,1.5069187157276747,1.9134206335042925
16.65,-0.3462463906873759,2.850825501864817,-0.511318713151613
16.66,-0.6700341850166094,0.005764865470441638,-0.9817085565483394
16.67,-0.9517687843829825,-3.071985700598355,2.7590215415305313
16.68,-1.1781050737660927,-0.6664092692611128,2.201367001890566
16.69,-0.5521007496167643,1.5329110524998057,-2.5993445195842315
16.7,-0.282548622314673,-2.0146859760466986,-1.9180818100023376
16.71,-0.44294863617968006,-2.7949826790759316,2.26892900082756
16.72,-0.3503114247819213,2.0741955697467693,0.881653460407321
16.73,0.01708966503039122,4.448295471452143,-3.096049983500167
16.74,0.01975488264113481,-1.3604928023891052,-0.15804504275520426
16.75,-0.7297167627860198,-2.215158261254685,2.4058351440064643
16.76,-1.0971387824412646,-0.4798903976327238,-0.31597063281774185
16.77,-0.8743715201047059,-0.3632403053852883,-2.2029534570221183
16.78,-0.6104085196676663,-3.0589928932701174,1.0041871986092628
16.79,-0.6250100555998809,-1.634255754384525,1.7191273982348285
16.8,-0.2662085495704066,0.5851768232271097,-0.6622014517002117
16.81,-0.23963336911235716,1.6677852349563314,-0.2876512259029862
16.82,-0.38593099728484087,0.9376758196020167,2.176657720014033
16.83,-0.4268607265807567,1.317662318925989,-0.3305888732103961
16.84,-0.4190595561941479,0.7225751734589075,-3.0087905906007495
16.85,-0.418266975581748,-2.1783710115487787,0.6362942423666631
16.86,-0.6486958284546334,-2.0669169724053345,2.675244806960526
16.87,-0.14540183648885652,0.4557980419774528,-1.297381031712928
16.88,0.2699343004920002,-0.33359315616083607,-1.7686018423382905
16.89,-0.06992869884029596,-1.0355484894337383,2.1539869600709007
16.9,-0.34846108639926066,0.5154528556550728,1.420925958667234
16.91,-0.18802369164798766,3.7378322260680155,-3.199037059022527
16.92,0.23520292967071182,-1.6541570945944084,-0.8899674827309227
16.93,-0.227113587677051,-2.3142138886345753,2.4318174909100403
16.94,-0.5030236265576962,-0.5843584488858176,0.9613544770717894
16.95,-0.35597210914598343,-0.8368036548955087,-1.272759190032164
16.96,-0.3899367110545473,-1.9597544738592172,1.7241031997050578
16.97,-0.3181432206486306,1.276203214362807,2.1670657994806306
16.98,0.2762013624265017,5.170420717635149,-2.7312376668174023
16.99,0.39881213657487724,0.8756918682229067,-2.5474768785734745
17.0,0.3326901817257483,-2.8832830675152494,2.3570727037430523
17.01,0.04333738099763701,-0.5164576736010313,1.1147647344659246
17.02,0.42007437479598353,1.0509177361897952,-3.1560893349890202
17.03,0.8170024930551307,-3.690862586023256,-0.18646065286297953
17.04,0.3902605113302873,-2.124022823366341,2.3094708805532567
17.05,0.39826788411100583,3.5563159247719938,-0.8348334000556572
17.06,0.22576991315181696,3.8570253410283026,-1.986091609322481
17.07,0.1763512505879941,-1.0274750988947563,2.4323204196480965
17.08,-0.208185645149374,-0.9273658088206987,1.8154377232983072
17.09,-0.0942075675016035,1.006563570588367,-2.2483484079961302
17.1,0.09955748100515126,-1.2683713839054562,-0.4914575783217374
17.11,0.2299111496517232,-2.194324864258873,2.1636457869142047
17.12,0.8587343375558925,2.6298400082698707,-1.4664216470926617
17.13,1.162345121246393,2.5974590584289268,-2.6307031865728137
17.14,1.0159532305287653,-1.0083455383350435,1.428421672438886
17.15,0.3597675227647631,-0.052885229838147696,1.0461328101883574
17.16,-0.04647170560220809,1.2326322255930187,-2.14593246973726
17.17,-0.21140113210848527,-1.7901179469231514,-0.432937833639633
17.18,-0.48259021987976286,-2.728796273550246,2.181924356110277
17.19,-0.345435674875001,0.9599969707881706,0.14161040581522755
17.2,-0.06672210224046939,2.4574158816596423,-1.6274798744793115
17.21,-0.07069480229585544,-0.018609607541906836,0.9451190514131377
17.22,-0.28272138606997094,-0.05215128355599744,1.3173081194160925
17.23,-0.2256200383509526,1.4237618376899555,-1.592035684602394
17.24,-0.13122876595775793,-1.2802182574461187,-1.140980172029361
17.25,-0.3438996507023148,-2.588332307325428,0.7829249535780569
17.26,-0.46333335648093754,-0.8398795520617858,0.25229847127595656
17.27,-0.3221306130086374,0.924273946088448,-1.1751564179839498
17.28,-0.28867844791446345,-0.10269006419289613,0.03079422501849496
17.29,-0.5639984088705676,-0.018995416808752774,1.5193985836398238
17.3,-0.6181560742880002,0.5287248208524481,0.194929370398875
17.31,-0.441142805970481,-0.2883620798670545,-1.0710096453020295
17.32,-0.43734116089042846,-1.3889895616957344,0.6896949507942396
17.33,-0.557724192053533,-0.1820396453770428,0.913852750848018
17.34,-0.31833449622223814,0.3021319910942268,-1.411793781293723
17.35,-0.15185706954424177,-0.8494086533468251,-1.1343902746805998
17.36,-0.3032746493647396,-1.0079022792280843,1.4927150472967825
17.37,-0.38780291815747053,0.6747428974310298,0.553007643565028
17.38,-0.19153055294040658,0.14928046312273727,-1.6276326905783676
17.39,-0.25476315451488846,-1.2985393878334195,0.16874391133481795
17.4,-0.4703903518001501,-0.17090750960044612,1.8158211879599946
17.41,-0.1886343179793646,2.823291515936969,-1.1551870536967532
17.42,0.1896890244812781,-0.3345910281801621,-1.6515341088810025
17.43,0.12378326013541342,-2.415897551706654,1.346967105765187
17.44,-0.16026340443458154,0.26417481980129953,1.4426073084611195
17.45,0.0460093260138666,1.880385716278978,-1.2375994539208992
17.46,0.3505811499425868,-1.501032500157549,-0.7227180194441054
17.47,0.13809733215528075,-1.4299586755526665,1.5686962898678243
17.48,-0.07321655052755158,1.7402569087444688,0.644950038726546
17.49,0.13807695238477483,1.7720552911021232,-1.686285896464028
17.5,0.43558947665948067,-1.6269446954976372,0.24110071341999278
17.51,0.22026992500235085,-0.8746735922926905,1.9340316546158065
17.52,0.2458953519108907,1.4919229357673882,-0.262249028589517
17.53,0.44592456673946207,1.0717344636881063,-1.6913307018926467
17.54,0.5218189619440682,-1.37728686492233,0.8405041337251941
17.55,0.2606460684164354,-0.05945298892833379,1.095478225260648
17.56,0.23580210335161295,1.7087782100618063,-1.2185115998718892
17.57,0.3948085447946279,-0.08350449209643339,-0.7483591914603661
17.58,0.26973850464642224,-1.234924921407889,1.3191540007068145
17.59,0.11447995043266959,-0.0379500193117472,0.6200624661677742
17.6,0.20537439478433533,0.8059769412476685,-1.3164474757064926
17.61,0.3171031065628737,-0.4946724212357074,0.440179076399418
17.62,0.07683070417785283,0.2320149897057412,1.6131552063069918
17.63,0.13224504901160383,0.8455634849155877,-0.8137775665600816
17.64,0.1414818819443584,0.24910862413078422,-1.5068416069941704
17.65,-0.06561971797606429,-0.9845120433940138,1.7579295908938506
17.66,-0.16181344541985884,-0.3400565758683123,1.1962681698432382
17.67,0.148408577492614,1.5975122063773923,-2.448291004169864
17.68,0.23485747000443422,-0.39526295894436897,-0.5143924681680225
17.69,-0.14474936091036067,-0.4105013695129818,2.1824461787516545
17.7,-0.18910403282975313,0.816885887311121,-0.22050962116019537
17.71,-0.015461735153279478,0.9921548528807685,-2.2111750472644296
17.72,-0.04639304663089943,-1.8967843050193929,1.2315262724614098
17.73,-0.40959475155012315,-1.2024480067128465,1.723064690027581
17.74,-0.2540967793594243,0.7152760678987348,-1.5908109639582033
17.75,-0.1490845130000359,0.23358746706930456,-1.1484436049567264
17.76,-0.3364538877226285,-0.8355562545146041,2.1098591852527098
17.77,-0.3293690473354768,-0.07308231037723346,0.6957649743587725
17.78,-0.06097617193175299,2.1096517514358943,-2.661363403951537
17.79,0.00354052295923773,-0.6314801311527597,0.11931350092909739
17.8,-0.42096338328445987,-0.8539993280322609,2.188070929673222
17.81,-0.5079914050417887,-0.41449487342102787,-0.1315934444454021
17.82,-0.4849806702870716,0.31012084326008954,-1.9045067481402032
17.83,-0.53858164183755,-1.0027709874396553,1.0130542657827994
17.84,-0.6556243271593551,-0.38190730547125434,1.155176737178742
17.85,-0.29618176023021947,0.10560892047256551,-1.9010447826902603
17.86,-0.13898827552282758,-0.24944109641611167,-1.1876885412155176
17.87,-0.2997452248266809,-0.06098871973964028,1.6201801314198185
17.88,-0.22960244680214237,0.5056422572859572,-0.060905753415766845
17.89,-0.06106329166530123,-0.2639916711240221,-2.088176201272791
17.9,-0.21978417737918288,-1.3466575383679478,0.6524611745637661
17.91,-0.6528355992383962,0.02812795410480254,2.1605956406476876
17.92,-0.5356482251624735,0.5356466353790589,-0.4277350466200383
17.93,-0.289666035371853,-0.35357588086967756,-1.4919714732904494
17.94,-0.37441949313288536,-0.9037867832423238,1.3039884112892726
17.95,-0.6236400048336818,0.602078108152467,1.4571035219359936
17.96,-0.38036474450124336,-0.3866377780286867,-1.0333805781983512
17.97,-0.23506300661689133,-1.6030950318090138,-0.6137128442164768
17.98,-0.33698858296691847,-0.5788805781668616,1.7147604971482109
17.99,-0.16480397605140035,1.1876214174718733,-0.4207720561009335
18.0,0.08878543077479341,0.26557546637802565,-2.492244175870592
18.01,0.1424482967137692,-1.6148491858180158,0.7124799920976318
18.02,-0.053214612847013544,0.6507332970576263,1.4920666829939024
18.03,0.057163987622316316,2.132648544040701,-1.8292050895991268
18.04,0.10983159556102728,-1.0061737866514926,-0.7477369768830624
18.05,-0.2369916680927462,-2.1211331493136503,2.85640428618141
18.06,-0.4418332650728224,-0.8556888605934904,1.4247946722427527
18.07,-0.2012052265860753,-0.7385627976308965,-1.6851892048252095
18.08,-0.18211591743614408,-0.7379203744845767,0.10366405768740904
18.09,-0.27540873271190713,1.845794477634968,1.6960493451106158
18.1,-0.07245415193903447,4.16477284001383,-1.6209909236377142
18.11,-0.045639935640645224,0.672610191956667,-2.0132599662469275
18.12,0.0058167096856317595,-3.6568963825809226,1.9663976915044075
18.13,-0.2973166600617408,-2.296336925643757,1.299806716193007
18.14,-0.08632330041278811,-1.6150504591585515,-1.3634371109437344
18.15,-0.1569598224686983,-1.3596951512014563,-0.0875973572652413
18.16,-0.2858369385114161,1.0349712813984842,1.5432776233285017
18.17,-0.1124586985594487,5.337178001369263,-1.180321663798631
18.18,-0.09189301585047371,1.5866714542024667,-1.4367956723873512
18.19,-0.2373756988920548,-2.7716865576824947,1.5703587966293324
18.2,-0.5642254622639251,-2.5008594670641413,1.12761654694229
18.21,-0.2799541861659083,-0.9866490531817498,-1.6427110836983063
18.22,0.07961066628859706,-2.1753575045961644,-0.1451321906564096
18.23,-0.1637106445099301,0.026491344290588248,1.5425003016549401
18.24,-0.19387163841699487,1.9786844925337908,0.013378594537733157
18.25,-0.2713696685399876,1.184693479136231,-1.1344631555375928
18.26,-0.3632333594698415,-1.6145320520945878,1.310603409383075
18.27,-0.5946168878009199,-1.2323217934244308,0.8674231331728375
18.28,-0.44574113009438443,-0.7854716188262775,-1.8864059182221475
18.29,-0.4539877929153295,-0.9511783633181411,-0.39862065714806394
18.3,-0.6611670132411319,0.19473231913797096,2.3828741283632238
18.31,-0.2992300934911712,0.48569329394586996,-0.12637884136469055
18.32,0.0712014835452348,-1.0284179527765895,-2.0312987594868175
18.33,0.11445629227663488,-1.6296569368974207,0.5572834784975729
18.34,0.22497959743230314,2.0110795329866793,-0.024210028865653238
18.35,0.277728288447332,1.7035806316178206,-1.975433718583611
18.36,0.052332301612056514,-1.3525713227003775,0.23931359292896026
18.37,-0.2523163783583576,-1.5685054879869227,2.675228835615718
18.38,-0.15121212057364647,0.5414890386389787,0.12911882795033233
18.39,-0.008984163390304516,-1.395041181769475,-0.7043468966009552
18.4,-0.11820694505134327,-1.8377671859026707,1.2390821396526421
18.41,0.16062135772405955,1.5981256405660642,0.4270736424390912
18.42,0.9487922255680913,4.637670123123496,-2.61342883780325
18.43,1.3863657886675893,-0.16947103610504344,-1.795495427247437
18.44,1.1867802284708817,-1.7944001657350264,0.5891251389216616
18.45,0.7797767562366567,-0.4931710875798316,1.1950929202324216
18.46,0.7281489477194499,0.1704370051203613,-0.34421245390807964
18.47,0.9027153188774153,-1.4905275865658523,-0.29785330926388454
18.48,0.8335922048440412,-0.8494617218495338,0.6818489258347755
18.49,0.7787217093355471,1.9558235377054278,0.4522000237352223
18.5,1.0024931949296725,2.598381902404959,-0.7166180587549154
18.51,1.4045836515863472,0.008749469263638635,-0.48788510496198045
18.52,1.5092872797687464,-0.6672364045600048,0.2527092322080132
18.53,1.3300568560562926,1.288661459885145,-0.2721222820295911
18.54,1.1315130064653802,1.2518138469658233,-0.7896977719787615
18.55,1.1105575464368986,-0.894436407407854,-0.11765896371567625
18.56,0.8507967719144028,-0.27071327739424356,0.9188087560528632
18.57,0.3647195789122262,1.5116073825689573,1.127005353153492
18.58,0.2729156908242024,0.2882502656759462,0.07408619324773871
18.59,0.4438823100934845,-1.3416806893428137,-0.06478859640106745
18.6,0.553077714607947,0.7160875988974749,0.5991334834299679
18.61,0.7933765714256058,3.5520917626799733,-1.8362644279164924
18.62,0.8580776833599054,0.16779017870372764,-1.3946101078825495
18.63,0.6250650077502077,-2.708913966879497,2.4646144422956477
18.64,0.2526115089331016,-0.10846261390758655,1.527388327431467
