seconds_elapsed,z,y,x
0.0,-0.9629042148590088,1.0639514923095703,1.4727646112442017
0.01,-0.8560023120985104,-0.048182789505349585,-0.5130166112103058
0.02,-0.6905119666974914,-2.20554302389069,-1.4086025255266332
0.03,-0.7402460612817051,-1.8600310709842272,0.6251013280708128
0.04,-0.8464129280159693,1.277080335321412,1.009821772301548
0.05,-0.4393099399677714,0.905749312334952,-0.877644579200184
0.06,-0.1588141679084861,-1.2598762708350288,-0.8961443343696232
0.07,-0.32982621225824243,-0.7863358848010554,1.449915125704699
0.08,-0.37727636257702873,2.2088122295637675,0.4491773975788618
0.09,0.0544373993606385,0.6434713015002412,-1.9060533041145138
0.1,0.21789147656612579,-3.0914719507743595,-0.3653792898957401
0.11,-0.28182386508431073,-0.9824683661335413,1.6453442524740214
0.12,-0.432927489160023,1.8948688398261484,0.620606857605907
0.13,-0.08268446690477381,0.07952807222156229,-1.0454263569832394
0.14,0.03999908368020978,-1.53491654736377,-0.623925604998006
0.15,-0.2339404206457288,0.31435665594511497,0.8528857702404168
0.16,-0.20560464535216244,1.5054293016178268,0.5153885877102631
0.17,0.48751316549316187,0.2579997050976079,-1.133495263910936
0.18,0.9118986949581713,-1.3607514019088423,-0.6487645686560838
0.19,0.48035603211004424,0.2136213732227956,0.5571640934643497
0.2,0.05142596703279719,1.4614965765590922,0.735675991428934
0.21,0.03671755257696289,0.1720386874867293,0.12275867891623285
0.22,0.20238764020873312,-1.4237584308404458,-0.3101270924854551
0.23,0.006793624224537684,-0.47033460444651576,0.19698217472157242
0.24,-0.18215922843162013,0.9076387773563475,0.638328848187319
0.25,0.0683774741529838,0.4388029330118169,-0.8658766868829458
0.26,0.44583583239794083,-1.1968811220644442,-1.2674368332667822
0.27,0.42683857361870087,-0.9571927091470808,0.7388581777210382
0.28,0.27804147780017147,1.366109860952159,0.42052545294735855
0.29,0.314062214912967,0.6567191943766238,-1.2666920831312625
0.3,0.17313161334641372,-1.3739135886717475,-0.51151379413626
0.31,-0.25358438894272184,-0.32077159268532723,1.4730270384055872
0.32,-0.30918405297252377,2.1878572836305925,0.5386841528267863
0.33,0.1357801624622488,0.4610115608133997,-1.2364199234042674
0.34,0.29759927080331766,-1.8790973691519692,-0.4970106771027971
0.35,0.05944409981392719,-0.4612700081695448,1.2373269374109057
0.36,0.14879750558156327,1.7616184352111026,0.45678643784148404
0.37,0.7061269559681012,0.5006759133434483,-1.3843515001548177
0.38,0.7663437446829857,-1.7603270364274772,-0.6518725911323154
0.39,0.27669420377956344,-0.4743425539546613,0.997630651121592
0.4,0.10578924745989558,2.1281550695756604,-0.2667956260676137
0.41,0.5168899712220977,0.8303548614853152,-1.3589758531251255
0.42,0.44873576427001144,-1.810736416008656,-0.41737837083873014
0.43,-0.06996064913232176,-0.6495265340869516,0.6619690305607117
0.44,-0.2224029573207575,1.043371271313814,0.47346554519117734
0.45,0.14732081774236458,0.13553010311482475,-0.5640424810385123
0.46,0.24327441232258376,-0.9275358046417066,-0.6684234945000335
0.47,0.00816525581633679,0.10166744185519457,0.8851362746991002
0.48,-0.1596598322058107,1.5729556701581182,1.0825423925776139
0.49,0.02984080132018695,0.2416778824867626,-0.9064469519629025
0.5,0.15754403143890858,-2.156240437309455,-0.9557571777336235
0.51,-0.09216207048173657,-1.2899823256169751,0.9130979850815818
0.52,-0.2906961103811723,1.700308487527983,0.36611620203910356
0.53,-0.0742444568730966,1.1115514869072924,-1.4526758115147587
0.54,0.10848240990445843,-1.574792176159583,-0.6203517272166351
0.55,-0.05378790034401402,-0.8650343677941632,0.9728817268082552
0.56,-0.12133041193450002,1.2466282589940483,0.5541433424301725
0.57,0.02783443081253275,0.12880976467107233,-0.07949550292722504
0.58,0.018931640965883678,-1.1662892345239242,0.0011708517183640842
0.59,-0.24264274549355505,0.04332546670307264,0.7079626486500596
0.6,-0.3195879406720772,1.1214181690354996,0.5399587889127442
0.61,-0.005908123306130123,-0.10908082117925744,-1.0562406544249863
0.62,0.22558918846371445,-1.6026708446915843,-0.8852771279085236
0.63,-0.06472377440252612,-0.3447518657754524,0.9414847751952614
0.64,-0.19109841261305668,1.2066989784449607,0.56027294303568
0.65,0.13910017392713506,0.10073919192952015,-1.3582024089550544
0.66,0.32982616464534437,-1.7300585254713856,-0.630448149298274
0.67,-0.1365926250184114,0.07082111893799324,1.2898498130250788
0.68,-0.31491730427830705,1.9151552472787456,0.7869983580694078
0.69,0.1074531279646641,0.25686482129029015,-0.9874358636201022
0.7,0.3566431647432501,-2.0726562374298414,-0.25762383220367957
0.71,-0.10470770589878488,0.12971795088912477,1.5905616379806948
0.72,-0.32295597325829,1.507517328636328,1.3280559325239718
0.73,0.05001143022259952,-0.759200596135576,-1.2431064900541349
0.74,0.45974623619293487,-2.8482617632566916,-1.1922972654500037
0.75,0.3252316913393682,-0.10614735617219564,0.9214032403256953
0.76,0.35277361029359244,3.97805668686567,-0.5252203102560847
0.77,0.6744091789621567,1.6585636798645909,-2.3634528519995603
0.78,0.9028484786214872,-2.7908977961807717,0.3667703859268587
0.79,0.3579416582373733,-0.7362561851713448,2.41408931698798
0.8,0.09261820507041182,1.7744288562780448,0.5872129927932488
0.81,0.20555852347021367,-0.2565778224143839,-1.0871651742910928
0.82,0.34289473415415894,-2.573043334718505,0.3546274473990672
0.83,0.11236904835830815,1.1484040809448604,0.7464735674301486
0.84,0.23974266091897917,4.426028190735325,-1.4335346532803523
0.85,0.6977768258717292,0.13598787366663045,-1.4661206376512446
0.86,0.8117239340475707,-3.2704648277795183,1.3368530811895858
0.87,0.34769605076239857,-0.31163069438332747,1.4267361799064437
0.88,0.28840799081996094,1.1597286099794426,-0.8988611566028745
0.89,0.37247329502987997,-1.286953852956271,-1.163713686976078
0.9,0.22684823603848953,-1.6352591797524012,0.7859639571154691
0.91,0.02282788216878293,3.9509531824598536,-0.0668529008983176
0.92,0.33573559804851144,3.638335051802561,-1.9888275122652312
0.93,0.9290628259371477,-2.5955581017665916,-0.34693539007181234
0.94,0.7212120588939621,-2.6212748843892677,2.359855620053979
0.95,0.3683260576011283,2.0977734567622357,1.3312131450098303
0.96,0.5047520851206555,1.4592667583493977,-1.1249862378575672
0.97,0.531376144230879,-2.0619348044365515,-0.6519009402507056
0.98,0.24888383831049163,-0.681487918511256,1.023228349564073
0.99,0.27827676545282487,5.840734259019559,-0.9449892074586961
1.0,0.642215055923177,2.056345187552561,-2.041391254875048
1.01,0.862352266286306,-3.5510837544505955,-0.11036343650601749
1.02,0.5624525041949965,-2.078684362294587,1.6733241646197576
1.03,0.36606735428989207,2.735202996850552,0.9642971046419644
1.04,0.4989464261905986,1.148663441880763,-0.3423780929235338
1.05,0.5648943001007908,-1.9775254230862396,-0.33667431746385573
1.06,0.25210599307147435,-0.19258033003852848,0.9393734943826683
1.07,0.20763642738205956,4.7792553238696405,-0.395339323469219
1.08,0.8192540794081185,3.0555365004876482,-2.095393424713452
1.09,1.3296818121253902,-2.59053921603713,0.2467661702022902
1.1,0.8916355990192637,-1.0423150238249574,1.633493289760883
1.11,0.5383327909728101,2.5977549786375302,-0.2834150287992535
1.12,0.6036041628881846,0.5103537281784039,-1.1889895656166054
1.13,0.6248984607208545,-3.3093448078792744,0.941912526175339
1.14,0.003425551671090037,-0.21283031296142046,1.31810476457658
1.15,-0.2245307533469145,3.269031188592876,-0.8787609907361986
1.16,-0.21622456957980726,1.0825164771794913,-1.5077799596180512
1.17,-0.13285164775953356,-2.154975293416205,0.6288738263007209
1.18,-0.1471342484271749,0.7426278198082823,0.4991514096129073
1.19,0.13107399918933896,3.7197981116473455,-0.9868504960197096
1.2,0.14200564050313816,-0.05695506929102439,-0.06684662828934022
1.21,-0.27185557391265935,-2.1004344533960393,1.3777051347061906
1.22,-0.7045556401839068,-0.12412449540792828,0.8750456889320338
1.23,-0.7862290191551378,0.6266827348156045,-0.8560040666752132
1.24,-0.7529723969952467,-2.203271003326777,-0.9976813203252946
1.25,-0.8787143957193867,-2.616832636719219,0.26426171980168245
1.26,-0.7370861226453804,1.1677493896490756,-0.04299728023118302
1.27,-0.11008228046091167,3.892897872140058,-1.3537687961708993
1.28,0.013882951286930493,0.31373051053880935,-0.05103700673243453
1.29,-0.6269615850752892,-0.6398154625340547,1.961228499072178
1.3,-1.2358764809994152,0.18795511733356918,1.3400730899367674
1.31,-1.310108287022981,-0.5978168129875885,-0.8430589523508485
1.32,-1.2410907312508275,-2.772837904775384,-0.37520290122612493
1.33,-1.3967053232704807,-1.4976452117314047,1.1969875467635007
1.34,-1.0882873838712004,1.5728650640784567,-0.062047621197914966
1.35,-0.4668721920756312,1.598226839118247,-2.0613013070771107
1.36,-0.24800119389756523,-1.102029540941539,-0.3620343062764671
1.37,-0.5387888457326245,-0.9440729668392683,1.1810743047363135
1.38,-0.5792496829148325,0.7936098616474762,-0.25108366378203
1.39,-0.5730498837718883,-1.3435332655021666,-0.7784394167038743
1.4,-1.0843592711793875,-2.516368147304166,0.34409898339087025
1.41,-1.6757019712212293,-0.6369481499996992,1.4294187398421125
1.42,-1.6879854916547303,0.5001419480129761,1.1925559638298002
1.43,-1.21199600377502,-0.4377736201293779,-0.6650027895862385
1.44,-0.9645131227908174,-0.7680467616155235,-0.7228442639816632
1.45,-0.9434248316264648,1.1082641024322781,0.6725901542538095
1.46,-0.09455025091800504,2.7979546507786193,-0.4787676475799601
1.47,0.6582168438529135,-0.17796478037587093,-1.854154378134938
1.48,0.28568979986818394,-2.2258590523687363,0.04903637079491862
1.49,-0.5063119861128086,-1.5244504736094515,2.533509129925724
1.5,-0.9891782525591267,0.0985302257346258,1.1594739498509716
1.51,-0.9230262222107467,-0.49223997253328206,-1.6632565181656085
1.52,-1.056149973065319,-1.8662073795269247,-0.8577534845194484
1.53,-1.1617425432488537,0.32166322537860653,0.4475511298042799
1.54,-0.4924249534365932,3.2703874368373675,-1.3255700940535364
1.55,0.7245963654854598,0.007769864257056346,-1.7294583096036837
1.56,1.0758911204858368,-3.058165586953973,1.6616573079948098
1.57,0.36289884405284356,-0.9073981185019271,3.273730292001535
1.58,-0.03384935647552797,-0.4050265412903931,0.9844293135551982
1.59,-0.2526098059161878,-1.13691827114261,-1.0254944457638941
1.6,-0.5042968802208068,-1.9342439880188633,1.2555967924592437
1.61,-0.8205283310178458,1.9251824297629412,0.2949382315281148
1.62,-0.5576941073304802,4.342456905821691,-2.950074971108034
1.63,-0.2643283417049417,1.4633004947124584,-1.042907393603167
1.64,0.15340093856660764,-2.803312032587941,2.881790663940177
1.65,0.29441939334595346,-1.1411666249533738,0.36241994783939746
1.66,0.5257205523951833,-0.399002678884036,-1.7078133493082415
1.67,0.45890831225112827,-1.9849378699070666,1.3825163081813852
1.68,0.2563032434839196,-0.090702002220165,1.4738415826108215
1.69,0.34247019094318343,3.768027985950906,-2.500276704173593
1.7,0.06388112201400971,0.5416913887051686,-0.9319676782130395
1.71,-0.5526798137678639,-1.63845542801853,2.1838290587004576
1.72,-0.955136075922038,-1.5129775181348706,0.04164221767890837
1.73,-0.7909443967025401,-1.9117974287076427,-2.3010012602012866
1.74,-0.5135045346576859,-2.6027812948567766,0.739691470291475
1.75,-0.2894862628672968,1.4360473101521756,1.5527754392665087
1.76,0.20223271102568643,3.919804479398166,-1.0756630292506058
1.77,0.20570478955223076,1.337465252445015,-0.44169600252680735
1.78,-0.12911329079367811,-1.483576636404462,2.585966877179412
1.79,-0.8217197423920742,-0.9406441828670855,1.5392415334820844
1.8,-1.0089554920175574,-2.053777152743287,-0.7692415214013019
1.81,-1.000938250534201,-2.4358960331995894,-0.6287491622034295
1.82,-0.7384434687935512,-0.4281732300472966,0.9046902696082455
1.83,-0.32622044202807554,3.051728714409504,-0.3985935189433796
1.84,0.06168993721339023,2.171684418058282,-1.5431552931356005
1.85,0.1810176176424167,-1.0729961765972844,0.8275041041100264
1.86,-0.11069391942780539,-1.3890884636854155,1.528340777522349
1.87,-0.11630632312372649,-1.4302565132055716,-1.1783190620299269
1.88,0.011784667587147024,-2.75716811126298,-1.7163526112654204
1.89,-0.11228030606866979,-1.9773519442950016,0.9146249063920506
1.9,-0.4230395461336115,3.9795176780203056,0.38720659094406595
1.91,-0.4417081751666696,2.9305531336686905,-0.7403087805424864
1.92,-0.44878390696050674,-2.525209700029721,1.7039607854355467
1.93,-0.9609288073654834,-2.7612948190573734,2.265675822908866
1.94,-0.9181500179054245,-2.0764892451553925,-0.3055128364989303
1.95,-0.7138571621035853,-1.643242055559761,-1.1296017483588792
1.96,-0.6653949667146124,-0.06473232075227453,1.1688776461180657
1.97,-0.31197894703102674,3.5846554229627587,-0.25503866048167095
1.98,0.08611308634446407,2.781350733848214,-3.0029290990749375
1.99,0.15572126204792544,-1.8410260703602848,-0.2971164291645705
2.0,-0.22214993672869476,-2.4591700083770593,1.8987057188631218
2.01,-0.4184483870003016,-0.5714014838783301,-0.8108725864779004
2.02,-0.3995501196463204,-2.0704948874173805,-1.6372706556808174
2.03,-0.7394289587224877,-2.6370956487409596,1.0238614020395131
2.04,-1.0692259390282228,-0.5069654576753857,1.9232574109185783
2.05,-0.8341919283186184,0.756280938321777,-0.06255996286321354
2.06,-0.5109647377180677,0.4757019267802266,-0.6504127133778032
2.07,-0.44993652285633656,0.3977003422624815,0.8737346794990115
2.08,-0.34137545597596924,0.9203521746407586,0.2535640715185151
2.09,0.31714031062863246,-0.1840050883154126,-1.8610506056806493
2.1,0.9593916145739638,-2.7206975113885385,-1.1048322785072835
2.11,0.6117652189892604,-1.3066516474416765,0.19551068637719737
2.12,0.060760756495804105,0.9986764565457571,0.7032978023995029
2.13,-0.18539009680630048,0.3269902200036995,0.7636499484557403
2.14,-0.27545055994494627,-1.18486453650177,0.1264160471791614
2.15,-0.47359168614543556,-0.21148377840967822,0.11529321097190116
2.16,-0.3924775747599955,1.2338742594529035,0.4873678259642778
2.17,0.320260981898715,0.3775661304682605,-0.8475956562299487
2.18,1.1343635995731443,-1.5348727008107437,-1.4199745574858391
2.19,1.365787305550034,-1.3473315826611736,0.8061998941809164
2.2,1.0816269323737542,1.5222186544956027,1.5717475174415556
2.21,0.8420271360380466,2.018251412402084,-0.29773922701731775
2.22,0.5599316460069765,-0.42345557516415117,-1.0739073588886028
2.23,0.21214114997782374,-1.766901478798158,0.4388364273221224
2.24,-0.16430431811329224,0.2740012221277427,0.7083766789956694
2.25,0.019724362837225923,0.9976357574868824,-0.6818608287601784
2.26,0.6721035289315678,-0.9260475028109528,-0.9162567962085978
2.27,1.2509724619741494,-1.683016226614277,0.6660325126701524
2.28,1.4093407649761598,2.2522966953745764,0.32279510590688193
2.29,1.6606158973679443,3.1967043880884347,-1.1731630599846654
2.3,1.7912100765163597,-0.7066874803043102,-0.41166480405989053
2.31,1.3245803523347477,-1.5867745308919106,1.674137309097541
2.32,0.6031475999635336,1.4920758447538363,1.7736934068038737
2.33,0.3396364046955427,2.7592534808733076,-0.7381171382116549
2.34,0.4425634448498972,-1.1863404127104356,-1.049364212564658
2.35,0.5095739947464126,-2.593950913658143,0.5206204403191244
2.36,0.8013923522591919,3.3671668175158875,-1.2937300568085066
2.37,1.4686410935427976,2.423705218195434,-2.31473625311392
2.38,1.7441876091154027,-2.709256688295551,0.11879173728457502
2.39,1.1936713588765737,-1.4606757338549075,2.903861237305989
2.4,0.7057089423614948,4.461346096047203,1.284396768108464
2.41,0.5959424677248031,3.5002463917410824,-1.386350876097227
2.42,0.43185796599936754,-3.6697965384372417,0.42397445268959794
2.43,-0.17857472791666518,-3.5704748532902877,1.316668686971971
2.44,-0.2603311015480911,2.883426780483651,-1.4961133585654085
2.45,0.22077866527956339,3.0613586622532685,-2.7750607016675355
2.46,0.9418849280806199,-2.855230438754688,0.011044120716263517
2.47,0.9537134300953437,-2.1347669994295266,1.0517232688584828
2.48,0.8376660742320821,2.263815372643364,-0.1307174973415042
2.49,0.7419703444034409,2.802262851565166,-0.12643831398042132
2.5,0.6708926578595866,-0.6116816670870643,1.0784198077094513
2.51,0.2386886162208107,-1.6474557154054355,1.095535774997067
2.52,-0.1546393442061142,0.18070037221578494,0.17925920892263078
2.53,-0.055910991322039055,2.007655507157791,-0.6303104594646896
2.54,0.7911634515082384,0.9368012689620625,-0.6360831884043662
2.55,1.2669914990273996,-0.689235892847101,-0.5015390959497242
2.56,1.1442881715169637,-0.19831437546351868,0.17344796470405807
2.57,0.9766401316738874,1.1150876577774052,0.3113740492904125
2.58,0.7963643511318724,1.1584117825896996,1.0667509035595066
2.59,0.6658959282249788,0.07249832423271907,1.8413022668600842
2.6,0.5109665832706434,2.4597155393588546,-1.7424168013268824
2.61,0.3339556021860356,-0.6582261462173197,-2.3872297362911796
2.62,0.06446276696139056,-3.3976618279267354,0.7586308845210318
2.63,-0.12213764514429003,-0.2692421315002713,0.4252644996294032
2.64,0.515033878376546,4.850890591809098,-2.6655207271750783
2.65,1.244175427143753,0.2797052389598643,0.26702327784450086
2.66,1.1071833216726827,-2.2872901388342894,3.917442885627654
2.67,0.6780887722925069,1.0993732904161353,1.4647278643295614
2.68,0.4406146885558927,3.858991581630241,-1.8826036869831042
2.69,0.25213664993052026,-2.562704737167055,1.0218842373255252
2.7,-0.2845408393340319,-4.166928008903502,1.3317258027327283
2.71,-0.3246256252410254,2.585084533851917,-2.9318360847689426
2.72,-0.42239942431203253,4.1156440348344265,-2.8610396877187427
2.73,-0.11547610567396759,-0.9674785186946534,1.798177315140174
2.74,-0.10474827043106355,-1.1052572012780806,2.090403575563051
2.75,-0.008820516328035315,2.4962833345191173,-0.7482808776663353
2.76,-0.07874501460769372,1.7708740947221107,0.0433909615735388
2.77,-0.1426450813950822,-2.1763813516426653,2.011239145986691
2.78,-0.2418078170153418,-2.3429073776700498,-0.44030812942192193
2.79,-0.2975085602175085,0.3005548378822852,-2.754658042875041
2.8,-0.6189914716342653,0.20439045738577663,-0.22327366429153048
2.81,-0.825115877549316,0.40772926262094067,1.6017130956753252
2.82,-0.5285583126337637,3.6593732636068332,-1.3953753379466736
2.83,-0.00769304229302445,0.12146723615230866,-1.6374390391965672
2.84,-0.194540461640353,-3.239979458660115,1.489431376979768
2.85,-0.7472035683515473,-1.1075626649045232,2.020809511616717
2.86,-0.7196006688119774,2.43359557995419,-0.5627646879994745
2.87,-0.45902425946495673,-0.24519850747594002,-0.8117923063877591
2.88,-0.703723709938796,-2.7132032037088796,1.338886398646926
2.89,-1.2050194838607542,-0.53423454692448,1.9608919290269593
2.9,-1.131090294681448,2.8661290350440334,-0.8194392249712944
2.91,-0.7430069820970878,0.013157612849470538,-1.5763573986332826
2.92,-0.8854397305029297,-2.7171095981095292,-0.10457807402759672
2.93,-1.1148682582038987,-1.4036452357782754,-0.7396056561458414
2.94,-0.781514151155121,-0.11327841797693033,-2.2854743386698684
2.95,-0.1733719912450537,-1.9383409682627208,-0.49494603643270646
2.96,-0.2846515457167007,-1.2814859373218952,2.1212859890581988
2.97,-0.5261940718663966,1.6801046955736127,1.3692672460548356
2.98,-0.5562941097974394,2.13352005444886,-0.539255132274181
2.99,-0.6661964381649673,-1.0386101626365771,0.618266510407307
3.0,-1.0366630002053614,-1.294399740965757,1.3553348545544268
3.01,-0.9033809293535224,0.218322662948556,-0.9585273470854552
3.02,-0.24295484789632055,-0.14342506033003094,-2.4199111661461337
3.03,0.17360006195092384,-2.1350475755616407,0.24779597103609605
3.04,-0.014685913214816926,0.2603136395550704,1.5834849548762289
3.05,0.10103728449034764,2.1292729804762383,-0.29060700022556696
3.06,0.38668613539073154,0.14645681073084527,-1.1517517392564818
3.07,0.3221114715345182,-2.3661629477907287,1.0590404843867565
3.08,-0.12016934009317382,-0.3468544823484548,1.0928301721319165
3.09,-0.07175163144474365,2.053580576019076,-1.4229648737953091
3.1,0.24090497208605602,0.23903747106662612,-1.199622133429202
3.11,0.30783411417027273,-1.4132853543747026,1.4414924756726284
3.12,0.11999470567811255,0.9220584459556678,0.9979240368002432
3.13,0.33673500954580593,1.6857046314344646,-1.1570271462274886
3.14,0.674274619522297,-1.2630873952559902,-0.14479643475753293
3.15,0.6273832208097776,-1.9266977895101731,1.582503971435304
3.16,0.46959899925946796,1.3175540197546627,0.0196645931110003
3.17,0.4506002984648865,2.814096642195031,-1.9247669104301448
3.18,0.4042558553771624,-0.282005214221039,-0.13579885186357774
3.19,0.09170395122669207,-1.0318352415317424,1.3280533651863884
3.2,-0.14101333821974305,0.667145466067824,-0.1988670351684438
3.21,0.037873406536481836,0.09015231755004721,-1.1380348078495826
3.22,0.3481290414334216,-2.001792039152785,0.6641208955565119
3.23,0.2847941483117807,-0.34428878230155435,1.303628657872939
3.24,0.372943602852353,1.9877829361591024,-0.45241061430598195
3.25,0.4200807481142919,1.7878058311407905,-1.1294951366030022
3.26,0.26818338013390003,-0.35251319159865663,0.9356356662417321
3.27,-0.15019804485980892,-0.07793323440837334,0.9938730423090435
3.28,-0.25862385975721897,0.2200744541927101,-0.9812178220369548
3.29,-0.13887624281786656,-0.8083694605435358,-0.98398712737138
3.3,-0.07555386134777406,-1.2311288388034405,0.7509191666124626
3.31,0.03362889398488751,0.47831816756517437,0.2899585482688956
3.32,0.3344084675812614,1.7632732956332693,-1.2412022858354805
3.33,0.4514902654284917,0.4770002882920517,-0.12359578545969559
3.34,0.09751314295402602,-0.10333073153531078,1.5315067718158928
3.35,-0.19488664557482027,-0.11959946352706491,0.5774182821186132
3.36,-0.18774479761423754,-0.31202557878221626,-1.1865041188550072
3.37,-0.1991291512408497,-1.3505301386427568,-0.030654347273483602
3.38,-0.45107915716779634,-0.5374819123613078,1.1284873013180312
3.39,-0.3487916656228536,0.5973981862259292,-0.3465088934167851
3.4,-0.1153222702251585,1.1231627233076316,-1.6178132617631755
3.41,-0.11780568383155328,-0.43672470947009207,0.5235838702314296
3.42,-0.3879877291553345,-0.4244407137242306,1.3673630047124186
3.43,-0.3273225548654145,-0.1723026513251726,-0.7729982250187935
3.44,-0.18318305977742644,-0.44632394675798165,-1.2904950535323607
3.45,-0.3730280966714218,-0.8991653331199133,1.0750281925089589
3.46,-0.5553311398597032,0.2589559017688263,0.9442623101901123
3.47,-0.31998838598406915,1.1075744722338499,-1.4059807218095175
3.48,-0.15461190838981903,-0.14321377889880216,-0.6311227199971419
3.49,-0.40348345355788906,-0.5287858843967028,1.3848958284743784
3.5,-0.5504024587781021,0.015635921858058878,0.42942091812008765
3.51,-0.41439916090979323,-0.44194772142832583,-1.194148959182442
3.52,-0.37264742251892696,-1.2527523529769005,-0.04790702400160577
3.53,-0.6113069333362652,-0.39168210482584837,1.0322940092026387
3.54,-0.5178683760328476,-0.08482748863972675,-0.014828981339229488
3.55,-0.20734699814711038,0.01273101120412199,-1.2041109281245965
3.56,-0.15567300771649803,-0.07932343111766922,-0.0753137319566594
3.57,-0.5140761968619644,0.8768791956242684,0.6509765739230486
3.58,-0.5302163991012584,-0.08296796864069396,-0.11820017480590336
3.59,-0.2914339010053109,-1.4981580466899806,-0.6752312770937184
3.6,-0.2613488181600859,-1.0548560570606154,0.37239691336514
3.61,-0.3376110397356848,0.492228899879212,0.7124956253613612
3.62,0.007747897701877957,0.37733090308955064,-0.6509482187587328
3.63,0.42941262975445976,-0.2482357365308711,-1.2616944369442127
3.64,0.3909984579643181,0.12951687013361007,0.347062086701173
3.65,0.1191195510647245,1.2072944543847126,1.0937473889398237
3.66,0.17181966083228548,0.8598742872470098,-0.3725755381015659
3.67,0.4009234566858138,-0.5613239736139778,-0.9060845564229928
3.68,0.3307187516355126,-1.1229733300430147,0.8180794308238726
3.69,0.08811821990228322,0.11854708915568393,1.3675741127491479
3.7,0.2358055342984886,0.9591371308259184,-0.43634328657392946
3.71,0.5252723252582441,0.5563491068001494,-1.063581609880422
3.72,0.6176763479658748,-0.632950298437866,0.772488905963253
3.73,0.47038751683921676,0.2222994333790607,0.47588440247598784
3.74,0.5427782189829715,0.47582998628209305,-1.2883882896029384
3.75,0.549233873045554,-0.292781246716649,-0.6091905528610357
3.76,0.3830581756357326,-0.5082708037700746,1.1878505608044416
3.77,0.28638071609626453,0.7016170351024851,-0.18770885409392155
3.78,0.3544090161906552,0.7652340056275074,-1.6001287124862278
3.79,0.27945564742099777,-0.4514567625865644,0.49270621336046955
3.8,-0.03048055565108058,0.2108772342882108,1.5144136766162268
3.81,-0.029104702468974487,0.6689407485315081,-0.4655348177372594
3.82,0.05558147890612837,0.11369599372192443,-1.0254557252544478
3.83,-0.05649950665054077,-0.8395512747481797,1.32850094702096
3.84,-0.3202645867940737,0.05279605272042565,0.9765494310091827
3.85,-0.2777086363777058,-0.15140294388648942,-1.1723439270750842
3.86,-0.41231376188518687,-0.5014716621625828,-0.5331540722529305
3.87,-0.6250897832833643,-0.4233692663278786,1.4655340027273738
3.88,-0.5305995261027099,0.41399047852463805,-0.2782758313219491
3.89,-0.22582561997711087,0.5047493272488254,-2.280445268160695
3.9,-0.2415262316148892,-0.9526506362503749,-0.042640965479560165
3.91,-0.5982042500325312,-0.3039451738883097,1.1390900003139663
3.92,-0.6290182422264955,-0.3873784618569158,-0.23068531101681822
3.93,-0.5374726126535034,-1.1283667956697154,-0.5454391534903942
3.94,-0.6716329755983509,-0.5512507505231122,0.6527452823631489
3.95,-0.8652651593247489,0.9812975527574344,0.5231607746907875
3.96,-0.6898172670598287,0.1992540654892338,-0.23244601974760656
3.97,-0.36708600966389116,-1.0513931479663718,-0.14500291560125786
3.98,-0.25388929746709255,-0.2076207747779059,0.5444006842477442
3.99,-0.22374296796394247,0.8624529530469327,0.08221078841209269
4.0,0.007162401116991316,-0.5759381732889483,-0.8359306342822599
4.01,0.06568624957756701,-1.164678708115145,-0.2680304441668408
4.02,-0.10532274204717178,0.48839351349767135,0.9904489190737219
4.03,-0.11532461516993135,1.9862571739021033,-0.2296366335940779
4.04,0.12437007309164011,0.5210364870846037,-1.4585744540053
4.05,0.17622270304298635,-1.2477410445498416,0.48670481040783
4.06,-0.033251995081902665,0.28630139148874867,1.384515474007956
4.07,0.11991040569906555,1.8120009453219836,-0.7629423261443461
4.08,0.41682246616279545,-0.591622362380935,-0.8685816111615263
4.09,0.2865749407742625,-2.0697833572771693,1.1541028653623961
4.1,0.03840727162344763,-0.14032646601897905,0.5379919147081783
4.11,0.13656004402023558,1.2187609963817028,-1.5685418747509148
4.12,0.2541165974320155,-1.1000067018597586,-0.4029052069878429
4.13,0.057661105579270906,-1.2838359586903914,1.13483213435433
4.14,-0.11225733677285905,0.8097881416521882,-0.28854671625006206
4.15,-0.12131704572423355,1.0143634200724505,-1.2827694488415524
4.16,-0.17005084085943561,-0.7973378308310208,0.8857020887883219
4.17,-0.40991020878274403,-0.4629970349452784,1.481829925973009
4.18,-0.43834706567240667,0.2120453622286635,-0.48176645740926705
4.19,-0.4767437829950323,0.04812488028669681,-0.6828430646417221
4.2,-0.48966264292287004,-0.6774527000769736,1.2385877480300764
4.21,-0.36786173328537963,0.33838004497007135,-0.06314098065306219
4.22,-0.12278885694968199,0.42030111074865245,-2.001170871065135
4.23,-0.148735019408755,-1.2028241055579447,-0.11963987520679757
4.24,-0.3425724639762396,-1.0467357757587759,1.2705297208861999
4.25,-0.41307398975069987,-0.15581403879969824,-0.33328899624989294
4.26,-0.43532341137247155,-0.7135012837447205,-0.7749360425741597
4.27,-0.6247531172322381,-0.8382149257243802,1.0551661066338816
4.28,-0.8812217593239643,0.39424754094017983,1.3003987709512534
4.29,-0.8327128598114706,-0.1785293032338922,-0.02027057568272493
4.3,-0.7210117539746537,-1.0025187614189166,-0.2650491485700591
4.31,-0.5461128924346589,-0.72270671425404,0.839346197435728
4.32,-0.18589483524138212,0.6766858748948461,-0.04546039018828089
4.33,0.2326955413454829,0.5829015116056966,-1.5267695809089135
4.34,0.3055781180079634,-0.5927454615390627,-0.22328664654588248
4.35,0.09954084798138052,-0.33524934933970596,1.1439674028848263
4.36,0.04157613533194883,0.09770167217089225,-0.3039378377428167
4.37,0.15970327199981763,-1.0794821432853892,-1.1550294450157672
4.38,0.06975040866254775,-1.295854756334392,0.3228182140123012
4.39,-0.08426518568852928,0.8045595444864736,0.5625817326684097
4.4,0.20444302076429266,1.106962276090305,-0.7636487358347845
4.41,0.6150264283793464,-0.6926776940726254,-0.4459491699901038
4.42,0.5130692032138314,-0.384235046916541,1.5498563090534523
4.43,0.25223956915929663,1.2384373319834354,1.6160486085426364
4.44,0.3740242370998869,0.5619667444182759,-0.6242725344771314
4.45,0.5007518629538799,-1.2140132243836854,-0.8660353603417513
4.46,0.2841723741778395,-0.7054636689493957,1.0877160606427108
4.47,0.18112982135870345,1.348285954448313,0.24713560611366278
4.48,0.5832084267209748,0.8347206669955834,-1.8847527577965149
4.49,0.8863450047908403,-1.515167266028617,-0.1843734220788092
4.5,0.7440827124587911,-0.16918876005140504,1.1833223101333405
4.51,0.8587855889196266,2.2444505979563387,-1.1682948627658858
4.52,1.0237064885906795,0.8335804069265152,-1.222419774094405
4.53,0.8387391973621985,-1.3835904377056802,2.132200619291174
4.54,0.4101165319347565,0.5754496944945418,1.4074924140292744
4.55,0.4307504024311747,1.5834023664382728,-1.6662671489980374
4.56,0.386256214346291,-1.2489968368916584,-0.42288606261087164
4.57,0.2216323270384557,-1.1196056093494866,1.2117207157084038
4.58,0.4872939443444342,2.596548898210505,-1.2102756395051897
4.59,1.0595215001399112,1.9688072780947081,-2.0055933394233163
4.6,1.1948531530069109,-1.8631797870554647,1.1080926202511816
4.61,0.7019214674386408,-0.4257969574079375,1.4702355039909027
4.62,0.45090746334859744,1.0212707727358443,-0.7762187296847944
4.63,0.32033327236722586,-0.2890995407713855,-0.596180652463685
4.64,0.300791360625699,-0.9149445531683796,1.1425545579524956
4.65,0.37863576003769167,2.7033184549667397,-0.9212468587387564
4.66,0.6497018858191552,2.021512625496189,-2.4287474758884224
4.67,0.7857619190021012,-1.8043550066390386,0.5504852749217957
4.68,0.5376046204136234,-1.3203065368366327,2.9123770033319016
4.69,0.395750258302201,1.3235789338587565,0.767031451035683
4.7,0.4365731766107103,0.7264168953347254,-1.2671590139070084
4.71,0.2882178497134541,-1.2587091968189725,0.5234270631419259
4.72,0.018999849628872394,0.034322424938089444,1.1501598322410496
4.73,0.06391813993506046,1.661245803569673,-1.4970118972050777
4.74,0.1499912871010614,0.32498896421275963,-1.6583648101837016
4.75,0.10221078253911385,-1.569712823369443,1.7034725229309653
4.76,-0.0844462042478724,-0.5972955196189951,1.4421492719357467
4.77,-0.020009767462843747,-0.31118920750257273,-1.271531538320588
4.78,-0.23050489053849962,-0.32494398058297974,-0.7991315119516271
4.79,-0.3805676445195826,0.898337395023181,1.0783636033492465
4.8,-0.0840434884455825,3.6782338305068616,-1.01529797952625
4.81,0.30132087657047174,1.3200109065893408,-2.02142790116365
4.82,0.25531344083121155,-2.468502329293719,1.1209486048767496
4.83,-0.19465178403790914,-1.6236686885990226,1.7853185182163935
4.84,-0.14130457459691373,-0.3269951096240648,-0.6826318529492267
4.85,0.146938891012296,-0.7157736527469325,-0.6019926000405222
4.86,0.11973793752433132,-1.40068104068443,1.433559871716004
4.87,0.0175172369800903,0.5369085960146383,-0.21177985710240627
4.88,-0.013672544667680316,1.4547130884859014,-1.3512587136470156
4.89,-0.18267062870837739,0.3328920902817189,1.4222248795383654
4.9,-0.25395671241434664,0.15056835405161073,1.6079723612263497
4.91,-0.033059461852767896,0.8279731831127932,-1.8891614270506656
4.92,0.01411118166295443,-0.14430222783451155,-1.262656344470419
4.93,0.01848926882411023,-0.645754153813356,1.9444239472210287
4.94,0.180685320330624,1.845305023836114,0.29475033178981386
4.95,0.5191998014173965,1.7020454407875216,-1.5785134540663444
4.96,0.49075297575024796,-0.9971196121066962,0.9076060616807777
4.97,0.23586564604356788,-0.36709721576297477,1.5039657033180118
4.98,0.27555640397321907,1.3884184682668046,-1.3062016254894506
4.99,0.29716560558671595,-0.3085475059998107,-1.0646050851550757
5.0,0.14987807819349508,-1.7625669494718854,0.8286362533391252
5.01,0.19298308183647248,0.385497784319329,-0.8245712580240113
5.02,0.47911515725947773,2.0510640429732203,-1.9101127059851193
5.03,0.565385827174263,-0.7317891569965737,0.7761830529471982
5.04,0.24070781349458828,-0.4860391118934549,1.1303791130893974
5.05,0.056735130279939476,0.18609471308021355,-0.3646018381434429
5.06,-0.08196759704687262,-0.40213581579274077,0.32967899690604635
5.07,-0.1769248570752498,-0.44298493693847446,1.7226439341801665
5.08,-0.17724238014221083,1.5070883635185979,-0.19762872968711445
5.09,-0.0673115337602638,1.088422039988909,-1.5568919151225065
5.1,-0.1102687086678386,-0.6110095496635984,0.4606149056687833
5.11,-0.14901283802163062,-0.06113903482454424,1.3845833142168897
5.12,0.028457961771070725,1.5128780633545915,-1.2368586845224574
5.13,0.21182762856056783,-0.6344419996651653,-1.5519501256748065
5.14,0.15346090873513152,-2.1792277504153192,0.9689497973814586
5.15,0.022068088579186747,0.309989557319529,0.6705727999870631
5.16,0.15832392189716196,1.9515345461028866,-1.2955856851100147
5.17,0.10899813839354515,0.0674510318410569,-0.272917380769035
5.18,-0.16224905462377628,-0.3390123126912242,1.2533175839569537
5.19,-0.3511328652561228,0.9451966894245432,0.02453743620247634
5.2,-0.24657771311503537,-0.13206675802486326,-0.5947696817381571
5.21,-0.16652677876251296,-1.6311693413046993,0.9848707724460429
5.22,-0.1461300711829019,0.0040439892793535685,0.41084993922611707
5.23,0.09832276695041207,1.1477051819321284,-1.547953684289898
5.24,0.1735498130309835,-0.3454116857002749,-0.5308885347242075
5.25,0.09632309263342707,-0.5821181062446502,0.9154226965837441
5.26,-0.04779987368896023,1.5259588513467355,-0.8751223374260573
5.27,-0.11898217551893325,-0.021645159655413825,-1.540751226080135
5.28,-0.23738009678532948,-2.239275276416304,0.6320712001292977
5.29,-0.4894928259124043,-0.8559150222198648,1.7226657776864582
5.3,-0.4659914980720227,0.5614523917057753,0.4988693194442574
5.31,-0.2878132810511979,-0.40886949428026664,-0.03324822279013341
5.32,-0.29312988853322525,0.49165783295963295,0.9613246408142618
5.33,-0.14012289049971216,3.9603202897493577,0.13703056156895782
5.34,0.2170814900235894,3.943409966349357,-2.18375585155202
5.35,0.4496239770567077,-1.4226347144554068,-0.9103589055887125
5.36,0.3245227672740388,-3.5704231307458363,1.6844671625411785
5.37,0.0339911117849426,-1.7780422996539933,0.9905433590703352
5.38,0.13038261902211237,-1.6369119804307068,-0.7833467319488377
5.39,0.022046220215184036,-1.7838381972404405,-0.0753241278608529
5.4,-0.22916023173893182,0.46720932513517255,1.2653815242062003
5.41,-0.13451788313510996,4.194981269322571,-0.2782012480087201
5.42,0.08166050256916452,4.224719307322086,-1.3737473645822087
5.43,0.009733923176319572,0.1620859549535125,0.7648254225551298
5.44,-0.38986421519620146,-1.2158166119012406,0.7629926039049372
5.45,-0.4559847441030381,-2.0661566730121916,-1.061689900779717
5.46,-0.24251709329115667,-3.2788203917771264,-0.28406840857239574
5.47,-0.07012978968905834,-2.420497746409594,1.510317406063335
5.48,0.28397470372748435,1.1483897735051558,-0.14272309528862173
5.49,0.5086026048119439,3.0400313714435336,-1.7714296908169365
5.5,0.16479598347354793,1.4838894616979859,0.3480436248670642
5.51,-0.22787674401500085,0.8856386117341377,1.2938242481380113
5.52,-0.36462655067153665,1.4589512245734784,-1.2654634160844
5.53,-0.3311615924251667,-1.370271622573419,-1.087034564229535
5.54,-0.528988447418904,-3.331866254599383,1.9213077043978826
5.55,-0.5447955314079203,-0.925327449242206,1.9714006054253697
5.56,0.024763167817342762,2.930518685019825,-1.0577163855728344
5.57,0.38207054905975807,1.297790429169379,-0.9646660682353746
5.58,0.1867622728657221,-1.0343320182589455,1.1252059846728926
5.59,-0.08750926043792273,-0.12405493965052533,0.13412456115239715
5.6,0.034314502031934827,1.471721206492608,-2.446834057667815
5.61,0.24945686605059023,-0.7812817359936935,-1.179641851475654
5.62,-0.041013636374938406,-2.1211001203935176,0.8957371704465436
5.63,-0.4717872602181195,-0.6488180248079533,-0.01501108334566142
5.64,-0.6827332800551869,-0.06349882223764923,-0.6468863731631213
5.65,-0.7365253869075008,-0.4580409598173025,1.0566888945377586
5.66,-0.3626989630666334,1.074730409223989,1.185651458239091
5.67,0.20330250938242067,3.5710040371798195,-1.367085436511617
5.68,0.36706624348251565,0.6392132446230799,-0.9340742628119159
5.69,0.1563493580061665,-1.0692955075075237,1.6036597133114392
5.7,-0.08935361461363772,-0.48201655504815016,1.6842112517740953
5.71,-0.019023775602654187,-0.18204544813821538,-0.9267366963663668
5.72,0.10737658069002609,-1.4209566244204384,-1.360648880080076
5.73,0.010744531287762149,-1.1714869653194973,0.6514207684162899
5.74,-0.0024472232752744357,2.364387059581723,-0.12118181324401893
5.75,0.270299835416968,3.542947900171866,-2.06884162942161
5.76,0.3381700905855983,-0.8991485150031957,0.045450007952446435
5.77,0.007085825222823318,-2.651265543867682,2.185202470713534
5.78,-0.31661658552710187,-0.7893044904313148,0.2549895740070994
5.79,-0.32403746864230176,-0.29164522937230936,-1.2768362882994473
5.8,-0.38087515848757425,-1.7855840449777536,0.5680160854118711
5.81,-0.25905605661759307,0.2889715175693035,0.5979366801505299
5.82,0.22448285301142404,3.971083558777701,-1.929672322096269
5.83,0.5018002249370375,1.601929265067242,-1.1358540374650252
5.84,0.3797537417632112,-1.2270340343889024,1.0919050535080654
5.85,0.09299897349934105,-0.7844533401237548,0.27682449232056616
5.86,0.11495707350477533,-0.4553854811589946,-0.997831452871406
5.87,0.17060029683850336,-1.4746168984209835,0.20785015055718178
5.88,-0.027725024306406706,-0.3926493192221592,1.2078427444290931
5.89,-0.14738970079956848,1.632786620538843,0.2634020113388222
5.9,-0.1321842964823966,1.777161056309709,-0.5399130089365577
5.91,-0.15136370259406434,0.1807498627070416,0.5793779173055836
5.92,-0.2061566691208172,-0.24516150222255031,0.7183455656631456
5.93,-0.12716712447075348,0.2758081319001188,-1.2041005628891188
5.94,0.01803599299210585,-0.526515620786631,-1.277778324197713
5.95,0.07896095234331918,-1.4701840794141214,0.6514085594663139
5.96,0.02357389678849609,-0.17691827132215807,0.8535568835277021
5.97,-0.11003882504460595,1.000613475227977,0.20441979366275906
5.98,-0.383413023303214,0.6640962507601917,0.5931867342767598
5.99,-0.6847624195368807,0.4334555521261189,1.1736104078117326
6.0,-0.7780539000894844,1.0733733164604686,-0.2789550609229437
6.01,-0.6114837947244879,0.29136513724212604,-1.7758642303035779
6.02,-0.4785446300935252,-2.3745975783702464,0.009929353735585105
6.03,-0.45281849039680533,-2.99190172355246,1.39834039252902
6.04,-0.20253603378945995,-1.8777268141380905,-0.3998147334657994
6.05,-0.08763463814426728,-0.2692491465773697,-1.3806583822414702
6.06,-0.25268967938701675,1.408094510092981,0.21031366349083067
6.07,-0.3432984846380328,3.0256651853743772,0.2029079834724172
6.08,-0.7205879667442077,1.809135996053232,-1.132268223765674
6.09,-1.2497747306224523,-1.5404039531073126,0.2750327928184554
6.1,-1.7000252151337099,-3.099065569892567,2.6403572231447767
6.11,-1.7031530469332543,-2.10865680544151,1.140028277643048
6.12,-1.1927898812865316,-0.980517371566226,-1.2016866119820457
6.13,-0.9001884540970404,-0.45181323639333404,0.17142400068001795
6.14,-0.5650785171809899,1.388314796801071,1.2151129465819732
6.15,-0.15736217746475528,3.7243157427025495,-1.430280967864533
6.16,-0.0013973480066762278,1.3171960675011412,-2.109917123821171
6.17,-0.03489776860537194,-3.2101470120035334,0.7816246446418968
6.18,-0.27210400397390677,-3.8684589904410016,1.1938755859506605
6.19,-0.3803158523576939,-1.7591787352738102,-0.920685267599238
6.2,-0.581079739558164,-0.18528766446409276,-0.5993134665384094
6.21,-0.7408472499699573,1.2462563966427933,0.8048919815406912
6.22,-0.532101746122936,2.8960926697044918,0.15967312367240466
6.23,-0.287376720157679,2.1496197827512415,-0.2227651720302054
6.24,-0.2477169826216181,-0.8719015440188245,1.0111704634483292
6.25,-0.3560856744221522,-2.3994013039932094,1.2382521176886552
6.26,-0.2759637698063393,-2.57996196599471,-0.25099548004595235
6.27,-0.12101824290530383,-1.7287604749519283,-1.1599287354177894
6.28,-0.13897879087313975,0.34538050803826054,-0.49430373949649437
6.29,-0.022659693592516843,2.6637418537034128,-0.5934810471441264
6.3,0.24664968564074977,2.0499900844821464,-1.4367167226295772
6.31,0.17909142323230826,-1.3326121593068168,-0.2681468341562871
6.32,-0.3738119972500296,-2.033135027936576,2.034948498890289
6.33,-0.8740066458210121,-0.9571755146432536,2.039584392552795
6.34,-0.8356127856379594,-0.9393348559560215,-0.1315244293576777
6.35,-0.7155830586322051,-0.9750190861993623,-0.3801355213126939
6.36,-0.6977403242931284,0.288091668482207,1.0745921791611464
6.37,-0.39395131763220775,1.9664469000969447,-0.5158052653166332
6.38,0.24541119681741075,0.40328006743182704,-2.467531930670698
6.39,0.5339988978582234,-2.4669373284601583,-0.27217473410977266
6.4,0.34943423794368544,-1.6355224975823097,1.5974962251411298
6.41,0.25862011370952365,0.5771253650012839,-0.44549338240064623
6.42,0.24322178688396306,-0.19066242059909158,-1.306070915505613
6.43,-0.13693951540607135,-1.5908802292529969,1.1030478603359568
6.44,-0.6736688900237109,0.3916908366085969,1.3052114033352036
6.45,-0.7236980546652436,1.5869102894205844,-0.6956165915983006
6.46,-0.5210416383820395,-0.1410643682672694,-0.40057682609271794
6.47,-0.366959459761358,-1.1331810068718275,1.0288431899591508
6.48,-0.13008007108865113,0.2864995633107592,-0.3198259200722686
6.49,0.42218022869656835,-0.21313456361366645,-1.4047137310493136
6.5,0.7251751360342128,-1.640606061125849,0.42609807319525794
6.51,0.5778092650269657,-0.2164838336685155,1.2783602788049564
6.52,0.4608711989679161,1.438959089869139,-0.6118396988673626
6.53,0.29144189011792365,0.6104987121056036,-1.2784616070522397
6.54,-0.09897509842298959,-0.4132214856061001,0.5434644365613699
6.55,-0.39645211270906067,1.052120714930603,0.5831727173927737
6.56,-0.0039571038323223595,1.0491322113279489,-1.0588289984728005
6.57,0.6413106097096661,-1.9810031668583643,-0.5023829985904172
6.58,0.7178200844837794,-2.3244525877798115,1.5642594909498773
6.59,0.5140797452201321,-0.6228101124424237,2.3214815323884137
6.6,0.4935241629123015,0.004221691943444656,0.8504364252470481
6.61,0.38327852961224573,0.1464148274896468,-0.4801001102245233
6.62,-0.0183390037688207,0.9684280313411161,-0.11237300006634363
6.63,-0.2309408646564179,2.4048341314100394,-1.1932696166353074
6.64,0.10861280437641511,1.349196262622503,-2.828245140540169
6.65,0.4669837507799117,-2.1785308923005107,-0.9748824336841179
6.66,0.3264866196393197,-2.4932196723272733,1.3949600865411502
6.67,0.1893950716077605,-1.3498666174410763,0.9383161913106666
6.68,0.20097547745812888,-0.9137805993323871,0.07441857044212845
6.69,0.06511144128570946,0.4732150476085134,1.0985884698431894
6.7,0.0002839634205873656,2.763313028701697,0.4871996270358549
6.71,-0.05849420045716216,2.34794108698986,-1.6141965432842933
6.72,-0.2867848996931535,-0.6352760052255831,-0.3901025359634698
6.73,-0.4178003251127397,-1.1779333801087999,1.513902489281711
6.74,-0.12523236125257808,0.8309711871295615,-0.5497089157000543
6.75,0.46576191390209876,-0.3674621602936879,-1.759537308150354
6.76,0.4834170852697503,-2.8038175017004043,1.2652752104817344
6.77,0.1530470071520353,-0.7863834120115146,2.6124457135691195
6.78,0.3050671466351895,2.7221206601926133,-0.4672136657374432
6.79,0.7045358322443124,1.6036401335253903,-2.0015974116835307
6.8,0.6209932656656112,-2.430881733118097,0.19427394615693572
6.81,0.22166275364279048,-0.685718217190168,-0.6675162177852006
6.82,0.2733206451171986,1.786928606627357,-2.547855633552588
6.83,0.5121944860805013,-0.11112736566750334,-0.22630085958565987
6.84,0.48400879031765615,-2.1638862583042684,2.8307199801923364
6.85,0.2949408819509097,-0.9098676835555833,1.5574184295744604
6.86,0.2285659246269495,0.5285259224340837,-0.4119592267892943
6.87,0.13992436824172708,0.9575966664419301,0.5090602702988719
6.88,0.27454606760285916,1.9370482142480308,0.46568807416373065
6.89,0.46038630970147465,2.881215985744158,-2.4817061452037716
6.9,0.6093052535556268,-0.017297633859062307,-1.9387529402273256
6.91,0.5603362540074536,-2.4241614507907943,2.122317799849868
6.92,0.4506042041867814,-0.6504790588954488,1.9441405066024102
6.93,0.7449963261222309,1.0752269703293713,-1.286610566521277
6.94,0.8027330261499003,-0.2695240621324661,-0.3032384162689107
6.95,0.560275377984183,-0.5377471626960629,1.518803974403703
6.96,0.5224641086461743,1.7998653215641252,-1.4106057620427426
6.97,0.7288251881111755,1.463579126529957,-2.5325410659825813
6.98,0.7527583654634503,-1.302620560559026,1.1727174246775982
6.99,0.6400297920240067,-1.2212327457243204,2.037555090376391
7.0,0.6017395537780026,0.5619443719554432,-0.4332793130602199
7.01,0.33673854548094195,1.2978323606120117,0.29540563622723087
7.02,0.12084299819190107,1.4555314671880732,1.8294479367627852
7.03,0.20386915815565948,2.0996627882923518,-0.811378243750973
7.04,0.2396263852950216,0.5376522884617463,-1.453336266471387
7.05,0.027407683369487745,-1.4109424619364195,1.04249097281646
7.06,-0.0017624707644796154,-1.4045461221891897,0.06311825238722402
7.07,0.2619172357407751,-1.4125668739128252,-1.9000392295712079
7.08,0.2881047265378056,-1.386062725804732,-0.3098002147436317
7.09,0.28314620492491027,0.9558175520523137,0.07266161731561885
7.1,0.2831990504416266,2.6394022198263944,-1.6143245342480126
7.11,-0.04684204528865988,0.5181138308183365,0.13962608697133783
7.12,-0.5203204239743201,-0.8784715059101714,2.373297020996104
7.13,-0.8325092325583417,-0.5353691050304479,0.7732437898929755
7.14,-0.8817833080838714,-0.9819857538642395,-0.3681416534577242
7.15,-0.9401793834868443,-0.7731164062332565,1.1036519312138668
7.16,-0.7150196891295187,1.3272462392815285,0.801974020234597
7.17,-0.22297751598872084,2.028251952502973,-1.2011385458328467
7.18,0.034785605888507876,-0.3814477494433639,-0.4421816775582576
7.19,-0.012809371139580517,-1.7522450827526994,0.8312765315249158
7.2,-0.05917937663463231,-1.443134545921772,-0.8100074888071027
7.21,-0.06748404647669728,-1.31230860076476,-1.5032202896232558
7.22,-0.26198337481937267,-0.6686309162981687,0.47511099143758817
7.23,-0.37657871254420244,1.2104348010239439,0.3557600366369324
7.24,-0.3122496798126744,1.4659287340687008,-0.9248652429776166
7.25,-0.38817293848384005,-0.43261739985139164,0.9843562175511789
7.26,-0.4868744957123879,-0.8815559293571281,1.9624466034906902
7.27,-0.3162704523446961,-0.6303922519907978,-0.30988416747449476
7.28,-0.13222539810229048,-1.2300720357736283,-0.33502625438313094
7.29,0.0272537434844713,0.8767943024177332,0.7666045059277691
7.3,0.4831628414989132,3.8256278249098696,-1.4073344976373119
7.31,0.9481199059314049,0.7051611296053683,-2.315466985779388
7.32,0.9375950772675824,-3.0213093735440952,0.47727072783725766
7.33,0.5781601500949242,0.014320171901797471,0.9340774796806899
7.34,0.5167255310458447,2.5185588239173846,-1.3942800768597874
7.35,0.5677502267827066,-1.4181745922238345,-0.28737128109385773
7.36,0.29183138472632636,-1.878165311917409,2.299828932484279
7.37,0.10095093882565274,3.9885597426489436,0.4532090629233794
7.38,0.44583752544083155,4.358403262775686,-1.5305327130090045
7.39,0.6906996709735196,-1.9491563241345853,0.7176403128563452
7.4,0.6348533332442389,-1.789421287146567,1.2696223729384422
7.41,0.7004899058272194,2.58007462848659,-1.5450506365915937
7.42,1.0732796803009337,0.5539914242728192,-1.4922086241474009
7.43,1.1763966674812287,-3.7256923130214274,1.1891964195033082
7.44,0.8773089179570902,-1.2245816004670529,0.7535535605904212
7.45,0.6892469006464963,2.7595233977111517,-1.174342485796785
7.46,0.521832084759745,1.7215524258661985,-0.15458586795767862
7.47,0.29975363028803337,-0.20855336181817233,1.2443595749214982
7.48,0.062024835337457604,0.9955891428433573,-0.5627244144092062
7.49,0.03574675356160026,1.3396785645351243,-1.3424423670253547
7.5,0.09971846757902886,-0.6654566547638836,1.1918410124230232
7.51,0.2868567735469077,-0.48149608412565287,1.4370536897999548
7.52,0.5471988995717012,1.3676630966943135,-1.1464280896903
7.53,0.5874856040564373,0.2547830485217329,-0.41740590026016844
7.54,0.36940314079505643,-1.2740639000039327,1.608619275475117
7.55,0.1987555076478319,-0.4361679384063553,-0.2507051716529646
7.56,0.09314435645913936,0.33925510915092744,-2.231307635337096
7.57,-0.19722077902132562,-0.5855195345223704,0.2540098549867669
7.58,-0.3898961761182077,0.8831644198503792,1.6526068530787883
7.59,-0.4791995008478286,3.6121739590931217,-0.9913002508217277
7.6,-0.5966977637912178,0.9067915184621814,-0.489721284638749
7.61,-0.8463569348221129,-2.4588850671503666,2.1490629181827816
7.62,-0.9115540939182967,-1.5333183940250936,0.34782350640816895
7.63,-0.6624419347305373,-0.4463973197000041,-2.067738103723874
7.64,-0.6190398863192352,-1.8751277371738684,0.2083482544073752
7.65,-0.47741394317752883,0.6406574997559262,1.1774529340864461
7.66,-0.24727331102768182,4.630389505143707,-1.4844262216130841
7.67,-0.302967177191876,1.3789885356639713,-0.5504127096733332
7.68,-0.782799672178463,-3.041087163067,2.289559312764922
7.69,-1.3249894370406519,-2.3768302455178447,0.4610892584511055
7.7,-1.4522489237678868,-0.8300064307442702,-2.112880163375689
7.71,-1.5245075711100715,-1.8248178790226388,0.1229801459873803
7.72,-1.3191275275822614,-0.8275428396520624,1.5808368925239145
7.73,-0.6863709069788417,2.8070086203933347,-1.3017749655479824
7.74,-0.10809937314043645,1.9452310232630177,-1.2589918905126773
7.75,-0.12615968530319205,-1.3381703136086551,1.7828997889886946
7.76,-0.4466446452068573,-0.9915081832461433,0.5128048708513783
7.77,-0.5409990715604889,-0.9879935902508133,-1.8549583314873648
7.78,-0.7054585759507841,-2.568752498717543,0.2501727401144358
7.79,-0.8649241231618695,-1.9394093238435008,1.8890670350373155
7.8,-0.6732114671322013,0.7693124512979718,-0.6876201364785299
7.81,-0.4723536424014797,1.2564736306212334,-1.1296059870528825
7.82,-0.4804422427784715,0.2975759277970525,1.4350057546129211
7.83,-0.23239094098389212,1.8550750903638478,0.059259768069911865
7.84,0.22334775536927756,1.5955769512818836,-2.0887712813290658
7.85,0.33042339447789204,-1.8147141765698103,0.5198809666521345
7.86,0.13141344320676082,-1.698770618031226,1.9320783374016044
7.87,0.21498171627551,0.46182580543055946,-0.8102306366662414
7.88,0.5454204473800748,-0.6003408215372367,-1.4488425454863345
7.89,0.5266710038105156,-2.3597935230229226,0.9371817266064105
7.9,0.3656610416116722,0.8233093482199159,0.22220427619819427
7.91,0.4663925470763377,3.363482312099481,-1.8598392764263671
7.92,0.5513065713978187,0.8347022818751396,0.030004022111700147
7.93,0.39565060758673953,-0.9909044036135388,2.1483783525882414
7.94,0.24601545892233156,0.7538091098315255,-0.03722401678730394
7.95,0.4597000753571948,0.3933785847350664,-1.0436122977959743
7.96,0.5851046893485875,-1.835002966846778,1.2268472260164651
7.97,0.6398366250002964,-0.6802608492487812,0.9005354390617057
7.98,0.7775858869531851,1.7604052425769383,-1.6606992173932058
7.99,0.7309763646117186,0.8474491941490844,-0.5033242968077234
8.0,0.4259523537965327,-0.8140928630589118,1.7982019210744222
8.01,0.13811580935256498,0.34719860313189854,-0.245931759904469
8.02,-0.003712819610582193,0.41521612283875614,-1.639564396740371
8.03,-0.2334613016085874,-1.3274923793662565,0.5518700465547581
8.04,-0.16129729274272628,0.40373186303775577,0.12157150147550971
8.05,0.24450422002518296,2.698453465733495,-2.259635001191641
8.06,0.5000328983785322,0.2250846230794459,-0.40661100967310293
8.07,0.34620840347753057,-1.4868638463496517,1.9525953571739307
8.08,0.08310365843877829,0.09217903079016435,0.2965410389057765
8.09,-0.014602044288958558,-0.10177131618932883,-0.4753961328277958
8.1,-0.1746387748786328,-1.8645969775358244,1.0393400119342204
8.11,-0.24744497333650547,-0.28027538948530345,-0.06096207783360754
8.12,-0.3368802748069772,2.1100896263698896,-1.7620625050058987
8.13,-0.5195538755111428,0.8629872114249111,0.008541460246083704
8.14,-0.5316351860772456,-0.6041209596328203,1.0091907816390369
8.15,-0.4165543220600855,-0.05838793093947726,-1.1238428354287435
8.16,-0.25960974158557404,-0.9449186551250751,-0.9260122785492325
8.17,-0.2836028173232952,-2.092794189418719,1.4337446964165537
8.18,-0.28920723977586066,-0.6684739391453626,0.6831909733393964
8.19,-0.2954292241795726,1.1774570037015453,-1.1806456471328461
8.2,-0.497266006244018,0.8938222466541247,0.25984054309479415
8.21,-0.6704477864753242,0.00966552039072545,1.5916513962415964
8.22,-0.6775155061546616,0.20482189547737706,-0.49158650372417
8.23,-0.551090965711822,-0.2999434974473878,-1.1744913815843536
8.24,-0.3977578873627851,-1.2527691594596995,0.9194779377598925
8.25,-0.05232483463534474,-0.2516404213755392,0.5299259586948172
8.26,0.27230832562976764,1.0270339177937189,-1.34977587531592
8.27,0.27265338815874196,0.08212686467270087,0.000944443667340253
8.28,0.07238990533040596,-0.3993057742339937,1.2182052463386444
8.29,-0.09836336502575942,0.20591996101241694,-0.5963920560261415
8.3,-0.19942683928402963,-0.3387618154576792,-0.9097333582102306
8.31,-0.3220952601929742,-0.9636475793756627,0.8717570846912601
8.32,-0.2671435602331619,-0.12305336220349489,0.3569873333774796
8.33,-0.05953465215842849,0.6322950779714401,-0.9976894098366397
8.34,0.0174698832394581,0.1921228897873666,0.4052296214353086
8.35,0.021255269840437786,0.19080062053620786,1.1919918852244404
8.36,0.08418621691585174,0.8119893204992114,-0.8035389699413413
8.37,0.11777855800566506,-0.2432164794155064,-0.7907003707121201
8.38,-0.06022031433902452,-1.1944209189500126,1.0525613253001393
8.39,-0.19155240697457257,-0.21983682980570737,0.230908146647429
8.4,-0.12224204457037298,0.2640530640419501,-1.162643651369946
8.41,-0.13575268035035346,-0.5075815688339846,0.30640156963153214
8.42,-0.17616488739977762,-0.44808230984354613,1.3264928229464932
8.43,0.011491352696801679,0.8492273246605474,-0.45450525471618025
8.44,0.29250412573342727,0.2930632232249987,-0.5171973803855218
8.45,0.19868591310021175,-0.7862270379948744,1.2800665974515313
8.46,-0.031263172109427466,-0.45217309367124314,0.6272112458899031
8.47,-0.12635104351209045,-0.3577618285713659,-0.7045767759005127
8.48,-0.26741363703441834,-0.5833312667216097,0.489887633503959
8.49,-0.26405438286273775,-0.09321036513457616,0.9626067664926637
8.5,-0.05796322696826468,1.0071726037288427,-1.170725434975079
8.51,0.027399282512328222,0.7114827440145948,-0.9228812852837548
8.52,-0.0427061102823271,0.02677470799659812,1.0441385109658758
8.53,0.12026674762100877,0.9270158216426959,-0.47247851356216547
8.54,0.39724086498069977,-0.07220776034123316,-1.5874696748149315
8.55,0.23747068864144785,-1.9828512908845244,0.6109306999760316
8.56,-0.09034247826331607,-0.8279077356037452,0.9427632669792743
8.57,-0.11338680832922604,0.517392392641645,-0.91755032029052
8.58,-0.05259690381795062,-0.37361494398097356,-0.2686454287757677
8.59,-0.20737743747480378,-0.5909032744348801,1.4286295516586607
8.6,-0.2874035985614059,0.40331893127047735,0.29956266828233385
8.61,-0.19097625564378867,0.008517070868530164,-1.0195790636881954
8.62,-0.1593969370585187,-0.8450951255776441,0.4884791354451363
8.63,-0.00653990426858589,0.7613668371182842,0.9119531381201663
8.64,0.32249750663960763,2.1379497965052465,-1.3806072300715793
8.65,0.5553944044159281,-0.19887129410024093,-1.0661049870782737
8.66,0.3371769405438536,-1.3655437165003397,1.3995639872368206
8.67,0.02682590945173143,-0.39007826949354785,1.0737013998352973
8.68,-0.01958069934166035,-0.43447365500264995,-0.9124557515382191
8.69,0.023990530018168,-1.3608887546397366,-0.20700630610643814
8.7,0.0991422410059144,0.6323664467742831,0.6490813457779251
8.71,0.19394669515451077,2.96440657426743,-1.0499163795662039
8.72,0.25237637165193527,0.912368514129453,-0.7498924885358239
8.73,0.06201914412145893,-1.439232019641677,1.7138948873620308
8.74,-0.11165356011152117,-1.4397965686055756,1.064935818840263
8.75,-0.0024745850948945424,-0.9829937878816432,-1.2007080022778678
8.76,0.05955020221957065,-1.1439845048192978,-0.06271134298746554
8.77,0.0033600703645851053,0.35331042556047665,0.9770396336373762
8.78,0.019068760880080346,2.3574093155136895,-1.0137899169093305
8.79,0.06370823262526502,0.865553456970132,-0.5747595463678364
8.8,-0.05201148872041055,-1.3035677928634566,1.5594843347940202
8.81,-0.06640975924435925,-1.3650751241806252,0.10586199077269698
8.82,-0.013797976433171674,-0.7743930327057167,-1.5574881583615698
8.83,-0.051562598396442526,-0.18731324862281246,0.3829605946104218
8.84,0.15123124945284536,2.814943439426802,0.5715333577531503
8.85,0.4294420175242158,3.232549206174944,-1.680697148122838
8.86,0.4781016353775795,-1.2343977032502045,-0.26555897148872165
8.87,0.11956351253621189,-2.5919781030639077,2.5503209699297478
8.88,-0.11348456705242752,-0.175031813084853,1.1325299935099424
8.89,0.05942209428319296,0.2224555428146101,-1.4242321582239943
8.9,0.14096722031295927,-1.434979913226713,-0.22542875470025542
8.91,0.15288051666757865,0.9689569278229156,0.3874214129270093
8.92,0.3196934159325662,3.815286653505159,-1.7391545076543793
8.93,0.5734603226924244,0.7524609937557125,-0.8419946640099444
8.94,0.49862492628342076,-2.3034466157579407,1.5534648757287084
8.95,0.29713094392310213,-1.2984083755848668,0.24736929596281756
8.96,0.24297095455207662,-0.3406359356577332,-1.245178075758102
8.97,0.12162205355224558,-0.8274874726519436,0.6879172750494229
8.98,0.07264463622937162,0.9833443043690538,0.959252722383201
8.99,0.2042723960803258,2.592001203554342,-1.5397586977647069
9.0,0.3270343286839926,-0.04449378459916577,-0.4807696507401443
9.01,0.10204935925076912,-1.676721616080787,1.891518998993498
9.02,-0.058432437198930494,-0.910917843755259,0.24862160750822562
9.03,0.02168073281613785,-0.9694725853015898,-1.4568232909684073
9.04,-0.09974872604526537,-1.0437979952581526,0.8060172652389944
9.05,-0.12314295683008904,2.085855604747598,1.1570176552307383
9.06,0.052674569630037756,3.4190503798719196,-1.6893536591542622
9.07,0.1417822763736903,-0.4593825677349107,-0.7615221641937711
9.08,-0.08209313275442946,-1.8280710425721043,1.5734961538202188
9.09,-0.20001086430887915,0.8236373048442526,-0.3133228561432312
9.1,-0.0622849052070181,0.36874035769944014,-1.530463122789942
9.11,-0.04928959866233699,-2.373279511120303,1.1048831971102402
9.12,0.07198012101434184,0.535603689418951,0.660828449217405
9.13,0.282774765950597,2.7899264317109638,-1.972506775529365
9.14,0.2933530231258273,-0.7559453670176728,-0.09670373763107509
9.15,-0.03567296844242469,-1.7728108511361795,1.8995536424020063
9.16,-0.2198254079591302,0.8531774134677432,-0.6726476370523191
9.17,-0.15841881876704944,0.255141160243008,-1.838814789706136
9.18,-0.2596828216010555,-2.1577741352745323,1.2392199385956228
9.19,-0.25539449200354186,1.0737342516869846,1.2762632376370484
9.2,0.015020650813010931,3.4039741640523604,-1.5725864884831688
9.21,0.2784128418077493,-0.7126065236858692,-0.2056827846164184
9.22,0.05672693622979364,-2.6065524106294147,2.0767601817016597
9.23,-0.17156708501396045,-0.6639491727771817,0.1455872859082682
9.24,-0.16120523421753408,-0.030606887727850116,-1.7558033881602924
9.25,-0.19145795190939832,-1.346121839715571,0.48752098149269407
9.26,-0.09529733404844178,0.912007053940316,1.2332225314454237
9.27,0.19559164553842262,3.8378295640018276,-1.4725088044330328
9.28,0.4406784882883466,1.0396070315306891,-0.7788226297873951
9.29,0.16438741983079538,-1.6335547410685967,1.7511342836412604
9.3,-0.1745724185763678,-1.235058327393043,0.4556669103593909
9.31,-0.18656575770419528,-0.9614248720618686,-1.5072329275393401
9.32,-0.1242686382361775,-1.8681202204125509,0.46437553868370685
9.33,0.04096836772624193,-0.016136614560179126,1.1048764481634485
9.34,0.2941646462560168,2.4873271129817383,-1.4286541103911972
9.35,0.3434733313795757,1.0208344009022632,-0.5084291048496867
9.36,0.11692139283443742,-0.48552383033510615,1.9328033070376391
9.37,0.042310410804347685,1.0180936102003482,-0.10648133407205027
9.38,0.1108617107476081,0.5462256651036423,-1.8345259706871193
9.39,0.021500869589690594,-2.012958446547102,0.9805251926565717
9.4,0.007510312669843062,0.2915456393565385,1.3786895555085177
9.41,0.29170357193387836,3.0769444472882763,-1.707694668895861
9.42,0.6072831912541315,-0.1142446079909527,-0.7101029472500974
9.43,0.41839297673182063,-2.406354259526368,1.9596509507228947
9.44,0.18087791494889663,0.0632299732089112,0.15219113763998982
9.45,0.19186190718619905,1.2695050927952485,-2.147762754282238
9.46,0.20329932885407656,-1.373641089932029,0.482871505357424
9.47,0.19241419322723477,0.31273411800484485,1.6789911238041122
9.48,0.30313605037716645,4.5603195946372574,-1.452571825631318
9.49,0.5005789402976153,1.6564513078250758,-0.9137474821713271
9.5,0.2743144520487073,-2.58496669089211,2.2142929692804545
9.51,-0.045271015247394825,-1.6398831611258986,1.0173182418445519
9.52,-0.05156414606573411,0.33143569236012344,-2.102016725397066
9.53,0.10281779554020783,-1.4145979245487805,-0.5364575279999347
9.54,0.17453274026243198,-1.2269513199908544,1.7090186913990817
9.55,0.3819335239641349,3.926968497368615,-0.7487620584348454
9.56,0.5651048403484011,3.7239715077783533,-1.280228341301689
9.57,0.22770251344688167,-0.6030252038652253,1.4711382644116806
9.58,-0.2978110723346639,-2.3520904204193056,0.9638429520948126
9.59,-0.5179508046576664,-1.9358220694178259,-2.102292134248964
9.6,-0.4475728961586276,-2.4097989093110685,-0.9006397433607324
9.61,-0.22079044058906108,-0.6007745962535217,1.4935017373148132
9.62,0.2566287731177736,3.9286790311575763,-0.4563546611243587
9.63,0.4516545342357701,3.6504351275843554,-0.9759111506974282
9.64,0.09631298905249741,-0.0624134857177325,1.9411924973370918
9.65,-0.4515261845707665,-1.092386295752406,1.4036618031902321
9.66,-0.7960740014850874,-1.1705386480861637,-1.7606821968778663
9.67,-0.9562744774923825,-2.8693062615745113,-0.6897651185261348
9.68,-0.9032903731573847,-1.9485660338288586,1.574968422948426
9.69,-0.26323573207105394,4.056633560062557,-0.8335562214224995
9.7,0.34816504970157686,4.088978754628222,-1.9930375050665865
9.71,0.27989253622345106,-0.8683873476069328,0.7784378720979218
9.72,-0.21252603664832714,-2.4016044673937547,1.3871517765205943
9.73,-0.4514561715780332,-0.8610513090756694,-1.4883049147937524
9.74,-0.3805623905999173,-1.8099078029028952,-1.300944825518902
9.75,-0.5783189064611641,-2.745026674665315,1.3627941138936726
9.76,-0.6774526525821231,0.3051408939995758,0.5855814803302376
9.77,-0.6600469955422638,2.7461675416916025,-1.1583739710121623
9.78,-0.7444282215109433,1.1993264136704838,0.5405415043533703
9.79,-0.8447534347159149,-0.5992316652094241,1.376887313507903
9.8,-0.7346306219517025,-0.7782430978868125,-1.1939345760847606
9.81,-0.5434059368649693,-1.4652251204218327,-1.4671098991208376
9.82,-0.5993674780087475,-1.5133530923999736,1.389409052281076
9.83,-0.5101731814982169,-0.08517070069847432,1.4480064967464474
9.84,-0.22144566323377535,0.8965530414318873,-1.1839555433763074
9.85,-0.18567755222736237,-0.18898635183118181,-0.4125453415007776
9.86,-0.5744986470420229,-0.43643497489251054,1.468791337727124
9.87,-0.861418581489981,0.09260927072933257,-0.30743922244230093
9.88,-0.9516663127361498,-0.5576205947996968,-1.7691279035037395
9.89,-1.063115183604009,-1.714737138269239,0.8298426764726669
9.9,-0.9984886980149872,-1.0350584787545263,1.8891434903049347
9.91,-0.5449198502810485,0.5537002915198258,-0.8861704255941549
9.92,-0.2486747030037017,0.05517914875087518,-0.8575804213065515
9.93,-0.3065583770567514,-0.45085284369840095,1.239885032038574
9.94,-0.18205760351938155,1.6591972312524237,-0.6833863177984593
9.95,0.005983088654210346,0.8627101561346904,-2.2532797436990095
9.96,-0.1966417268001035,-1.836002738522353,0.2667638044914585
9.97,-0.6004694528777702,-1.6529655297657497,1.4429301864959705
9.98,-0.6203382251223863,-0.37973469166119733,-0.5646103196996397
9.99,-0.3447555391948933,-1.3510110494522907,-0.4707445256998499
10.0,-0.3479948066101859,-1.190632227926467,1.301570450983357
10.01,-0.33167269240950625,0.3262038132992145,0.729406453655648
10.02,-0.20255264559334418,0.777456162675396,-1.0720240283665587
10.03,-0.14494334425232963,-0.07276498489022687,-0.0662183234703253
10.04,-0.17602647489375506,0.7218633976863174,1.319152027406366
10.05,-0.11784533446701712,1.7833886599182522,-0.6095550554233015
10.06,0.0002509292362758314,-0.3378264222187345,-1.5887407849362056
10.07,-0.05518811347956402,-2.6932480569748027,0.9953911325213108
10.08,-0.17226641330219827,-1.7229329723537818,1.7912653121023927
10.09,-0.0071399511938126,0.14231312811272695,-0.7425902337865861
10.1,0.16534270603235351,0.053310866558061214,-1.0243133786341039
10.11,0.0001326170692950555,0.3220974132108847,1.340098393862043
10.12,-0.021508171519619885,2.2629879721980184,0.2597684660815421
10.13,0.1867357839487783,1.4954096571060582,-1.8409436242710968
10.14,0.3282571978055298,-2.045355087374136,0.32858339442656853
10.15,0.27297118859399444,-1.8451928244753701,1.3807811433338206
10.16,0.3470667417995379,1.1552558053625053,-1.3729478316861883
10.17,0.43530568342749887,0.32560151608982657,-1.1328881901724914
10.18,0.14389221441336617,-1.1388774565146422,1.9039270733661127
10.19,-0.05431309615730032,1.0153215490557301,0.799466199069764
10.2,-0.05697954439160958,1.276116037735716,-1.3475453795669703
10.21,-0.07436265402735437,-1.5590949322027179,0.08395660384859445
10.22,-0.09944634017776176,-1.4481366423116104,0.29592135781987994
10.23,-0.04911697635016484,0.7263598243432734,-1.670130506258072
10.24,0.06649231524484354,-0.08561180097103249,-0.7448632498288297
10.25,0.042704366077853835,-1.1005488890146646,1.3850007892339324
10.26,-0.012033743332173925,-0.19585693838303825,0.557288088896868
10.27,-0.07205954362599387,0.3085715872608144,-0.8919841583701105
10.28,-0.09615616287977234,-0.7998469398553317,0.5555097141027195
10.29,-0.14003074178150723,-0.8430926174723714,1.652516592957956
10.3,-0.06486493979902397,-0.03551023546355446,-0.156133001150022
10.31,-0.028977870642489172,0.2199343124231885,-1.149490321184848
10.32,-0.13871065566542173,-0.308211663111491,0.896793941091053
10.33,-0.23279853060272374,-0.6730457678609765,1.5891625409501788
10.34,-0.13828845554298752,-1.0714311492550075,-0.2813293953870302
10.35,-0.13432681170912722,-0.9363476983814579,-0.6749400234849247
10.36,-0.03251838597486676,0.6978884729062428,0.3200188236930824
10.37,0.339860421886639,3.0293302110213918,-1.1286121036622532
10.38,0.5593983597089712,0.8449344389339937,-1.958566134628598
10.39,0.3562743795681522,-2.696990104972635,0.4844321978926488
10.4,-0.0779990645785318,-2.5552964711548274,1.8721359232748442
10.41,-0.14450928815357267,-1.0232369824938303,0.2640886256473524
10.42,-0.051472875885509924,-0.7519274907845165,-0.4631868365512931
10.43,-0.1477199573801647,0.11147300914107068,0.763929926920713
10.44,-0.029895402665135427,2.5888631065670746,0.30789053379711556
10.45,0.5113564420113246,3.1654394145401,-1.5324916482503677
10.46,1.1038116033655452,-0.15101437927034808,-0.6468475040724772
10.47,1.107825210679511,-1.6359817106929841,1.0354095924747186
10.48,0.8723519297838637,-0.40635162508963324,0.16320439618052282
10.49,0.8057615945091116,-0.08587083028117992,-1.0777517639256675
10.5,0.7939697358071548,-0.9301095896330318,0.08355082443538388
10.51,0.6027491857633728,0.31209556589308607,1.0125828653126232
10.52,0.5094138988240138,1.9459364578510103,-0.1706470287423234
10.53,0.629221825882416,1.116483129256365,-0.6934214389730982
10.54,0.7244820856704357,-0.439511532222314,0.9995623814542656
10.55,0.8172712449117694,0.37208671333645765,0.8509726546023331
10.56,1.0932419187903017,1.2413439396581814,-1.3836849840155814
10.57,1.3101130192658497,-0.3668190925766793,-0.9045622859493768
10.58,1.1047858267604074,-0.9477829460552257,1.172949197260819
10.59,0.8571460511912029,1.0423760805573727,0.35365514443816076
10.6,0.7573325221723639,2.011107042495898,-1.5231347765925627
10.61,0.7620659801583447,-0.381348996152496,-0.49511718770677526
10.62,0.6898390534032706,-0.7249578932970104,0.32098932204616243
10.63,0.6794892478727168,1.5468885914141257,-0.938079628592915
10.64,0.8300336248530784,0.650123594703003,-0.41376831907468553
10.65,0.7722149562948566,-1.2193030794450845,2.018691599684452
10.66,0.5403136738886216,-0.2954512248528809,1.975919291543678
10.67,0.45259448037428396,0.9718808591938465,-0.5788407640885143
10.68,0.43727253066805427,-0.26383091185769664,-1.01665475326967
10.69,0.4121143318885962,-0.6681136919728362,0.30502611090608944
10.7,0.5202843042408101,2.504143824321274,-1.0401813006591845
10.71,0.7415249988507528,2.0483015551155197,-2.4555455717510744
10.72,0.834212111717955,-2.056716228471066,0.44697442540675214
10.73,0.38277942563944034,-2.235228363189369,2.8701422719426417
10.74,0.1671018728950597,0.437462819441682,0.4646347709441171
10.75,0.09239574874246129,0.9094463032245277,-1.2711793637488566
10.76,-0.11218910872621238,-0.24744800484519272,1.0407921895258263
10.77,-0.09364254009555661,1.8635950971432353,0.7978308995088396
10.78,0.16206969197594806,3.381520688724514,-2.3715325057325525
10.79,0.4529262997510719,-0.291726788027217,-1.153969138547208
10.8,0.34063826076342213,-2.760246475255101,1.8513814599867178
10.81,0.2917597354486446,-1.2746193349818118,0.4900729093197034
10.82,0.34920897098667536,-0.09541751327004537,-1.5277790076222075
10.83,0.19948938922604162,-0.14962270776184103,0.19965203044883276
10.84,0.06288988719210839,1.4754757976741175,1.1065667449159016
10.85,0.145711646608888,3.5403038042550463,-1.2576263176342997
10.86,0.299456599427174,1.512580397516264,-1.2110324177403282
10.87,0.26939198289425215,-1.4673684093187567,1.469365190601471
10.88,0.22889716012292927,-0.806881316138319,0.8888028538171409
10.89,0.4448050030106692,0.5325270347027775,-1.4123564318479647
10.9,0.6505214832736849,-0.7410652296759965,0.026284334379285103
10.91,0.4638306775292428,-0.4269371621655434,1.878559186632399
10.92,0.36807473744954905,2.0563696105784057,-0.10085267220843845
10.93,0.45422618427754763,1.7688949063632151,-1.634989495188737
10.94,0.5074786328928695,-1.3185032623337118,0.7068776104992455
10.95,0.420688145430345,-1.440113466429908,1.3017881299370158
10.96,0.5490287414572267,1.1701713780396419,-1.381451534229162
10.97,0.739238170682354,1.0053508276233667,-0.9201295569402891
10.98,0.6677457857162373,0.1309459083958673,1.786872558601647
10.99,0.6857287596182642,2.077036859994639,0.4139669152194142
11.0,0.7668046131060264,2.7288371410446324,-1.93795587520949
11.01,0.76330354920933,-0.343266331926445,0.30919246109178977
11.02,0.553576502566815,-1.1933682312345746,1.8336685746820889
11.03,0.5396544423777051,3.326916658304629,-1.171149843799556
11.04,0.7941799697326655,1.9316682584313574,-1.3592849861527954
11.05,0.6529312674404669,-2.05785601121663,1.2461258591799451
11.06,0.24639892161109542,-2.047078829118626,0.9813336275941782
11.07,-0.003834353449028638,0.3416316814464534,-1.313903969249497
11.08,0.055994620913194126,-0.4187313834238277,-0.0013863952026811745
11.09,0.12237840617432563,-0.035974964033006235,1.1320589621541364
11.1,0.1851624368928612,3.0798289049866407,-1.3920617102035227
11.11,0.04197913547106107,2.747328276460516,-1.485448815111347
11.12,-0.22581148922752295,-0.8026829198331638,2.17685622871992
11.13,-0.4917233286767058,-1.4019973088388429,2.008217928682154
11.14,-0.38553992888830774,-0.4230355387495828,-1.5029611610216014
11.15,-0.33864015923515106,-1.3313246053351149,-0.9746456187412281
11.16,-0.42599363600479145,-1.122993035122377,1.596519774983617
11.17,-0.04544492938631224,4.317281954474776,-0.3754247125802542
11.18,0.30887838872908524,4.483258108322679,-1.9877732136239028
11.19,0.3452948133204165,-0.4111494185744003,0.41238107888366005
11.2,-0.089532155848863,-1.4530525971429467,1.3296356333231993
11.21,-0.41436108742658156,-1.4247109814413719,0.026247557211016827
11.22,-0.4540993628751546,-2.9471969211474125,-0.153505120729441
11.23,-0.5407880194262025,-1.9812040288210762,0.9782507356938548
11.24,-0.611486137784036,2.061813245134814,0.9713225025592972
11.25,-0.6017309549307058,3.6613644262019127,-0.4333590317266951
11.26,-0.7401871939419795,1.7973456300370036,-0.45239836380317505
11.27,-0.8522375977379761,-1.0003115474140107,0.767137787935681
11.28,-0.7466490466923654,-0.3759079338056601,-0.7557981680619387
11.29,-0.4790829001411967,-0.4679571936530002,-2.198590217625831
11.3,-0.4501089213371141,-2.0586466459414026,-0.18957610336933395
11.31,-0.7309604234568534,-1.0692042345584944,1.4267521805694654
11.32,-0.873713214204086,1.787254948438635,-0.04336510253168557
11.33,-0.9384979843379824,0.7484626289258981,-0.46648742715868746
11.34,-1.2686839772214347,-1.5108160470881142,1.3884683052429692
11.35,-1.6532816170498705,-1.4219249098188564,1.51505120698774
11.36,-1.6735342483554863,-1.11971810322057,-0.433520986240649
11.37,-1.7006276564797085,-1.0806456133687004,-0.7718280500095971
11.38,-1.6488127149300202,-0.47690271892773,0.3663925545781273
11.39,-1.3183659030154065,1.4301425066732798,-0.14221889703030305
11.4,-1.134105448765237,1.0147614459902665,-0.9271254404616505
11.41,-1.3175687606475848,-1.359046910087452,0.3624697044255987
11.42,-1.7287276087444805,-2.595707207059237,1.9428214442311902
11.43,-1.8372276920501653,-2.8273554583878417,0.997031459706811
11.44,-1.664594611630938,-1.8892688040436956,-0.7811134929464261
11.45,-1.6218853040158066,-0.2930992942711683,-0.007296996154360211
11.46,-1.4935776859758065,1.8040664515686682,0.07888462515951392
11.47,-1.1079851255307842,1.982816531224764,-1.9214053283225117
11.48,-0.6754047898985251,-1.729689706183655,-0.8261704386441151
11.49,-0.7347513868430882,-3.5190455613649334,1.806859208119295
11.5,-0.6469867071116701,-2.3458679610480746,0.7480557984533942
11.51,-0.4254413639730712,-1.4973359539688071,-0.5657442746903304
11.52,-0.6150549848428036,-0.06970130988715816,1.058326928736192
11.53,-0.6961294339035479,3.4372358111553662,0.7306127152229789
11.54,-0.504962635785119,3.4569452676815606,-1.8059555507798322
11.55,-0.3017873822054276,-0.783993617756993,-0.7685581210893689
11.56,-0.498286771778279,-1.9810875539336208,1.6559347221829102
11.57,-0.6084307780120817,-0.22502093892918662,0.4819003340323348
11.58,-0.2329226595952658,-0.9687676544223652,-1.4494450536011105
11.59,0.010926007457164008,-2.60601408078116,-0.15172194798537067
11.6,-0.15627943552149087,-1.303621997911061,1.6639346117525804
11.61,-0.1435900646760551,1.7809735676619305,0.27426150321276394
11.62,0.19750680941396903,1.6912700516982018,-1.1222215887839955
11.63,0.2932466827674263,-0.6355757665266335,0.02162882801631162
11.64,-0.054284411493055844,-0.5196331940022892,0.5996469906621977
11.65,-0.2736991409686357,0.24505807242552452,-0.3532219832243082
11.66,-0.020227922348065214,-1.0615611549681683,-0.4595100858135584
11.67,0.3813982006196557,-1.8331392953114898,0.4613667878698352
11.68,0.6816239591627237,1.0823585874562425,-0.15444261297652745
11.69,0.9693253030267416,2.339858032260072,-1.1106037615595568
11.7,1.2348952203703785,0.02524504925726238,-0.303092721610075
11.71,1.0248226287202056,-0.7302732235341418,0.9849570059163818
11.72,0.5548843489084003,0.1994181119746594,0.8970598095963012
11.73,0.3193212499319352,0.0029837197831285222,-0.4016844751432292
11.74,0.4818265972993102,-1.842694974281522,0.053699393495056404
11.75,0.36940330337276756,-0.49347897351433184,1.0193284166424577
11.76,0.3402438640114053,2.064875379205523,-0.34900477669799146
11.77,0.42011822047752617,1.9795179453530158,-1.3224486655653511
11.78,0.5629566990027359,-1.0171433712718463,1.2604655771560813
11.79,0.4432528800524718,-1.233729293664923,1.821325166286446
11.8,0.38044173978829404,0.14874657597147564,-0.8999432856174712
11.81,0.22008208131149062,-0.013897735151583065,-1.0344087726258175
11.82,0.063940759212187,-0.9682291075374555,1.3900304137767647
11.83,0.28326441398511576,2.6138137405434407,-0.6811246244568914
11.84,0.5513740034698414,2.322746772729718,-2.6816642811609865
11.85,0.5048867214441243,-1.5435953399959155,0.3823274803832839
11.86,0.026083257945082216,-2.3005800599122828,2.0847433227778223
11.87,-0.12387099019613251,-0.9187415292873365,-0.696335016096793
11.88,-0.03234579440628556,-1.0336354819067082,-1.5373061479153867
11.89,-0.04511886107876459,-1.2681954707983134,1.1462058668573814
11.9,0.07628464412422034,1.9400679446681244,0.7448986706136451
11.91,0.23842801048576065,3.8892646878094324,-1.6710830714660552
11.92,0.3209488235035255,0.8061321776233875,0.25061428365463234
11.93,-0.021207976337943437,-0.9938459765391012,2.152314744200044
11.94,-0.21884295158706532,-0.5879190886903113,-0.3759545211865906
11.95,-0.15034006513623005,-1.2179665612742054,-1.9926218665651125
11.96,-0.06861136759503984,-2.1365821393343443,0.2563681476152534
11.97,0.06850569211938133,0.2579314561186525,0.9135447328668412
11.98,0.3431249323994662,2.9714857505330086,-0.7573921990131603
11.99,0.5494543568606972,1.4631210027760997,-0.3050674979783651
12.0,0.32713337946274196,-0.2781934156963995,1.3386346534127251
12.01,-0.05704016586883303,-0.13194207475243103,0.6515209040115855
12.02,-0.18561509406375928,-0.32517855923423816,-1.2273793068964465
12.03,-0.10009585928461798,-1.7390924949837587,-0.6215486595244281
12.04,-0.11313159008779458,-1.1220205259589893,0.7364402621172299
12.05,0.0285437841363252,1.1339775610515377,-0.1339251934492277
12.06,0.2604260889423208,1.6465243057436805,-1.130339257612745
12.07,0.2746660361707863,0.0997268419559702,0.5919495579596613
12.08,-0.03148209153372955,-0.13884389977425024,1.4299841682101682
12.09,-0.21677085468668325,0.17064373206858036,-0.6827230745867622
12.1,-0.26870638817733206,-0.9247950099299134,-1.362856324811129
12.11,-0.4025015402687403,-1.894346779397682,0.7575766913860895
12.12,-0.3630379925083231,-0.13418103592614794,0.5451177889912894
12.13,-0.0948620605045253,1.9797717817495046,-1.7587780891226084
12.14,0.03469313259024233,0.4484830935777452,-0.46313095072998733
12.15,-0.16137399982042822,-0.6585992292378289,1.5069949857919152
12.16,-0.2744258722199004,0.3346590547544156,-0.25932538644177017
12.17,-0.2459006112812273,-0.3244807470019304,-1.6497481795686217
12.18,-0.29838284765666745,-2.0632623799511642,0.496186378296777
12.19,-0.415541589628424,-1.2035324127489775,1.6782637379142147
12.2,-0.22906127357729664,1.8808770078312265,-0.5509233212486125
12.21,-0.09650665517526169,1.6752408767540647,-1.050692375377198
12.22,-0.21964544912326292,-0.11366884297104778,1.2080047535074527
12.23,-0.3865740943291203,-0.06512827343223843,0.8062503308365704
12.24,-0.3017974284898302,0.09026127673783389,-1.644739312996441
12.25,-0.11764581480733126,-2.005177173184885,-0.9485159534418226
12.26,-0.17641461710889006,-2.2904975082406147,0.8667013509276529
12.27,-0.1731291647857792,-0.04746013471212538,0.34393239697935646
12.28,-0.07002703302310209,1.396226584601201,-0.7896776095758905
12.29,-0.06889371567154857,0.637057441213922,0.15586557040628166
12.3,-0.27945495142952215,0.304722451132804,1.0246930419285527
12.31,-0.3776944220737336,0.23643235788577874,-0.16131864806435348
12.32,-0.1832535975088944,-1.021537656114178,-1.1131084268887093
12.33,0.008765673162858307,-1.9853190562306389,0.022302961507834163
12.34,0.04255196796771231,-0.541225305681736,0.8614273184412256
12.35,0.2012810555455203,1.0398435049781116,-0.12304514275959463
12.36,0.3619852785681405,0.7358337904058512,-0.6096152584105455
12.37,0.2110392387180954,0.08823537947503189,0.7951310104934048
12.38,-0.09630206393131474,0.48816203495343197,0.8863968616436355
12.39,-0.1420720125437405,0.14642057826579985,-1.0483318879504469
12.4,-0.012881280105166445,-1.5144290233336466,-1.023964723941234
12.41,-0.08133797290843982,-1.3937854956194962,0.6870742739490617
12.42,-0.0556766588770406,0.4169592301642689,0.47794407489479546
12.43,0.16057924833805523,1.0912607069075142,-0.8882140904365771
12.44,0.23204232148938259,0.030076467387845512,0.01795420164732214
12.45,-0.06278469291981638,0.12164884975005748,1.3181670661122693
12.46,-0.2645523210276433,0.2821177358544183,0.26647703813355605
12.47,-0.23579006814157888,-0.7604260427298192,-0.8746845120953216
12.48,-0.328361417299266,-1.3301727291660357,0.3050326048714072
12.49,-0.39299257068941224,-0.6334386161196984,0.9709614094555405
12.5,-0.0681235271308773,-0.057399722944811965,-0.8602509068264225
12.51,0.3063689435786441,-0.32414926275994604,-1.3558339332331637
12.52,0.32484981143993114,-0.07919747379648996,0.7246695579651287
12.53,0.1278043813817474,1.409754705117833,0.7357541540073184
12.54,-0.00654198019095286,0.48094878203313346,-0.7885734081449745
12.55,-0.16455252757501654,-1.8947135951116685,0.20013062109326846
12.56,-0.5355575654173875,-1.1349715791983703,1.8835893785180529
12.57,-0.5619596339081622,0.5563983743750424,0.6565953391258703
12.58,-0.23926046337782036,0.10056694521930408,-1.2692037855848775
12.59,0.02342281455763501,-1.014793879472746,0.23656185203991142
12.6,0.07830113943362503,1.2396207373036006,1.0842916036220196
12.61,0.34870486679727614,2.86512451238703,-1.466286838134965
12.62,0.7237509813653198,-0.7659269855003602,-1.1842385010121068
12.63,0.5031883538908783,-2.918566255055213,1.6473113907935615
12.64,0.1417219635229572,-1.7555362414468754,1.3299486755956513
12.65,0.04962834751253196,-0.007365997276902552,-1.2486040862503107
12.66,-0.07196356979867141,0.10348114910080046,-0.24834428580786355
12.67,-0.2229040633756141,1.049415026936237,1.2175095036532158
12.68,-0.056386630794393024,2.6976876405158547,-1.2172436043854498
12.69,0.21287112523665727,0.7935132389022309,-1.797787053028797
12.7,0.3067706466064874,-1.8656003955066536,1.551736071570473
12.71,0.2933360520400167,-1.1229995427578572,1.6771880542603501
12.72,0.5116275522904523,0.18219369504026936,-1.1728038100474205
12.73,0.5471992489355868,-0.6816823140114262,-0.4234300460608409
12.74,0.20398476015592454,-0.13233982933020855,1.6058328872543874
12.75,0.06702536482401239,2.324901272001,-0.21715766838665565
12.76,0.2288616407711329,1.6193601531583133,-1.9990931628792632
12.77,0.30962349390522903,-1.5049829084787745,0.21705347850638743
12.78,0.18644531943724682,-1.7502041760574099,1.1205045767994728
12.79,0.3682283570070723,1.2200857237952536,-1.3486945816299745
12.8,0.7849772383836907,0.4907604122203969,-0.9692578489349108
12.81,0.6888897968608753,-0.5787754964873543,1.581328188877359
12.82,0.4012720451172475,0.33960207172735607,1.2511616096927096
12.83,0.27873938304027057,1.7222804130061564,-1.234303483022696
12.84,0.36302510639664315,-0.3883445915580388,-0.25859686029674156
12.85,0.21136573311333287,-1.2032756211470186,1.158592433479098
12.86,0.2367010479777288,0.6821330592053874,-0.5879340971886037
12.87,0.4508530586225855,1.5823184582635248,-1.9709715413073068
12.88,0.6371636730345961,-0.5907684077358469,0.7631978324851681
12.89,0.4953265475400021,-0.43024460570322187,1.8554892874548
12.9,0.5469383615545889,2.2072928547663553,-1.194919597748865
12.91,0.6854649068613868,0.1985402773402217,-1.2772645322619867
12.92,0.5184685594290431,-1.9328850037513552,0.7844232672370037
12.93,0.236631850529737,0.3458888686322796,-0.18365456006050906
12.94,0.0962499095134797,1.9613878154964868,-1.791761474186742
12.95,0.2543047247588534,-1.0185546673723351,0.5738047511416284
12.96,0.16057462552931537,-1.1902499552347632,1.8951097772979795
12.97,0.23450135330576422,1.5578628158764722,-0.7613605490787222
12.98,0.2046715391946095,0.8320736207294505,-1.1328279328488926
12.99,0.048334831760013276,-1.4230951871645743,1.9188393297337714
13.0,-0.0142526996854226,1.2871171452767645,0.8740953890146624
13.01,0.1565798400227243,1.9598099187513394,-2.410554577760213
13.02,0.271797213089304,-2.1064888446827994,-0.9209454851544742
13.03,-0.07787688220027954,-2.5981141417661924,1.8679892912500882
13.04,-0.195028931065558,2.0667178402517434,0.02814636739289334
13.05,-0.09227195131804551,1.6238392336538965,-1.6332812026814478
13.06,-0.12954568933481644,-1.889284817331688,0.7434981449953918
13.07,-0.509423772212189,-1.0194233477962886,1.315890144633075
13.08,-0.5614592744219562,1.3878552851036556,-1.4336276894301323
13.09,-0.395090075941498,-0.4037506076088304,-1.198608803390848
13.1,-0.3242644832977904,-2.50907255345185,1.2168315582212665
13.11,-0.22786016495684483,-1.0166939120341942,0.6408877553280757
13.12,-0.12975089264771664,1.2584350096775863,-0.8659273499969821
13.13,-0.23636444574589355,1.229746357361099,0.4869003349453012
13.14,-0.41334048641650556,0.7829515546224937,1.0729751145076916
13.15,-0.4227806494562756,0.45993196450414603,-0.883560618251004
13.16,-0.3006734803795345,-0.8659717921999961,-1.2252537910625945
13.17,-0.32808076716320667,-1.4510638503904283,0.3918678454454411
13.18,-0.31257073040540284,-0.812983518780027,0.7285006464598109
13.19,-0.09312092312622679,-0.20526069365059,-0.2744680125071739
13.2,0.004084363296625856,0.5160769439874727,-0.15301986552180621
13.21,-0.20362765638490393,1.6054821261209442,0.8191902629988821
13.22,-0.3123634780029246,1.408745118049058,0.3529915627124131
13.23,-0.01457143563616331,-0.8514374398158417,-0.7487984318329612
13.24,0.25544287327457826,-2.448221620642012,0.24820065087477866
13.25,0.1598604946797297,-1.0363722409263099,1.2500798635608912
13.26,0.36021288594794676,0.5095661611423288,-0.26021477567169204
13.27,0.6157494607532883,0.8242616156945699,-0.6858127204985695
13.28,0.5315091445077327,0.9322467334117923,1.2700109248392888
13.29,0.3990709033079777,2.232792448095672,-0.06527772440360592
13.3,0.5044858172232015,1.3310185642167158,-2.2649015630866494
13.31,0.7403674983864135,-2.333592639191701,0.5418667272243191
13.32,0.6188328125781211,-1.4826582637903356,1.7772676326816237
13.33,0.8319378553744898,2.067725372429559,-1.2180346095882255
13.34,1.0096825139291894,0.7731180658062118,-1.030866037525465
13.35,0.7917590896262706,-0.8186789068937801,1.8839126329269529
13.36,0.5110870429530576,2.282584059426825,0.37717463157800063
13.37,0.4319802084717462,2.6498725311013342,-2.110005477325791
13.38,0.6280212893286525,-2.0448264449175366,0.32192285422201655
13.39,0.44324891575845443,-2.2746192510409804,1.8674913679271135
13.4,0.5428468041094485,1.8355303463214276,-0.8585601674178844
13.41,0.7181279560272515,1.4252140280350127,-1.6114728628475092
13.42,0.7492273814251901,-1.2658381133938243,1.2100223179848368
13.43,0.5811931213107605,0.8991039889794883,0.7402128581829751
13.44,0.5105114753023462,3.085221955598329,-1.882526590386874
13.45,0.5719753339204094,-0.026744111067218013,-0.4771301879906505
13.46,0.42068933859637353,-1.7678441505751037,1.5298247009402424
13.47,0.31984934728204156,0.39645100311974124,0.019318159300633915
13.48,0.37296621577998584,1.2133587258427192,-1.2366727577542902
13.49,0.38890095244607487,-0.055245649483224045,0.5097668081268089
13.5,0.33913799350815865,0.5951745858540133,0.942278460652845
13.51,0.43229579880760843,2.018184370874684,-0.8437287146328396
13.52,0.5899443817636284,0.6199289050774399,-0.7179084543083749
13.53,0.48061713897385727,-0.5649855714569559,0.7736219590552093
13.54,0.09935225544609869,0.7568708832595574,0.49225511934361865
13.55,-0.08643038899731698,0.4944421930459543,-0.4338927099617314
13.56,-0.04503360593541575,-1.4994309050929313,0.3019077224971261
13.57,-0.22883238467037995,-1.3127821271435074,1.0387003330224611
13.58,-0.28929828408583513,-0.8381056421913352,0.5136001624307205
13.59,-0.28630927069015105,0.5739965113290909,-0.509941532132122
13.6,-0.30994765970810745,1.356038988112677,0.7524186920795499
13.61,-0.5160682319371566,2.0463651347753586,0.5951002956776857
13.62,-0.7452100065655011,1.6173481321457825,-1.7347973102522993
13.63,-1.0230883528227956,-0.476827184179281,-0.7723014155940267
13.64,-1.186080230285301,-2.4407381349218795,1.8356348945059446
13.65,-0.7761230236942003,0.2288150927574198,-0.6489300224564817
13.66,-0.16447983815100897,-0.07962981029486275,-1.9325234915607692
13.67,-0.2095745202015965,-1.6598126362149044,1.4093596903120287
13.68,-0.777361013119918,0.3855247285567781,2.0184919581215834
13.69,-1.2102881184436232,1.3833824933879633,-0.707590852325027
13.7,-1.7070500003466964,-0.5565185290192075,-0.8601598909648731
13.71,-1.9147653400822382,-2.8909140131759643,1.538397262695452
13.72,-1.6527325628266591,-0.859203209028809,0.42065317379568573
13.73,-1.0149595882773559,1.2967704752106852,-2.2294408010351625
13.74,-0.5594936212328155,-0.23396954162609132,-0.7078906344081484
13.75,-0.5480260473265198,-1.047084530943968,2.206456902919123
13.76,-0.4898850901158952,0.06869872494775545,0.960138665504416
13.77,-0.35416132217508334,0.34514223409176437,-0.7718604933376658
13.78,-0.5796564929995529,-0.8658707246238825,0.7782297244885013
13.79,-0.997767813209613,-0.3210841168411077,0.3918039513661418
13.8,-1.066344893864742,-0.2304144461477362,-2.2017268525159177
13.81,-0.7720713497214075,-2.423523305851954,-1.086165226693549
13.82,-0.6273469748143867,-2.6528216791484196,2.023068830595456
13.83,-0.18363548508758407,0.8460225417160595,0.5881904472814657
13.84,0.1917491370064497,1.9071453042680977,-1.36670181597827
13.85,0.08604365019648164,0.5656916074281476,1.000238951157471
13.86,-0.36197854164478105,0.9152200963541054,2.12981414063977
13.87,-0.583928826821392,2.0187450285669915,-1.2150796104007986
13.88,-0.4739399586068159,-0.957462234451491,-1.936809457916622
13.89,-0.5218289397369282,-3.185832491617352,1.2726917021900968
13.9,-0.5166815997742721,-1.827898864346738,1.579680595174496
13.91,0.07845449741863816,0.5662876663076075,-1.4469818357642812
13.92,0.5939722352099468,-0.9099037077333437,-0.40135064820370436
13.93,0.5734280844420354,-0.3078054916439834,1.0968876944784012
13.94,0.6150229437122839,2.2463028157716898,-1.2451279653413374
13.95,0.5049088061605916,1.5709684734979803,-2.140869099636301
13.96,0.30364136599427405,-1.4170375499399848,1.3158481837496614
13.97,-0.09316428988333063,-0.46928939992528035,1.6775288127114039
13.98,-0.10769086213201078,1.524481221618544,-1.3432320354854437
13.99,0.07519298556164235,-0.8867282637050706,-0.7157610632378137
14.0,0.09174205101630488,-1.93178260550915,1.6470441511121823
14.01,0.15579312051234506,0.557818787118189,1.0847891529009022
14.02,0.38284395147351463,2.339200396794653,-0.8795022059923041
14.03,0.56772765148437,0.3634468552899098,0.2142618615234258
14.04,0.3794511034486174,-0.4721234604414914,1.583105191881313
14.05,0.3568961048324277,1.0388422594646496,-0.9672716058743759
14.06,0.5440395357671107,0.3117527863181767,-2.7833425779054473
14.07,0.5913798029291436,-2.3556172313254704,-0.10955152071656382
14.08,0.32048072238597425,-1.1154372240798862,0.8443813624785541
14.09,0.23141362311531918,1.9850199894400713,-1.110894212172925
14.1,0.20659747603026146,0.76343324899624,-0.3538691137004521
14.11,-0.05610034506617939,-0.6204435344249151,1.7615128658306143
14.12,-0.3346914479676901,0.2724622226390109,0.9454419898786717
14.13,-0.39459568590292915,0.7597309778171386,-0.9558785673942355
14.14,-0.32254350742343396,-0.7249718940682095,0.15900598475709957
14.15,-0.2765809816945498,-0.7501417510280025,1.01366420415081
14.16,0.0003029290097100007,0.9440765408875779,-1.2520913118519628
14.17,0.19577183943425325,0.5338328927476206,-1.954399819666873
14.18,0.17837047313902313,-1.2745616162543871,0.590447158897699
14.19,-0.04573986049278409,-0.7365960045932424,0.9587663306909989
14.2,-0.17778379778851708,0.3776744008746666,-1.0299057705575603
14.21,-0.4179227110160284,0.08664217410895837,-0.658894518406547
14.22,-0.7860074933695962,-0.40772516468377096,1.5096140233735835
14.23,-0.8251082770944124,-0.6195433689194656,0.9319052873840743
14.24,-0.35413084739014755,1.4839014269633148,-1.813306704041102
14.25,0.2940577262390104,0.07374136784849429,-0.332200029825339
14.26,0.024775896652385828,0.1712883798331335,1.0435705036317007
14.27,-0.4998179241027028,-0.5345399526500958,0.7193311477326222
14.28,-0.9475755327401312,-3.21808227841406,0.682882849793207
14.29,-1.1773264077668482,-3.053791346019494,1.019982386779806
14.3,-0.9209885535911602,0.7135852011090974,0.3831729991655015
14.31,-0.4768998134846392,1.445012156434565,-0.852080225624666
14.32,-0.26246102079010664,1.2546255258729138,-1.482140579525954
14.33,-0.25640079370855157,1.0322451634271084,0.07025985515400653
14.34,-0.1683958258942943,0.8961119675571071,0.6028969670074688
14.35,0.04374628360576937,-0.09532100628178333,-1.3250260867179633
14.36,0.08052974958001892,-2.8126388326167366,-0.6234136024825369
14.37,-0.3584679236005088,-2.401205447445852,1.6742002444642254
14.38,-0.5787944716929706,-0.1966345126921608,1.2957990087691325
14.39,-0.4418152073543229,1.0954813835392083,-0.8303481619272955
14.4,-0.3831967776063155,0.24825819346915864,-0.039490729317967516
14.41,-0.5280609642222412,0.3075281985097783,1.2870300537617374
14.42,-0.41046037359871884,0.24098909889964473,-0.32701739359815507
14.43,-0.08995486579379591,-0.6898350976288401,-1.8384395876775423
14.44,0.1414017979598465,-2.0699910593669397,0.3097237120249815
14.45,0.08338400985659293,-0.53794701664225,1.0855447644815504
14.46,0.192940793331984,0.6899378655368469,-0.7618393263062248
14.47,0.10220393786846575,0.4503979833481294,-0.7719553813198331
14.48,-0.18341088967362215,-0.2605891894140458,1.602910952447303
14.49,-0.43277704215586815,0.7052818603932105,0.8358484176686835
14.5,-0.3795709117750263,0.825638451070401,-1.5714482501730553
14.51,-0.2986850901139717,-1.080048778608084,-0.14271546697617962
14.52,-0.41737294553746707,-1.1352250925391771,1.9000658165863382
14.53,-0.16027529282650566,-0.7480465629929114,0.4111748338360219
14.54,0.2972431094357476,-0.8377269754778871,-1.9124205899042763
14.55,0.45694080902315715,-1.0280697525636795,-0.32277829465555996
14.56,0.24894116850610432,1.2738542787399976,1.0988679977712739
14.57,0.13498423604096108,2.4453920444252084,-0.7125587527414204
14.58,0.015577686292328833,-0.42654959073383253,-1.3798677450007821
14.59,-0.20819892344016536,-2.8228727019207027,0.9592258101539107
14.6,-0.47366816874013734,-0.9440938668097775,1.4495921135385486
14.61,-0.31347745458948173,0.025192726479463523,0.02778887523490218
14.62,-0.31256370762917995,-0.7537413484681846,1.113714512011416
14.63,-0.4681063881633865,0.16194832077441185,3.3029292268285024
14.64,0.011581948747167246,4.4718588665084615,0.48571714425877194
14.65,0.8989599552381615,0.1998556268620516,-3.5362895180512615
14.66,1.1093021003161474,-2.3685260382841755,-2.223154255828598
14.67,0.7859893393193139,-0.11899254272242572,0.10169005145874895
14.68,0.7122828749574919,1.1712129259843038,-0.9097106345598078
14.69,1.000127967751999,-0.9507000359391488,-2.281413417423365
14.7,0.9495770920410622,-3.592687582165993,1.2397818264019655
14.71,-0.001155742985015871,-0.3368016653431521,3.237286687809026
14.72,-0.4984001032671784,1.963843986107482,0.8143914850278781
14.73,-0.6895499165423062,0.9656624306817281,-1.1727159321551452
14.74,-0.8504701741032494,-0.6639671699916417,1.2289413322991862
14.75,-0.6992014507780091,0.6157901517068243,1.6157352786077495
14.76,0.41139382249900136,3.806579521366108,-2.6964885250030086
14.77,1.7380338534842623,-1.2781188026244277,-2.0190725283412467
14.78,1.8868773863234978,-2.349537803438554,1.0639567872800866
14.79,1.4331800559762475,0.09207657279607633,1.5587411927578045
14.8,1.0430519456521037,1.179195624989592,-1.126187065359029
14.81,0.5392996465208134,-0.4302870504916622,-1.124954495880785
14.82,-0.024378541961164762,-1.4402398739452236,0.9487467595503328
14.83,-0.2446341508734427,3.934112155886912,-1.2722448397388355
14.84,-0.13104492078094757,2.2305345334567215,-2.2759879280567707
14.85,0.04577926341517471,-2.1953880287338934,0.4258041396509885
14.86,-0.05068351117409704,-2.3006680719959727,3.2476002884126527
14.87,0.15408544701042323,0.771348212681077,1.9220058496118373
14.88,0.6335497054010631,1.226895308439821,-0.8024123829334688
14.89,0.741493774450521,-1.1901263761653267,-0.1666508219838577
14.9,0.39733064115608174,-0.23268707248382658,0.645601923590294
14.91,0.3356248240996213,3.957501687249334,-2.0883004312510005
14.92,0.717709857108891,1.3196181786956351,-3.1398178505783285
14.93,0.9936267793708328,-3.579038923619279,0.07523980144087376
14.94,0.5425605894489606,-2.2170392738415865,1.9114892103593217
14.95,0.33771195067945586,0.7340894352063765,0.3578184172946889
14.96,0.27481913874768404,0.9255873009414911,-0.6108948750384409
14.97,0.1003391567567974,-0.6538469013645922,1.27985044531215
14.98,-0.12743706148753906,0.7192650135452796,0.9351226206147031
14.99,0.10180272324861937,4.050543227792432,-2.302322749752864
15.0,0.6498058733765654,-0.08885170371440466,-1.130463782351746
15.01,0.6104289573002554,-2.4390323849430806,1.2519517707864574
15.02,0.2950490634709489,-1.4681271412381809,1.0427076808608473
15.03,0.1704564371654215,-0.6869687448479951,-0.644815365626847
15.04,-0.043169345920094644,-0.5408081309351412,0.12324709405221705
15.05,-0.14400187787052074,1.373965773145762,0.9811236265584329
15.06,-0.03042935920910191,4.568760138763232,-1.935017156396294
15.07,0.05640278623035514,1.3032639147141742,-2.6386768924370605
15.08,0.1894032014745481,-3.1878860305244894,0.9974377740496329
15.09,-0.025589597224524186,-1.643789885422418,2.124671020427671
15.1,0.2028613169944439,1.151068908285357,-0.5180605695704646
15.11,0.49217924692119436,-1.0153027444851779,-0.9324687880795324
15.12,0.3097956888708316,-1.7378877309822194,1.381160651430069
15.13,0.060677462547500706,3.105419136790985,0.7362797341655369
15.14,0.20072352979889715,4.384916576471058,-2.116277045709202
15.15,0.6327847620887586,-1.6900245936476228,-0.8067834423399038
15.16,0.3993026678591918,-3.0561781823132104,1.8356892887422236
15.17,0.1253698054103026,0.051174231138376096,0.9707318382677026
15.18,0.28289017576099973,0.905486385319632,-1.4581963298021585
15.19,0.42324094542636087,-1.0718524507820755,-0.2720132966742206
15.2,0.22504218129523001,0.07228610597116868,1.5781779973755576
15.21,0.20128773772360115,5.165808637233768,-1.0131142195318468
15.22,0.3117781323362728,2.407865302414341,-2.186084712246251
15.23,0.5210010999679854,-3.585957813903363,1.0780531015753803
15.24,0.0845273184944873,-3.0933615807751975,2.1480466583061344
15.25,0.030710270223097386,-0.7663899395497487,-0.2748387407234065
15.26,0.04555465963592739,0.07556935851244852,-1.385358688579985
15.27,-0.023008163870796017,-0.2825380244576111,1.1119639185719257
15.28,-0.14894462850711013,3.556108880366301,0.6271289466315314
15.29,-0.1336762156295299,3.9938601063651267,-2.3801056513105636
15.3,0.036100937277827,-1.0056938056174105,-1.0594054693982524
15.31,-0.0921116407511079,-3.7219614955552953,2.2893340213048625
15.32,-0.17589537970045124,-1.2573523516340581,0.7816186023007746
15.33,0.101373905288582,0.12166842802216069,-1.7001605927967989
15.34,0.1929668601702039,-0.5220857809527026,0.12350578528873768
15.35,0.010143205520455306,1.1429875774404687,1.8144830977970783
15.36,-0.057426997508881375,3.2858879849221037,-0.2314112011928544
15.37,-0.008615467036698306,1.7432205932491378,-1.323120980050263
15.38,0.03899976452625491,-1.822504294887897,1.9445137653566973
15.39,-0.16910712943004622,-1.681529223573703,1.9514601680374528
15.4,0.23980167958376467,-0.9201351065935397,-1.714380712639631
15.41,0.4485986760666344,-0.31737960714910163,-1.6797988543672517
15.42,0.3342321764306242,0.443995331836843,1.8980239417326263
15.43,0.5295885464656116,4.78825536148849,-0.36140163718674756
15.44,0.7075604805160696,3.672710812435061,-3.147956664985278
15.45,0.780090221834641,-2.2376566483466123,0.7895888473809146
15.46,0.17223250567838458,-2.4890648466039895,2.435673704170878
15.47,0.02599829145860202,1.1129922992524752,-1.0141999434868554
15.48,0.1586548100225466,-0.3519706377779048,-1.3703863927343005
15.49,-0.014986967254525129,-1.6754697763075463,1.515811885962358
15.5,-0.29389904156044894,0.6844305209429572,1.6950489798434458
15.51,-0.18333746972278833,3.399923523456097,-1.2576836575307262
15.52,0.015233139335343674,1.0313351534948996,-0.8398143920005606
15.53,-0.010372379292246674,-1.53251791480796,1.7724137918954344
15.54,-0.012557872906791844,-0.0312703438708456,0.20609774614490312
15.55,0.2441523593429353,2.318642628541756,-2.7070783250001567
15.56,0.47270673930444645,-1.0360517373257099,-0.0062387581430884
15.57,0.02880675122406647,-1.6753620730108267,2.1868431400785373
15.58,-0.15267317007544182,-1.3790736844501357,0.3251361252835264
15.59,-0.26121937356682645,0.006669686297613032,-1.5857771067105637
15.6,-0.4000592790223673,-0.3247658105675102,1.062498091862126
15.61,-0.5128128624871003,1.0368866773756642,1.5205378551979398
15.62,-0.26373841102315065,2.6124956976837876,-1.7480277281754562
15.63,-0.276421356031109,1.2089141246650115,-1.5494617487457998
15.64,-0.45655489870797084,-1.4291089693045589,2.2338604995582907
15.65,-0.8455349817749875,-1.1524597715418061,1.640577502232698
15.66,-0.8130587146368399,-2.8216590335150085,-0.8314536782586113
15.67,-1.0228892869277002,-2.983186374931672,-0.6570623044176448
15.68,-1.1644495882690677,0.7452695220874092,0.8945180654980582
15.69,-0.7159771441601752,5.993616057698185,-0.5801022559431663
15.7,-0.6747905210060569,2.5469767017469227,-1.8670657928918597
15.71,-0.9617414861368478,-2.409986058449734,0.3346305932266555
15.72,-1.5808834080819636,-3.193454227678121,1.9159637322220193
15.73,-1.567537116928677,-2.9119303417484845,-0.6513200035667879
15.74,-1.1738534313543503,-2.891535461931797,-1.7372101476751343
15.75,-1.1117291073588726,-1.6608591951356866,0.8012774126600022
15.76,-0.9035984153536466,2.3413136116989346,0.659367776645154
15.77,-0.5405492114158554,4.31039820360348,-1.8688078825104437
15.78,-0.5444765123557802,0.4430981840071991,0.10629209436346924
15.79,-1.1245053013266155,-1.9449451046618895,2.6642326937726497
15.8,-1.6663753362748255,-2.593337044506755,1.2472699272600243
15.81,-1.693739472347636,-2.988964055334956,-1.3448375101969352
15.82,-1.601400592281121,-2.4087201819108364,-0.381311774639784
15.83,-1.5060983514646051,-0.07047289363284934,1.2000932754985127
15.84,-0.847722672219265,1.041061595909483,-0.1911612750060158
15.85,-0.12391617493467745,0.5644590118514763,-1.7381833286878572
15.86,-0.06612836005248718,-0.2090867374992231,0.44992336055551907
15.87,-0.46571151519298964,0.6320079378291102,1.230274150847645
15.88,-0.43613785885331857,-1.2675680920304768,-1.0050639568586803
15.89,-0.17707923546194496,-4.015053821719631,-1.309978828745274
15.9,-0.549215725745547,-1.6930446949600322,0.9078737687517479
15.91,-0.6961061048875723,1.9163019324132045,1.1117264436357555
15.92,-0.08372731277684523,2.0458662162797276,-1.1819051684449835
15.93,0.432123979953363,-1.1538032658641997,0.23711819745133286
15.94,0.04559628327452905,0.8720216383555772,1.7011579719483774
15.95,-0.12966190038842482,1.7180970619865579,-0.055923459891263
15.96,-0.030848972324623934,-1.1931192749810806,-1.8077016681092204
15.97,0.19556472089180704,-4.071423103876402,0.7232608853994389
15.98,0.15496422904371296,-0.23442039518500463,1.8103055880725767
15.99,0.6338620258713682,3.487780314804691,-1.5791322538899777
16.0,0.9598688119379452,0.4282343784544144,-2.445568788494276
16.01,0.9101854840666864,-2.210400093852222,1.7414610517117388
16.02,0.44574766505855556,-0.3311598435408468,2.960019032558193
16.03,0.48679857583707636,2.9608845037883254,-1.3736271648671377
16.04,0.6112831779520206,-0.36896292931544084,-2.0317544951635442
16.05,0.28524243556754025,-2.4868647042463317,1.7311103847596312
16.06,-0.14855358015190878,-1.5343967018757867,2.8056495010970486
16.07,0.29441290542126364,2.8206508867096254,-1.8251651016459638
16.08,1.0441720601989828,-0.19091682232621535,-1.7175008609034768
16.09,0.8719676388346944,-1.2575118885738794,0.7722540169950809
16.1,0.6078348765752198,0.6309052568297755,-0.2726988801790253
16.11,0.537423896980612,1.3977118772068107,-2.679574060691034
16.12,0.7649485575737153,-1.697604550777238,-0.2333105084935278
16.13,0.5398238365956775,-1.3142233660476628,1.4900213753214844
16.14,0.6017835982729814,0.06695852495816887,-0.024305272968118023
16.15,0.6997686288710966,1.5101475926481613,-1.347600626806144
16.16,0.7172853160300532,1.656833141007614,0.5540180669623253
16.17,0.7588768890595164,2.6278911089803096,0.8520247115150936
16.18,0.9912394439294616,2.3737923653346065,-0.894442513062327
16.19,0.9265067154690957,0.4028303295927639,-0.8403628643461262
16.2,0.7890176049096861,-1.7110573762663288,0.6923157778920996
16.21,0.8980358396969238,-2.8287024206538227,1.4933778110873017
16.22,1.2853143614310016,2.2653678852010373,-0.14886231062006763
16.23,1.2608188751251126,2.552477154833898,-1.5244193992728035
16.24,0.8969159500063502,0.05827204798957969,-0.7476641730899342
16.25,0.5749060421894291,-1.5809489568759976,0.6284525418465975
16.26,0.43118111715508706,-0.43402556313275076,-0.5326447643700958
16.27,0.791024069557944,-0.13714085317306596,-1.1004612287938846
16.28,1.024642174233943,-1.3087672607336978,1.2677400877074394
16.29,0.8250229367438676,-0.6799767815015526,2.268297157743319
16.3,0.769113745344341,0.20017364010850228,0.5803917463800015
16.31,0.5975005393734618,2.2627059221939065,-0.9628549368577453
16.32,0.4871596725556388,3.0124154403959813,0.8639259007135578
16.33,0.33313029578966685,3.7030882911393452,-0.2530135248899468
16.34,0.20075972742012915,1.6897822426669475,-2.749640494315885
16.35,0.3207250232198005,-2.6783993548233935,-0.045816467125356995
16.36,0.26284571794195044,-3.560404197128461,2.4160576690436546
16.37,0.6619473080343651,0.25244026155489135,-0.9661075331352763
16.38,0.8506460047501604,0.2910119863734535,-1.9512355303491353
16.39,0.44206569018662095,-0.36929229940982594,1.5366524270196251
16.4,0.013547191270054075,2.8451055646606105,0.8777718451914611
16.41,-0.36491713280661353,5.360941527142882,-2.265720876532037
16.42,-0.4911475852548688,-0.14125966015840585,0.4919065191179848
16.43,-0.8242123737838009,-3.442129720765466,2.5228903661762536
16.44,-0.8086227950743219,-2.265724485778285,-0.31826204845297534
16.45,-0.48514445478872337,-0.33209841233832155,-1.6945113270148533
16.46,-0.24283701421914894,-0.4798218825177054,1.1512358328612038
16.47,0.11073246367812307,0.9710922557905538,0.9953826398979339
16.48,0.5173296649930521,3.6258301962510364,-2.0142374588513006
16.49,0.4979801524568186,1.2177459169108162,-0.8206735516808163
16.5,0.08201580395675546,-1.3641363898527323,1.3115632873784446
16.51,-0.31655968159466163,-1.8879329711461366,0.15524498696825803
16.52,-0.3837001868231469,-0.8598919590663144,-1.1956684440303464
16.53,-0.30830721732342553,-0.5094008100925126,0.03286620826286017
16.54,-0.31837601386953107,0.8921987776556976,0.8746108810040596
16.55,-0.20198486459629628,1.3830699412630632,0.6643188541036076
16.56,-0.08098092411702576,1.3504401397980033,-0.13122387476823585
16.57,-0.044135378302493436,0.4448832549187838,0.5428694208961394
16.58,-0.16630177244915056,0.13424587372504024,0.755331485434822
16.59,-0.15190294713043828,0.17479863944479718,-1.2472356920804002
16.6,-0.011609580837885243,-0.8620134435467981,-1.6241734130193968
16.61,-0.1462009291559393,-1.2933090145781208,0.8448101155384413
16.62,-0.24356841456837794,-0.0677755601374869,0.7560911733107615
16.63,-0.010675679448626765,0.34599137341215097,-1.6601243896175641
16.64,0.05251383451258047,-0.47644654371019535,-0.6016651736467191
16.65,-0.11354073889522634,0.3050737937535943,2.0875397808247347
16.66,-0.307253690194413,3.093589968624697,0.14768870463938102
16.67,-0.5738588644640914,0.8968304809612093,-1.3775231329093511
16.68,-0.8503259775322917,-2.711159379460766,1.8370744092930946
16.69,-1.220943449576622,-1.8471629754250796,3.086398188528132
16.7,-0.700092816987815,1.980993556891009,-1.680335230917691
16.71,-0.3142651455331319,-1.0761171455506315,-2.793147578477193
16.72,-0.35933311780389293,-3.1861377073838755,1.4721942827748373
16.73,-0.47635808561956205,0.10932556973028767,1.9906755982846405
16.74,-0.021448846754768103,5.289181091515935,-2.6996765981385304
16.75,0.08371901687706929,-0.10628625392147711,-1.297886786658353
16.76,-0.5228815581628842,-2.4114386617668555,2.2336337767865815
16.77,-1.074180532467296,-1.1912020370672878,0.773458826826475
16.78,-0.9646945430257757,0.3845371898894748,-2.4464173093505357
16.79,-0.5960183431716307,-2.916707046320921,0.24385541273880934
16.8,-0.6633952802771358,-2.101670412879175,1.9184065106873691
16.81,-0.3371636694671804,-0.07008083516244241,-0.03713145879822315
16.82,-0.23334726566095693,1.8010427562400921,-0.9230710560649286
16.83,-0.3166666228750431,0.9014797286556268,1.941177519389298
16.84,-0.4503984914668255,1.1602494123523177,0.695931893031644
16.85,-0.40179698512067913,1.136563729900923,-2.912486262920675
16.86,-0.39049526012288166,-1.593183666644934,-0.5617623621583329
16.87,-0.6201804053933577,-2.258101814687556,2.746229337516278
16.88,-0.3146698335988739,-0.5532266142722672,-0.027294402279134086
16.89,0.21748934313621565,0.3625029901315015,-2.491909076171732
16.9,0.07602484717727599,-1.2563410578311802,1.3897283077876383
16.91,-0.34048717750405383,-0.024564068675308182,2.240812854340591
16.92,-0.21514130408843646,3.5756938274405035,-2.368213933341595
16.93,0.14654223663772273,-0.10357892494642143,-2.096590766124405
16.94,-0.032465875245659484,-2.9294993387743022,2.0817917668899075
16.95,-0.5160640316339388,-0.775779855587936,1.6707975079525483
16.96,-0.3565023131886983,-0.7282319148729062,-1.1134331280076781
16.97,-0.37697504670200943,-1.6803689817701544,0.6601172172268517
16.98,-0.417422465959671,-0.375832416580854,2.859819200853217
16.99,0.18387153953571614,5.35088325657485,-1.6559743708372134
17.0,0.35574389980130033,2.3485524749149445,-3.439008813977819
17.01,0.4465111428658932,-2.7167237141373963,1.4399522233580166
17.02,0.03226385518673721,-1.4158802068290284,2.1397459104673553
17.03,0.3204310527075465,1.5615098128486167,-2.594767721490629
17.04,0.7763537681133887,-2.656415879989838,-1.4323106177186717
17.05,0.5098631134818433,-3.1384862880211335,2.248943633630217
17.06,0.36812156281435154,2.178833990227588,0.21291066174151357
17.07,0.28935076254284753,4.501909791778329,-2.4028240025692846
17.08,0.23437421254206936,-0.06988498725297153,1.4130150223533446
17.09,-0.14666128772999218,-1.310873254490419,2.617410916421283
17.1,-0.12936979536391818,0.8633389730634892,-1.5351840745325456
17.11,0.03613461561532224,-0.4037822424195829,-1.5420776527212623
17.12,0.19515029567079256,-2.4424860590150064,2.054049302243208
17.13,0.6779842180499384,1.0012737674280825,-0.2148567094313676
17.14,1.131651021503717,3.4191788088557664,-3.1185083006266683
17.15,1.145758784688584,-0.5453907035500517,0.5532561948516648
17.16,0.5054738553433312,-0.49022127309649804,1.6815138317097196
17.17,0.0516814067994479,1.2525822143342376,-1.6036986113409093
17.18,-0.18620658565861453,-0.8321403934077388,-1.3357330725572147
17.19,-0.40899693060739417,-3.005768043573931,1.9083757392009615
17.2,-0.44227152430346545,-0.3995284884992074,1.0193224564323575
17.21,-0.10039002732327315,2.7337946263829473,-1.673073995649467
17.22,-0.030410066473644817,0.4978169196464603,0.2069931237186227
17.23,-0.2415580728577434,-0.2931828674090207,1.6861086315345803
17.24,-0.25236277057007567,1.384980123239328,-0.9737393108684799
17.25,-0.12953354338995232,-0.4666542914436765,-1.629068715761891
17.26,-0.268515104369929,-2.6375867283735275,0.45996691251072863
17.27,-0.45923229675962396,-1.4405534307178498,0.6168432698607084
17.28,-0.3648598852254364,0.8593267076166458,-1.0191459987506257
17.29,-0.25493858271661246,0.14978553865559543,-0.4782783053325071
17.3,-0.4943169583554776,-0.17450412172285262,1.3565655006344615
17.31,-0.6329738763891988,0.4343961212098047,0.7574624327120334
17.32,-0.48017171648129975,0.0802259744255213,-1.0843801321036717
17.33,-0.3988499640151723,-1.3534478863296477,0.17646523901223382
17.34,-0.5564726203681618,-0.5285734419333016,1.1876389698471852
17.35,-0.3849401127634602,0.31840414115447696,-0.8246189510542462
17.36,-0.1667202460637702,-0.4542061548188164,-1.6701447857042222
17.37,-0.22709764317315273,-1.3369162568222939,1.0467763586053382
17.38,-0.4064027225863683,0.3953360138186299,1.1209863960698545
17.39,-0.22201790222641823,0.45341614684206233,-1.324813045688117
17.4,-0.20789530062199213,-1.0394515324197906,-0.6226208621130903
17.41,-0.4351344153355936,-0.7518864384627085,1.859649179470038
17.42,-0.2882241504292154,2.5160599807976003,-0.2970316430015342
17.43,0.12167966756771839,0.7110856767886856,-2.045895664112671
17.44,0.20525212291826678,-2.447838197063323,0.6538117782181598
17.45,-0.12807848715641768,-0.6150397541891359,1.8596214578718446
17.46,-0.0287063582844607,2.1666576507118926,-0.6978818393823536
17.47,0.30240171427808293,-0.6450390256518385,-1.2498662719573084
17.48,0.25661175729797475,-2.051278337681079,1.1804928157273493
17.49,-0.07758574094389363,1.0751782101382124,1.2210905366269051
17.5,0.07335384814733151,2.213968855131399,-1.376935996206762
17.51,0.3932859670610603,-0.8758108598086051,-0.5646501371360869
17.52,0.2900081616501626,-1.5072366205416656,1.893690535332603
17.53,0.20794822243349054,1.0045922810040588,0.514488336876114
17.54,0.3958859356418015,1.5878764569927744,-1.8133328137859508
17.55,0.5613728854634796,-1.0740020509347603,0.1830170624085105
17.56,0.3143224781555851,-0.5825144067231032,1.40194860661519
17.57,0.23336385435319432,1.4351316310534648,-0.6794510699337529
17.58,0.34891388919392435,0.654458014511012,-1.263517924960433
17.59,0.3548922324866504,-1.3605373708774375,0.998034507095176
17.6,0.11776097006680451,-0.3539656146474131,1.0637103078175945
17.61,0.18238951980964466,0.7352979700186392,-1.0436190516969428
17.62,0.319525644997409,-0.1625799994881927,-0.27818439957233654
17.63,0.1347498789613557,-0.11077918982122655,1.7077128660525045
17.64,0.1061892368019533,0.7836974181937301,-0.05821170299762356
17.65,0.1577669026781132,0.6149657043739659,-1.9053303415418426
17.66,0.025827090638395177,-0.9543612818673228,1.0625088214175051
17.67,-0.19751905298496983,-0.5407045291999317,1.843820947182613
17.68,0.09477923850887304,1.3343747943946154,-1.7918354096802396
17.69,0.251942105320999,0.21467882384948733,-1.5261087966472158
17.7,-0.043836240656701636,-0.6699494041684333,1.9472924834378162
17.71,-0.21978057259302627,0.3286991312051602,0.7781071772390434
17.72,-0.05479587742668542,1.6353830798940134,-2.400486700791633
17.73,0.040759816071537426,-1.5914997992918143,0.36747711510070774
17.74,-0.36014841837222455,-1.4645603945824717,2.0748826323375087
17.75,-0.3033797986424059,0.050466771663475046,-0.7319213432926809
17.76,-0.17392225458581018,0.8040982844756053,-1.9197300204683356
17.77,-0.250098932736065,-0.9046019117659643,1.6117452814104862
17.78,-0.38405140947780636,-0.3874976926073462,1.5197515934970462
17.79,-0.09890543488447863,2.017170300640645,-2.269066389542064
17.8,0.030858107396566314,0.06513765800245536,-0.944020297213336
17.81,-0.3168127668945216,-0.9768112670107459,2.1236887136633698
17.82,-0.5145971787284246,-0.5859962150388818,0.7152600389328722
17.83,-0.47560141779267223,0.4395736238003634,-2.0181796347959584
17.84,-0.48383831140324557,-0.91913704453262,0.27765928062185313
17.85,-0.6748030184279852,-0.4969020849752537,1.5487187886859028
17.86,-0.383448459427433,-0.10113084574908926,-1.168966157192642
17.87,-0.15178719843807525,0.0331919800590894,-1.9499383704768372
17.88,-0.2344227064907167,-0.3872658988920311,1.2827697108194338
17.89,-0.28743613498057463,0.5268803061280747,0.6856707002819169
17.9,-0.07550740660444545,0.046361133383885395,-2.025546382377438
17.91,-0.12325946237772542,-1.3275789642210374,-0.2337015106581052
17.92,-0.5766246591106693,-0.30108169656704925,2.2048779913289516
17.93,-0.5994725060081635,0.3971101476055101,0.4269478788420552
17.94,-0.3400052615511896,0.12898944246958696,-1.7860595542850157
17.95,-0.28048701572885715,-1.215984873635188,0.6664608397376127
17.96,-0.6088274315345807,0.4606208084129083,1.7733640353033926
17.97,-0.4467078975107233,-0.04392160016838058,-0.4194778518906275
17.98,-0.2595727744827038,-1.2837830276181834,-1.2537667216491561
17.99,-0.276477607824072,-1.2862247988721576,1.5069948377642512
18.0,-0.2616093567625518,1.0434803342213324,0.4163552056974505
18.01,0.07805857851135689,0.5619943634002771,-2.4010647698876575
18.02,0.1427963270681895,-1.234907170427986,-0.3522093774664608
18.03,-0.02099753622022362,-0.3868214489780533,1.9584594618583584
18.04,0.038966067940613545,2.3524664213525535,-1.1155584839911734
18.05,0.09232023270233324,0.02623992592253298,-1.6739840638718304
18.06,-0.07491642521516824,-2.4799199688081512,2.3588754946777506
18.07,-0.468110120819176,-1.012701917472155,2.208756152546558
18.08,-0.23846281450729123,-0.7941488067596748,-1.2073299001552122
18.09,-0.18972474809327897,-0.6290145364881121,-0.8322376164322557
18.1,-0.2577255737731317,0.6119915658742195,1.9322218840064806
18.11,-0.12097017170353797,4.321978230034814,-0.751182255375382
18.12,-0.05820584981217168,1.913824034883635,-2.5670157433513676
18.13,0.06319600691326564,-3.1568726958790267,1.1470855182405948
18.14,-0.2713931726109003,-2.73217735450805,1.9427793105992768
18.15,-0.1344068738306073,-1.6559914211862112,-0.9512210754913203
18.16,-0.12010181504879541,-1.4623374961185425,-0.7806559055842758
18.17,-0.2681931813765642,-0.03295309727809096,1.5900692462734565
18.18,-0.13942133809207818,4.997224043653885,-0.43193696794805114
18.19,-0.09391456459136333,2.993908600703187,-1.904584176053991
18.2,-0.14058486988645424,-2.1976681668379925,0.9510097523405274
18.21,-0.5247357648530508,-2.7551809890282546,1.6606347606452236
18.22,-0.3849476661091623,-1.1943110920660933,-1.1919492887264498
18.23,0.04784016195355713,-1.9890841631454292,-0.8502291773299555
18.24,-0.08947292018664661,-0.7547687735672403,1.4132276431807524
18.25,-0.20444780991302158,1.7263303831468988,0.6033088508013333
18.26,-0.23746595295664888,1.6881336447921618,-1.2489745730251205
18.27,-0.30866655815471356,-1.1401668748998626,0.6932125844054363
18.28,-0.5692575931679988,-1.4404282015117795,1.3962559899199714
18.29,-0.47996120272976434,-0.8730187118148075,-1.3597525887342885
18.3,-0.4242549954234701,-0.8527127689722994,-1.3075167190007855
18.31,-0.6256391971746664,-0.2714232581986252,2.1285766516782267
18.32,-0.43713917426277626,0.643555330159416,0.8599061424791011
18.33,0.032601181984020206,-0.645133045795039,-2.1073575598484475
18.34,0.11964836668096615,-1.7607009931027893,-0.11671572747222461
18.35,0.17711614147969545,0.8137891840426468,0.5824198839814975
18.36,0.30215685629632516,2.343852979422794,-1.7646349580268539
18.37,0.12006626541808209,-0.7067513365519383,-0.6883686428122003
18.38,-0.17990891302529657,-1.874582350824863,2.52981840285191
18.39,-0.20666762112840736,0.34992388782058126,0.9155132383781162
18.4,-0.0018886683313052693,-0.8447846781871224,-0.9145205212356781
18.41,-0.09089720150937552,-2.103207260895936,0.7931575430093992
18.42,0.0201742163637757,0.17669455175488616,1.1179774967545515
18.43,0.7708455019750531,5.21950965808405,-2.188560846114447
18.44,1.3443888220631128,0.9075350252523611,-2.2821428814048823
18.45,1.2884148184424187,-1.8000840163107108,0.03184263247608285
18.46,0.867019776322499,-0.8880911920283153,1.330901869356046
18.47,0.7072916420215661,0.2436859407334334,0.015051616350997873
18.48,0.873328432593641,-1.104416607214552,-0.49985563444179615
18.49,0.8776011704030215,-1.3690269846357614,0.48403696610803376
18.5,0.7723442230001264,1.3026809896820324,0.6614927610399622
18.51,0.9323543892103154,2.768371044673398,-0.4658556592920236
18.52,1.310319543589467,0.7374814846401839,-0.7133608699023113
18.53,1.5327006932846634,-0.9165320279123403,0.17305299064927113
18.54,1.3906128193826077,0.8315099983188367,-0.07424855068274118
18.55,1.1716732613976446,1.5747506680312902,-0.75902130646223
18.56,1.116057899421067,-0.4546461424800124,-0.38022973811458627
18.57,0.9714631365582366,-0.8067619667918811,0.7069205715875543
18.58,0.46748667316708253,1.3332807435080494,1.1780173985672011
18.59,0.25751250797507996,0.7976373296991333,0.40984462504204966
18.6,0.39299520602394256,-1.0670153433686438,-0.32113971673300806
18.61,0.5412261009085129,-0.5282931244957608,0.7812089532189298
18.62,0.730788645388256,3.671497739593449,-1.2418982593232633
18.63,0.874443350855227,1.2641925340886926,-2.068328504369294
18.64,0.7368376561329019,-2.519102346584045,1.6684123583354022
18.65,0.2774792382905659,-1.3038130598070312,2.4336575175013224
18.66,0.3985240353606938,3.3434606399224323,-2.000421051881798
