seconds_elapsed,z,y,x
0.0,1.5076976420789956,-1.973849757450819,-0.007771547316946
0.01,1.9811656731640797,-0.958956797475058,0.1931623251482499
0.02,2.3450222908864076,0.7860969293025399,0.10305922241683936
0.03,0.7093682824762269,0.97552574233324,0.15724149693828524
0.04,-0.5851395261011537,0.42451072343798846,0.19320012076865486
0.05,-0.6234982403115981,0.5646884172588748,0.8855022547556192
0.06,0.03543604908062936,0.4110373678292723,1.4667409275587142
0.07,0.9522669000527252,0.2424921571412259,1.437332500058444
0.08,0.7189320412160405,0.2222593497604595,1.2061523384895636
0.09,0.4116254727193767,-1.0102745895315828,0.5934331237061685
0.1,1.9687915771874098,-1.297871066763592,-0.15442414358760137
0.11,1.2029322384986225,-0.6439860850355399,-0.6745743569518443
0.12,0.025492432928791886,-0.33898657919364755,-0.9842902868109003
0.13,-0.21798816705467364,-0.4118142928351044,-1.035106250077013
0.14,0.2491599224797792,-0.34632555668854936,-1.2984655338369444
0.15,0.4398553685957097,0.03772387525277807,-1.4754357393887216
0.16,0.0710495201763797,-0.06862476940665856,-0.9735881392965064
0.17,-1.29482484672772,-0.057019779788779056,-0.7025129114626025
0.18,-2.564723279968523,-0.0781651493742218,-0.47189738987534885
0.19,-2.5887688369527515,0.06332639347413643,-0.41014521057111325
0.2,-2.815511547229614,-0.4947503565387388,-0.3122211076052788
0.21,-3.0764616951924366,0.24971311796332776,-0.64246179782301
0.22,-3.6488113801385533,0.9951820211269756,-0.8903121562325299
0.23,-3.3980714575268913,0.9908608550436832,-0.6907895587186764
0.24,-3.158534417845796,0.8518740777809212,-0.6119613700041853
0.25,-3.410193630056264,1.5817840613999612,-0.7163901109040912
0.26,-3.625163219823398,2.6749730411437933,-0.5758558198300238
0.27,-3.618303776662981,3.6945956994564244,-0.3445134815348359
0.28,-3.7980459002859206,4.662936970452235,-0.45507737239768775
0.29,-3.9227768383191095,5.173907620498178,-0.5095346009338977
0.3,-3.389286131940655,4.764844017409136,-0.5780864340126585
0.31,-3.0727247578311325,3.8661585879142755,-0.5997897432161131
0.32,-2.9788641783856296,3.059859760841715,-0.6357383436962796
0.33,-2.3781171398274745,2.4290135168514784,-0.5969398593309985
0.34,-1.3762749593564434,1.8467845175765574,-0.4643548615302156
0.35,-0.033941076492894066,1.2663168158462546,-0.3044284378766031
0.36,1.2031039619669666,0.6079611560751684,0.12032858652791305
0.37,1.5774752670533356,-0.40926698427167535,0.7968331332772542
0.38,1.21528411153427,-1.4497471730424099,1.3803263835923112
0.39,1.374356908132445,-1.994922002594877,1.3726013532825954
0.4,1.005371880297633,-2.049355091242101,0.6637627487748308
0.41,0.9583040930393527,-1.802183605706221,0.1357529582729344
0.42,1.3831906634208324,-1.4933738455401935,-0.18023216501147454
0.43,1.6601421079198193,-1.3770745404259113,-0.7330693723046899
0.44,2.1546042253752535,-1.5482418621892946,-1.288349339790699
0.45,1.6775397740622824,-2.221773085548571,-1.3955147690917304
0.46,1.1261535642733482,-2.9327223739822124,-1.0546150219914876
0.47,0.8391960384933312,-3.4946781898952057,-0.3822278034521207
0.48,1.256804581357945,-3.7448917898667555,-0.05251011491027379
0.49,1.1722630168686383,-4.031961838648901,-0.05154264361173098
0.5,-0.08531898828803018,-4.004769210360468,0.10984717877366892
0.51,-0.15245274231232314,-3.1974584031257827,0.524454728447044
0.52,-0.46511341809627227,-1.8936533708563952,0.5890016476602273
0.53,-0.2174433735103787,-0.3753635211910068,0.2371825138959287
0.54,0.3308969767530895,1.0494726422893577,-0.1641039841352219
0.55,0.5975215645167257,2.139328214830989,-0.39520112094469056
0.56,0.37385251950189,2.5984242265334476,-0.5294514993504593
0.57,0.1727112901661824,2.359535044721149,-0.5475389356192465
0.58,-0.046622384870330956,1.6800858639380711,0.0012007630928439791
0.59,-0.24160254274552642,0.8913394027070477,0.7243963810185713
0.6,-0.12455298493305884,0.16058172912522314,1.0336426004600863
0.61,0.501318638571532,-0.30121545555519413,0.4128183455267173
0.62,1.3598696999829696,-0.4494687661711131,-0.7124167621707376
0.63,2.0909164060381187,-0.3068318047841476,-1.187245192671058
0.64,2.3138314358837495,-0.19006973854475723,-1.1283877007397731
0.65,1.9737894171260129,-0.37641489727886973,-0.651886128558119
0.66,1.3592658204407402,-0.9705698805821154,0.17239491114650568
0.67,0.8340132144094035,-1.8410664044190093,0.9273175238917961
0.68,0.39134245425003716,-2.861527055459191,1.0751856058359817
0.69,0.5777343063301354,-3.6341033710144326,0.24697899197799897
0.7,1.5338954193878809,-3.548631466986287,-1.067816644670195
0.71,1.962481540709118,-2.5510716944697545,-1.5481391649085212
0.72,0.855730322893573,-1.240030976602502,-1.3628476399558715
0.73,-0.7921368292844609,-0.0907490744846753,-1.1029974506291933
0.74,-1.9910671784632659,0.7887562566219328,-0.8292191068339281
0.75,-2.3645587931583982,1.5441815502877738,-0.2646372076362975
0.76,-2.326360920072288,1.766761499101408,0.5460713591292322
0.77,-1.9591217704409538,1.2438531111564934,0.6353803130562898
0.78,-1.0056652314463441,0.4188955118481962,0.3108110488735517
0.79,0.11992988687879237,-0.4088472681966115,0.3254306414775728
0.8,1.1927050649575248,-0.9673232941887951,0.27333011320546113
0.81,1.8388587816909103,-1.244729437698314,0.16657644804251176
0.82,2.0331945429777156,-1.3938639261462014,0.32395500640288666
0.83,1.8768175072598363,-1.3688452194070364,0.47694568222012196
0.84,1.185450816803299,-1.1115669376595294,0.5073844240052192
0.85,0.20674074657443503,-0.6611763570650254,0.549737458185595
0.86,-0.6954179974837265,-0.049916463599247625,0.698899265848136
0.87,-1.3838954839692106,0.5984488092183532,0.7378290299581977
0.88,-1.6910578200759094,1.0450125789825868,0.6599617524889755
0.89,-1.532355870618139,1.0903107909373488,0.48094771467537184
0.9,-0.8828042905102512,0.671094439787352,0.47156663911704694
0.91,-0.12667668574386823,0.21694338105688513,0.19808935018125978
0.92,0.8203111280186428,-0.29810542699651604,-0.19267121500066614
0.93,1.7307683454544802,-1.1486464336604505,-0.27948883242656347
0.94,1.8367862588620574,-1.883995562851754,-0.33165775992778856
0.95,1.3767426799143634,-2.15121229340436,-0.12380567122522568
0.96,0.8985108897367131,-1.7997168412851134,0.1362629079318343
0.97,0.5004804639935921,-1.4550176730549182,0.15902899650524172
0.98,0.036985285733076925,-1.7724744413176021,0.12374844240681225
0.99,-0.11881182548338753,-1.6379584439079327,0.20788870254354733
1.0,0.06500099797074775,-1.0679445358275508,0.347378702952472
1.01,-0.12851578162954314,-0.6029073702286505,0.3380132136911782
1.02,-0.9041498913022448,0.027889252939894575,0.14262924896303308
1.03,-0.7375730965740336,0.08671126019611078,0.40119399573880943
1.04,0.6201646394981715,-1.1816329728990245,0.9640559815033194
1.05,1.9675201651273948,-3.0100866739933148,1.0429115958875983
1.06,1.6736612095024668,-4.1379940294602795,0.3172574359433743
1.07,0.4924557381531721,-4.073286669792883,-0.41999159189101937
1.08,-0.6488979243371233,-2.6713740361147225,-0.5407705215665151
1.09,-1.1858701843146502,-1.6497234454873246,-0.6781800012323241
1.1,-1.1364167850277307,-0.22732149385839936,-1.263551013832694
1.11,-1.1364492392420578,0.9365809399405524,-1.677226196967261
1.12,-0.880161033951158,1.1396228219751816,-1.8857892140633186
1.13,-1.1659878313796932,1.054781518427259,-2.2099507982111573
1.14,-2.271670393142922,1.452123920602383,-2.3324946476578283
1.15,-3.5113170862999104,2.827634263290254,-2.0275696739560964
1.16,-4.475004586915749,4.0859097966098945,-1.529698952124787
1.17,-4.579429228474561,4.164241411617029,-0.9093308726762931
1.18,-3.825499099617234,3.529118865786424,-0.3938579878670963
1.19,-3.0416356429917335,2.4975948518224675,-0.18226089773690687
1.2,-2.333045053459471,1.4994822407715094,0.027812853162302198
1.21,-1.814738650626942,0.9920898026260099,0.22027571390441
1.22,-1.6457606291680393,1.33230603718247,0.5409795399753651
1.23,-1.4684399690419003,2.1250767472314864,0.6748083969150156
1.24,-1.3339102728948593,2.414494407987772,0.23429480306683245
1.25,-1.130005822957984,2.140795009076026,-0.11620003842208901
1.26,-0.8479966801364701,1.725642108105779,-0.34415374167779944
1.27,-0.5862487454816812,1.2387458806217104,-0.5328911375206151
1.28,-0.4468763655767629,0.8594282068643158,-0.33321609963542864
1.29,-0.3701970318597643,0.6623622459456866,-0.041572976998213204
1.3,-0.23295452987295998,0.3818976504542479,0.1085851731008029
1.31,0.08555430164684784,-0.21953248634909361,0.32161179091725933
1.32,0.23715959387602453,-1.0105536391391772,0.44813438840566266
1.33,-0.13498132134153715,-1.5733773993521667,0.10277092628826948
1.34,-0.7151757543875219,-1.7425417009199733,-0.37850401829092506
1.35,-0.9138516349416301,-1.5146402746308765,-0.5025171531796834
1.36,-0.8528890112716818,-0.9341971780297681,-0.4425856755207187
1.37,-0.727130597923501,-0.06600735613986909,-0.49895914370486394
1.38,-0.6660546893760192,0.8018883998470253,-0.45842353007419323
1.39,-0.8310673998407393,1.422116185720658,-0.19015987278550728
1.4,-0.9293645146140967,1.857233236460837,-0.07444856265551805
1.41,-0.802582491682354,2.1608668684332923,-0.23140944039281547
1.42,-0.4136405410788949,2.133285328873377,-0.45717151482068435
1.43,-0.8879110146670145,1.708122138495049,-0.5335443964990636
1.44,-1.7035211177870768,1.269356543752179,-0.4358106049006625
1.45,-1.7235484573459896,0.9265502867000098,-0.4166193282600675
1.46,-0.7375314707387854,0.39277836669842126,-0.5861188023931212
1.47,-0.5956468303806779,-0.3054605818858338,-0.45160918303358544
1.48,-0.6071966869267638,-0.6276562125459265,-0.044475019754347075
1.49,0.680679746398143,-0.7057368338574719,0.11062512104254334
1.5,1.642935207361494,-0.9281826151797821,0.09589988938278002
1.51,2.285855187098075,-1.0917749130924868,0.1575453137787384
1.52,2.844859615935622,-1.2210687404375538,0.20531953198805622
1.53,3.221109446949629,-1.4879539964006925,-0.04238473285912788
1.54,3.241898365465305,-1.9648028321000317,-0.5270794457829283
1.55,2.8210493294749326,-2.536317362184435,-1.06127501288566
1.56,2.266356722856557,-3.001464890209344,-1.2645217775917437
1.57,1.6678140260809402,-3.3121435857688084,-0.8952323860922728
1.58,1.0893522933359019,-3.42835513303203,-0.40735534562194237
1.59,0.6381735031245582,-3.29062544674929,0.023011946331626225
1.6,0.16573554091061232,-2.9263933073827175,0.32852532968502474
1.61,-0.385088363292861,-2.450253206772021,0.18597354365568858
1.62,-0.6681079049220302,-1.9162992416310185,-0.12780353974950226
1.63,-0.7698058179333582,-1.3371816865985708,-0.25051176994383934
1.64,-1.0330447676151713,-0.7731513580027429,-0.40980777655281814
1.65,-1.3502424706349745,-0.22974563498425774,-0.6310157761743115
1.66,-1.5447662078840283,0.30494945576924526,-0.527828172905892
1.67,-1.6854714443901735,0.7207635809641594,-0.17762646352146275
1.68,-1.7051693905857555,0.994966452981583,-0.16068136172857778
1.69,-1.3396366875671273,1.20460554394182,-0.5567706164333383
1.7,-0.5409464031760223,1.3256046714737055,-0.9716921560851122
1.71,0.43729507892526753,1.3857167751954433,-1.059535027717758
1.72,1.2734344858340956,1.4407819489837814,-0.5878855733709651
1.73,1.715309103810948,1.5011186292371161,0.10229832148881612
1.74,1.670868598370905,1.549852724411495,0.6679869218071252
1.75,1.2735848464052224,1.4707827295035634,1.2281020683938797
1.76,0.7558788924444935,1.152542995902515,1.3258832481779639
1.77,0.49727340083132915,0.6829661586668592,1.0912984693240961
1.78,0.5154008610853418,0.2545086256653418,1.3060544835892305
1.79,0.6521349425630557,-0.08622873478039882,1.255210389516742
1.8,0.8771932659872289,-0.43790290536073156,0.8043818213703391
1.81,0.9189066769219487,-0.8935401515015913,0.8932368803199464
1.82,0.7793097397037768,-1.4125219989625437,0.8611476535720265
1.83,0.6880150481666842,-1.894387168206256,0.5144147907539548
1.84,0.6406374755502598,-2.2871755811680448,0.3834830510651512
1.85,0.384081687426089,-2.6548035336733546,0.3882523161497419
1.86,0.18273265031028094,-3.0035086749239257,0.18283525158241154
1.87,0.4648519548197644,-3.206391423444889,0.2490182913515771
1.88,0.9742931877194223,-3.2710016208389887,0.3975957531707537
1.89,1.3447977745093342,-3.5209146057594958,0.13989903743192203
1.9,1.6835590156298321,-4.1226273596155645,-0.034557474067618624
1.91,1.8391130385652699,-4.700220165550034,0.044996695483653947
1.92,1.7118757716079696,-4.5889384994338736,-0.20855264731483034
1.93,1.1850992017113782,-3.7984503620790555,-0.4946038670741032
1.94,0.2105075145748527,-2.622361508550355,-0.4720336687743662
1.95,-1.0455834951800613,-1.2690158100346438,-0.43261122006677805
1.96,-2.211079040525854,-0.13173636358810908,-0.225000770899693
1.97,-2.7581842241618246,0.761523400698984,-0.07639679625967857
1.98,-2.6937713448284746,1.5319449199321662,-0.21336633454794682
1.99,-2.4619313441729704,2.216730084771077,-0.20512221723047563
2.0,-2.392069222930561,2.421231175272673,-0.11495827570319209
2.01,-2.2872683592002754,2.028006005294527,-0.21875283979861623
2.02,-2.5569341226611133,2.207014535866165,-0.5142180968245045
2.03,-2.5775672032032073,2.340379841636477,-0.6572846012044256
2.04,-1.9474127117586997,1.8085236837652392,-1.1765161918379106
2.05,-1.5717790932006017,0.8616472269087296,-1.6455966642450697
2.06,0.10349702266704756,-0.7642234297305575,-1.7489762378405536
2.07,2.1424822615723227,-2.410326500334247,-1.7591074256941277
2.08,1.3070206561455795,-3.0024745939514754,-1.4748041080132233
2.09,0.14848966641775369,-2.816336253255643,-0.9703122799604694
2.1,0.5122930509611293,-2.014257876315967,-0.7353122075304256
2.11,0.5347939521143232,-1.0413385179158448,-0.18523975828288639
2.12,0.5908686879634372,-0.02801775087474176,0.23285651594864865
2.13,0.07883753624367743,1.0326540232009347,0.3458870493982529
2.14,-0.8246270037864252,0.846560641578963,0.6544669566449086
2.15,-0.9503377593870518,0.6104865805242101,0.7383826030225911
2.16,-1.4896117977555123,0.5519286224283287,0.7823791388995742
2.17,-1.6166030736707233,0.07725660336842713,0.8508618493125824
2.18,-1.1608011629983663,0.3427041220690684,0.35423012035876145
2.19,-0.9904520506514748,0.48708364614838984,-0.02775510243523935
2.2,-0.6162564311578358,0.49240113993887696,0.06218053614354958
2.21,-0.6035802283744856,0.46968387024388464,0.18749997686185685
2.22,-0.8619540287282559,0.47209625476261374,-0.18979166963810662
2.23,-1.5007136777915606,0.7330456179082616,-0.602096130303342
2.24,-2.4295842040780875,1.3581340271046358,-0.8884397045547067
2.25,-3.2794838665431607,2.0355801130019584,-1.2253168747125824
2.26,-3.6049009775343053,2.2497418776726685,-1.2826080254159828
2.27,-3.2717633999951423,2.3636857414354044,-0.8952524962810571
2.28,-2.7595297467949638,2.561516702040463,-0.5558115342651228
2.29,-2.6080769257360394,2.7345021903657245,-0.2975144894537094
2.3,-2.967596680820124,2.989906142574604,0.06639001164807835
2.31,-3.221818338193194,2.852305227867384,0.021064680924208407
2.32,-3.1083716946006743,2.3783583156072594,-0.15314651899287668
2.33,-2.3668698565754416,1.549319960237738,-0.2383270886868317
2.34,-1.5163976652593356,0.37936761376398465,-0.44354982862274556
2.35,-0.8431783227598161,-0.4783776754025605,-0.47766378047082725
2.36,-0.373412309351669,-0.775039946048184,-0.3580270661299272
2.37,-0.05790378418798552,-0.6698386468148856,-0.22068043461862225
2.38,-0.23129629325361106,-0.6606395378937423,-0.12048748461316261
2.39,-0.15527617276248293,-0.653767913449464,0.040292640110543905
2.4,0.3452691991761754,-0.4768469439711749,0.12799578085705904
2.41,0.04426177034050672,-0.21096174011397342,-0.019482148384860582
2.42,-0.35416352136661494,0.15468950227966322,-0.1271538056207132
2.43,-0.4178920518522694,0.5760502624893807,-0.279784647760587
2.44,0.39523133800852556,1.002701945603867,-0.5566376916742751
2.45,0.2831143973054015,1.044219781644702,-0.5080647245978813
2.46,0.05734486459892975,0.9198922493718407,-0.21296098077577008
2.47,1.1620646824697454,0.7220148551192758,-0.18811489206867432
2.48,0.9204080048783898,0.16576923373710492,-0.04133178370178561
2.49,-0.3879567878067094,-0.4362943749500336,0.5192475546192353
2.5,0.24970217215818907,-0.6106638941425271,0.8706374373780007
2.51,0.08471511443514224,-0.8294555086877003,0.913008976707925
2.52,0.1699789450245513,-0.8667766681779429,0.6494981757117918
2.53,0.3194608100702643,-0.9566144115922504,0.2865810855049698
2.54,0.8268503337389637,-1.0020180112313777,-0.12052809936029708
2.55,1.4691706160560318,-0.9949619423727555,-0.3503931064950009
2.56,1.5931721373499328,-0.986138276602232,-0.4236005093033514
2.57,1.2402694534314727,-1.2297449771340203,-0.3174687763540154
2.58,0.8273860649488844,-1.8993873273516952,-0.14005243827255495
2.59,0.811484252977429,-2.700559003264366,0.4325640877657169
2.6,1.100651965757077,-3.5532739413065504,0.9893805966579775
2.61,1.232664995191393,-4.324167533421777,0.9817942616935462
2.62,1.065217944051105,-4.739998314537384,0.5920421930165287
2.63,0.6739590647654694,-4.417625059765202,-0.010642868033909268
2.64,0.401744917125014,-3.4107445602996296,-0.4308974250703812
2.65,0.3422488843312596,-2.1527612485913115,-0.7008567676089812
2.66,0.2185014521729141,-0.8507929829341374,-1.1756998903216795
2.67,-0.006569633111088268,0.3769196661741529,-1.4016456124906629
2.68,-0.2836961455501298,1.3375112489627912,-1.2812222321865545
2.69,-0.6529373552387304,2.0984175178796143,-0.9850972468860326
2.7,-1.1271341010518194,2.6301008148852842,-0.6177348778032367
2.71,-1.5826325183427616,2.8524423868918096,-0.43161212649175
2.72,-1.681223997139846,2.9219660953268036,-0.3899306956485811
2.73,-1.2353535833537894,2.950132927572711,-0.3921606571411009
2.74,-0.6553191747071356,2.9671680524319677,-0.45495027934353094
2.75,-0.24007508897951962,3.011952633723713,-0.22657014007942305
2.76,-0.20822894664421734,2.881075864589392,0.4063684093394376
2.77,-0.4970783276879535,2.3795263407648464,1.4181965248158874
2.78,-0.40812291294632236,1.713245009925503,1.9509454486646678
2.79,0.1636703494896511,1.0515532377644699,1.9948388881835546
2.8,0.7090021327160037,0.13101735188890207,2.1897943974349268
2.81,1.248008049965484,-1.0296977355213748,2.218533817589215
2.82,1.816728952820641,-2.461028391499828,1.5049965380114678
2.83,2.59212256249348,-3.884741911625896,0.7270696094729641
2.84,3.6110757442080588,-4.902041693355947,0.5426527651273022
2.85,3.935585878366923,-5.228032011329968,0.48471892963210933
2.86,3.03345173581307,-4.812164095229833,0.06032407301305355
2.87,0.867434156345768,-3.9235139562363783,-0.153864939194778
2.88,-0.528729312496646,-3.020481307832571,-0.09404216714978014
2.89,-0.7557280808187657,-2.306093038875699,-0.2084271037073614
2.9,-0.85781114795821,-1.725064664357256,-0.5701041576398145
2.91,-0.948619110957156,-1.4747174980522477,-1.1155074466035513
2.92,-0.9734083097325322,-1.4153274654382526,-1.4289673231016686
2.93,-0.7812973735490523,-1.3351122437321115,-1.0934232580318604
2.94,-1.0237885637563928,-1.239429295939392,-0.6933611069689547
2.95,-1.5826051060983815,-0.7752363597829169,-0.6582381992582127
2.96,-1.4521704456226752,-0.089417554806639,-0.32712600285030535
2.97,-1.1629660925577727,0.5719651781773615,0.18027124189466934
2.98,-1.4293907609036036,1.092427638324784,0.3464500920240779
2.99,-1.7373223468850483,1.5872638206130276,0.5449268021759816
3.0,-1.7654640119802276,2.0329580586926457,0.9012501054120526
3.01,-1.627161474285766,2.2823041441486445,1.0242134566527326
3.02,-1.2816779968148464,2.100143059584449,1.098916792869905
3.03,-0.24818623521963673,1.4994844302346884,1.2049543070837163
3.04,1.3322152403474006,0.992820206516924,1.1146403392580142
3.05,1.9094985526346984,-0.38461313254564705,1.2192622832351667
3.06,1.8251838884609395,-1.0258872507185335,1.0217294122779368
3.07,2.05923183859975,-1.959187132693611,0.8010152671736588
3.08,2.2941765501281646,-3.4850757850907708,0.2842210884620814
3.09,2.1803173635139386,-4.365580063324439,-0.35226796549831724
3.1,0.6252721715727759,-4.783240294147959,-0.8062816469136631
3.11,0.6884442324229672,-4.452065639192089,-1.2749092041183747
3.12,1.1878567269026,-3.2433854369072415,-1.6151557032580839
3.13,1.29110882109674,-2.1853047808068555,-1.4226438697477888
3.14,0.10162490433806518,-0.5645775211968711,-1.1488121680241872
3.15,-1.900740282057692,0.9181658789981559,-0.6800485165401766
3.16,-1.8221404535026726,0.976204805443385,-0.214378415814273
3.17,-1.3672079784970776,0.9602766845108005,-0.05191596406118173
3.18,-1.716764874001079,1.061968513232181,-0.1542779124349448
3.19,-1.92126839239355,1.110830584726118,-0.3836797748303063
3.2,-2.4631231258357653,1.1555793163783667,-0.5295960062081392
3.21,-2.9939993991263707,1.683526496186493,-0.5263776145629541
3.22,-2.873816903677775,2.756794093208079,-0.33321421019594455
3.23,-2.7834976586942566,3.288741018523556,-0.028995744980222594
3.24,-2.7791027139014375,3.34695806194667,0.3321839711656292
3.25,-2.794478713781515,3.665670058852754,0.08425735674346589
3.26,-2.656380259452989,3.919350338088977,-0.35137961868382817
3.27,-2.086363756584056,3.8463125803415386,-0.6451131072204367
3.28,-2.1308492884605426,3.5308666557476798,-1.1387612611709041
3.29,-2.016604310625267,2.8961515476628126,-1.246926810277887
3.3,-1.5154351647501105,2.0765498916910103,-1.0363428695077204
3.31,-1.3340873808227518,1.2809020018834625,-1.0039444439925285
3.32,-1.2133787608234081,1.193647770428401,-0.7545580140123123
3.33,-0.9252691054692616,1.0356910764780327,-0.5343990331385223
3.34,-0.6143922896952908,0.15075002870865606,-0.6435705138747272
3.35,-0.3564958385514132,-0.6543140731525313,-0.5098859957826611
3.36,-0.10330768640470787,-1.16070975688905,-0.3048075823162198
3.37,0.09558188645564343,-1.465399900505755,-0.3304797167846517
3.38,0.11070341484831125,-1.5133615054433638,-0.607358672883791
3.39,-0.03389908533365201,-1.5460197051426563,-0.7618790567088845
3.4,-0.277900840214178,-1.464503028310661,-0.6129832963691586
3.41,-0.5011097757140809,-1.253591044527307,-0.4004944677489928
3.42,-0.6119025376178139,-0.8588537144693938,-0.32460207425264975
3.43,-0.465508483037533,-0.2246234486712606,-0.1515895024434177
3.44,-0.6223395513236363,0.3711883254689631,-0.2237983820478671
3.45,-0.47339776068818074,0.7979020011954746,-0.1986827905119229
3.46,-0.9573726365446995,1.1294920565647513,0.17517581516080455
3.47,-0.22833069761894742,1.5595750623875189,0.3719463226179235
3.48,0.019695884051709175,1.3800370402326136,0.290971909444599
3.49,-1.5275333919364071,1.0622642702567908,0.3699874792896476
3.5,-0.8617315085931117,0.8198511711786594,0.31857790118144136
3.51,0.2807323740982982,0.08207059214338983,0.4258266738746028
3.52,-1.2160628530604314,-0.3889744089657269,1.2868501374262538
3.53,-1.124336431535892,-0.3792829258213789,1.7970628028056541
3.54,-0.04568524370373577,-0.41828234110335183,1.596595329150693
3.55,0.9101558583841355,-0.6791886342273515,1.0474303987539988
3.56,2.0193983741469963,-0.8721200590433957,0.3468358592563593
3.57,2.8621401599926117,-1.4341072905333465,-0.34622325780506413
3.58,3.4768585359704516,-2.4430570145127746,-0.7063559458632178
3.59,3.8888123865730355,-3.706563985915043,-0.9515794739874703
3.6,4.447555943265103,-4.87879828754332,-1.3417388772867096
3.61,1.5007603071007531,-7.270564363434185,-1.1306975497789626
3.62,1.2442411542025924,-7.228877960174469,-0.6596419720953033
3.63,9.346674489600785,-3.970818240209327,-1.1122190165893153
3.64,4.1945341588688425,-4.894845851618796,-0.23558994499641553
3.65,1.9369981251213717,-3.694428265415178,-0.552555737512287
3.66,1.4191042645242953,-2.862090757303418,-1.1060396744210133
3.67,-0.601332047707311,-2.437230586511816,-1.2366651884199404
3.68,-3.7399116532745658,-3.2589123858317546,-1.6717920913401905
3.69,-3.760169607304052,-1.7523884158733982,-1.748320299882112
3.7,-3.576621702004383,0.08472890479381201,-1.3696040976258743
3.71,-2.5788681057475533,1.0166635851100176,0.8044928242729262
3.72,-0.9067548453984916,2.2241124970042643,2.3252252408516774
3.73,-1.200517113037428,3.537617911132931,1.8093958816744118
3.74,-2.1602473361586587,4.308586966134166,0.7427860868748054
3.75,-3.819275646163032,5.202394420993876,-0.264802762957097
3.76,-5.90902618582212,5.744356164153542,-1.0802191042095082
3.77,-6.163888548052847,3.937695089962123,-1.5504067081829276
3.78,-4.2212004714125335,0.7291044606544856,-2.4278548661507844
3.79,0.09083825993699045,-0.10764987065005074,-1.8268376225711964
3.8,2.704631733586294,1.1508189838487182,-0.7195844099088682
3.81,3.5665564970134027,2.5425383360339104,0.42892972089729026
3.82,4.937206591508695,2.4720696986683652,1.032931731045365
3.83,6.176724355521652,1.5678892778819913,0.7947991542557988
3.84,5.698166395058101,0.7767511115564011,0.8220364167223659
3.85,3.659673445144963,-0.4653547576492536,1.843610769601097
3.86,2.532830303971409,-1.2974873584038527,2.3926403502724702
3.87,2.9914291894389584,-1.0504826254147097,1.7656884999520797
3.88,3.075794843510693,-0.8159373778844108,1.0839445342581229
3.89,2.641441205634845,-1.2750953695396179,0.5653721358958664
3.9,2.850317393583247,-0.9644246240887966,0.7248859518382494
3.91,3.8821307501637605,-0.15035835495121463,1.4148770086862164
3.92,4.009012213343399,0.6455446998303813,0.9496821781840681
3.93,1.5838694957785409,1.11150717974299,0.36156831257546174
3.94,-2.011153340200183,0.2924197430195969,0.06716044600810338
3.95,-4.150534413911443,-1.4447691350388745,-0.7439161302959437
3.96,-4.273313709064981,-2.5214543791931496,-1.3467288305163083
3.97,-3.4906626709861897,-3.611339628826927,-1.2404605823516286
3.98,-3.443921703557764,-4.6036621244774,-0.2844136771827285
3.99,-3.0993083047442496,-4.79103190526566,1.4369597349937886
4.0,-0.6122623784461699,-4.359723499505866,3.1458265692053677
4.01,2.9183387565837795,-2.905253482177585,4.105096499958612
4.02,3.3397357413395956,-2.093350121318628,3.39621046560181
4.03,1.9372009390792184,-2.728320424085309,1.559948845525568
4.04,1.0246321289922293,-3.2993667394470294,0.2658733482560662
4.05,0.8528217819949817,-2.589780556208771,-0.9559121168269177
4.06,0.9052621920946453,-1.1392301882599294,-2.1929017452435136
4.07,0.5534691902551645,0.19058551588110723,-3.1907329198159675
4.08,0.7052742990407894,1.4184035545750795,-3.5938870152158957
4.09,0.651473163106444,2.5659306248380744,-3.3060160623566315
4.1,-0.662189158619658,3.3739847872802886,-3.091026343423488
4.11,-1.9346606152529995,4.045385163597346,-3.0240836897096783
4.12,-2.7375911848237595,4.688230697522418,-2.8548091070648223
4.13,-3.9954887746970664,4.945842693483145,-3.2075750062586224
4.14,-5.905134228127298,4.269676913107354,-4.032577741687696
4.15,-7.023032959277537,2.4965274720388235,-4.077495775671562
4.16,-7.36267939488893,0.35315040404179526,-3.1773411376405156
4.17,-7.785212319359346,-0.546833238907734,-2.113773486498207
4.18,-7.0467462036257915,0.10264765417228551,-0.6529120364033696
4.19,-4.053033561812461,1.0369140255899238,1.4971626765636035
4.2,-0.5459518458905686,0.48635058835605216,2.8018703672930916
4.21,2.2812493499011053,-1.421510418720403,3.0275638349555467
4.22,10.344863282819041,-5.640619185459742,4.549228172912543
4.23,18.971438972606656,-11.11998166993504,6.367377171108897
4.24,14.438200312166613,-11.119463196833026,2.8818118667299566
4.25,6.595953475514457,-6.821957733138789,-0.5420315388720061
4.26,2.068394513332762,-2.7151605035429083,-1.3107610916038805
4.27,-1.092996224430876,-0.33895086574615624,-1.2250746179837453
4.28,-2.253936468905918,1.371262999098278,-2.0003632978241606
4.29,-3.7163459534233594,3.026609040702242,-3.2266207002284033
4.3,-5.063728095275958,3.5739391064568724,-3.3785653611059603
4.31,-4.704066263771865,3.100628426239288,-2.681222494894309
4.32,-4.61102402657994,3.1069003343362827,-1.4531650911114762
4.33,-4.8841025927764,4.119625150157354,-0.46772159659142515
4.34,-4.517998746080166,4.646596309095392,0.10796765575451647
4.35,-4.179020039789556,4.455504658567976,0.004315945256254754
4.36,-4.096367462411168,4.404967307436621,-0.8548934702635855
4.37,-4.21334988793596,4.370894590280363,-1.364454991604689
4.38,-4.560455243800035,3.8861653977929906,-1.2430896789532178
4.39,-4.901673918193299,3.082984482894513,-0.8438586965952753
4.4,-4.708373283185518,2.573449735770554,-0.009785641510217156
4.41,-3.644179970195091,1.9189795306553639,0.6377586337482523
4.42,-2.353800219078705,0.7519204653111715,1.0119679488699518
4.43,-1.836277931573382,-0.7425116224399787,1.2268885216444416
4.44,-2.325397147359732,-2.272684464736879,1.1654602001139858
4.45,-2.5573118371448254,-3.1307350502949305,1.2196883569149264
4.46,-1.5159776482119631,-3.279846375256194,1.5450512301393557
4.47,0.690228663936911,-3.5864749201924475,1.523464485522213
4.48,3.53797097425788,-4.344214951798944,1.3901485999080438
4.49,5.86609172052261,-5.156379569458308,2.055208824619104
4.5,6.955466766210847,-5.964183146014812,2.852898156140932
4.51,7.390756629011815,-6.603746960493306,2.967348465740559
4.52,7.605701233927848,-6.4060561197370545,2.217357146042305
4.53,6.709436824588887,-4.699890918803213,0.7229963268705988
4.54,4.65394348874079,-2.104264976644304,-1.546472375845055
4.55,2.4118244321572995,0.12813693540524349,-4.001770998530069
4.56,0.44979980344805304,1.6365839065459427,-5.336659130689335
4.57,-1.0564558913342825,2.408857363869758,-5.533740518748449
4.58,-2.1410844634749315,2.8709693095691917,-5.245126247759803
4.59,-3.18472209081913,3.2980437777763303,-4.8337712760046925
4.6,-4.191758197512192,3.532807275342765,-4.2963897734947984
4.61,-4.670291813541905,3.948085808343034,-3.8539929214780067
4.62,-4.4350713730268385,4.862876101747462,-3.663217034491148
4.63,-3.1450562333978516,5.58728397974186,-2.7297248156315126
4.64,-1.8898612814550477,5.175869958921523,-1.2896046112340986
4.65,-1.8494197131256074,3.897135573778035,-0.5231886681803437
4.66,-2.122016417621411,2.3839898837570876,0.055160388519568566
4.67,-2.4184768889700035,0.49823399391843687,0.8076199352846533
4.68,-2.6788982528053302,-1.511679808887906,0.9222782091666635
4.69,-1.943154269264894,-3.1442440240008698,0.025079707098817915
4.7,0.02888059374392918,-4.601354970778626,-0.04383977476533479
4.71,2.427166131200758,-6.023035818917279,1.2022087101802308
4.72,4.640964973377673,-7.222648070878542,2.146506898626846
4.73,6.093041667652841,-7.719907829766763,2.7647493857762258
4.74,7.1969839784896905,-6.645525355469395,3.0347233180883864
4.75,9.249972227812735,-4.529045697829977,2.583214427403244
4.76,8.93735062156576,-3.612539109940557,1.4774797774476458
4.77,4.259199394604465,-3.272398725684866,0.2768321743833351
4.78,0.773332336939202,-1.5286597468140355,-0.8793390389314838
4.79,0.3077618526310337,0.22892829374185938,-1.3222309500512057
4.8,0.3551468892777805,0.9583667117637467,-0.8512558787601776
4.81,-0.05774559996249835,1.8305233700090104,-0.6425695367128593
4.82,-1.0196611176270807,2.8819009766895256,-0.6267533824390533
4.83,-2.319367180285964,3.0859893311337077,-0.5274276908176623
4.84,-3.039151296421275,3.2584004254757937,-0.35775964694026746
4.85,-2.945608944751759,4.051093064990356,-0.19129641335104422
4.86,-3.050389576592511,4.802743351383191,-0.3495293413403712
4.87,-2.7056942415343377,4.380072617840463,-0.6477306167227478
4.88,-1.8653803255299688,2.648283034456261,-0.6362733454947718
4.89,-1.4443051801471978,1.4634889260588055,-0.10163702314837238
4.9,-1.0351260577683723,1.650764126199159,0.487602254355343
4.91,-0.2577908919920693,2.319218614225104,1.0961283123386028
4.92,0.6745034627146549,2.821081668856796,1.6190828538755324
4.93,1.30155962590172,2.460032117954084,1.60470185881256
4.94,1.5557817424247944,1.1058323303256605,1.4316995951473048
4.95,1.4828660544930512,-0.3808578810048733,1.3745409392524175
4.96,1.093909345679008,-1.4211160723587213,0.6208354837874576
4.97,0.6027493623340355,-2.3311982996213496,-0.3054412284204257
4.98,0.7583406123535359,-3.301081895703371,-0.3084134559301147
4.99,1.7306875188247457,-3.9021248714428913,0.047659107164781604
5.0,3.0636671841603733,-3.9028553582197554,-0.16533441754139866
5.01,4.218157390601591,-3.866483171177145,-0.2896916948592637
5.02,4.895762748841552,-4.039855938178421,-0.02867164807607016
5.03,4.683727519994266,-4.119726096886664,-0.10524331591730815
5.04,3.561124413877103,-3.9898608113931444,-0.41626903223407896
5.05,2.2796264265856863,-3.3633570363541065,-0.5671630109701952
5.06,1.4143331594320336,-2.0774107672080806,-1.0665414936540747
5.07,0.8996854076575105,-0.7803021473287183,-1.2906904799494507
5.08,0.5222039879424714,0.3994810408007616,-0.9988621396517552
5.09,0.2534170022483468,1.8248872085429286,-0.9807241704442354
5.1,0.3472335902570574,2.2721385518302855,-1.4676675780899038
5.11,0.5071555701056938,0.7380281818974811,-1.785891720626203
5.12,0.06396407212170427,-0.7213519600737723,-1.8485164911393952
5.13,-0.9365092275236444,-0.8964175966881843,-1.2685517083412265
5.14,-1.4495307989173154,0.06786428395467364,-0.5644922888556142
5.15,-1.135121124328659,0.711125009490503,0.08102973549288944
5.16,-0.8799918768283097,0.3114565777075686,0.2430783765052088
5.17,-1.1076674761848797,0.19371673038098638,-0.06070226730267751
5.18,-1.8076818899557765,0.49191965184044045,-0.3298686947837349
5.19,-2.7933630195444565,0.9860011870704963,-0.2642311962165623
5.2,-3.6851954328776775,1.0790336417159565,-0.09479628393602335
5.21,-4.415284035214611,0.9146039914011391,-0.1240774565272917
5.22,-5.457947309234414,0.8918480521257542,-0.48065752950931706
5.23,-6.6300130314771275,1.0708259570633958,-0.897216489057918
5.24,-7.83109785139047,1.2683551580780825,-1.1116495302782117
5.25,-8.582538264410397,1.3870977288547472,-0.6930448738250672
5.26,-4.945123263785241,0.6236887021780778,-0.04846180034648784
5.27,5.579490410628448,-4.143050608186891,1.6732380862220921
5.28,8.274647827658487,-7.946098844294556,1.5246024793497834
5.29,-0.12993773368607853,-2.732548394436587,2.0727102955301553
5.3,-0.7045653545657184,0.4395552583087635,1.1640121950834001
5.31,-0.26090045583465704,1.432128125311558,0.06685643001405484
5.32,0.6710349700570293,1.3279305508603803,0.2890138380912727
5.33,1.110735225902234,0.9681211772019276,1.114511067809681
5.34,1.0780390200745447,1.1359489024905312,0.9406404849711929
5.35,1.152206134059414,2.3126181549699707,-0.9123615306987362
5.36,0.5341528008485894,2.9619607895421463,-3.506156108385796
5.37,-0.749589216665547,2.3566999399471245,-4.470791075055482
5.38,-4.899141754656393,2.3623937563093906,-3.9156036647777475
5.39,-16.308350650124037,4.567691630284867,-4.120636858016251
5.4,-24.490051399483477,7.376583767816314,-2.479570983951858
5.41,-7.426263039105619,5.767472996232222,1.6973938347921853
5.42,25.63048021030671,-3.2601783286337547,9.863228125239036
5.43,5.286515034889062,-7.012341594936321,3.334911283885069
5.44,-1.7198559398531796,-6.353115743078665,1.1131822943894176
5.45,2.408708365436397,-3.43350766047127,2.1547345769919124
5.46,-0.1782966551733238,-1.444633477541778,0.20907912597457823
5.47,-0.5819486445168781,-0.7550763796900384,-0.6653619410061945
5.48,-1.221678533458022,-0.17341433021577096,-0.7036628238335334
5.49,-1.652358328384423,-0.22214588627817844,-0.9450032325431172
5.5,-1.4886552581287933,-0.43215981480549476,-0.892468108482633
5.51,-0.8966507537574372,-0.30741135911962314,-0.7993138999095567
5.52,-0.27965196394539443,-0.05191514367912588,-0.6629743424535518
5.53,0.07339687788143068,0.21722749039911343,-0.3184861437570541
5.54,0.16482630447098665,0.33913556639288556,-0.03693753149961064
5.55,0.32433560084041874,0.2656564995212084,0.19718633019196283
5.56,0.37321357113749903,-0.006610759314495356,0.3104048032283432
5.57,0.5879368736151179,-0.49982668358681953,0.32743331012370824
5.58,0.6645547178539168,-1.1456307099216658,0.3813040127322747
5.59,-0.026068498844168016,-1.4605845377760653,0.7075980741162735
5.6,-1.518789334024303,-0.9455183188969966,1.2143205881753856
5.61,-2.455309306896903,0.19939236798264628,1.458733379286589
5.62,-2.2218585316682553,1.2493686411199532,1.3041432554851693
5.63,-1.3554720229770776,1.9465242621470948,1.054100644693116
5.64,-0.07531935650445852,2.211837275591406,0.5642089390297853
5.65,1.4024429220214993,1.8744009863616822,-0.31833755375092
5.66,1.6629675538036282,0.8080959709408462,-0.8631316220681631
5.67,2.0282445525323824,-0.14341410600679338,-0.45068118899724147
5.68,1.7009904061748393,-1.122432894400287,-0.32461936457876656
5.69,0.4727047180510953,-2.5723828613539186,-0.06821563478077419
5.7,0.3488124928551873,-3.516257836144899,0.7164483258680996
5.71,4.629056196916074,-3.007312481472806,1.0851195012590396
5.72,3.3477535431833747,-3.2175599707473843,0.21458421769423083
5.73,0.5883786862180483,-3.0235731356307234,-0.328329698596723
5.74,0.4139643991014765,-2.269156544946849,-0.44136453431933115
5.75,-0.29892725835858064,-1.5382603604001976,-0.4422317914441761
5.76,-1.0963694318783843,-1.008000496641686,-0.2716629862754941
5.77,-1.3353727979060979,-0.5204126945411639,0.11072385244438242
5.78,-1.1665716273416868,-0.17285396948398915,0.311647094135385
5.79,-1.5102373418186053,0.025681885301426077,0.3775464671572586
5.8,-1.8323370759753057,0.4574716506680669,0.27234538272078396
5.81,-1.8144869518277529,0.8476461182287264,-0.0003582960580909475
5.82,-1.302035014062706,1.080135180037314,0.02231429819308455
5.83,-0.4351816345234028,1.1725322139333718,0.49619663312277174
5.84,0.23751102424498155,0.6349341374761641,1.178338249157489
5.85,0.7985169099596222,-0.5558783594783947,1.5653219622205257
5.86,1.63460930001738,-1.6632340290107392,1.1840389303092116
5.87,2.6082302914811146,-1.8834356123244138,0.8984745616689157
5.88,2.640532925179498,-1.3220201509308913,0.6921461887165371
5.89,1.4727918555512378,-0.4128559007297986,0.17478413908370105
5.9,-0.012655464302618375,0.6052229928025431,-0.027537612748766944
5.91,-1.3102733008079748,1.457548383894435,0.06219879444896822
5.92,-2.012444439546758,1.9223650965175296,-0.033308090797485174
5.93,-2.102717651539304,1.7660214170468134,-0.09139214556155272
5.94,-1.3291947105034698,1.2310518694299137,-0.09941440865709887
5.95,-0.19332974074159937,0.44167019182424094,-0.4066998849580889
5.96,0.9903391157988418,-0.35965796970185454,-0.13334156872363165
5.97,2.3090100639040347,-1.0267068660626493,0.6216506800541098
5.98,3.5348225814281995,-1.8629707616405367,0.869860336765849
5.99,4.275752073067291,-2.7533993813766475,1.119042389657118
6.0,3.7236759100987933,-3.0531323365147367,1.4515986007203832
6.01,2.2100760745398778,-2.282471647853454,1.7099058069459545
6.02,1.0420690085444915,-1.1534290213969767,1.510702141039048
6.03,0.05616693716785027,-0.014075283519356968,1.186378116188793
6.04,-0.8103906183392651,0.8844986324554442,0.9130852128624422
6.05,-1.3149842259260252,1.5646686244447037,0.5747517940058752
6.06,-1.3727718555952753,1.889010429260123,0.46684179877738013
6.07,-0.7861199220055536,1.5834038315015513,0.28008752293584827
6.08,-0.22228403133803898,1.072944635970829,0.3948085852836555
6.09,0.5388626943768247,0.15050701757341187,0.64580131751193
6.1,1.2125495001642086,-1.1809683374003686,1.1635443483012806
6.11,2.090162656697971,-3.0522331981486923,1.7499395012952361
6.12,2.153544601742877,-4.2777092584021545,1.2325156060219455
6.13,1.2630684028955135,-4.448865473757185,0.6353351610596724
6.14,0.4381629365408975,-4.024729721029858,-0.2712982487467833
6.15,0.688608582331572,-3.521229719534335,-1.4156714074152026
6.16,0.2930864452011462,-2.8936182676341473,-1.6970769042652976
6.17,-0.09762403548578565,-1.7947457839571097,-1.4153973784847516
6.18,-0.3920769226397282,-0.7388380729907933,-0.6652952136388077
6.19,-0.47555953142050356,0.020195021210207813,-0.4341865006498035
6.2,-1.2340920397011095,1.0956251279911577,-0.2896277897075569
6.21,-2.433375726650474,2.4524210685843912,-0.113569940247141
6.22,-3.2359946653859026,3.0639545676985045,0.2787433167834635
6.23,-2.9767096882722783,3.0429651598069136,0.9316575069964025
6.24,-2.6056159876777003,1.816631108137599,1.751464472838272
6.25,-2.0361595307230607,0.43909163177924637,1.8358856473971286
6.26,-1.692540283195402,0.2170023308063718,1.5221117747698325
6.27,-1.767696105771675,-0.10621449174380866,0.6218757440570093
6.28,-1.9217556671476042,0.30643401422666844,-1.0178355626984283
6.29,-2.2773092647470365,-0.22405856020479648,-1.4073143448050633
6.3,-1.8644743889976783,0.2108237639657856,-1.3865450261566536
6.31,-0.941596768963783,1.2892626733314494,-1.036654543710302
6.32,-0.01927669456617623,1.2252721253986876,-0.5963118293461764
6.33,0.8300082563293653,0.3414980560496057,-0.06551164775768968
6.34,1.3139837481892318,-1.0935465098713004,0.7433317400466397
6.35,1.7936533342068373,-3.10485744701586,1.079585551613476
6.36,2.4158962433441733,-3.597725074069857,0.7475012755856262
6.37,2.2047101915563054,-3.6299583249122525,0.10478270841534407
6.38,1.7183975673083263,-3.1859186344556183,-0.628131211099246
6.39,1.1467008188065675,-2.7722368277974994,-1.561325182194658
6.4,0.3999633619132195,-2.470817992811772,-2.019538821441485
6.41,-0.837163368556945,-1.879626739595304,-2.3262649280899903
6.42,-1.9642207953673212,-0.9108083149851555,-2.36887705303677
6.43,-2.790918961511005,0.39674301724600736,-2.102138629788427
6.44,-3.47845892266811,1.4319589663029246,-1.4217587093825785
6.45,-4.204642889479172,2.04506782289101,-1.1507933077348929
6.46,-4.977572171261648,2.4986475862571953,-1.5989015471486616
6.47,-5.258984177767243,3.2028087686067894,-1.8003743575244877
6.48,-4.913000909876976,3.9414654076389857,-1.5580817076778144
6.49,-4.5691566474474845,4.264606405990947,-1.2852413775493305
6.5,-4.171803226405317,4.14320610919305,-1.321293865634988
6.51,-3.669282584178699,3.8409736612468657,-1.2037445855191873
6.52,-3.0002835275163555,3.4605376495760956,-0.6266042534765757
6.53,-2.0034403700604426,3.1022033471924244,-0.034572951527117986
6.54,-0.914965586946191,2.7108676704687213,0.614638234229041
6.55,0.18015481771885622,2.09064225936924,1.6674967462151544
6.56,2.0068115639902193,1.0605445749992717,2.6475613454355895
6.57,4.352587650137293,-0.7430229423612423,3.111618322482888
6.58,8.030447647754604,-3.1773230684683376,3.265680287593925
6.59,6.6803014861923105,-5.143064057120779,2.0377574065682227
6.6,0.7704875550308352,-3.8156613314350993,-0.22344005665193914
6.61,-1.7859160848485527,-1.2276434244641439,-2.2023099657964
6.62,0.44378558365000464,0.046116551031662546,-2.802350653636916
6.63,3.273748055152184,-0.3981537850794578,-2.229598374046574
6.64,3.88207733437049,-1.7939207687025522,-1.049113072919275
6.65,4.301100341554065,-3.711681552271987,0.42039901610627517
6.66,2.1409769293113925,-5.688049726111255,1.4055721883764878
6.67,0.5219235420434493,-6.363261568542185,1.5842495530117466
6.68,-0.6672675156029111,-5.766558500211201,1.5107634447617106
6.69,-1.2972424263089866,-4.616388640510272,0.8083759146316668
6.7,-1.344273627051004,-3.428797509688398,0.10460802917218945
6.71,-0.9884993798388622,-2.4399665613509622,-0.23088996217253535
6.72,-0.5237488037211678,-1.6376155608357752,-0.5814949226946973
6.73,-0.6315530543185878,-0.9577443416025494,-0.962090006754481
6.74,-0.9113123605794841,-0.15449012095003162,-1.2682241756225234
6.75,-0.6858162082049203,0.7213901122229652,-1.4841508147295126
6.76,0.032551485443062536,1.5823607368858401,-1.680032176039937
6.77,1.1120570242177017,2.3109379243686754,-1.9067774194870277
6.78,1.8858601875053909,2.765560884653998,-1.9494973750806464
6.79,2.193915041070952,2.9986233522046257,-1.744341525277279
6.8,1.896871125283591,3.0449998741183335,-1.6670172323672268
6.81,0.7051323221611788,3.036064457887494,-1.4445657457573322
6.82,-0.731062677472111,3.306098241938526,-0.9724685233323737
6.83,-1.5602524773667512,3.947190338788124,-0.8398975248186092
6.84,-1.7964823924015707,4.663217068920989,-0.8012324359551798
6.85,-1.828994297040222,5.201721395584966,-0.3593077111478896
6.86,-1.6069796335195563,5.390529702687056,0.28109630845438055
6.87,-1.307011278553829,5.168318708760605,0.9321531362373099
6.88,-1.1422908554733462,4.558135961618746,1.7147417849814965
6.89,-1.0133458869259522,3.6673998861056676,2.4343881433053944
6.9,-0.6432947960657275,2.5754384600789346,2.5274273771708184
6.91,0.24628915649773625,1.375259081574891,2.204119193486525
6.92,1.6735223122299339,0.16816065579219838,2.0670627835350945
6.93,2.9822605100034902,-1.1978933919490657,1.8928043578819627
6.94,3.6694469628667856,-2.959306620423698,1.210897611996733
6.95,3.7513245872243264,-4.8799820648557635,0.4004894889156258
6.96,2.9456730177368535,-6.386407113383484,-0.14070868172605824
6.97,1.6289731715848124,-7.075883913607931,-0.4040145640180512
6.98,0.27001937524565206,-6.927004489040765,-0.43975807545061557
6.99,-0.6031220045461738,-6.043427177051863,-0.7123642631160869
7.0,-0.9789089241653604,-4.974789833326751,-1.3475846822310147
7.01,-0.9245016233834388,-4.156841996279646,-1.819409879756276
7.02,-0.5742869093784353,-3.645012312706775,-1.9954964679087484
7.03,-0.03542356909178476,-3.128064894807337,-1.7070115700577193
7.04,0.7785494419196836,-2.436676546652727,-1.0269173587143008
7.05,1.7511300546921242,-1.7518743563657087,-0.31437239478020645
7.06,2.534007107561451,-1.0546873892335455,0.22870277423216354
7.07,2.860460130790045,-0.38542477064128844,0.6786743441930521
7.08,2.265188348713652,0.38644916716439315,1.0586438112471763
7.09,1.0548949833560457,1.3855988885646238,1.2583901662098305
7.1,-0.19488963303703832,2.134853463816501,1.042334916105086
7.11,-1.6730225850015856,2.480919614041908,0.6446744055563703
7.12,-2.2785908253630023,2.4995438899107545,0.9349658204925198
7.13,-2.070779073731486,2.0650424343805227,1.1915752687609513
7.14,-1.6798652698600358,1.3374896294228524,0.6924206680616724
7.15,-1.0805790898757097,0.687416822865937,0.17230952666684315
7.16,-0.3303043243123908,0.3746381553986499,0.07384602826448766
7.17,0.06897605975476462,0.5112954942306416,0.13900253700531237
7.18,0.26163509866568163,0.8432614186594415,0.13301429338912363
7.19,0.964864129006415,0.7854649577904759,0.33346944128927214
7.2,1.4327450055093265,0.6000655096590984,0.5992184295001054
7.21,0.9950713547546259,0.6302762358331873,0.5232325041679181
7.22,0.5662150523700303,0.5628691467792869,0.3580133597398573
7.23,0.4796551499702004,0.5521438582376127,0.21392534451746426
7.24,0.31726135649351933,0.8191544992957752,0.08788053431352133
7.25,-0.14584536833189526,0.8011439491499097,0.3134311604753195
7.26,-0.6368436750914672,0.1492328561678625,1.1639961413860724
7.27,-0.6857959966866789,-0.6966101301303196,1.8994198071401263
7.28,-0.5568315267049818,-2.027693327075219,2.011389200447897
7.29,0.10041648225981248,-3.590929236232405,1.6409224396362017
7.3,0.19044776269761932,-3.687643680374896,0.8028204973323627
7.31,-0.4807637099784712,-2.339728049847347,-0.050368958589937486
7.32,-1.1207707539634386,-0.740017315659112,-0.4202272956018536
7.33,-0.7466699631507915,-0.05557034784181369,-0.22049546738174547
7.34,0.10522614856651406,0.05923494354336724,-0.25847094163480105
7.35,0.08177654839859501,0.12033395058587261,-0.7293019698978117
7.36,-0.3951924983175858,-0.2756504868521438,-0.8437258012338977
7.37,-0.210649056244194,-0.5815539395031432,-0.7675448391539378
7.38,-0.07449847259071463,-0.9078690635705579,-0.7069784998734115
7.39,0.28976230622529836,-0.8184222946109769,-0.6491541602110309
7.4,0.11425943487736133,-0.7551604458373755,-0.6034549415384648
7.41,-0.7926650844201664,-0.7739430181888657,-0.7093375551970375
7.42,-1.4468492141791267,-0.5770337109427502,-0.7709147044445053
7.43,-2.004570283145947,-0.014159988231249521,-0.8000489024356519
7.44,-2.7457654215604226,1.1065466981597647,-0.90251122414769
7.45,-3.2452361296450833,1.8430420580642122,-0.7841235314086713
7.46,-2.9834594237122074,1.3628364079135544,-0.3130052416984038
7.47,-2.2270577403266705,0.35025085553849444,0.36603063729948204
7.48,-2.0161092713998703,0.18999675158755555,0.8548523235992851
7.49,-2.2127809790414705,0.6215508945449619,0.9668442249066489
7.5,-1.9222684919351445,1.039636713344085,0.9142419412177284
7.51,-1.4270655990417906,1.4571972469388021,0.6694643928264706
7.52,-1.166913261134485,1.6456992338389846,0.16764232888363148
7.53,-1.2752496457814335,1.7435340560284445,-0.5534541612703001
7.54,-1.429750929438156,1.799501367584871,-1.0274209379077186
7.55,-1.186215030040646,1.514856628420945,-0.7551679714020663
7.56,-0.9844890720670068,1.1200660886748743,-0.27718353431925535
7.57,-1.1763718224292359,1.0120897411501604,-0.1989377526254193
7.58,-1.5277301605429152,1.0922552941575767,-0.2841953043821657
7.59,-1.8006353067969034,1.0746254178859758,-0.27152517288911604
7.6,-1.8071723788252432,1.0232166790606787,-0.4481077268689414
7.61,-1.6580103479685504,1.0354060875685696,-0.6372129185345696
7.62,-1.2411035308552956,1.004034584042404,-0.5532835283791034
7.63,-0.5762788997270806,0.9179444947779538,-0.5007303794434302
7.64,-0.1856412171238373,0.7733945772214236,-0.5392802598318375
7.65,-0.3855743059483891,0.6200799094187561,-0.5454302298249533
7.66,-0.13319733045140603,0.7434328969282896,-0.4998825381729496
7.67,0.9999535552757927,1.07003318117827,-0.3121523807797395
7.68,1.415525854705589,1.0797905319243033,0.07605103878290859
7.69,0.9969894671832369,0.848628479442395,0.4271881880796914
7.7,2.0128721253102633,0.7957605163283372,0.5559060325774853
7.71,2.7809298818258927,0.5080251772204281,0.7270105738920221
7.72,1.9441521020158063,-0.06881016335618059,1.0856946188110879
7.73,2.0418313246899884,-0.4003876591177687,1.3309979837427357
7.74,1.8546520891889666,-0.6330205299553483,1.4246756497582032
7.75,1.4477418021391195,-0.6446387199919694,1.416759858458866
7.76,0.9047053984742925,-0.5278408665638313,1.2906155158094643
7.77,0.4116738100542619,-0.3876622024232243,1.020647166783691
7.78,0.001773400824349983,-0.3684224888877719,0.679290442129087
7.79,-0.49632006445921867,-0.5308901048906932,0.42407944948254445
7.8,-0.5803221181866084,-0.6720695825147767,0.14000280804767104
7.81,-0.5027605088638755,-0.7756749923241492,-0.10551645242286654
7.82,-0.3566922411209182,-0.884579551407218,-0.2563418271163292
7.83,-0.06466986448538597,-0.9486836339541773,-0.32809485268246363
7.84,0.3251521548638117,-1.0077885442561467,-0.23059566143150598
7.85,0.7656455716589098,-1.157125558043076,-0.029195626885315143
7.86,0.8121027202193024,-1.4040157437496976,0.15023971794820598
7.87,0.4404866411061282,-1.5941578332186706,0.295553836185776
7.88,0.15608243375949854,-1.5546300652110698,0.36952436396881855
7.89,0.19119721952230356,-1.4216512364981286,0.28542593635433117
7.9,0.388838854820464,-1.3428893044800854,0.09827228243027888
7.91,0.4364099040320901,-1.3265054906960736,-0.1229671380663685
7.92,0.4153958123780591,-1.2571158443679937,-0.04192426713914302
7.93,0.5787712665437835,-1.1340404024557391,0.2198528245369481
7.94,0.8420034368849776,-1.0074210039468214,0.3095862112841111
7.95,0.8810155677334164,-0.8818891618659297,0.28668785331210306
7.96,0.7376439323347345,-0.7000326352298807,0.1769008098653749
7.97,0.6906961981997102,-0.479188251689257,-0.07991583332323743
7.98,0.7737740907832018,-0.2931250234476229,-0.4759041526110209
7.99,0.8403686661385514,-0.1614117439616022,-0.7860564221665072
8.0,0.7667400362453909,-0.09927291638220358,-0.8753076836322488
8.01,0.5301706232154764,-0.09444100504591837,-0.9896588083446998
8.02,0.3796028750709811,-0.05183088250103329,-1.0085003306408638
8.03,0.34797834329668126,0.051672349154696914,-0.5344029619148905
8.04,0.2575519141580077,0.08312040055110917,-0.23620726622164984
8.05,0.08549060401445438,-0.09283521880806833,-0.19231557892506695
8.06,0.06890995498398514,-0.4150596887815531,0.3325999576692922
8.07,0.3770195957620159,-0.7715569723500975,0.9179311732286222
8.08,0.7895342383594317,-1.0946854799960801,1.03438898612955
8.09,1.2219328514292205,-1.2269161212760105,0.8742449746461061
8.1,1.5988507356329806,-1.1626101830179394,1.017023052972162
8.11,1.6830236270188288,-1.043989527285466,1.1016714908462475
8.12,1.3056695233342561,-0.8159222652912644,0.9088629092157365
8.13,0.926509877937422,-0.49121349187563174,1.007536620466921
8.14,0.4173511329765191,-0.1800895376829746,1.0680259503339333
8.15,-0.6018241513027816,0.2266882746829201,0.9421195879183901
8.16,-0.9939830455439473,0.6693622283785362,0.9814550965823717
8.17,-0.6042497914075686,0.8012984049948823,1.32902534931473
8.18,0.040297511691617056,0.6713418311421534,1.5525183596589895
8.19,1.030032182404201,0.26979997777263603,1.2189014084107652
8.2,1.7005673287269583,-0.12479504263268063,0.8293213892966933
8.21,1.3529709336262086,-0.40259669612256693,0.5218028029274772
8.22,1.371098877877593,-0.7775625522579893,0.3056679626901563
8.23,1.7744773915765248,-1.1755929901534414,0.21207702662564282
8.24,1.5237985652132657,-1.1430982656494777,0.30098552736019385
8.25,0.794754023713122,-0.6738356638934673,0.5888636574378351
8.26,-0.050644992842038085,-0.14061817407969296,0.7482048218491818
8.27,-0.36070533508549957,0.6104984890274918,0.5823383315952722
8.28,-0.668034142612669,1.4914758196420321,0.24078389773081801
8.29,-0.9455718497765386,1.5932266176922623,0.05953053418776511
8.3,-0.833847668586267,1.0071693993404265,0.09867799680792537
8.31,-1.1538254994338695,0.3905286304190704,0.42075306327515255
8.32,-1.3433257629666036,0.4860324620205842,0.7540254560089485
8.33,-1.6943439312648847,0.5577731558967152,0.9302720449396192
8.34,-2.196920454534565,0.012340604684876135,0.8526771930594575
8.35,-2.173612379340368,-0.38095922977500507,0.4190755064034639
8.36,-0.9238473682997028,-1.0787696934369,-0.019112838634906266
8.37,0.6852530428752835,-1.6169421108687916,-0.31535859658849874
8.38,0.589094028384984,-1.3606452449489321,-0.4895627280019649
8.39,0.34961861368617064,-0.9154783224467925,-0.7808022514054056
8.4,0.40525894023338144,-0.691768965488694,-1.165103163709188
8.41,0.921882938126012,-0.711637038380347,-1.5880018445266442
8.42,0.9651009447038773,-1.0358618561196455,-1.8586155106887563
8.43,0.03874720645531443,-1.237373499404905,-1.8126474472939962
8.44,-0.7199545079832957,-0.55577533979096,-1.7037364131336206
8.45,-2.037790962114619,0.7193348155273762,-1.8113148108948913
8.46,-3.6412172645505647,1.4069961314132733,-1.86090689819858
8.47,-3.2112123319853887,0.33115851215781145,-1.5289531084576704
8.48,-2.2533072264406626,-0.45044080307274137,-1.023797504124258
8.49,-2.336461094691715,-0.6530934423685401,-0.5208459452628614
8.5,-2.2249666406286415,0.0833837234329067,0.026102495941941885
8.51,-2.5967951617375387,1.4271741986814093,0.6794266568621711
8.52,-2.9056693528815525,2.651557041814445,1.225192165216147
8.53,-2.822458128117026,3.162134978519624,1.406430184106086
8.54,-2.628511038178003,2.9061139362698585,1.3298363721358568
8.55,-2.4926926339238262,2.5794899679284766,1.29026224531948
8.56,-2.345478899827536,2.583085539003827,1.0421930225702298
8.57,-1.9828038336436977,2.3691216570256355,0.4059155243108185
8.58,-1.7538163813733987,1.9808508442760009,0.09724169345472107
8.59,-1.393641842802386,1.709945445835096,0.10590001164798181
8.6,-0.7874435748414861,1.3033754768265484,0.06852577364215556
8.61,-0.49638869316537193,0.7282772639092571,0.026656115320966234
8.62,-0.49781997119619475,0.34897208842655575,-0.0994265158094146
8.63,-0.4001604979976007,0.15579957345426507,-0.4173814570814852
8.64,-0.2607882582626634,0.1735696595649808,-0.2274962251808165
8.65,-0.18251454976771514,0.23795367376096033,0.17957261074432412
8.66,-0.13935928166912873,0.5003609247378883,0.506039273669265
8.67,-0.3006433425979195,0.7913800218686746,0.8147736916261614
8.68,0.5070808121472027,0.8950522548462113,1.0039760854000943
8.69,2.2300930068377114,0.48457922472652665,0.7540369334979948
8.7,1.3886694079448518,-0.025710505607312223,0.7135269298529792
8.71,0.9996350328773271,-0.05818935370001525,0.4662899808958311
8.72,3.703120906597911,0.14593053148567992,-0.26928035073484397
8.73,1.8376678374075743,-0.4966690367479277,-0.5570947996430108
8.74,0.7312907692211391,-0.4265402705576982,-0.35981618113339964
8.75,0.734262453828174,-0.2365589465703588,-0.21532665485615407
8.76,0.7495004268446956,-0.3350786715277762,-0.20152351032471566
8.77,0.8606506672913249,-0.4875456818288857,0.10045488926768137
8.78,0.974988246695502,-0.49687062631052564,0.2879302892937377
8.79,0.792676752789656,-0.7208989956782444,0.4637136861628359
8.8,0.6734556622942304,-0.8863359586106928,0.6027630980756966
8.81,0.997601182362238,-1.1272146213600907,0.6143984283485789
8.82,1.9824456393812706,-1.2273692625898052,0.558725144096317
8.83,2.6189791350391847,-1.4023534406861535,0.6506377859647646
8.84,2.575760355394742,-1.607860081951348,0.6387215358253003
8.85,2.218079008649072,-1.58230575922749,0.4266027642863818
8.86,1.5056177594945266,-1.2977400718735816,0.2946605033133959
8.87,0.7578523208572004,-0.7416943485546277,0.01190187375393226
8.88,0.28999927053164787,0.05931801668683557,-0.829358767533136
8.89,-0.5588137786919054,0.6871361956583839,-1.2613519073013153
8.9,-1.568217916146007,1.0197828897731862,-0.9734343224467491
8.91,-2.439091043600739,1.0671831488688084,-0.6184960455755834
8.92,-2.6670170292003257,1.1643113888248184,-0.29273579773006353
8.93,-1.9787593167009585,1.2928164800784552,-0.24520286594689303
8.94,-1.1593254739446706,0.980252388768871,-0.44074570131141866
8.95,-1.1832795763584558,0.26254033289235373,-0.06925092399593008
8.96,-1.804316164942062,-0.47090877389147373,0.3608159792792725
8.97,-1.6023992111728003,-0.8287233632562201,0.5681263886151469
8.98,-1.0157821274021217,-1.162356416139316,0.48187348332027957
8.99,-0.5672560706456925,-1.6602179823742966,0.47702174944974296
9.0,-0.08584602504534772,-2.2315674494812305,0.8003401646628888
9.01,0.32690382187194245,-2.9224719373754797,0.4864764595327591
9.02,1.1956143579143437,-3.649790819029554,-0.2718859396700388
9.03,2.0609996916815057,-4.3770026200488035,-0.3497578206500058
9.04,2.3907388252510122,-4.780336982810348,-0.26166506548366064
9.05,1.8413898804170334,-4.024538099851014,-0.5287749695491919
9.06,1.0588699721344037,-1.6960796615766884,-0.25234695116301736
9.07,0.3485237417377278,0.7006263602633401,-0.029060492299782442
9.08,-0.5902201471497173,2.2783482335452345,-0.5643487379814958
9.09,-1.028852976626386,3.083125999595297,-1.1632334071322028
9.1,-1.0391735144913066,3.369242302866799,-1.2634533160501744
9.11,-0.9762877428907331,3.266003228159207,-1.4293135863350488
9.12,-1.1433273411521494,3.0820592864314995,-0.672153676625045
9.13,-1.2926880814402864,3.1312886954656456,0.11255959298568224
9.14,-1.3633544157405366,3.2812019576571996,0.31312487207798145
9.15,-1.5495110292798673,3.4308179902693743,0.43909059995565997
9.16,-1.5192694566926292,3.4789229058036595,0.5536876338409245
9.17,-1.5015642043352357,3.3556624379471245,0.6722377882859438
9.18,-1.3254384676133153,3.319765335149977,1.0768944606130637
9.19,-0.9425489651923934,3.0791935104719537,1.1328295605785603
9.2,-0.28073615268741464,2.4712514258420137,0.8166803302718679
9.21,0.5341209281266784,1.453265712241291,0.43588384472083
9.22,1.904923673897629,-0.11936476131179995,0.10333307142856792
9.23,3.8792317773467064,-2.351914804003705,0.331951032285179
9.24,6.075437360491278,-5.528796305586763,1.1375439209425828
9.25,7.278634455080777,-8.939536058148288,1.366214332931468
9.26,7.3544534156246035,-11.473815907451634,2.426939091667481
9.27,5.256741478552786,-12.237952797892051,1.8503779022918523
9.28,1.8132628516765334,-10.051566590836998,0.506177257791956
9.29,-0.042649072739318505,-5.787483592781625,0.038502405900506645
9.3,-1.3900490505165655,-2.1992763317268125,-0.506511982857338
9.31,-2.0084124822686262,0.3310659610285196,-0.3583174381182213
9.32,-2.4510057824810483,1.3262249664727646,-0.44574631263086395
9.33,-2.93569246992337,1.5245199023271536,-0.6218875026793304
9.34,-3.516061648303904,1.7742961971294757,-0.4606321543073014
9.35,-4.243642503754106,2.161574471615998,-0.14886082666134393
9.36,-4.848212552852231,2.5501982015852476,0.03941520530484296
9.37,-4.961569733194988,2.9389097587883084,-0.18693394182927447
9.38,-4.56322846908047,3.3334228848892464,-0.5235219446531099
9.39,-3.991793462515034,3.630964458896593,-1.00101086943112
9.4,-3.4265134194851674,3.804779577269833,-1.3722479210552734
9.41,-2.8471849599956003,3.952366296535037,-1.5484398112362845
9.42,-2.726796786119726,4.069626701555601,-1.6059667606792734
9.43,-3.036714979056535,4.0294005848347005,-1.6605840731094499
9.44,-3.768445501600282,3.796955436053465,-1.6631598593220231
9.45,-4.439043617763754,3.2744228768287575,-1.7172980011180263
9.46,-4.570129934949947,2.5211519825007604,-1.7501216371654316
9.47,-3.4751166705678562,1.6938660586044183,-1.5496661761551374
9.48,-0.6802861853252311,0.523435693145523,-0.9128783123198497
9.49,3.446648402206687,-1.3789101579626117,0.2538962106737645
9.5,6.450693119946782,-3.9155195388202544,1.4370915704475145
9.51,6.205037313018567,-4.830109027178982,2.554736795198967
9.52,6.520350935663653,-3.8888518129938094,3.6438677186165043
9.53,5.9207308071193525,-2.635607628359173,3.074047298664172
9.54,2.6810711193420262,-1.420278876303346,0.8567451985480757
9.55,-0.7636029129280681,-0.8885683070485934,-0.22477088321693936
9.56,-2.6852589882476474,-1.600244800953154,-0.5525675900109072
9.57,-2.4246737376248877,-2.984215966609604,-0.5691848718442859
9.58,-0.29421341169369203,-4.44768261198621,-0.5563477991300467
9.59,1.6312345713224294,-5.2082378577933,-0.38763264231389816
9.6,1.6776504770462706,-5.009857974743244,-0.30168315845164956
9.61,0.17769126009888178,-3.566546296997266,-0.1517508127542433
9.62,-1.3217226185394404,-1.405569037784395,-0.3391304038348024
9.63,-2.183235531759079,0.5256989601675429,-0.4297771597978007
9.64,-2.464440832254817,1.936318144569124,-0.6099856112348834
9.65,-2.089436098065732,2.7878728223261597,-0.7392689515501638
9.66,-1.057194362768294,3.258123469749938,-0.6634190841135361
9.67,0.01487750965943487,3.3142154077624557,-0.3230487266492737
9.68,0.6676209661426401,2.866500520770775,0.019325105478526432
9.69,1.0613386842253105,1.817519387982004,0.2412935455830563
9.7,1.1518127626215777,0.6477661267671828,0.30360958482041805
9.71,0.7424155149995402,0.05883564228292486,0.15001323152931412
9.72,0.18229178589385256,0.28600366964771756,-0.23722944946311897
9.73,-0.4119649431682859,1.128880803794467,-0.7083489846404755
9.74,-1.0566743560363352,2.1137843690312557,-1.153460291238158
9.75,-1.3188706214937593,2.668490368447238,-1.4219395484078903
9.76,-1.1352951595891478,2.44539015896072,-1.242637522098826
9.77,-0.6548902748013015,1.3782050188604362,-0.8046221466546264
9.78,0.035532075935390116,-0.23818810837267582,-0.5520303691416429
9.79,0.9084766143528606,-2.026622404074868,-0.312782144872031
9.8,1.6787405092884362,-3.73890816432438,-0.026955184383692585
9.81,1.9895523729533549,-4.838110473648343,0.22041367484047794
9.82,1.684801378722917,-4.817106850961542,0.05395845465589064
9.83,0.8851256042609768,-3.633760770748271,-0.24788200607515357
9.84,0.025752853610318854,-2.0847971631461055,-0.1263182045544705
9.85,-0.49891696345151465,-1.1274202402970508,0.011389062974537989
9.86,-0.6496114873421829,-0.8596019693701495,-0.14517178527797336
9.87,-0.7691899447719539,-0.8591020536918081,-0.1906171407092839
9.88,-0.9295806734430759,-0.5148609081932015,0.04633532938162889
9.89,-1.0089906148814831,0.15755868291959715,0.23414740037529835
9.9,-1.1093623459903945,0.7926306166576272,0.016051881792978128
9.91,-1.4071398157694663,1.4400065366055952,-0.3252641533897362
9.92,-1.6318650857662482,2.070875803390277,-0.7214639257052874
9.93,-1.5785650139978056,2.508800194537422,-0.9455174482960428
9.94,-1.3797537801638349,2.6713384723417963,-0.8294883310574136
9.95,-1.0775740290115858,2.4280796755204648,-0.571169382523668
9.96,-0.5153976972245533,1.8990882043232393,-0.35026977934049197
9.97,0.11191282779286268,1.2567255772826729,-0.12092831702803129
9.98,0.5429707867760297,0.549920862448864,0.02282908638662647
9.99,0.7177395171667719,-0.1694796385889009,-0.17901645992308457
10.0,0.6265174984150358,-0.9279208097222549,-0.6516278009628544
10.01,0.39078545445941487,-1.3711072285965995,-0.7083208436772955
10.02,0.1867864979890252,-1.3889483399599305,-0.6956672260315662
10.03,-0.09732654591035476,-1.3000398060770961,-0.8466927902198981
10.04,-0.3713175271377164,-1.1486155827720481,-0.6244021767199947
10.05,-0.374232639899152,-1.0414263023342016,-0.1911034864795381
10.06,-0.06249757227153552,-1.3925318562217488,-0.01703326487001207
10.07,0.269150680260915,-1.93718138006505,-0.09148287477867596
10.08,0.5286324801181322,-2.325051036658811,-0.20589589208620881
10.09,0.6341674352970795,-2.6543780745722487,-0.43288500908692135
10.1,0.43332212047474333,-2.827378634707186,-0.5767087995876756
10.11,0.06622666257176607,-2.434684999287838,-0.43593415971920885
10.12,-0.1042279870999035,-1.6517984688620424,-0.45775815166469164
10.13,-0.22135074793299972,-0.8802207894459595,-0.503447443177947
10.14,-0.36083036553868436,-0.2524031958163951,-0.2742777020226042
10.15,-0.44769182003712965,0.18590520052794435,-0.15911235305766547
10.16,-0.5317337116842262,0.3292235447269057,-0.2994945046916872
10.17,-0.7515580636245816,0.38940058318746706,-0.30568206766493655
10.18,-1.0270866912131702,0.5977593609391548,-0.19257929146724834
10.19,-1.207022915716303,0.9865128170494809,-0.2995893600953068
10.2,-1.3784635471104385,1.5866750230014548,-0.5204393184144749
10.21,-1.5921716793154828,2.4166207652982665,-0.6950531377411091
10.22,-1.755662616184429,3.3546541882382837,-0.6098157676751661
10.23,-1.6132650353623446,4.116828515159189,-0.4623119121602619
10.24,-1.2112899758900293,4.500132144437969,-0.44101630429502214
10.25,-0.795714019898458,4.460214616046465,-0.32690989431946693
10.26,-0.37946288016439284,4.2076607633510585,0.02867614247172437
10.27,-0.20712635844554492,3.7967964234836273,0.3466044015482783
10.28,-0.13075456929675464,3.0161471272166804,0.34745646851235207
10.29,0.3881386090113724,1.8921712991123658,-0.13685889079230662
10.3,0.8572192814468483,0.250642407422081,-0.6103068259655672
10.31,1.3224604303987582,-2.297178214032727,-0.9673943008484674
10.32,2.3908183753750176,-6.025353192626969,-1.2690121886451697
10.33,3.439995473395757,-10.329334739802785,-0.9139237583963782
10.34,3.4095242293328747,-13.255154079980276,0.011340419964520551
10.35,2.7244246109626564,-14.15558055112133,0.40772977467497373
10.36,1.6441618890103016,-12.79280660690139,-0.2980503105340043
10.37,0.21129229996136575,-9.691794810869517,-1.7000141801773037
10.38,-0.7908973509003426,-6.406773138356315,-3.0465500525425866
10.39,-1.3120001527670448,-3.6371004378657297,-3.83098637523069
10.4,-1.673332854554389,-0.9922661443123585,-3.9648826167201903
10.41,-1.9963487049887578,1.5933989410743306,-3.664300657646873
10.42,-2.467849646413644,3.5322097908269265,-2.8842553432220264
10.43,-2.6378311171751037,5.042008544824702,-1.52821394637148
10.44,-2.6154878684559715,6.434573798263469,-0.35251894615235824
10.45,-2.923250173888728,7.407324162819543,0.16653748645948593
10.46,-3.4480972797544407,7.8943501486513465,0.4840219992217148
10.47,-3.9800629906329497,8.058558496590354,0.823045340962518
10.48,-4.529972903874021,7.888565266092625,0.8799478427488102
10.49,-4.928683405010991,7.623742118128108,0.6241756027994229
10.5,-4.79278605042118,7.5412862618486445,0.3921004800204958
10.51,-4.523101387723304,7.47853990041301,0.2750204201545453
10.52,-4.491117135386145,7.332424565613904,-0.09413452394014502
10.53,-4.086191812283008,7.260923782576593,-0.8492172642170965
10.54,-3.5392459339661486,6.919893816627063,-0.9671026796845034
10.55,-3.591921949822257,5.989111832578029,-0.15732636787081863
10.56,-1.2192119345906975,4.770747701722958,0.6445746415325871
10.57,10.146943157447721,0.8634164380104866,1.118156244996052
10.58,23.38484774253503,-8.297146972752508,4.608274326193103
10.59,26.715060892358867,-18.412958961067837,11.545263606858985
10.6,19.624440237119018,-21.430271571621038,11.3750118386651
10.61,7.556350199606378,-20.113794614416797,1.8907889970144132
10.62,-2.327467409691986,-16.45537365343135,-3.0796440247229895
10.63,-6.50122047012071,-7.721711578057467,-0.9831679623151317
10.64,-5.688722023874703,0.011307924323829979,0.37436324344839556
10.65,-3.8766137775385037,3.642107027426518,-0.1927833372281944
10.66,-3.181579565744149,5.159040735280743,-0.9587814743520076
10.67,-2.780944275447869,5.404358064080926,-1.3767663511530277
10.68,-3.2667289834848945,4.742972747478142,-2.127662778632594
10.69,-4.430792156204945,3.7019816013347744,-3.079152458082428
10.7,-4.772958378440392,2.736354673149341,-3.632694268563989
10.71,-4.295409468831269,1.943967225966378,-3.4927102234133596
10.72,-3.3766510590688834,1.6214607147239017,-2.87668186437024
10.73,-2.417386815832268,1.9098205468329137,-2.2901780243408987
10.74,-2.002757049530804,2.447626545582757,-2.0603827124336145
10.75,-1.9397453156309765,3.0227881768587648,-2.169211417751043
10.76,-1.74514449755506,3.6121393522895278,-2.215275227323376
10.77,-1.718241825872119,3.9511786256158876,-2.303704289278276
10.78,-2.3945983632265317,3.69833598341385,-2.371153737829367
10.79,-3.847862861899299,2.7059190822637187,-2.02440074717542
10.8,-5.463053028848378,1.3720576346205686,-1.6026327326817116
10.81,-5.927280052499628,0.2862301542138878,-1.4935000483142933
10.82,-4.587686444457861,-0.4065076163482007,-1.3518394981588606
10.83,-2.647136211953013,-0.6429917905674183,-1.1574845434600909
10.84,-1.4901127775313405,-0.006629683852481248,-0.5549868499718168
10.85,-0.4752191981088749,1.6557562229772427,0.7511858086274049
10.86,0.5119434549353225,3.251071292655886,1.6442090082996983
10.87,0.6438504285316623,4.164739598175557,1.587219343571929
10.88,1.1048025033033262,5.125751678930565,1.624935014356526
10.89,1.1011682053843974,6.416146777443163,2.0269197895655466
10.9,0.18851460666793649,8.556506066809625,2.61957118367709
10.91,1.5660518569813002,10.520694665208914,4.568182040801793
10.92,7.277860159107297,7.9171482759655465,9.16774815954233
10.93,16.858406108387033,-2.0992279147487816,11.073485822026486
10.94,22.214975256088227,-15.714903351445866,4.336946278719266
10.95,13.919969002524006,-24.172060310206515,-2.740951898327983
10.96,2.413281215113749,-21.366293318809443,-3.518876562110064
10.97,0.7140965806175286,-10.80047153019152,-1.1221195972154387
10.98,-0.06098852677824767,-2.6500592027288015,0.8343172806953739
10.99,-2.2872746272285402,0.35172739760587385,1.518056122955424
11.0,-4.1565704070075045,1.2486515082762637,0.8877671765375578
11.01,-5.18703418285605,1.7093037508503564,-0.9083956087259496
11.02,-5.1115410392296985,1.9672439464529319,-2.339089813304543
11.03,-3.9257891916529846,1.39858909214874,-2.9291875051421443
11.04,-1.8623952314225038,0.2871672062673718,-2.995634141616052
11.05,0.09370305222673783,-0.5458712648561223,-2.6877763007856994
11.06,1.2412044771055668,-0.859896095635784,-2.0475733948936954
11.07,1.2362173549181927,-1.0486736302556068,-1.1937277381141636
11.08,-0.23629537177674464,-1.0721879023683123,-0.5402450423362563
11.09,-1.648821977231567,-0.4883187627389266,-0.05259417466631235
11.1,-2.3719473125059602,0.41422553328853307,-0.16581877534130846
11.11,-2.92411950812271,1.1971756996287284,-0.46308621076473394
11.12,-3.395022008924306,1.780560769913036,-0.4634294919424914
11.13,-3.2031883243509616,2.389877689325696,-0.43866044928393005
11.14,-2.3694272406886574,2.9269192288869528,-0.46161938650963974
11.15,-1.685350811562315,3.300186416790053,-0.3637988809033751
11.16,-1.6521773550450167,3.575769081550971,-0.30371479808134644
11.17,-1.9771628280904738,3.8431904380342345,-0.34261574536766304
11.18,-2.1685795627593873,4.214168020895692,-0.30778839907530003
11.19,-2.2315900329402267,4.2753688307271105,-0.19787894583793766
11.2,-1.876886819234964,3.688512206082049,-0.13640974511816262
11.21,-0.7101939844669353,2.6265861493325167,-0.3598052533270656
11.22,0.8862197374917028,1.1583298944784952,-0.5516190824250501
11.23,2.705500965486784,-0.7446196351957816,-0.6454586502499685
11.24,4.68475248867918,-2.851459103628779,-0.09277876998672469
11.25,4.988310598843446,-3.9568054934342243,0.7624265269088727
11.26,2.809473827472952,-3.1686312074437804,1.1910776042996745
11.27,0.849279757742914,-1.6912897069939967,1.6666941637628203
11.28,-1.2618390797842156,-0.5319110257227557,0.6566472987747553
11.29,-2.8747198216702445,0.02740043081733199,-0.7110024653916636
11.3,-2.7575216406403147,-0.1567211569016961,-0.7479270616511214
11.31,-0.0498630634387267,-1.3024042033794383,-0.2705636435183728
11.32,3.3176276308441452,-3.0773086236601745,-0.011131320851628664
11.33,5.446569960342286,-4.967952085778525,-0.06386007222723077
11.34,5.788288403279256,-6.116364428229513,-0.37483137330907024
11.35,4.984117968547347,-5.765894874812331,0.08389681327200424
11.36,3.8009308441966807,-4.3639988890567105,0.3838048489034429
11.37,2.7631430628854057,-3.1496045936516546,0.8207065405080864
11.38,2.593786744416809,-2.3692609858581744,1.1476718087059457
11.39,2.3950435109981822,-1.7137344999123059,0.9561175644404027
11.4,1.8759876923678447,-1.5243202670434912,0.6278603377521581
11.41,1.4721663291565137,-1.4249315999465917,0.5958748624059391
11.42,1.2037914563852496,-0.8830117521223614,0.4616341750064952
11.43,1.0143174279346638,-0.12265312876104598,0.4215235593026303
11.44,0.6514268109557985,0.3176522817207742,0.2580952422679278
11.45,0.195467288299761,0.27968242124916176,-0.39235282390672366
11.46,0.0639972775733911,0.0015844166122729781,-1.2284009960009545
11.47,0.031162744311196994,0.3140930674429317,-1.8826444386732253
11.48,-0.40615445330052863,0.8873766628183136,-2.211005174949648
11.49,-0.8585781668984009,1.207583300652582,-2.33641887135939
11.5,-1.2695758654105265,1.5786316456308584,-2.5958238393136477
11.51,-1.9640243934871853,2.140775163921762,-2.553932807478431
11.52,-2.932527683277262,2.3930412214152543,-2.2080414726309474
11.53,-3.822092396033258,2.5393784743762393,-1.830646292191865
11.54,-4.014824067689187,2.3731532511929796,-1.1392043357808475
11.55,-3.118646185089345,1.992593571246555,-0.5282209625655728
11.56,-1.958751955516326,1.0481431124670033,-0.18326930567117278
11.57,-1.200168104199531,0.22444509435309926,-0.22873819904422418
11.58,-0.15809898681072776,0.06763885748815203,-0.34349365224542083
11.59,-0.41907066550058225,-0.20039320425858145,-0.06488534910436196
11.6,-1.6837040519780166,0.5087256101968404,-0.36620973885822233
11.61,-2.5574653647219745,2.139500451652804,-0.5951782681654018
11.62,-4.644165902216658,4.190589609254169,-0.9860709550154415
11.63,-6.575138256462258,3.7167753341418748,-1.3318068716868492
11.64,-5.287885357654443,2.402635403505039,-1.6192932993571
11.65,-2.861837533004653,2.867863612191255,-1.0791744042510092
11.66,-2.728329364826739,3.765543672430623,-0.021082645760453017
11.67,-4.473946225672104,1.8205958256306225,0.3894332896289536
11.68,-2.8507075071600663,-1.025787502467139,1.1192753164385052
11.69,-0.9628764654007861,0.672497138960173,1.9967017379397944
11.7,-0.9155530262392563,3.2547558435623976,2.233172116860874
11.71,1.3509831697574144,3.356786105816098,2.6723917807370983
11.72,2.811074366307694,2.188638122830916,1.963823326950231
11.73,3.7791626900652813,1.4136600265341863,1.2540944255752817
11.74,4.662620909664411,0.4903353227218358,0.7594293986535486
11.75,4.3652425174586,-0.4053688622101864,0.5894512957719146
11.76,2.717450877228459,-0.8809932876001415,0.32699675808579465
11.77,1.480815951278243,-0.754376229098469,0.07020266331633608
11.78,1.5786438968732004,-1.0640314438803642,-0.2150542092498169
11.79,1.301665268510236,-1.540152636264197,-0.8908919185124298
11.8,1.0178568303002027,-1.8822111649935556,-1.280499690302129
11.81,0.4180607475392588,-2.1028350268204017,-1.2113873357009706
11.82,0.21127022218730734,-2.4942291043176943,-0.9704877256374839
11.83,-0.27980708751054667,-2.4188857194739386,-0.5550431084311019
11.84,-1.120465454184379,-1.7784651635243642,-0.020257272738292552
11.85,-1.7019898148601473,-0.7880889654087793,0.23867765179738923
11.86,-2.0284257644313417,0.18592465004520953,-0.07005395432757787
11.87,-1.5040350103950855,1.262635730749732,-0.514673577049107
11.88,-1.5810515257813489,2.2221405128366554,-0.43977827387577684
11.89,-1.490792254905115,2.663213761557857,-0.4328759642657818
11.9,-1.4524748973779815,2.8446098643088478,-0.8436117618229294
11.91,-0.7066196796700585,2.9581106574099767,-1.48733536656746
11.92,-0.5490400256536602,2.6295840998283775,-1.5276745404208905
11.93,-0.6713750448810638,2.2653369481275636,-1.5676145297139499
11.94,-0.6375686582610369,1.8599365548474542,-1.4040226421925204
11.95,-0.6436831450994757,1.6305615674348448,-0.9832476210354651
11.96,0.16503834176248386,1.576170272250538,-0.1517619270282981
11.97,1.20496122734627,1.6158982160337096,0.7874621570197538
11.98,1.906547808016606,1.424544886808287,1.6650681099131366
11.99,2.5869609384841032,0.8662070588575858,2.1551799860183203
12.0,2.3084708665201483,-0.17618128117803564,2.306245673872499
12.01,1.8278818768702947,-1.3562762865948583,1.9522298448719784
12.02,0.9725635354702896,-2.4968344279449246,1.6323099382114687
12.03,1.016685811791016,-2.9979405801507686,0.995742325393694
12.04,1.6293158682623148,-2.676742835789144,0.22667714703124683
12.05,1.8576555257479597,-1.9529530640375625,-0.5227851163667209
12.06,2.04528469794867,-1.2668683920650492,-1.231081079132083
12.07,2.786016351433317,-0.6362043880392625,-2.291166166075225
12.08,2.679802215271713,-0.7188000153920374,-2.5565266481245814
12.09,2.2568320680995604,-0.9122766214012328,-2.2766036385413613
12.1,1.9600851747036256,-0.773673749532475,-0.9512050680307578
12.11,1.5187060378820316,-0.39762039111214204,0.30421721920920924
12.12,1.0402924392553472,-0.03452407410259873,0.31214113556934286
12.13,0.8003901703381758,0.22578877124992852,0.16308691637425868
12.14,0.5771292601238527,0.20578024261075067,0.310755744004083
12.15,0.24198144569447633,0.01672768255820108,0.8769470494190617
12.16,-0.0924346939466288,-0.07003837969072553,1.0761920489589725
12.17,-0.024987704173390093,0.27062097277773667,0.8677417678493856
12.18,-0.022755289719304475,0.8578993266603031,0.9796676452568902
12.19,-0.6244669482905875,1.6366762097497043,1.6178526862100249
12.2,-1.2623127719739007,2.1708063485031346,2.360421229871548
12.21,-1.3227023517682954,2.513356552934473,2.4981385166610797
12.22,-1.6666678375555415,2.8230056850955942,1.7123474815550843
12.23,-1.7389743492621808,2.714837364779493,0.8218676799979336
12.24,-1.2546455726305517,2.2186272617626424,0.30153390819761205
12.25,-0.3587369109650309,1.5335085500804222,-0.17280473127099386
12.26,0.27354055541884253,0.549778673128893,-0.6423127095503381
12.27,0.841186963643799,-0.5600812655017288,-0.8792575747575178
12.28,1.5993816386531978,-1.6275125197722082,-0.5528411169813237
12.29,2.0841965887254013,-2.5743055720152097,-0.05701909492665921
12.3,2.4594551949486023,-3.235386286872978,0.23600773054800167
12.31,2.4533453217795516,-3.6087524614293285,0.35504720800342876
12.32,2.2086837548060863,-3.6299132177868696,0.5047401251057336
12.33,2.0525619776222115,-3.457201919104878,0.8906498100527419
12.34,1.9492981688504873,-3.0710548198276184,1.328777909560262
12.35,1.7211079260499316,-2.4069822252719595,1.5734937323828522
12.36,1.4627170954295314,-1.6419294631143022,1.41781395149841
12.37,0.5228339703439572,-0.9700205519323384,0.617673422904995
12.38,-0.1249715492126455,-0.49943790025042334,0.294194769085234
12.39,-0.016658628322443237,-0.33441298823178556,0.3440699287217941
12.4,-0.09705844093436061,-0.32004158856490333,-0.13971727939183165
12.41,-0.21871366736211836,-0.3171902381753905,-0.31855413932560955
12.42,-0.5351424368598782,-0.27549921523269916,-0.18789675547974552
12.43,-0.8146349282595523,-0.1592485036085823,0.07472938848333768
12.44,-1.2395192712683962,0.14677305632596616,0.3142709659388381
12.45,-1.3338505182724885,0.3101271014043415,0.7624049206899175
12.46,-0.6696514049600208,0.396648996705845,1.36253745144421
12.47,0.397934001534877,0.2726163959011057,1.849277027661331
12.48,1.605638374983812,-0.10052002308929074,1.6657607845498583
12.49,2.0803745698390164,-0.3504860966912954,0.7399137871506452
12.5,1.4716989225778019,-0.11754849618303487,-0.1305006557123086
12.51,1.1188822529803375,0.2794804488850961,-0.6431423656530136
12.52,0.45818147183602775,0.8167505676275585,-0.9507974891762665
12.53,-0.3110874947932961,1.5881020500648981,-0.9878135229289593
12.54,-0.63517702703793,1.3018130102878842,-0.2952325240461385
12.55,-0.9713736336684328,0.45152286479026565,0.3448206110801552
12.56,-0.3943389233989908,-0.8146754958988863,0.6292951352259208
12.57,0.14748803795022833,-1.4809598686993357,0.7289137134840242
12.58,-0.11007066863229903,-1.4673550744813804,0.8870762986053767
12.59,-0.8925804511894064,-1.0426085427674359,1.4349347875988925
12.6,-1.6011113932965295,0.04320423546954195,1.7410201444398865
12.61,-1.6688376013686375,1.0911002309851583,1.6292670545165366
12.62,-1.4024350940651387,1.5808372176116174,1.769594326121627
12.63,-1.0603817694647053,1.500165577267492,1.740384449064222
12.64,-1.049400083224906,0.6076869010870016,1.2400964965262922
12.65,-1.2794427782876474,-0.4022674343218634,0.6935512059941261
12.66,-1.1598722497294962,-0.48384037231525895,0.48077417209365125
12.67,-0.8527907455219437,0.13542859667852267,0.3339969312738026
12.68,-0.8523006596072177,0.02360689481931275,0.08954832629305244
12.69,-1.1186443126558927,-0.6064745782605426,-0.49013501339260535
12.7,-1.0363558959777637,-1.206011191157409,-0.9267801432268674
12.71,-0.9333846759678245,-0.9356829841769353,-1.2740919656012828
12.72,-1.076652380714725,-0.3273323325839041,-1.4245181083331035
12.73,-1.3040092690399818,0.25964053005302384,-1.098098069690514
12.74,-1.5791124113637924,0.8527855754749742,-0.9369232148093528
12.75,-1.7661284521861738,1.144586349589839,-0.933140348449342
12.76,-1.263730540889083,1.2381483376307711,-0.5257642682076775
12.77,-0.6861983513824926,0.902271652311875,-0.25912300174010794
12.78,-0.26513318119368845,0.4200344194761498,-0.320791730943624
12.79,-0.07916047210625689,0.29791634871266587,-0.3929470501109119
12.8,-0.40126908052099103,0.43190356397096735,-0.47514995036940677
12.81,-1.0971315691503276,0.5658229597043478,-0.7104766824785346
12.82,-1.8516163512204282,0.8460129142601913,-0.8839177974774048
12.83,-2.3583471927861104,1.3488844205977104,-0.7153697136684896
12.84,-2.5083371157441796,1.828517967356029,-0.24731880243521542
12.85,-2.382404593693093,2.0175029893269025,0.19538157241766096
12.86,-2.09833511656512,1.7990177712828699,0.4217363256816453
12.87,-1.466336166615742,1.306976161425449,0.3336285759168259
12.88,-0.8931420999461043,0.39612515467413467,0.2587678428298086
12.89,-0.4762690593677707,-0.7456179614632725,0.3432889597785795
12.9,-0.12899778081197555,-1.8115478680364119,0.28090097882024473
12.91,0.1065940251842736,-2.6247448370409288,0.2483375661644565
12.92,0.37374639374516283,-3.0685104142816537,0.4920563976981033
12.93,0.6467465511705699,-3.021509604979597,0.7574351800875961
12.94,0.7882594232327568,-2.6492545866937274,0.8281028438137576
12.95,0.8432669062321013,-2.1803084719645818,1.008198350053241
12.96,0.9300880349519687,-1.6684693631636889,1.3828649822966186
12.97,1.1846027891707331,-1.3668333128912944,1.5785666469574045
12.98,1.4385484329258744,-1.5685170900690582,1.5530768725749904
12.99,1.6268277153021333,-2.092320940943921,1.362505119446891
13.0,1.6786934668894533,-2.5603654530099216,1.0402956238838617
13.01,1.6121246366786388,-2.737486055857934,0.6415664089207921
13.02,1.4840458271187218,-2.4763827293741234,0.40698354797367187
13.03,1.195818707235738,-1.965158626996985,0.27999775770382496
13.04,0.7988076574011964,-1.5637280631246813,0.0589375073095236
13.05,0.48352950125736627,-1.280812391669496,-0.02963977685931852
13.06,0.2489638872438578,-0.8870307713438743,0.1418710589146069
13.07,0.025193531176872026,-0.3413770444252618,0.308096463055994
13.08,-0.22637111067324345,0.19465018345644786,0.20846232470280165
13.09,-0.47235035579176826,0.6127819711171876,0.12918349605248655
13.1,-0.5841250475429189,0.8627147204574253,0.1830477072284183
13.11,-0.6466986671277118,0.9361594000066973,0.294187575708217
13.12,-0.6899649764639135,0.9347223719853124,0.2623358826943223
13.13,-0.8098825844984222,0.8397102379445991,0.07420706985067922
13.14,-0.9166689131486909,0.6198868005300324,-0.24739357068765463
13.15,-0.9522761469918627,0.4142661702042757,-0.4231164071015645
13.16,-0.9041003904608806,0.38492120221725046,-0.4450898771365091
13.17,-0.7083861940862969,0.556512354085591,-0.37590694115160933
13.18,-0.6129489236879886,0.5525806041322335,-0.3656088810318732
13.19,-0.49129323561058147,0.16106941186038642,-0.35066797920261056
13.2,-0.1234821081594249,-0.37827896867799393,-0.17113536059308454
13.21,0.18679899683396545,-0.8507984952027708,0.14778414133157328
13.22,0.2597237604315051,-1.2618208369579538,0.3305628291455492
13.23,0.20194939371948692,-1.5601557621452342,0.4984857695997755
13.24,0.010669172614959817,-1.5333163077633365,0.7352154652363713
13.25,-0.26137452178434306,-1.0973618013063196,0.653712137567898
13.26,-0.5021108308000891,-0.3221345077396328,0.32066932144873517
13.27,-0.7850778192921708,0.3555807108390741,0.0336005980777138
13.28,-1.0182779113036313,0.4778134920839437,-0.06057373786598361
13.29,-0.8468586587594193,0.19656947679128486,-0.08921772796808268
13.3,-0.5090802822365587,0.012601650270423693,0.09195873065552551
13.31,-0.43251812905656656,0.02293994084925055,0.4478386202931111
13.32,-0.5419205349472188,0.005118328078756305,0.6952627200470608
13.33,-0.6771808450882492,-0.062409302366130674,0.7216093510249332
13.34,-0.7484847659662475,0.06100420529503074,0.6223409130506024
13.35,-0.7356145615161593,0.36536072530922864,0.5728847758943407
13.36,-0.6439631902417314,0.5467194275850251,0.6659018729228195
13.37,-0.6056330018879951,0.4018721468260213,0.7497944157703766
13.38,-0.7052718439635447,0.03870401172721825,0.7761009178182485
13.39,-0.7721452349466149,-0.2629044412141081,0.8447345966784159
13.4,-0.7735465610113733,-0.344244565381902,0.9093418014672571
13.41,-0.7254497734552873,-0.3681625686309947,0.7244156129947832
13.42,-0.5311645411822218,-0.36219400550188996,0.5932244452900577
13.43,-0.2091807047135227,-0.39932373307205316,0.7997331227624994
13.44,0.08656815347768156,-0.6925880258757152,1.1062406803439764
13.45,0.3694883139446056,-1.1609895800574686,1.2106496957843895
13.46,0.6895146591432865,-1.4487482845532356,1.5116640010525833
13.47,0.8689514246177775,-1.7230028825787431,1.678966744632735
13.48,0.8778316592462816,-2.277959124769531,1.3279644010815874
13.49,0.8444929539533963,-2.819254299931488,0.874267484983182
13.5,0.7684159288651045,-2.7981763223767393,0.7893165835476266
13.51,0.35564955107537377,-2.21003063883366,0.6000807664472099
13.52,-0.31628435787084014,-1.3690026935402935,0.07779509762829755
13.53,-0.8536439724539555,-0.22422767746668099,-0.11536976067344586
13.54,-1.3055084676266444,1.1719478754107655,0.2220835383151123
13.55,-1.9280647177889325,2.336978604952618,0.5895204814916633
13.56,-2.5691643539295583,3.1194170330060533,0.6529422729341289
13.57,-2.924035111488312,3.7520438100614073,0.5273144684931023
13.58,-3.1981568428201275,4.174900027259867,-0.1839406563335438
13.59,-3.423880055562746,4.204684356150508,-1.2446280861896837
13.6,-2.590928305247021,3.544111900062573,-1.367583801564763
13.61,-0.8042961087720171,1.5421552692921539,0.41152612297246055
13.62,1.044251504628355,-1.5503083851674961,2.746645893037005
13.63,2.3711921649857515,-4.347999361538378,2.9608744697269445
13.64,2.376089654783532,-5.670833423363796,1.2275281921109904
13.65,1.3843048627181542,-5.177675320311804,-0.9346339544620635
13.66,0.19062324785795906,-3.698948003892935,-2.737267777120054
13.67,-0.5657016722158594,-2.6005524702508933,-3.4063439257785304
13.68,-0.7786462962366035,-2.5319574338562267,-2.7836566060484
13.69,-0.9589626164080237,-3.0155771372901143,-1.4208479364549713
13.7,-1.1666880136399675,-3.5663040180770817,0.1453129858308925
13.71,-0.13208184965723663,-4.763886308696282,0.381378301188653
13.72,1.9314924048864504,-6.435804766553744,-0.4317014900054918
13.73,2.7332369466863464,-6.829318075164035,0.6231000441809041
13.74,2.268569632623917,-5.304057400444383,1.3869118295638834
13.75,1.4290276624142995,-2.998813874955519,0.1288107068688696
13.76,0.3575565968138472,-1.0681520108435834,-0.33987642768977533
13.77,-0.6609006302348617,0.2992748302031724,0.022071876642476847
13.78,-1.614017821234345,1.3687368664532122,0.5079860791872891
13.79,-2.71281864844704,2.2016773485986443,0.604323524967858
13.8,-3.864771711694317,3.1393251449462833,-0.0325894504891401
13.81,-4.935498234664824,4.410803840148458,-0.5570583856742946
13.82,-5.672981778431237,5.615318409269926,-1.0836551929606115
13.83,-6.133674093422722,6.179313889010706,-1.4671334827925604
13.84,-6.078939056304706,6.037679423474356,-0.7814570034428027
13.85,-5.484203185753432,5.311713363685909,0.16284219023239374
13.86,-4.513219756317344,4.4580816352268435,-0.22460116927891366
13.87,-3.4019772422305383,4.517670684538442,-1.2477979394492418
13.88,-2.4680896580225204,4.983492071429148,-1.220079379877609
13.89,-1.0866085651035362,4.428577292962797,-0.7507296443937532
13.9,0.7048433199497531,2.3617089200240806,0.4925419793084505
13.91,2.661872358060042,-1.458714188445244,1.936833220350953
13.92,4.502037352206325,-6.052840162208898,1.0361677527779398
13.93,4.463081316075011,-9.103265920520977,-1.053378660409574
13.94,3.394025857285518,-8.149125452494943,-3.3695952513516465
13.95,4.608698392501233,-3.5731054486983416,-3.2820122361046558
13.96,7.357646834645285,-0.42772470338624236,0.24264329568512763
13.97,8.106651574011824,-2.124269833476474,1.624378956723487
13.98,11.451953725476564,-4.4891121501750755,4.166410073270889
13.99,16.530308876598358,-7.203218664199814,8.256636719836907
14.0,12.12440502793664,-12.058867067343733,6.686910953859432
14.01,4.3103796313882885,-10.807934895411012,3.6611828737016756
14.02,-0.3495742667781751,-5.126042599779478,0.7741467318719725
14.03,-4.515959903121258,-1.21404058328037,-1.3719578335000098
14.04,-3.7120493560114918,0.49535409576433576,-2.0471978274183895
14.05,-1.9094468984854116,0.7322422299016934,-2.447789522262825
14.06,-2.979835173687258,1.197746215631474,-3.205772486056979
14.07,-4.945273067090987,2.4219090963624272,-2.70768824483568
14.08,-5.564670484388264,3.0905263102082006,-1.386113651821539
14.09,-5.9248493972034035,3.532907944830028,-0.8764257743461523
14.1,-5.824437316144491,4.258396421344054,-0.9155963964586308
14.11,-5.243916776508496,5.120189838592747,-1.2793956532581867
14.12,-4.513626838169727,5.680820525127802,-2.01432100776627
14.13,-3.870069262494787,5.59773743797689,-2.540992216964617
14.14,-3.624372927396338,5.162977562285574,-2.1833218516458803
14.15,-3.3046610404391434,4.673708959914838,-1.1565091285121942
14.16,-3.1764407502313516,3.8642039478506587,-0.14243890538367915
14.17,-3.0989119296107455,2.7647911494708275,0.3812870373674043
14.18,-3.080947100790656,1.7003773920754464,0.4350181807804563
14.19,-2.867248436542925,0.9697875031833901,0.4277428775324113
14.2,-2.643013252578488,0.9184193648952248,0.16178932380041702
14.21,-3.0638638593915446,1.30212969138949,-0.48579326233120845
14.22,-3.661503167945853,1.6760046891676366,-1.2580965565096396
14.23,-4.071797041701014,1.6887642038808106,-1.5474181997858143
14.24,-3.587536938377975,1.1451810249696113,-0.8696730671163528
14.25,-2.0250967120754955,0.33427864031998467,0.39350533251290737
14.26,0.8496110511862685,-0.7272169856531753,1.420054871786658
14.27,4.646956059217798,-2.0433801898808217,2.2600106136789355
14.28,6.790926079887777,-2.989376090835813,2.7200753531334816
14.29,7.163411452286335,-3.1230685164817023,2.0462944231677693
14.3,7.237385598771212,-2.6752260479197454,0.9365076559720654
14.31,6.966758425590421,-2.4117934310193734,0.4429373872690106
14.32,7.116778160304461,-2.896132511451128,1.148254733690747
14.33,5.358351977381499,-4.7336491915406285,-0.2648088115721521
14.34,2.237498460622549,-4.873242806819437,-0.536420560106571
14.35,1.4295344740627023,-3.370954637894587,-0.20596811109566604
14.36,0.8021593235467321,-2.2575799193347454,-0.43430045063710326
14.37,0.35210075357447423,-2.0790026182216637,-0.007135086992111484
14.38,0.19141068709845993,-2.8646071105885342,0.2204720792051419
14.39,-0.38016766988833284,-3.2501658736184735,0.0032555587207326
14.4,-0.9975035117204417,-2.765316603784232,-0.7122575524894057
14.41,-1.4826089344546025,-1.91960202299912,-1.2667758620291973
14.42,-1.830736876518206,-0.8662406770945132,-1.6083527332399123
14.43,-2.011965544652705,0.22564280046675536,-1.926573654514454
14.44,-2.186210141324446,1.3153199730664034,-2.0166261290302554
14.45,-2.643510524097767,2.2894661758283803,-1.9377131513113297
14.46,-3.096672569505746,3.1480130407610516,-1.567877509446424
14.47,-3.1924131208034514,3.72701311422905,-1.0413831373475289
14.48,-3.2501176064111883,3.731017609309556,-0.5322985330284612
14.49,-3.370234612322349,3.1597239859609614,-0.1650600777410092
14.5,-3.1358360685710873,2.330915118643382,0.0041129295917466105
14.51,-2.8559069203978913,1.7674129135446959,0.3954239683986088
14.52,-2.547394973810976,1.5302164653980272,0.5809225204806342
14.53,-1.6668552819429379,1.4284731329578793,0.0991938493966088
14.54,-0.5866986086096773,1.0073954485419059,-0.5825862436779092
14.55,0.8278411066982442,0.1311835627330446,-1.0906285370599513
14.56,2.223346142879006,-0.42087394714095616,-0.7124550454114694
14.57,2.7697929484772055,-0.9204090843206709,0.5394916934482122
14.58,2.9159252235000315,-1.608880963690864,1.4524266626097366
14.59,2.3105195171482564,-2.082813822611772,1.6161551605596325
14.6,1.9925709640361249,-2.088961659700119,1.3471272334243731
14.61,2.282545372050202,-1.8996402606823768,1.1345455808183549
14.62,2.583775660541869,-1.6988404139050264,1.1141545766096657
14.63,2.936131072064441,-1.573755918901323,0.9503830962089365
14.64,2.7416742276108828,-1.8900956070440014,0.5045555841867017
14.65,1.9702059830047864,-2.234902073890078,-0.08394357046086667
14.66,1.1011202631708534,-2.201517062859268,-0.35126398470749803
14.67,0.2512456797415525,-1.7956894876839888,-0.7438051404405072
14.68,-0.30321605273435964,-1.576691542915455,-1.075509003801959
14.69,-0.4605327052390742,-1.277923173604784,-1.0394475665528535
14.7,-0.7935498733733802,-0.8066934798344002,-1.113792015569832
14.71,-1.9566951437017654,0.5003560938118267,-1.2635637521460574
14.72,-4.040069858713164,2.3286734925438526,-1.6463823794636423
14.73,-5.202992934470868,2.9231139395823416,-1.7130556374447534
14.74,-4.693980741282462,2.2972541974826544,-0.9911708063128641
14.75,-3.908016311720651,1.8767368220425154,-0.5529809777540865
14.76,-3.720198260756166,2.3562925652484434,-1.0490513122958358
14.77,-3.920810530198067,3.3037732368884374,-1.5663565065111857
14.78,-3.4960978993027907,4.070934055631354,-0.8686224395599104
14.79,-3.1800849295756275,3.9221030362582705,-0.022907393800938543
14.8,-2.2252120535351994,2.9794742632792444,-0.3757797642582984
14.81,-1.3021184305193747,1.1892989447225346,-0.6168250463210243
14.82,-2.007923354180814,0.04495376121978942,-0.6485679873031212
14.83,-2.1361600660221676,0.5003476220939629,-0.8497752837215863
14.84,-0.4591887524419259,1.1612067310882297,-0.8422596090567609
14.85,0.41003697258666716,0.9287297420478151,-0.515287988537341
14.86,1.2409557864653433,0.05793940548567795,-0.08488805088240965
14.87,1.9329359301367237,-0.9080629221225135,0.553031937517715
14.88,2.680184463062411,-1.3803050671445176,1.244217977576144
14.89,3.2273470962343005,-1.5133276883623412,1.7004421014718722
14.9,3.2380808235322807,-1.449661642197168,1.3206335878877278
14.91,2.810007555428002,-1.078913859149068,0.8734963124171135
14.92,2.4138365718280204,-0.542426397409294,0.7197904897646823
14.93,2.8640358275806803,0.06022674132619853,0.8332323098742415
14.94,2.697521886745062,0.1495713648112327,1.0612103006185873
14.95,1.5782091844661328,0.10866799971041699,1.322090050249243
14.96,0.6674863586952888,0.2608777137088615,1.1923204029835106
14.97,-0.16201829817515043,0.298029569882732,0.8477688625685242
14.98,-0.24218245705120145,0.32804502384128437,0.6144946500055928
14.99,0.15642276534642294,0.4796261011876349,0.7037494761651286
15.0,0.7956211593407975,0.41684051153336665,0.9397181744216249
15.01,1.850712174739583,0.4349486084815688,0.9160053674696391
15.02,2.0621927435674046,0.2022493312827242,0.5727856119293071
15.03,2.0734745707307507,0.11104066455166958,0.418322870468988
15.04,2.248285313144323,0.22355915415570238,0.3429593139161592
15.05,1.8753554389636495,0.4328374506514373,0.3520475695293277
15.06,0.8489489142104896,0.7958482598011701,0.6718878574498265
15.07,0.5705700362268172,1.2509320672250548,1.090005379993449
15.08,0.5586124326273625,1.7601603957474015,0.9244243722273146
15.09,0.6652068566748838,2.404937863618124,0.6104826610044586
15.1,1.1743747801897761,3.0157386435242657,0.11852253507907701
15.11,0.9736159565146989,3.3361740510649165,-0.4696141391000657
15.12,0.19683369399878078,2.924223878704522,-0.5355539425945309
15.13,-0.641756118575015,2.461269015161916,-0.1493056876615566
15.14,-1.3120748857574314,2.0345404671212295,0.42408206380039776
15.15,-1.649757542586506,1.4814184636747494,1.2450945638864102
15.16,-1.1667203371288875,1.1783463485242134,1.564006693682854
15.17,-0.2729395499626121,0.8892190335439102,1.7057228648505531
15.18,0.2878229945738191,0.5125277161600115,2.2472150139225255
15.19,0.4430518063372317,0.009658026764378096,2.2172342466334007
15.2,0.36567559361783486,-0.33452044687892374,1.7451527897971248
15.21,0.35516231017005934,-0.4112291880572232,1.5859308195423365
15.22,0.2737239427647057,-0.4102521389164811,1.6319797377634961
15.23,0.2017848315205385,-0.3706778819010832,1.4831553599210594
15.24,0.312709717526112,-0.2705102143973584,1.3299279204706205
15.25,0.11396628091322746,-0.48165896642159284,1.4051732018495793
15.26,-0.5386500821563752,-1.133389947307739,0.6649792320430316
15.27,-0.9652046468803062,-1.7863456506880107,-0.6199546174424466
15.28,-0.35161445916958717,-2.5479230649644413,-1.6242127846923362
15.29,0.8298652015964796,-3.4369087437445502,-2.2342013944999404
15.3,2.071509967264317,-4.446732191869192,-2.2465422012884857
15.31,2.7409983075467284,-5.551108581343913,-1.043710029678638
15.32,2.5606174683177083,-5.565996035834329,0.201293915478847
15.33,1.4839177399959027,-4.298071691455871,0.5201674513540642
15.34,0.33839507113292905,-2.5879068116920125,0.6015691018345475
15.35,-0.1409316063233373,-1.1662024758744929,0.6925354067568652
15.36,-0.21101590207562956,-0.33934021843291884,0.733617916975569
15.37,-0.18657483038502873,0.043771740712889196,0.21653069220784557
15.38,0.3857693799096599,0.33273502593954385,0.1593196729949847
15.39,1.78067890743922,0.5097799697725799,0.6123737761060971
15.4,4.0634307658269035,0.17820644542324596,1.1870074522460201
15.41,3.9209363139606577,-0.3659655699844628,1.5407792480681504
15.42,1.870380550559927,0.08867456561206714,1.8042002448792729
15.43,0.10903216764358445,1.0483618114423703,2.0786154026986243
15.44,-0.7168601013740432,1.9812001157756949,1.8576514631592123
15.45,-0.6293600416933781,2.5659138280941276,1.619923364734555
15.46,-0.00016595622718843076,2.5453730067556886,1.4063492696922624
15.47,0.5711787685145999,2.178451513455212,1.169104492891662
15.48,0.5247306478636333,1.794403404561101,0.842582039372654
15.49,0.09590373919891348,1.5076170571321956,0.4234231764077431
15.5,-0.38003590715862096,1.4229889993861287,0.12543616089417975
15.51,-0.6767259890009578,1.6702610060921845,0.2586449576853567
15.52,-0.2858143154065896,1.7027882569262427,0.8043434825838007
15.53,0.31097722162039126,1.3803052286258013,0.8696550084140724
15.54,0.7980825030011156,0.9832485952440119,0.8799923647762558
15.55,1.4643426302379332,0.29547601857315586,1.1629443317008672
15.56,1.806503573421413,-0.4039667027660738,1.02764996014482
15.57,1.5838207127489978,-1.0813065036725535,0.9657520109329334
15.58,0.8215276679885596,-0.8308537099166995,0.5977630643007755
15.59,-0.14701943924122654,0.06208119823417574,0.4246732483178068
15.6,-0.6983328976125942,0.5324707414782419,0.47890396795240864
15.61,-0.6804016459569329,0.3058801241087839,0.5081932236235384
15.62,-0.2723612162677092,-0.34055940959900005,0.6268048604842682
15.63,0.14033225899272597,-0.9067222638913122,0.6218599516471908
15.64,0.3706262176575205,-1.4815420238706363,0.24020753603668302
15.65,0.7843391275343264,-1.9047339145043152,-0.14054546368264795
15.66,0.9290253642926023,-2.023045290926645,-0.5191331448779943
15.67,0.8304359641482705,-2.008438209950902,-0.766610424626642
15.68,0.9949912947562088,-1.3257835123524533,-0.48124585577960427
15.69,0.387620463490341,-0.8468858225207221,0.12588960260482276
15.7,-0.4744039469105449,-0.6715844751230153,0.5233980654732014
15.71,-0.37447524167640156,-1.1093262180465908,0.4985478427700163
15.72,0.3438135301907957,-1.4781799932506017,0.3625778287999753
15.73,0.2938468625936386,-1.5625574363072607,0.30288802173010165
15.74,-0.7153468209622525,-1.2615177141268699,0.0538362720187658
15.75,-1.3121433538273632,-0.7318755731757978,-0.4485988479892791
15.76,-0.8423681143484798,0.3390453304534385,-0.5743179721277378
15.77,-1.27950908178249,1.221466702540157,-0.16541629315948594
15.78,-2.0177518446862903,1.0706066595305552,-0.3227850977882567
15.79,-2.2575614548818,-0.19392720115369932,-0.5815908210173087
15.8,-1.626174849411639,-0.5868122293810901,-0.5153556456537307
15.81,-1.4885638358252402,0.6776682387131696,-0.23589627573290728
15.82,-3.1111620481908524,3.806244030774318,-0.5551055047257957
15.83,-5.744146439960737,4.373748190332054,-0.6890108289711797
15.84,-4.456279318238711,1.5827970171548496,-0.4382009708564028
15.85,-1.732899216319764,-0.5639372281064547,0.10162615321765797
15.86,-2.0975479574572176,0.19651982800415474,0.3242841303961499
15.87,-2.297962931322398,1.8966974286797385,0.6256376730390886
15.88,-1.6512270173668846,2.5974797031527923,0.759259035707536
15.89,-1.864335735592624,2.552479445240093,0.3134103763891327
15.9,-1.5695734172886482,2.176488858282424,0.03790867798034699
15.91,-0.7698744231976994,1.3692651737848534,0.045346590482417785
15.92,-0.27876840930822716,0.6778518268624686,-0.03869633657936478
15.93,0.2554302491203498,0.13276225260020205,-0.007922942900941842
15.94,0.7023764493616333,-0.46227836013826284,-0.18124081648423254
15.95,0.5825067981769679,-0.8676775575131197,-0.4936466263370047
15.96,0.6227979959879248,-0.8685555089319322,-0.3262495906222888
15.97,0.9126386332941168,-0.8396017734192799,-0.3219242616442089
15.98,0.886343843290825,-0.9433208293303744,-0.5807996850809378
15.99,0.5273815698145863,-1.050113493299647,-0.8784686975901171
16.0,0.47099650079783884,-0.9054293189148276,-0.8069268875648589
16.01,0.60384458454753,-0.5885835533641928,-0.5048164882314906
16.02,0.4800274614298909,-0.2664562499710903,-0.35433482246285025
16.03,0.1790177209424667,0.22763752175029636,-0.35432218068216376
16.04,0.0339578572836334,0.8541236817996419,-0.27856291498696667
16.05,-0.02256910241128526,1.3863291214060616,-0.2931030539339169
16.06,0.009053812620795926,1.5630554476326204,-0.41186519160121093
16.07,0.43183549985985176,1.680440445717473,-0.5187738917099425
16.08,1.2951104024113602,1.7413640845673086,-0.7195734085706468
16.09,0.9820666897784492,1.443284132562867,-0.8115736231598302
16.1,0.8640032051242218,1.22062286586713,-0.6226060500030632
16.11,1.0785539104263355,1.043343996953977,-0.3803078992628199
16.12,0.9152734498823101,0.9162117117646728,-0.2458224018394181
16.13,0.3252305532666478,0.8907775479330832,-0.17862813161989544
16.14,-0.04137761003157306,1.1601292780065842,-0.11805175527484284
16.15,0.08026706484243058,1.5307618069937028,-0.1195063513915085
16.16,0.4349413144255961,1.7714783357978736,-0.07870823714634642
16.17,0.6943854369734659,1.8810662026341614,0.0020531048377722956
16.18,0.9036154273580198,1.7863398507002104,0.03353070493683962
16.19,1.2501191039217376,1.494703665227761,0.1388802550396216
16.2,1.800389325802386,0.9981411115506945,0.46622693601569487
16.21,2.5984562555353303,0.4122931094539597,0.8459516958401562
16.22,3.186011439885228,-0.15550856234355664,0.9290835554627151
16.23,2.97988213463404,-0.7828563599449363,0.7911459487641536
16.24,2.085134875599459,-1.465622234355649,0.43380524154064926
16.25,1.2825311112301456,-2.0509615844394378,0.09878469843516523
16.26,1.066800414747691,-2.4088244351114856,-0.043103556316844864
16.27,1.3652929416529476,-2.44471110705085,-0.25407824610654617
16.28,1.6502493381601937,-2.3335580351002165,-0.4385403961952503
16.29,1.3775886524040413,-2.1757146709735786,-0.35603217883114946
16.3,0.7336815601063122,-1.8624486619096732,-0.04930981178856238
16.31,-0.05385421938373767,-1.4987633602448343,0.3142266486940876
16.32,-0.7276955584493727,-1.2139430080074454,0.5597407820322843
16.33,-1.0586030979303762,-1.070268207755503,0.6298168545306269
16.34,-1.0625576783436685,-1.075354567755544,0.5116291019680206
16.35,-0.899708515029202,-1.1213360337617686,0.0017277438206939155
16.36,-0.85320525519372,-1.1381030452341998,-0.7773789093568235
16.37,-1.0295410029495637,-1.2517715973235402,-1.4301308187768194
16.38,-1.143885858844073,-1.4525035979791951,-1.8737371336740052
16.39,-0.7098350659794654,-1.4319590249239094,-2.023786985751299
16.4,0.10898977220465333,-1.2979118343740121,-1.7461427089769423
16.41,0.8059975119893136,-1.2750837987648456,-1.2940214882945114
16.42,1.2036929302682495,-1.1818479567780193,-0.9605324396730455
16.43,1.2473686703687579,-0.8628232053817156,-0.5477117225014022
16.44,0.9751810169535661,-0.4348047792308998,-0.17810912299032056
16.45,0.596242440299976,0.0061571352241213,-0.1491906923118974
16.46,0.20997514973541803,0.40885538858269094,0.0019117914961806596
16.47,-0.06318812910601734,0.6909225903620482,0.5294106321784987
16.48,-0.13915388318040994,0.8892412628545161,1.1292748001403419
16.49,0.042499237910288735,1.0737593124976315,1.596030717069351
16.5,0.42715847384210737,1.146267990445812,1.8370086717697736
16.51,0.9899854833447361,1.0093907807709714,1.6538794227781264
16.52,1.6216912594185058,0.6440057627349755,1.1276700689528636
16.53,2.143262287963841,0.127949818113636,0.7739360364154863
16.54,2.305800076416086,-0.24024318137052314,0.5851398940963427
16.55,1.9156724428197884,-0.19147363805137485,0.2990545017227684
16.56,1.496529894910393,0.07319678161395686,0.06485643138703442
16.57,1.2253521212687266,0.20107378961496827,0.03878604322723257
16.58,0.9744168672843078,0.16831981419709627,0.1584107651334318
16.59,0.8825919031601419,0.007814541927251093,0.14246742575836685
16.6,1.0881376577941793,-0.21370991280744786,-0.10429199929165107
16.61,1.8036231761344914,-0.4840511672275956,-0.22435153788019174
16.62,2.5864471194849536,-0.6733790987583487,-0.14872757417314467
16.63,2.744908012200046,-0.6182568228437142,-0.20543538027436054
16.64,2.1895301783782855,-0.3449832498527861,-0.5304074751149255
16.65,1.1119040223145868,0.1362631662666797,-0.8991807994911646
16.66,0.060966587454948346,0.6107014257420336,-1.0603674573722672
16.67,-0.6095427744237494,0.8261149052691984,-0.8924500891582094
16.68,-1.152396271228333,0.6746979983909158,-0.43024833242630245
16.69,-1.0162875302249224,0.12926731431688226,0.009913121402437473
16.7,-0.26069441696101797,-0.5160015532348314,0.25016221622414764
16.71,0.09570561685509295,-1.1572217686522717,0.3221954339125548
16.72,0.32666719075166356,-1.5965959780487209,0.34047859530795127
16.73,0.20602055474334138,-1.335889778427619,0.41793382717536776
16.74,-0.45104210590073573,-0.08239672153513868,0.347227565185007
16.75,-1.4279192905364158,1.0896628657332232,0.19544312933954686
16.76,-1.6482087615176104,0.7704941841340847,0.03534501638885959
16.77,-0.6675385036661402,0.609529577467578,-0.16601574813346684
16.78,-0.29093360828063236,0.7989141100212308,-0.3005098996047576
16.79,-0.8089219320970757,0.2276735686616678,-0.3735545793651139
16.8,-1.5454943612707208,-0.015108398663324503,-0.2730432591888355
16.81,-1.4916656149309486,0.33238236547166483,0.019543120819553943
16.82,-1.4707515672166924,0.58660055822099,0.1990209360781989
16.83,-2.104264098152766,-0.006044182950663883,0.02913509023519213
16.84,-2.239102344396706,-0.5530353328445788,-0.10469484913747952
16.85,-2.4925597017512886,-0.23891153434253634,-0.25307318273675583
16.86,-2.89695862322883,0.6225005479820981,-0.43965928395429915
16.87,-2.526921161641617,1.4313058707313804,-0.44929454287514164
16.88,-1.724269650922243,1.4400488932281825,-0.17954186878873632
16.89,-0.5772125178176444,0.4296682408165088,0.2871563135330735
16.9,0.20150058301993426,-0.23818372601606455,0.8922706686407542
16.91,-0.3093307399773386,0.004709045114843237,1.1587000690684213
16.92,-1.152278020949795,0.8074786232513388,0.6523192391781815
16.93,-1.5669917875005135,1.8213118673322386,-0.07870124383798612
16.94,-1.5275175532490475,2.1871921070060836,-0.6808971026583553
16.95,-1.3501080936239092,1.8474467512106463,-1.1529672404562865
16.96,-1.328023706630622,1.7367030703720834,-1.3446919860654691
16.97,-0.9823011215784967,1.7870031936931896,-1.1824309042876036
16.98,-0.34500276063608437,1.262115535108253,-0.954328878632822
16.99,-0.3104513330990861,0.37526896135015836,-1.1026347116793451
17.0,-1.0952848622400646,-0.07901133934719166,-1.4188361509830263
17.01,-1.7209131739228511,0.10049032837810282,-1.2102684723245032
17.02,-1.6117866541642474,0.47946162603018094,-0.6408458659691957
17.03,-1.2702501357393163,0.7133081754952332,-0.4848910134340635
17.04,-1.1662833161490154,0.7240626276274201,-0.6105169297584816
17.05,-0.7140806975808198,0.7813572478836689,-0.43102662811829884
17.06,0.3254896845472301,0.7789851081710936,-0.1447068073438303
17.07,0.7961791800826761,0.5012728005833657,-0.07546417205877094
17.08,0.3860987258212381,-0.013648985841702994,0.010537198816635885
17.09,-0.040887935566934874,-0.35131650780204243,0.24649308346329138
17.1,0.026497998818449577,-0.2850612720256193,0.2852072825100444
17.11,0.15041114426877686,-0.116680001753266,0.18438033715539948
17.12,-0.1241356416092315,-0.0817205592761188,0.1788131906616536
17.13,-0.601855359480322,-0.2634850880343487,0.29154796913002906
17.14,-0.5706595105279663,-0.3900212620571741,0.33358806847854866
17.15,-0.21954042236278207,-0.48773445074369576,0.2294401054272232
17.16,-0.14390555498587204,-0.5708251239384926,0.14543466215841083
17.17,-0.26332098081489363,-0.5517423268034152,0.20128432879550237
17.18,-0.06732069162629897,-0.37465155941942835,0.17725436870297606
17.19,0.2661511681655576,-0.019563837075626585,0.17179462322455116
17.2,0.4524497101545111,0.21027473690320272,0.20004882156096782
17.21,1.035857973337463,0.2523952223478661,0.12945627247883892
17.22,1.6453256135064094,-0.07893513133330461,0.01818592091786592
17.23,2.0963528405413907,-0.48820790338924025,-0.0026293065772385687
17.24,2.3086130242810414,-0.760640776628129,-0.021075869611846126
17.25,2.189877044463466,-0.9182525590212974,-0.29334366832493847
17.26,1.8207448136502922,-0.8712766060270561,-0.6152405123792996
17.27,1.3274699403005354,-0.7832374602573129,-0.6886806670932349
17.28,0.8671804849439407,-0.6599384713854662,-0.6759279643642712
17.29,0.4742288855691918,-0.523777416846331,-0.7937862762400384
17.3,0.43610953569786487,-0.4423385024668419,-0.7483471332369263
17.31,0.6884968712248397,-0.3659279861648645,-0.43829939561806425
17.32,0.7827403777727421,-0.39651946281469047,-0.0743273683192429
17.33,0.8085150505206176,-0.46028912226459706,0.11655816096459358
17.34,1.1370105854803705,-0.5998443749327472,0.30655362159441907
17.35,1.5127331466623533,-0.9831120705735308,0.4607134885466026
17.36,1.6960564867736934,-1.4054632272310583,0.3412558948149422
17.37,1.6848963542063558,-1.6025715107672502,0.12061629484818276
17.38,1.5469106371109278,-1.618768434948395,0.09499151112240432
17.39,1.1677026103259849,-1.600157935155177,0.24853507492532717
17.4,0.6398967337347548,-1.6144585988266955,0.25815895326023847
17.41,0.2564157354313185,-1.6353472096545056,-0.09235348468671081
17.42,0.2812253840909878,-1.513092483232897,-0.6887735566565434
17.43,0.5365225197677402,-1.1189815202917075,-1.2934292196833894
17.44,0.6237246036844795,-0.5332271631210506,-1.4028194380842962
17.45,0.3192141690359752,0.12053057171188597,-1.059812413180599
17.46,-0.3771100847742316,0.7579503861064311,-0.886729731455268
17.47,-0.9300910726024284,1.2893219688704864,-0.5974479931894048
17.48,-1.0976036895642602,1.5375023979009985,-0.0899529215926641
17.49,-0.9766955161570796,1.4277818813213596,0.01961613916571937
17.5,-0.3201446982565251,1.1567986281868263,-0.024529163608115034
17.51,0.5699361610305602,0.8372538440827617,0.08406005060221534
17.52,1.0826102294950761,0.5435796828528544,0.22400423878992126
17.53,1.0628371175022124,0.24063429475055564,0.19324367462527164
17.54,0.7010619243601802,0.14143858837792803,0.27625896294482677
17.55,0.1702956705040365,0.23469380484007435,0.7456363999265555
17.56,-0.49587490702957204,0.40928782737463754,1.0811300360819616
17.57,-0.6586421428335403,0.39569986491091963,1.2280113661727006
17.58,-0.03924638239871541,0.05312717798308773,1.3768714346727198
17.59,0.12409202673743837,-0.06090910536431325,1.0461151620232771
17.6,0.4965567300874216,0.004581110124434031,0.7352042942764768
17.61,1.048269308958079,-0.19442685271232396,0.7860580837496123
17.62,1.7079150275015247,-0.8293835865288257,0.44330752971054077
17.63,2.4979969438833534,-1.6822568520588603,0.21752260917677427
17.64,3.0046290548625585,-2.26150665821319,0.3482831683538507
17.65,3.5070997748477213,-2.443579487350943,0.0796664125510437
17.66,3.520396578077985,-2.130097753853812,-0.11502541801087098
17.67,2.692681871964397,-1.4995204459650782,0.009822979850244181
17.68,1.3823585550274964,-0.7219929860069407,-0.12947885018359528
17.69,0.0027276858707357254,0.039746299186250056,-0.06356926238590561
17.7,-0.34182613731986705,0.36559621615685656,0.38448761675607146
17.71,-0.1576250370652707,-0.03829566456450874,0.6665499175221525
17.72,-0.14081949882295813,-0.4723129349551187,0.6080311315955454
17.73,0.15424267754638002,-1.1553600745423136,0.6871332569210169
17.74,0.501766779043485,-1.252649381839623,0.40964766356773136
17.75,0.3496309651495639,-1.0812542239762868,-0.023489718957611393
17.76,-0.6155166864606172,-0.9570994406427785,-0.4304933235768934
17.77,-1.1504560254543272,-1.7947541571343644,-0.8177631058495051
17.78,-1.0936586079269675,-1.0431492152372976,-1.1796676676335844
17.79,-1.8237525691805496,0.23653096655732805,-1.494804102362435
17.8,-1.861929419149882,0.9281547860858125,-1.2978769523132656
17.81,-2.3678056463078176,1.3432754495129082,-0.8392648104698046
17.82,-2.9686776186150365,1.418623444457782,-0.7107246991476264
17.83,-2.800526004676405,1.5661991276993306,-0.23993933602273712
17.84,-2.616426719808618,1.7270199624427562,0.043254840872309235
17.85,-2.861877026644925,0.7533761092275838,-0.19038090478974165
17.86,-2.1333387452879182,-0.12823152911837052,-0.34477677563540704
17.87,-1.7730107033778804,0.10259299663203525,-0.6062996584338934
17.88,-2.033298935032112,0.4972168240789398,-1.0083364879941772
17.89,-2.989329430689593,1.409166465940675,-1.050684587002619
17.9,-3.2498643139679255,1.981670950725347,-1.1359563473243344
17.91,-2.706582583408177,2.2038072673724542,-1.128063037228581
17.92,-1.8668505325032887,2.557196481246925,-0.6320124839704545
17.93,-1.244605240984867,2.796817733673658,-0.4564595375169397
17.94,-0.9594049390331075,2.674884963871951,-0.116753498378289
17.95,-0.6183051805803121,2.276990779868269,0.2824803387772688
17.96,-0.5972528892945685,1.59497509853954,0.3615490948277087
17.97,-0.9204907335706987,0.6044175170132421,0.05059212112340839
17.98,-0.8280393689805918,-0.5486683850264978,-0.11468060327512411
17.99,-0.4773518096033547,-1.349411024431008,0.12000731186955743
18.0,-0.5886617922627453,-1.713447391180555,0.22377436367431325
18.01,-0.7103048748290834,-1.701003126591407,0.20637662459842113
18.02,-0.40010901019539136,-1.3924348280116248,0.3964391334295284
18.03,-0.04103048247069615,-1.2018373932648614,0.7634596079238489
18.04,0.11007482806126705,-1.1637197686105336,0.9257019351108463
18.05,-0.5647129748247831,-1.1141943954377624,0.6640780720339226
18.06,-0.8269031812372434,-0.8399157709044096,0.36390866138301653
18.07,-0.9871355133467513,-0.4819394332095181,0.27621035202931565
18.08,-0.6189095767832671,-0.07712348270981113,0.13293911438638376
18.09,0.40031289918485347,0.3133673760135635,-0.26719281309389703
18.1,-0.020581481376268203,0.4828399076358569,-0.4906524688985739
18.11,-0.7154104776571847,0.44375531704959426,-0.7068174790814821
18.12,-1.3738594312086267,0.5586606191136199,-0.8045273271865089
18.13,-1.0331396290674342,0.8650971450395132,-0.9174030062054936
18.14,-0.66704879976094,1.022790166895879,-0.918035299151673
18.15,-0.6252625822196565,0.9560499303453905,-0.7928840852350248
18.16,0.01963234630982824,0.7398611612630172,-0.5406033459437126
18.17,0.7911780245307684,0.29045754134013513,-0.273296970520194
18.18,1.3772070173709334,-0.21951010005179128,0.08624011115135287
18.19,1.5259305413164195,-0.8005875502788712,0.5664734099359369
18.2,1.2667455517278354,-1.3659550655991786,0.8322101426254536
18.21,1.149195531036729,-1.9129350497167823,0.9359870106464956
18.22,0.46324108187206886,-2.540096744486355,1.1867292814431158
18.23,0.2845287006994111,-2.9561987420215745,1.3275212541780557
18.24,0.896814383332069,-3.1176314302688044,0.9760407994129905
18.25,2.1467906900375757,-2.898007802968177,0.573460177450405
18.26,3.6072524200421197,-2.141719119963071,0.5911387719674828
18.27,3.701515049930277,-1.3695961241436725,0.41525288983841346
18.28,2.900496406854729,-0.9189379928006437,0.19342716447763064
18.29,1.8597190539081505,-0.38904292273450386,-0.0052333646935587555
18.3,0.9290661000487834,0.02613949304244675,-0.3476038916073583
18.31,-0.01219790035874235,0.20187707892194692,-0.6759572183482949
18.32,-0.6609668822418592,0.49116353535922774,-1.4013863431266351
18.33,-1.1454904033324413,0.5546829409626359,-1.9114380686554295
18.34,-1.3982824098901327,0.5362813909806334,-1.9989748466131347
18.35,-1.0933336097750688,0.6851452624623953,-1.950442018435536
18.36,-0.9222713182133824,0.6703850470007703,-1.5847657352663556
18.37,-0.9964523994105389,0.5292750923693743,-0.9781037120499473
18.38,-0.7921514334690711,0.2957412415831192,-0.8056598713868154
18.39,-0.46580206723938844,0.025331185487037864,-0.415628752893377
18.4,-0.05060675889478497,-0.015448720984311683,-0.003021024323045856
18.41,0.047931961949911076,0.0859297215507236,0.43586028601832133
18.42,-0.2635922487545743,-0.007069615384370961,0.8917242034308183
18.43,-0.8053723123056298,-0.24057890335144072,1.4754156568213614
18.44,-1.0937302847295824,-0.496714833603363,2.3910114808414256
18.45,-0.5665427303547345,-0.3940239603724948,2.9127608707106636
18.46,0.5117944656233666,0.23833142875923097,2.514238164417272
18.47,1.1850679136619457,0.7413835266697526,1.5244691664819672
18.48,0.984870503020147,0.4729992268490698,0.39986418086423253
18.49,0.40884772775604356,0.06503904066545031,0.30926245120135937
18.5,0.30635635177498827,0.2596315127981993,0.09944340579937647
18.51,0.1941334147238796,0.426964453367288,-0.4020259632815981
18.52,0.10207631164248492,0.5500180525274468,-0.4054898056163084
18.53,0.24654562985663686,0.516474637582337,-0.4244421815259397
18.54,0.45396588546838845,0.08899617104751106,-1.0288299612838878
18.55,0.4013624732397703,-0.4985211291264636,-1.1378330969561021
18.56,0.5807301425004717,-0.8579614386988621,-0.47991256797034076
18.57,1.1413243276944907,-1.0843141446980216,-0.12032433342924004
18.58,1.9011277847138215,-1.2794862505235798,0.21837224849579842
18.59,2.384976232388405,-1.5515861498544434,0.6944005704309898
18.6,1.5640290270274626,-1.4745239794678044,0.9154892987704302
18.61,0.10091919919116771,-0.9741850817323291,0.792446916458091
18.62,-0.6455831480016065,-0.16507986745228562,0.7600206090909162
18.63,-0.9554933013773519,0.44258705327270614,0.6034975932239918
18.64,-0.8735625564557313,0.6281570748056869,0.7345717649901743
18.65,-0.17639410516563409,0.4214004365477866,1.037981536473291
18.66,0.8571112423833047,-0.0015951860640125663,1.0314588015874007
18.67,1.6454091151471721,-0.5689455933838082,0.7538173578621397
18.68,2.100728953531457,-1.4158719135973803,0.5317262976183126
18.69,2.6852782734161007,-2.3804897385571446,0.6511443301711229
18.7,2.156319467638276,-2.7507187614444746,0.9056970953120105
18.71,1.0340968952658598,-2.1671587342731646,1.126264545603526
18.72,0.4631336335664067,-1.1029652739557811,1.155377597665859
18.73,-0.1747229498003494,-0.14704131946217291,1.040325849883648
18.74,-0.76823342494455,0.4813718997491192,0.43790274978226124
18.75,-0.6579492243000714,0.8151511624602582,-0.15515103913071948
18.76,-0.41828654207969473,1.0715091718222673,-0.403958762264109
18.77,-0.5206547864585382,1.1965632890339817,-0.7093134413366871
18.78,-0.5589874436512698,0.9829242797701023,-1.01388254606677
18.79,-0.8816460228859039,0.7894797801932004,-1.156892358041246
18.8,-1.9379065186807933,0.4842042603493734,-1.276707770455477
