seconds_elapsed,z,y,x
0.0,3.6707600578308104,-2.4247277313232423,7.62912359008789
0.01,2.3694925797004935,-2.4836389810494857,6.849556242444662
0.02,3.7647318795242413,-2.8384809267784816,8.808075897244784
0.03,2.606180892826875,-1.5857926794795967,7.004216586412505
0.04,2.857769803365872,-2.4593042232519684,8.476501744822551
0.05,3.3426284828269983,-1.102528539083142,6.885517708121039
0.06,4.27952192499132,-2.6398029296075305,8.460004210407007
0.07,6.273505543095898,-3.2519984827846686,9.83444682603678
0.08,5.489623476647837,-2.35889323030843,7.779563528728557
0.09,6.451054377447074,-3.173267385201578,7.81448949737413
0.1,6.830645492846098,-3.563094837108994,8.282576890256916
0.11,6.555003439926434,-2.8877904220892465,7.960829332142126
0.12,5.813400915546204,-2.7941601625085286,8.167289779222184
0.13,6.21319702443625,-3.7372463024881637,8.30786588922709
0.14,5.1087701226633175,-3.650111594051647,7.840018453913975
0.15,4.5847911317736205,-3.1419558431363326,7.935122571948138
0.16,4.290028049623017,-3.0612162673210146,7.746017197438465
0.17,5.300296548405993,-4.280989710053362,9.10859092799616
0.18,4.7701374512298464,-3.9856009839466395,8.271392902935554
0.19,4.547631216142926,-3.331259123654044,8.353882995462662
0.2,3.9379219629724678,-3.2349648490316127,8.224099472650645
0.21,4.125504519589939,-3.487441093808299,7.31868832270036
0.22,4.147727689760019,-4.169683599313396,7.446904146654654
0.23,4.012378017384846,-2.840234246139303,6.0978610176636225
0.24,4.410972863494046,-2.8166246541677573,7.458461273108058
0.25,4.545201529055996,-2.932300270874317,8.078768537411692
0.26,5.392322810497526,-3.004721554166654,7.4837431115226485
0.27,4.6090844581242125,-2.74796905154784,8.042653658227616
0.28,5.271480486359466,-2.1090501307574203,8.611497662690253
0.29,4.546786915988453,-1.7643604926263385,8.815691304026595
0.3,5.328498498721965,-1.7508195808981142,8.582869560012902
0.31,5.056148219328809,-1.5295111618861816,8.856142929455888
0.32,4.743805696610489,-0.758129715461856,8.03329622873324
0.33,4.799673092578375,-1.300315784774297,8.285489267642545
0.34,5.2782942482826085,-2.0657578980349673,7.7270925545535345
0.35,5.241575929945999,-2.194998998598021,7.705174973428737
0.36,5.100269203289975,-1.5425352334581086,8.459680738325726
0.37,5.1293642786857605,-1.4993621887099289,9.36531030637725
0.38,5.901016312380785,-2.2216384867636076,9.565799863616077
0.39,6.135389643998487,-2.788779622230261,8.738760472518477
0.4,6.503147883249083,-3.1237734649163227,8.671669819407967
0.41,6.026240494660992,-2.991193957943213,7.822938077854951
0.42,5.266664762343727,-2.4771277181832536,6.9218230088833135
0.43,4.683545888146239,-2.435084478325606,7.10896173981791
0.44,4.313685983226037,-2.970743354297625,7.22848832115341
0.45,4.476564816892933,-3.6706013609910917,7.776531048832246
0.46,4.8745844947679595,-3.6015955432237394,7.135527626442469
0.47,5.641085306893771,-3.0645519213981225,6.568007417005969
0.48,5.53536965917423,-2.8041939032976093,6.661113430658336
0.49,6.25835855617362,-2.966330530732065,7.431116428251734
0.5,5.803749991572644,-3.51584088016063,8.003540336123535
0.51,6.231528141573369,-3.6017774429050995,7.841519513620861
0.52,5.769687561323093,-3.784033313421138,8.228511460118142
0.53,6.07057572767187,-3.461461635623308,8.010085936373303
0.54,5.8292145074107236,-3.494092480662608,7.923018244740903
0.55,5.865376101521215,-3.1992956581951075,7.728525192468648
0.56,4.351886015492866,-2.631462704295061,6.730856792396655
0.57,3.561147782463578,-2.5972896521422104,7.237630386392907
0.58,4.070223208148538,-3.120307355055945,7.84459087477351
0.59,5.269238764561206,-3.3780320990147095,8.439868757045883
0.6,4.8764857809405795,-2.332841286203406,7.2801895818499025
0.61,5.662689949099094,-2.240340120968304,7.106893231780608
0.62,6.39801787214952,-3.250823165496484,7.784798540861438
0.63,6.236283574722338,-3.5365101664169907,7.293956487901123
0.64,5.731963033226624,-3.2454517265932554,7.230722284496962
0.65,5.524172211697506,-2.967933171313264,7.534849518624522
0.66,4.985253033533397,-3.2077595641362358,8.090415070008316
0.67,3.7913008398222914,-2.648717123445243,6.8085326911887325
0.68,4.727935528859537,-2.9997816019157297,7.206984462872606
0.69,4.620375054805689,-3.0106599317599474,7.336027254182819
0.7,4.76819944010251,-2.5998666107622856,7.4715938844223375
0.71,4.230762423630115,-2.4978717739079244,7.3167315313620955
0.72,4.760813634082565,-2.929135228071747,7.374496795676013
0.73,5.5285919732848114,-3.79114390873484,7.865194220707474
0.74,5.294763033029145,-2.9653759090861,7.165204860943296
0.75,5.5274041931745845,-2.802333132603716,7.498787311173824
0.76,5.03460820215672,-3.124326152988998,8.189917596699281
0.77,5.290521074098781,-3.3085029290114245,8.016378499799334
0.78,5.656109922546364,-3.279807087183564,8.537318916879288
0.79,5.712700989115377,-2.8669368070806063,8.754902055632726
0.8,5.05824323105755,-2.647868647666586,8.141634283471793
0.81,4.550764764841188,-2.798613566213716,7.963063270667613
0.82,4.759695940045032,-2.7395355726073847,7.915460364121235
0.83,5.466090844948223,-2.58407216940662,8.013296013774585
0.84,5.600437881777112,-2.7151632230089047,7.843873626951413
0.85,5.395758525564106,-2.6852026164130436,8.130628762929115
0.86,4.919656364843178,-2.3284865874112515,8.237852613511846
0.87,4.966514447903604,-2.2994253524668924,7.993732614266791
0.88,4.772426715288586,-2.6618446113186063,8.062826007286354
0.89,4.783187567201405,-2.3835270547277627,7.3231557773836755
0.9,4.685267446084916,-2.6399884769386377,7.739494900130402
0.91,4.716185649602443,-2.742636162781426,8.26108034166828
0.92,4.3523307524742,-2.7764708580183326,8.412316336155875
0.93,4.539219536400202,-3.417141082190095,9.047910977289575
0.94,4.742313558451047,-3.508483372251387,8.540188694461424
0.95,4.871880670942026,-3.45591122374059,8.159499462372494
0.96,5.554715265800507,-3.8934676970966864,8.63780416137294
0.97,5.543103633161657,-4.331322524048307,9.037022091016178
0.98,4.7570589192963615,-4.031258888147249,8.412846831336159
0.99,4.333454560086151,-3.9985204159275707,8.1132432719401
1.0,4.127827708913061,-4.07700433208774,7.8648340331392355
1.01,4.051195173677375,-4.235084595566236,7.659186975230588
1.02,3.725465754778601,-3.7437470724715123,7.460859496164137
1.03,3.024844769599034,-3.0841300484941168,7.491667889159513
1.04,3.115068965407667,-3.073310811718659,7.61345227321765
1.05,3.864962324305535,-3.356403361233475,6.991168455567867
1.06,5.90695087466629,-4.2744076359584104,7.688988505729483
1.07,6.342858902546272,-4.36765030700872,7.693879495245276
1.08,5.964514380782813,-3.516230419637577,6.581746802523426
1.09,6.171926371946191,-3.9524989717288515,6.867955973717543
1.1,6.773066936889191,-4.658133279382231,7.4944800347096745
1.11,6.932323232453547,-4.590820987279209,8.185165883059446
1.12,5.584476559220746,-3.3825376371290425,7.009201364512018
1.13,5.17853912310646,-3.3974104517449226,7.664149228099808
1.14,5.057712352398311,-3.5004115370214195,7.936308231491827
1.15,4.722510207254519,-3.237840513204435,7.3917346091801015
1.16,4.619575884417894,-2.6214672551286693,6.3765141993844106
1.17,4.574357030078234,-2.69540889634434,5.902187047462679
1.18,4.891069595044515,-3.375310473622131,6.414551701309043
1.19,5.45544186900842,-3.519860823389639,6.780023342710592
1.2,5.961795690639812,-3.5180949786734756,7.782781609901527
1.21,5.964514315925994,-3.916071734783372,8.532182254042194
1.22,5.352838371523447,-3.825336437995588,7.73924418122922
1.23,4.976582065884556,-3.0988160388466657,7.117785028806812
1.24,5.699140592809413,-3.5642290355331068,8.034756458733561
1.25,5.316981661701413,-3.62719565837641,7.867114218656921
1.26,5.125189086530177,-3.2152109473518813,8.096028231467853
1.27,5.56931375053217,-2.9795415349435923,8.446289883859977
1.28,6.404291875591477,-3.227369114424361,8.467348118170936
1.29,7.208517254043068,-3.43872906914991,8.314757504821337
1.3,6.2809979382210805,-2.555660700149355,7.336006432904302
1.31,5.312774595999168,-1.8994000419770403,6.732529321171447
1.32,4.955288916397459,-2.394091635826396,7.154444534348836
1.33,5.291320972650146,-3.016175504659,7.599419524516735
1.34,4.742149178818106,-2.696026991143797,7.49959502436796
1.35,4.428975248803155,-2.136339099116644,7.3161289237303855
1.36,4.862244804209983,-2.1329218270776344,7.188734984404215
1.37,5.728919816852924,-2.2052519834146946,7.613342635597948
1.38,6.164129691726631,-2.202802330753167,8.10907156952488
1.39,5.35095536968437,-2.1029515500936964,7.471595803008381
1.4,5.184468481250286,-2.438822100680625,7.531343144606557
1.41,5.384254039816097,-2.8232165695460334,8.614384337041406
1.42,5.100992193110776,-2.5838150886609763,8.512539117593883
1.43,5.241944989679436,-2.36172649875683,8.025086904426491
1.44,5.612494923506051,-2.6898120698531227,7.979539665093959
1.45,5.566640622689195,-2.879749480754786,7.807122622490157
1.46,5.0581068278258705,-2.3428796210883234,7.411659618602485
1.47,5.042229457551994,-2.4564911329462853,7.587792842049581
1.48,5.566899725793448,-3.3542346200682522,8.575385364917718
1.49,5.424906682198296,-2.97091751006846,8.74959537393391
1.5,4.898182184930269,-1.8816859315214827,8.529757451726047
1.51,4.275838981356656,-1.834780815807111,8.051690293682258
1.52,4.261158032424098,-2.3332609987290893,7.4618587756378725
1.53,3.792463624362909,-2.2532219820540496,7.212878522022908
1.54,3.17159510132033,-1.9836833746619902,7.6237312654931815
1.55,3.9195900625915585,-2.1731473437156823,8.617982650608555
1.56,5.04493114215378,-2.514599675651479,8.690745227926916
1.57,6.048331593954728,-2.455836306650781,8.257793556616457
1.58,6.166892278631368,-2.218532877317541,8.433741206925383
1.59,5.808415566632642,-2.4252980392289523,8.807975331774669
1.6,5.162012154357095,-2.6147954058875937,8.434616396006028
1.61,4.84696619131373,-2.6093194959115897,8.400613684864187
1.62,4.809629927227446,-2.548883866882641,8.720895395983819
1.63,3.9802727056278973,-2.1922566482466066,7.456170525310688
1.64,3.164466688689397,-1.906793474845851,5.525868841236121
1.65,3.3245318882488415,-2.246907355636262,5.534455276336846
1.66,3.7738914747238272,-2.853939901369841,6.568370768521634
1.67,4.078364196199956,-3.0529280183633425,7.439830273739334
1.68,5.062745926240745,-2.7230333655227104,7.911563604164756
1.69,6.2223430631898715,-3.0959705176029786,8.644029107536863
1.7,7.54805071550588,-3.6456259938540576,9.265565186994193
1.71,7.699622147288857,-3.700306204581394,9.328870748184189
1.72,6.545911060524097,-2.936551739909324,8.15115213972306
1.73,5.8586660395862316,-2.804385358508483,8.480277928888345
1.74,5.687799389504287,-2.927115791660399,9.21223207902992
1.75,5.200864447724069,-2.7892352859153844,8.495439847663487
1.76,4.980883290835961,-2.8539574298109973,8.051862077490606
1.77,4.712537077051712,-2.6615735072310467,8.308098815863524
1.78,4.413600268965226,-2.525008518340397,8.844912780646562
1.79,4.472515225800843,-2.5295484303868547,8.112320885336935
1.8,4.726032880739053,-2.7593649597538548,6.72076039760838
1.81,5.282158186470214,-3.304758468830263,6.602489926951282
1.82,5.701345734092832,-3.9889999784507837,7.110880840789815
1.83,5.747688094389539,-4.555449486907577,7.375641196122124
1.84,6.0481944858897325,-4.466775313078051,8.059028930504496
1.85,5.639778458228295,-4.313383940929831,9.474466247012199
1.86,4.565417960309667,-3.9450729655485306,8.49842370427013
1.87,4.066033814301874,-3.479906550094325,7.061450761317676
1.88,4.437569138202497,-3.1578160310269294,6.750452651236987
1.89,4.835019371523736,-3.2462581863848423,6.723319453172574
1.9,4.808222482334459,-2.5773700472440186,6.050043078263718
1.91,5.781380685869602,-2.52226104444888,6.516075722268086
1.92,6.895391086646344,-3.342043102904905,7.418246071538866
1.93,6.423607119329413,-3.0347882817659597,7.407815144578139
1.94,5.5419719169993815,-2.4535992792228787,7.267144356880945
1.95,4.789398486834677,-1.9989313594075802,6.969853206350256
1.96,4.771205449430504,-2.276990769447897,7.353897239479593
1.97,5.076638571255318,-2.542697583611594,7.5568080177923065
1.98,5.3822384703913615,-2.6696594732177505,7.993712004979962
1.99,5.0446206459462095,-2.3593659240581006,8.360743893594417
2.0,4.521298402634659,-2.086145333277133,8.10541707546676
2.01,3.896201941517826,-2.254978170908713,7.9042999337061195
2.02,4.041775573900327,-2.612619929986136,8.296134949157867
2.03,4.06751157576661,-2.276765162868029,8.088568883988792
2.04,4.134997534312841,-2.035156080406448,7.383189446028382
2.05,5.152826614960702,-2.735048102020743,7.516468285607631
2.06,6.4736596935933495,-3.1753578733895726,7.9600414254775655
2.07,7.473512445904368,-3.1685315794993625,7.685883252149883
2.08,7.282177675249782,-3.1683739004047053,8.03428823968066
2.09,6.759897450906826,-3.0681550812725638,8.58361597113967
2.1,5.598814557711135,-3.170186549552033,8.94067799265183
2.11,4.809731446614922,-2.349573882332466,8.129678042732893
2.12,4.631412100289007,-2.427059672583655,8.729282443554004
2.13,4.69060075704409,-2.1406575000843304,8.150147977983071
2.14,4.128770533230816,-1.9625355111187657,7.1545440595746355
2.15,3.9573848222305226,-2.279283344584289,6.691774493076887
2.16,3.959909951356584,-2.9107215666722244,6.599148201807382
2.17,3.7772918845021826,-2.86598595602914,7.223668292921857
2.18,4.4014936851928965,-2.476605012137952,8.538771176811222
2.19,4.604935563062638,-3.0038294230702487,9.394057277858522
2.2,5.399937811531187,-3.8205697803371828,9.692461229601964
2.21,5.149697139763781,-3.6730579343794516,8.641611251066944
2.22,4.9460514145690455,-3.161687417642263,7.924183819419862
2.23,5.00565874352942,-3.481726738199198,8.06247103555847
2.24,4.190525040193141,-3.3698323775451744,7.39504927097649
2.25,4.371302808245365,-3.39038484423783,7.828540709514827
2.26,4.47061476742995,-3.304790173549688,8.391563510205957
2.27,4.5604509877211274,-3.379770913823398,7.576001173863818
2.28,4.4911087621228205,-3.870795955335683,7.718857837518546
2.29,4.271523674160294,-3.796111382744531,8.396901916098054
2.3,3.759233775282528,-3.0970187856417892,8.632914146058853
2.31,3.824584408500565,-3.1067441155665168,8.296305897450944
2.32,4.9384376663386504,-3.4867635718240058,7.9446115271631585
2.33,5.40949993529795,-3.5110311780572347,7.5990050866074315
2.34,5.492621668898964,-3.2833122377743575,7.665663771844589
2.35,4.268366991394489,-3.6466640346443566,6.670075434931177
2.36,4.852982130197207,-4.597871184530529,6.647580588953636
2.37,5.4942953856900205,-4.5820328654716,7.9317193761819365
2.38,5.92072115400904,-3.748561926268418,8.852982686672133
2.39,5.050031463099276,-3.7065637681655765,8.37741788329755
2.4,5.446991138924108,-4.094615890522245,7.9299331482966275
2.41,6.190585974246739,-4.349606287749439,8.684676363616525
2.42,6.962194350335537,-3.632827924803755,7.888507000034728
2.43,6.712112766514468,-3.1575147093470792,6.329535189700518
2.44,6.843018571983842,-3.2028475818118447,6.4375432872798
2.45,7.066606452581978,-3.1816339475166235,8.06712680232075
2.46,5.829037186010458,-2.483442033224987,7.5584347955381315
2.47,5.211116188807964,-2.601474637879958,8.03760618788786
2.48,4.1102121681429935,-1.5768816582328382,6.96911333395886
2.49,3.2343741333344926,-1.2576236787734083,6.332293763109967
2.5,3.0994105042644042,-1.4879817066228667,6.250283925393193
2.51,4.1470824963270685,-2.639607639806837,6.8126071120508165
2.52,5.21154785605343,-2.588282935772269,7.199464615348658
2.53,5.853532456513069,-1.3493767473357852,6.6880219562308
2.54,7.70138645062614,-2.731491132208512,8.467045515256041
2.55,8.8290420300894,-3.7569975607459956,8.422493401560844
2.56,7.678727982358897,-3.3696390321983456,7.8191811567016885
2.57,5.8144394029482775,-2.45775545924133,8.18528149722256
2.58,4.2217067170879155,-2.7477022985914674,7.991788657957185
2.59,3.5553594562530306,-2.707719132165708,8.201230140854339
2.6,4.080526505335039,-2.3557942176172877,8.026463460417684
2.61,4.677550913998865,-2.8759457204652876,7.839290298161099
2.62,4.648391368402412,-2.4791558866042513,6.03162241617957
2.63,4.822557507114241,-2.6545455654615377,6.416047268097592
2.64,6.256314279950048,-2.7441916763192458,7.7486311877385035
2.65,5.907024694039262,-2.9085596073950017,7.417774876381484
2.66,5.848201703805839,-1.9356810908928126,5.9051853555609055
2.67,6.787615625017672,-2.6778689985409296,8.3061645357038
2.68,6.976479942257647,-2.8450631755375255,8.868739100202578
2.69,6.077880227225823,-2.842929488774321,8.986053480676887
2.7,5.5773244133206346,-1.8389484452261482,8.822812267747098
2.71,4.585857333625842,-2.0979471623106707,9.73456155367484
2.72,4.362969901170748,-2.0022976338073777,8.80000194381386
2.73,4.262636953957513,-2.067840979570659,8.367266712781976
2.74,5.358625030221271,-1.8572365881625046,9.25659478554708
2.75,5.4086378548980365,-2.0779493475932855,9.646104645416601
2.76,4.42654183822414,-2.275681064843657,8.343444350921592
2.77,4.128403127403432,-2.335195016535024,6.822214644470613
2.78,4.500751103972038,-2.2866172443513113,7.029538215911375
2.79,4.425408784575081,-2.7196865571654687,6.648029135735666
2.8,5.449178308335531,-3.5375981877473013,6.517983104559344
2.81,5.933845939666881,-4.243821193614071,7.131207163572165
2.82,5.875991039972552,-4.566468559512593,8.583839256027863
2.83,4.843236432372455,-4.221549949491961,9.01792196191844
2.84,4.951315275901807,-4.560026540523802,9.091283733503843
2.85,4.49412180809811,-3.7587054428953306,7.584842671911751
2.86,4.332300331152107,-3.207195522448807,6.591340114528079
2.87,4.348417719753935,-3.5635609076671955,6.665474461315873
2.88,4.464816005358456,-3.1561797531687605,5.711181966305149
2.89,3.7398746870723336,-2.8494189968691197,6.509578255827681
2.9,4.71372914614951,-3.007621230264686,9.244111813634447
2.91,5.484184801608186,-2.9963342827016786,9.698231200873895
2.92,4.948079158232247,-2.140219569863379,7.973295030729222
2.93,5.937219544687759,-2.0270868601535574,8.990648734315263
2.94,5.407497500175831,-2.0376766928347045,9.278421452815085
2.95,5.268406039084833,-2.4031412371530623,8.461165282197724
2.96,4.597963875730341,-2.307880832926838,9.076048026250254
2.97,4.492083455467243,-1.7048468873992253,8.107718439991881
2.98,4.798541267967247,-2.7812519923262475,9.362927884182898
2.99,4.452995938105748,-2.639723300466421,7.776062754424752
3.0,5.0661043246751625,-2.972619210422292,8.356407273874716
3.01,5.530143560023887,-3.1197418297427757,8.194915978361733
3.02,7.172135547293096,-3.7746621622385663,8.295097672939216
3.03,6.786733090906254,-3.6179238424239304,6.4118743310056105
3.04,6.274866583079133,-4.205770406469475,6.161168108418824
3.05,5.626621273078795,-4.809405973788357,6.472658740895102
3.06,4.779815961287108,-5.458898263126735,7.798362168876642
3.07,4.699272844356384,-4.707057010781236,7.06784659178316
3.08,4.57701105124894,-3.645499151156258,8.087997036927497
3.09,4.152380023037603,-3.0003411701802003,6.872813722744759
3.1,3.417296675763651,-3.2336120826326917,5.872094575072794
3.11,4.075047705870768,-2.7362795763508236,6.733694251990459
3.12,5.4940334674329305,-3.469837843607943,9.106687305669546
3.13,5.587994972542684,-2.659843191201178,8.266543213732307
3.14,6.576715736446244,-2.8234544882023545,7.808382055634285
3.15,7.572584742913078,-3.014245365900688,7.918690909226962
3.16,7.191062013726541,-3.6714182404585363,8.260952005691966
3.17,6.828707205289441,-3.2880508909459745,7.905741334274875
3.18,4.437933718559783,-2.62179297268427,6.914032991443572
3.19,4.3732774966964305,-2.6838056728386195,8.14762054491228
3.2,4.129789338148972,-2.926344669573491,8.54262166449082
3.21,3.789983621107234,-2.8403021917986844,6.710720275684738
3.22,3.467781268977898,-2.957091121346932,5.927549432902719
3.23,3.8435057359097913,-2.57032588801261,5.47824685861547
3.24,5.0567984404329085,-2.953075933439351,6.644334296796
3.25,5.629837402815089,-3.4021982797577386,7.522206371759172
3.26,5.788138344966479,-3.2392970689037384,7.2079046486276575
3.27,5.832577985490839,-3.55616990813878,7.628174649783184
3.28,6.6251928917654,-3.2746976316764886,7.582523731508811
3.29,6.915598882787136,-3.9015988140470426,8.145955338509824
3.3,6.557519442020288,-3.4014002362181,7.84239674749213
3.31,5.603057789974368,-3.3104316484478087,8.093538082313051
3.32,4.535345252265759,-2.6482953769761903,8.312393828455603
3.33,3.652595028592239,-3.0072643192586748,8.909339579401623
3.34,3.8213745657716096,-3.3252889914174246,9.334848096571863
3.35,4.6748559407188495,-2.716818997649646,8.684840881825684
3.36,5.737330029816613,-2.7954679054163667,7.593237114673452
3.37,5.794704717419771,-2.7832015994310195,5.810067450717989
3.38,5.298369297020426,-2.4846096718421284,5.734827114338269
3.39,5.208939261866107,-3.3168452722200974,7.3300595806143045
3.4,4.612107866287519,-3.038046160973711,7.255442511438227
3.41,4.868399392498976,-3.252967819445847,8.362143349732387
3.42,4.6614483546237135,-3.1503092870905003,9.054829445448298
3.43,4.235748195412273,-2.611962330073859,8.932382784525247
3.44,3.645316873409291,-2.7449743562594904,8.260777181305048
3.45,4.209617957464174,-3.0668806508727897,8.136763080677484
3.46,4.985967000865276,-2.9940888880358365,8.294067878940698
3.47,5.102437894659987,-2.758967627784826,8.084655549548174
3.48,5.105492105587751,-2.9796412484416614,7.703986337705532
3.49,4.179194513663855,-2.8236813453047627,7.3984182307356114
3.5,4.396268606147062,-3.283735464739005,8.800932158938055
3.51,3.6167903967349346,-2.9915429217926772,9.097916769243485
3.52,3.967110065005134,-3.5538004596128756,9.132717330147775
3.53,5.493987679396526,-3.983973622750654,8.739258925338646
3.54,5.887180044043795,-3.533264333740518,7.9773457642472865
3.55,6.070775168388062,-3.403280973098093,7.369545016894531
3.56,4.78332364430162,-3.611270030137209,7.640809842761824
3.57,5.10148428975903,-3.9604167130949905,7.5286145092433445
3.58,4.3862308077213035,-3.869586442210451,7.234773976303616
3.59,4.17084139292012,-4.245202889699894,7.244466110314097
3.6,3.758371067122233,-4.701078555425321,8.11116965992499
3.61,3.4590144637077818,-4.50025841989948,7.761743881270344
3.62,4.412525937998878,-4.792646415730134,8.738717842404387
3.63,6.001727824510383,-3.7330392911392063,7.339055593539182
3.64,6.642805692830238,-3.7827591257943687,7.152761762848551
3.65,7.022889388407761,-3.7444337947119544,6.8677157576492665
3.66,5.847347305523998,-3.688038390842775,7.091095959885233
3.67,5.421921137977762,-3.0016542383327853,6.853532688128917
3.68,5.263693787006929,-2.9615876293813135,7.929301046931058
3.69,5.056940809902422,-3.018476248858628,7.754117883881217
3.7,4.21811776575575,-2.5178859035380747,7.037810515103851
3.71,4.264113901128149,-2.3780535636567346,6.7049300595911046
3.72,5.795468340262029,-3.6436580700420707,8.00565769001263
3.73,6.677632602939316,-3.334442608599976,7.097850631314145
3.74,7.386550413870003,-3.0295054430931816,6.585430052458845
3.75,7.730902861801357,-3.607071622701814,7.172829445886066
3.76,7.390186834186351,-3.922727410657213,7.739899162974773
3.77,5.521059779414071,-3.204189754444439,7.349555064064452
3.78,4.242197871411728,-2.6719185050291068,7.161930458723951
3.79,3.9396766353852204,-2.7142054804509117,7.322191364490073
3.8,5.047090142544331,-2.509828681149221,6.901549472074213
3.81,5.360637221194745,-2.445469906143969,6.467007507491058
3.82,5.854003957506426,-2.047367395797927,5.94325307239088
3.83,5.321284980730338,-1.8589609216777705,6.245177313648561
3.84,6.44815253591523,-2.662581683137972,7.857350426444333
3.85,6.2065495148057215,-2.582157347660746,7.873732455214605
3.86,6.043348172166782,-1.8590735221357257,7.370237242311499
3.87,6.088322767820947,-1.7569701120702255,8.448602724740212
3.88,6.64201381864101,-2.6207686768908998,8.857538043871788
3.89,6.535093362846543,-2.8539087315718716,7.508052758439031
3.9,6.34239027954822,-2.223905995188584,7.518926692525846
3.91,6.037850337904526,-2.3054281686093057,9.093076068975344
3.92,4.564862391408704,-2.2902214242380805,8.502729394902197
3.93,4.5133975196797005,-2.4273446581381424,8.151918456337274
3.94,4.887360225448002,-2.2146299739333353,8.65675692447001
3.95,5.81065638956589,-2.4898710749684843,8.681758335682023
3.96,5.652267163195207,-3.0615590134053288,7.467206950294233
3.97,5.729352215186351,-2.9038454561833213,6.982572163965187
3.98,4.721585629744965,-2.3584696524777318,7.440554262359125
3.99,4.559858655142252,-2.322099519870614,7.949972921096937
4.0,4.5855348050687486,-2.4082192327526633,7.952741958330961
4.01,4.625806257499949,-2.534814772088612,7.53674229061813
4.02,4.385897863980499,-2.2883488428495835,7.322464274013385
4.03,3.840229460890412,-2.0707339951142316,7.80606514143008
4.04,3.917763901294793,-2.4350852384839228,8.242472541558982
4.05,4.244601406060699,-2.907608981436415,8.473241278370187
4.06,5.764340340015076,-2.8793656709872084,8.588221149205724
4.07,6.474490005892162,-2.6823013027153157,8.240923612302094
4.08,6.6941918066472565,-2.9444526793151873,7.9158218334685815
4.09,5.833996664647471,-3.0135303606896313,7.98422338602944
4.1,5.045001536625467,-3.033734239131142,8.336888455124656
4.11,4.352554053882253,-3.189255269889062,8.336540218712857
4.12,3.7415655059884867,-3.3600048878480253,7.844283464196649
4.13,4.159490314435642,-3.329369148485737,7.719331570387361
4.14,4.688114384373271,-2.758590684812297,7.30880962456759
4.15,5.3917006333512765,-2.8156805466645936,7.538262217166231
4.16,5.215563604980218,-2.5562801951016025,7.257105772855336
4.17,4.997370435311602,-3.027913048983463,7.301260249081811
4.18,5.339554833813327,-3.8788035229755975,8.264166120274291
4.19,5.627419183478445,-3.8438386079641753,9.095768487399578
4.2,4.695306900431319,-3.0959576183778577,8.40503061695804
4.21,4.730489777474237,-2.969931443138614,8.27983486884356
4.22,5.320761277908868,-3.299216809057996,9.011841666488811
4.23,5.304707568910601,-2.8784386751343876,8.275066378159735
4.24,4.8441079763343,-2.5496598459384345,6.812648598816129
4.25,4.945386368903635,-2.581825354738294,6.540092072944015
4.26,5.668780295349995,-2.921754205813174,8.152003295616398
4.27,6.1775158384697955,-2.5429975560360347,8.455005334516464
4.28,6.32945828318419,-2.9092191065800206,7.71751055658964
4.29,5.9792269040675725,-3.2123633449142335,6.881370040625334
4.3,4.951694861114033,-2.471196315505169,6.717515260948099
4.31,3.8244144591531235,-1.9542951102715633,7.133773118654031
4.32,3.93888416774278,-2.3842651116093734,7.472574673231089
4.33,5.029332940819058,-2.829491835079445,6.8852332486138845
4.34,6.462558021494681,-2.8911131432973303,6.205743394335138
4.35,7.691648653171007,-3.2687194473032752,6.561658194807146
4.36,8.008627235516343,-3.7064437476319596,7.187644673020565
4.37,7.449568497248979,-3.491915320313242,7.681133553866758
4.38,6.5894641838061405,-2.8013365656051206,7.740779504349078
4.39,6.163181438155359,-2.5433371806043428,7.846547610881585
4.4,5.956417125552262,-2.6636145919628653,8.077734814184234
4.41,5.355908740855909,-2.040902314641107,7.330128956261329
4.42,4.706963240147857,-1.379513336099504,6.807222347366257
4.43,4.4221857779509905,-1.3626961470418217,7.1005191810436905
4.44,4.838220888661398,-1.55946051099676,7.551788221322274
4.45,5.012941617558423,-2.0015437182115763,8.050086589670588
4.46,4.741135604714353,-1.7381391061531077,8.102897542374285
4.47,4.724261034032254,-1.2720801920146116,8.181887082867076
4.48,5.555370958518029,-1.8668301518844381,8.593801810267955
4.49,6.524002408905231,-2.4745653400777523,7.6926597734423146
4.5,6.430411924804084,-2.7032034138655314,6.772488744467436
4.51,6.324483904785536,-2.8676256752581266,7.823409610596029
4.52,5.527651439924875,-2.675142446994772,8.171398202617029
4.53,4.454947948067471,-2.5543594111475656,7.679637329686667
4.54,4.263047920703452,-2.818127041388022,8.40041920834537
4.55,4.785388953188561,-2.8384585731710175,8.814584115557603
4.56,5.338886248630721,-2.7596457531845733,8.005565500869926
4.57,5.6217436737835,-2.7701544410863823,7.117656813508724
4.58,5.807646128798859,-2.735000505380089,6.756179151237404
4.59,4.8145239848339925,-2.626456207258669,6.520696538061916
4.6,4.1156712182870185,-2.5424844754385547,6.951431736414598
4.61,4.41144026226684,-2.9574340981562646,8.483616275779665
4.62,4.980799504310299,-3.289972475671363,9.288457202990188
4.63,5.106799927159038,-3.124942509605824,9.00966647659101
4.64,5.119884068927446,-2.7290754602781115,8.248232025155273
4.65,5.3519225084126925,-3.272749056387128,8.150661671373616
4.66,5.502627823176228,-3.8093677542413387,8.11132895490008
4.67,5.179460417266499,-3.2561860455599554,7.748519939849666
4.68,4.134623959132515,-2.774825332623429,7.4481109905497025
4.69,3.919633584925148,-3.0055066493396603,7.656972047429565
4.7,3.8537647717104755,-3.3334277492209172,8.076762972432727
4.71,4.0511821431911486,-3.6271025769744445,8.26909710165295
4.72,4.170630965084016,-3.5951674571747834,7.470221322170576
4.73,4.872499063755761,-3.2037354453977036,7.0903053051514355
4.74,6.057425703488664,-3.4473749566513514,8.166241815757177
4.75,6.670261072939459,-3.5991950546487317,8.90916603176589
4.76,6.118697907151051,-3.651335000428988,8.830712241193435
4.77,4.8241807082579715,-3.4319351650956906,8.18968402339294
4.78,4.224584230004183,-3.0996678154079644,7.851158160261665
4.79,4.262957200784607,-2.797550944310272,7.776882042059849
4.8,4.307499587095628,-3.179357034334104,8.027408024123803
4.81,4.128063362925713,-3.304622112960569,7.963538504956398
4.82,4.617616464330859,-3.049327595929291,8.067305147112592
4.83,5.7983759154092205,-3.3051185196226855,8.390456442270603
4.84,6.189178538672367,-3.3958332524068826,7.388272763463537
4.85,6.1958927243647235,-3.379957923520335,6.322905012480659
4.86,5.693374484328295,-3.784619900344069,6.658867658507558
4.87,5.003795049177104,-3.7387535077279863,6.993015767631021
4.88,4.810939446202015,-3.7311263505272296,7.70891999518811
4.89,5.012486372867155,-3.2798390433867683,7.990185034012311
4.9,5.2112309877531935,-3.243139716390653,8.218237093262012
4.91,4.734494366313147,-2.9653890068834405,7.10609013766832
4.92,5.120822843822066,-2.9321739934117423,7.143400751128528
4.93,6.270883103461502,-3.288102823568426,7.652666259969148
4.94,6.895037616550062,-3.2278261096889187,7.81944230217272
4.95,6.500327404962415,-2.878086095749923,7.367471754904109
4.96,6.390283772066601,-3.0529663809368492,7.6412335314677575
4.97,6.015420366403866,-3.14897772021581,7.7830303983727545
4.98,5.287017841489242,-3.186457235951384,7.724997840351366
4.99,4.605549845833328,-2.6658534652828587,6.941740882028356
5.0,4.879806311561945,-2.4310810980720845,6.810710092975548
5.01,5.89241168079686,-2.7571000643853623,7.267492248640109
5.02,6.811543547611558,-3.2894490590272203,7.3863302476561445
5.03,6.050944235234406,-2.7944555848654655,6.878369945372584
5.04,5.374903688335936,-1.9406808495663368,6.662563581064299
5.05,5.292677981731595,-2.0525130302706143,7.854788376085012
5.06,5.3025496973127995,-2.781257865400417,8.3542597239241
5.07,5.239037451904598,-2.7386875504509893,8.517121611925642
5.08,4.9231018854493716,-2.0724678431649766,7.778092370302149
5.09,5.320810965068777,-2.7830753642090706,7.807386253894443
5.1,6.053479125368588,-3.120242767476058,7.53740811776307
5.11,5.72727819050354,-3.3114659534648667,7.879727123525991
5.12,5.4092363397769665,-3.162752761224773,8.296008374916756
5.13,5.362471660121684,-3.8259241887303292,8.50151645654156
5.14,5.144212887424252,-4.020360767607955,8.481103721450733
5.15,5.4959226535581145,-4.36307980192425,9.007075687509678
5.16,5.517149549184806,-4.1777889101010945,8.073845091957628
5.17,5.028581155036001,-4.213827354278298,6.78512573742322
5.18,4.490122929796771,-3.7007162827888185,6.70133165022468
5.19,3.7411070700150857,-3.5986766406686033,7.760467874814696
5.2,3.142881033266969,-3.63910161130693,7.965623736774753
5.21,3.2663783583158903,-3.6732631844815233,7.732006569746518
5.22,4.056789140661276,-3.1990842868879783,7.719536687341599
5.23,4.914888825351245,-3.322697835335113,8.711758142174004
5.24,4.527066825034776,-2.7696277351375054,7.445614839875047
5.25,4.421748970125607,-2.6888811166716935,6.9961105768299845
5.26,5.1257795990038515,-3.1082022178535533,7.92967042050549
5.27,5.464492802201371,-3.2616066926589844,8.074347624703012
5.28,5.6728321392165855,-3.217267810844962,7.762087924522198
5.29,4.989850748961072,-2.6968672225196753,7.540672227256332
5.3,5.172287601129787,-2.8207609326346033,7.928636262654344
5.31,5.483416656232836,-3.537840304343816,8.107669132944748
5.32,5.1410753444886454,-3.3200415036197435,6.887565872644995
5.33,4.689878398242246,-2.6062337281571937,6.891990050177099
5.34,4.052564929800589,-2.958942486164532,7.284022449004452
5.35,4.674413698047617,-2.8532363581428144,7.191857506158104
5.36,4.846258645060827,-2.828467127653464,7.29575324028439
5.37,5.759678451452033,-2.9412372657574415,8.182338475075117
5.38,5.735187031426634,-2.998890403052452,8.232513185826098
5.39,6.1384477840176555,-2.85138180705139,8.154594822309205
5.4,6.4179244102684665,-3.015148862079946,8.863890985592418
5.41,5.6392115260460285,-3.424561288337922,9.216175372956728
5.42,5.186003802584556,-3.150299151326478,9.173851535078144
5.43,4.321813734211533,-2.6505678533397914,8.455323861756467
5.44,4.391216674036218,-2.6586151872057484,8.565653126861758
5.45,3.77177854890674,-2.227713995593116,7.501730046706004
5.46,3.633958819064354,-2.3483135959830714,6.8292913744748915
5.47,4.272043270567795,-3.102399448044359,7.814848759546291
5.48,5.325030239359485,-3.828077935861542,8.7819362228225
5.49,5.812411657792121,-3.1880439156174356,7.142663351114945
5.5,6.512518189762855,-3.729040691395472,8.332790797246012
5.51,5.853230887379454,-2.8781180929153343,7.3919245266999845
5.52,4.498158241300118,-2.6385588402104783,7.429554707658997
5.53,5.367706778788857,-2.5466899367250506,7.667820289473605
5.54,7.15524926045998,-3.5086693287023674,8.471060812801756
5.55,7.303041281732742,-3.180642399825555,7.344158402330233
5.56,6.21143001652462,-2.3165356948217,6.307461907687898
5.57,5.668722872374588,-2.264808458633635,6.9718988506957915
5.58,5.293793176735996,-2.916271476345781,7.86781934320226
5.59,4.203075446284251,-2.1924377847467844,7.075916413007812
5.6,3.7130789870646477,-1.523502795929549,6.800251152294158
5.61,3.8458234824866477,-1.9582718005875825,7.171966380343658
5.62,4.676357496969201,-2.8693498099229378,6.82609529729955
5.63,4.723223624916594,-2.7730631169113673,6.247356265497245
5.64,5.647863618368454,-2.968444715502381,7.25625835376155
5.65,6.280603125634983,-2.8729016061266317,7.242485024075695
5.66,6.462606026706237,-3.9542426904843735,8.127813494448278
5.67,7.2091267138238635,-4.075405814067701,8.775693386262802
5.68,5.908524459760552,-3.418556043924277,8.328396846062175
5.69,5.756952800679098,-3.4537837629417942,7.838223096225282
5.7,5.4092288010634,-3.455283561549054,8.037227337481626
5.71,5.655176212873548,-3.310731954058284,7.586626212073178
5.72,5.3014777955450585,-3.3207306894391504,8.465331147645701
5.73,4.9178812076371035,-2.3230047538936227,7.408309299493666
5.74,4.110296194572679,-2.521664926157875,8.552003102178691
5.75,4.698559623600714,-2.5818593758977015,8.077187829923655
5.76,5.375611646264366,-2.979723136062917,8.159779413114828
5.77,6.286043785648418,-2.5403594386186343,7.180453960396793
5.78,5.485352074031824,-3.0744242793274,7.17071385170632
5.79,4.784343440476449,-2.927430901168939,7.236449865246375
5.8,3.3654898616002464,-2.418657630717419,7.02158684329338
5.81,3.371570920334647,-3.0908458673814763,8.4282456989296
5.82,3.793889996166354,-3.3880074661954134,7.880511465663005
5.83,4.0993945070867595,-3.478183266645557,7.729878711297355
5.84,4.491738809242508,-2.5890323327212896,7.217154619093932
5.85,4.733819403572612,-2.9160400190318194,8.384980161075207
5.86,5.3159314906955615,-2.841449212432261,8.43572185017519
5.87,6.067957797931611,-2.4649221583038265,7.542484764678907
5.88,7.057373424267892,-2.805505942082257,6.3466003409903715
5.89,7.097929899629549,-3.1874131723098444,7.771739174675645
5.9,6.920818336186411,-2.412285528407391,9.104823963320904
5.91,5.345018517849958,-1.6079362382880833,8.609411948714566
5.92,5.803966461674391,-2.164997678664325,8.434383850465396
5.93,5.473497659274439,-3.17416165247166,8.144474361501647
5.94,3.6546435028123065,-1.547164381623583,6.833047223612035
5.95,2.8801734095722393,-1.2328850266745885,7.784246164291602
5.96,2.6472129739459342,-1.3275904534496867,8.230331095762972
5.97,3.148248949246831,-2.3871515950842395,8.164218438717405
5.98,3.5746712057433214,-2.2589273330362034,7.626835903138394
5.99,4.110929399295107,-2.040215629779162,6.73519035853064
6.0,5.4045152021986205,-3.2798029474427315,8.143625586139498
6.01,5.628543655723953,-3.809454892531358,8.389116453510498
6.02,6.55352500271871,-3.6642997036844713,9.495563397623819
6.03,6.338685949633089,-3.21676596587426,7.308767927513472
6.04,7.199788026089553,-4.0408596363242735,7.957944052336141
6.05,6.934124382974656,-3.706098875416902,8.45141983694977
6.06,4.819580130812611,-3.09543062723517,7.638107413665462
6.07,4.221632780743615,-3.5672271618524296,7.5937439360978605
6.08,4.4005654215945205,-3.7819567482343452,8.493409133793843
6.09,4.192589161748005,-2.60480903275146,7.081176899006271
6.1,5.361513813383029,-2.430975679330323,7.113675407809383
6.11,5.450390613219917,-2.9106607401399955,7.741612839530325
6.12,5.704503983641728,-2.5627510955395243,7.678877567227076
6.13,5.173812217866933,-2.0473218784188263,6.643818427549839
6.14,5.662358402800921,-3.0114903512854228,7.984485614730368
6.15,6.395012500693528,-3.0144499173174295,9.210886112468476
6.16,4.466315785643045,-1.970646034744199,6.919217264176149
6.17,5.352496857839924,-2.868451149101565,7.78749982235543
6.18,6.694822370771392,-3.7672718122052014,8.543387795419733
6.19,5.512586103352583,-3.4977245285346608,7.64443448785953
6.2,4.794777379738627,-2.6656574656634624,7.098423470788086
6.21,4.7544981714365475,-2.4581775448293786,6.912454681416543
6.22,6.412001446696945,-3.440271536025579,7.362708659083439
6.23,6.302285472096461,-3.511432381594581,6.733747808164158
6.24,6.147809331959918,-3.0905595279065126,6.467649039282276
6.25,5.314166468106642,-2.422945176417795,6.435231763708489
6.26,5.848421494390204,-3.0552975752557594,7.787311101100355
6.27,6.625901223753946,-3.1521984930570652,8.81585655487925
6.28,6.076766823173017,-2.2433646360833714,7.797945470184245
6.29,6.084101044352393,-1.9220733350568906,7.125198910776926
6.3,5.812550427290806,-2.0372893019103997,7.745111214241486
6.31,6.487999272747075,-2.5802558132558113,8.087068814061418
6.32,5.033120793670785,-2.3571242188386896,8.105308925989048
6.33,4.708264739416567,-2.149779657258152,7.885495964630379
6.34,3.5556817792962696,-2.194534452967772,7.794161728549001
6.35,3.978438337130027,-2.6208200824747956,7.5364270180170125
6.36,4.691105308713499,-3.3632139129324123,8.028210632839611
6.37,5.66012146454105,-2.7835144826925826,6.923987994538186
6.38,5.405298338477199,-2.717601918710523,6.838800839409884
6.39,5.485516988506226,-3.129712883597361,7.585744609933748
6.4,4.981336561080695,-3.9703793393577618,8.288293917687803
6.41,4.481982236380589,-4.050712550535852,8.344212178706634
6.42,4.916505970376163,-3.2777688298296335,8.022354681043245
6.43,6.020900171910859,-3.4928540539038817,8.661981618311824
6.44,6.149330529437952,-3.8008435122187194,7.676925418910716
6.45,5.246884730830957,-3.6486637233947863,7.593488225870247
6.46,5.255912787158371,-3.119067227567825,8.224227184842709
6.47,5.19385405178216,-2.9940762691379867,8.72240503948353
6.48,5.50517610403769,-2.757113572809436,7.981562108385871
6.49,5.158218466191532,-2.4911717066817127,8.19984385047232
6.5,5.025386923755077,-2.6605095736892155,8.797187334176902
6.51,3.971295716406977,-2.7187511504611814,8.444499985220201
6.52,3.848743955586007,-2.719892387240237,7.520847907957062
6.53,4.22212318532187,-3.0240909968751226,7.578608896571672
6.54,4.439575674375404,-3.3711543579740826,7.383164673302589
6.55,5.002900819144248,-3.5845847557687813,7.920711651763468
6.56,4.518724020302143,-2.939824728583329,6.635187149264137
6.57,5.667741109337833,-3.7423018730115034,7.736319288672423
6.58,5.445368203629261,-3.6772055392371312,7.252917003551891
6.59,5.460648378316134,-3.745115849310651,7.18143115959292
6.6,4.758774783467132,-3.281446981069411,7.499816855569294
6.61,4.278523724104043,-3.483360140093551,7.852035224764821
6.62,4.811884849662021,-3.5509374562579072,8.099251473891327
6.63,5.193479428540217,-3.1532609659293,7.320405250633613
6.64,6.2296992771736885,-2.9303847982622555,7.919268256774761
6.65,5.29791774459125,-2.185712777384991,7.00731548288415
6.66,4.893166958672885,-2.4414372236941304,7.687172145273563
6.67,4.876150996861517,-2.760590441725882,8.968960684477963
6.68,4.8542292404466085,-3.1770515719793555,10.130140044504104
6.69,4.82973992646653,-2.0799604458217082,8.145831145167989
6.7,5.117411860156918,-2.1273677722526916,8.774067258427825
6.71,5.76318257553559,-2.4336547709213843,9.347665721282457
6.72,4.930542266588373,-2.008366707677618,7.745022379771034
6.73,5.71377489560009,-3.309048403587481,6.992920989827384
6.74,6.597408138527195,-3.6319758406966614,8.015216128435565
6.75,6.125403193264904,-3.4242517587700334,8.167214711687595
6.76,4.515636837190059,-2.617567836485285,6.5234839802717035
6.77,4.071995510216558,-3.676008982301249,6.759127878219623
6.78,5.940537198509524,-5.2484939950579514,8.457799615246351
6.79,5.145781481533633,-4.266560918765124,6.792971911105545
6.8,5.313272228776684,-3.207455228598181,6.294577061970665
6.81,5.558596289030495,-3.296586113533883,7.4892522523672325
6.82,6.581397467611708,-4.002541737411318,8.496355203822972
6.83,5.3501800184287145,-2.931116739788435,7.127595668352983
6.84,4.918619863842291,-2.0234177314095096,6.502604012111969
6.85,4.8896355840405255,-1.7751915904613522,6.6807027849297995
6.86,5.227105264778089,-2.414219417036989,7.108734379789637
6.87,5.641755750642653,-2.279551602993587,7.445743888154408
6.88,5.617512089013838,-1.5019622229058243,7.395281966374555
6.89,6.157307809048479,-1.5354842658792065,7.842051201133643
6.9,6.515394854602213,-2.3869274704089958,7.961721253351799
6.91,7.453673543375794,-3.5830740824828573,9.350416405462449
6.92,6.072537438891666,-2.7694237715726295,8.561125102948353
6.93,4.257817693243781,-2.237508195558644,8.049790763591679
6.94,4.036645924560585,-2.5864648018362497,8.644429262454597
6.95,3.9526776783549304,-2.9887666959438337,7.603332207672184
6.96,4.296723260470199,-3.3168663239200935,6.706216031920809
6.97,4.703478224046212,-2.9281184387336765,6.019313594616808
6.98,4.734125381525237,-3.1136213035097056,6.704033122328227
6.99,4.289067060697751,-3.446486257768268,6.964021290932843
7.0,4.3357110445107345,-3.8338452066310778,7.633983329683272
7.01,4.799967873442196,-3.8140715460188592,8.063630958413853
7.02,5.654411562831215,-3.6595309164742758,8.536308827019482
7.03,6.376798692683205,-3.827337141418914,8.662515769820509
7.04,6.616112806383104,-3.791369240778314,8.31722611986596
7.05,7.0097759729107665,-3.6269882625831507,8.311160931106796
7.06,6.37965998356912,-3.1273714635270897,7.7248329083959195
7.07,5.608756189801216,-2.7797312061412605,6.926991636563693
7.08,4.778037977130721,-2.81171605734845,7.191981526345778
7.09,3.916050715139931,-2.313569749608344,8.012449218265736
7.1,3.505723757982577,-1.952882447553293,8.508750662281457
7.11,3.0558053883660965,-2.295746823594789,7.745334414953521
7.12,3.098191263622379,-2.7650107855571093,7.463595827193
7.13,3.5179442453116825,-2.067509206008702,7.272270916789359
7.14,4.395083551190113,-2.6285730461394343,7.759332990102312
7.15,5.317803737037607,-3.5822400162076153,7.876802456396537
7.16,5.929120588414915,-3.4885363470103097,7.736661550690282
7.17,5.875618442339275,-2.9743827595619288,7.455010509848765
7.18,5.873272401328125,-3.1627035106865407,7.363433473944189
7.19,5.709268138526749,-3.6037334724194814,8.286199045442936
7.2,5.11670232397571,-3.135943332933418,8.991566784297257
7.21,4.249452689054713,-2.928210718896875,8.934600383097512
7.22,4.1681071754867665,-3.41843668857361,8.569253110331886
7.23,4.664827056052852,-3.5428156827539334,7.416071831077574
7.24,5.228415149959273,-3.6439478384156874,7.448377774310226
7.25,5.167825915279525,-3.534417599159882,7.579482573822685
7.26,4.6458093809118655,-3.2873235158999723,7.085205686141216
7.27,4.845998096644295,-3.592009557497321,8.428726237483337
7.28,4.8857655988071205,-3.1973788077724903,9.450616433831227
7.29,4.3437293503312775,-2.425855935285317,8.448263327836337
7.3,4.699889471558723,-3.1193443701091743,8.628175743504826
7.31,4.600929438101907,-3.393137700670259,8.505560531023157
7.32,4.291997033616733,-2.812138194967001,7.453125287208761
7.33,5.166557718783922,-3.4475141548709978,6.897879419448581
7.34,6.3133432520618324,-4.259119345514648,7.138844988027217
7.35,7.031752009452562,-3.745414097782485,7.507073642303983
7.36,6.559876821997207,-3.4581019431838613,7.521278510396969
7.37,6.516209793371042,-4.134111973105247,8.160001443741246
7.38,6.323470711975749,-4.1465405512019196,8.817434271462247
7.39,5.146064867826324,-3.1370913703628682,7.895050761993059
7.4,4.626674437483022,-2.7523997724920433,6.925083979991905
7.41,5.135809415379791,-2.63830729583312,6.576166339802422
7.42,5.661786677929954,-2.835921206141156,7.156170809650129
7.43,4.91903244823483,-2.951345778455839,6.991557413577074
7.44,3.9261983840501697,-2.4112554057942637,5.919233957834808
7.45,4.393652549673517,-2.6913756280454293,6.692894448622691
7.46,5.812950490063737,-3.1705858759925944,8.016115145596997
7.47,5.991822968580547,-2.8853647848449526,7.342111518977759
7.48,5.714203316933851,-2.399301274736267,6.290788453787899
7.49,6.054821418364173,-2.5897712399904083,7.224861325435515
7.5,6.399330336995429,-3.1657963892210743,8.261370279532107
7.51,6.65778253360864,-3.530345757847268,8.645880593200669
7.52,5.927754376267645,-2.968796629951332,8.068348437028165
7.53,5.0642354682973965,-2.1197269730739143,7.508703963639679
7.54,4.87974504603331,-2.3692162472205953,7.44992025150217
7.55,5.4399531388692015,-3.0312498125116067,7.573357192651234
7.56,5.997166508378538,-2.947223833026552,7.853926237482218
7.57,5.618211170082043,-2.625788570676434,7.907574103655664
7.58,5.32318381250969,-2.886497190116325,8.105069582492023
7.59,4.6818389563241585,-2.8887431296795985,8.244538365160675
7.6,4.405018556030369,-2.6655860931110937,8.425608904015128
7.61,4.750803248755947,-2.4253261361020417,7.8592405344362595
7.62,4.91895439574373,-2.67710551031753,7.561262747441877
7.63,4.999121644574261,-2.853971706712936,7.600039458445453
7.64,5.000095114073739,-2.7829528039133664,7.77497980791084
7.65,5.7656543547664425,-3.1352910057430585,8.025834511393313
7.66,5.832848662575031,-3.380774241330004,7.650975544960671
7.67,5.502063919316426,-3.4574709049629067,7.486470846411485
7.68,5.176481872007288,-3.9616646690870936,8.620282859942773
7.69,4.904741446726473,-4.159202415873556,8.795239907008758
7.7,4.4530804981521355,-4.31292021691211,8.212210544939126
7.71,3.9096257538827146,-4.273594235668653,7.874084297825835
7.72,3.6172320692180744,-3.929155979546618,7.498734289993753
7.73,3.384350523620519,-2.842695595382768,6.2187617013408545
7.74,3.948358525920623,-2.789270930152327,6.278611531741236
7.75,4.6600237808972755,-3.060180347223675,7.328994280588371
7.76,4.691891275082295,-2.9755756474295096,7.965908294365133
7.77,4.5017110915624485,-2.6742959992339177,8.019839315386408
7.78,5.114040852026354,-2.7199333989693395,8.397318787858113
7.79,5.317070527766405,-3.0113224294954657,8.996979756364523
7.8,5.64396619878931,-2.954120826816177,8.693033181237174
7.81,5.421933524039275,-2.7417555363812576,8.299093084339221
7.82,5.412109986887759,-2.7626396419296446,7.99474270946603
7.83,5.440423819136339,-3.411947197005193,8.122327253189757
7.84,5.189945453671675,-3.1539220706767814,7.363852046209973
7.85,4.87210240163223,-2.9484791218848603,7.950835146578806
7.86,4.779235889882748,-2.932281975407723,8.554702722822318
7.87,4.5049435276072805,-3.0989930988848844,7.750231716891206
7.88,4.5673793500866955,-2.561539535623832,6.918313096870893
7.89,4.739913145589606,-2.7778949036327165,8.302858381503015
7.9,4.104618264354303,-2.499976175994486,7.494667419275999
7.91,3.528681386756996,-2.813859921221346,6.255055808005166
7.92,5.229207695138379,-3.634737998710642,7.671453886924726
7.93,6.7859927071165025,-3.910470240454701,9.426162176036824
7.94,6.599518386159711,-2.6430197602387393,7.945375132049054
7.95,6.7875784150681895,-2.4663303276017956,7.7421109039111204
7.96,7.42457413022354,-3.266260710417201,9.146361519870942
7.97,6.57486570246857,-3.0382412186236833,8.691353896174043
7.98,5.06786654623676,-1.652408184574956,7.174030825520737
7.99,4.668864981952971,-1.22639445535768,7.043768066034022
8.0,5.222186673574798,-1.7191821588129617,7.170922546752187
8.01,5.857125103228848,-2.133570057949242,6.753356376735273
8.02,5.849402374389256,-2.178063150799641,6.373861523844798
8.03,5.697053585135192,-1.9885053611860453,6.662101352610528
8.04,5.38828402457132,-1.9840896610827328,7.338086183871671
8.05,6.677757428993408,-2.690125589800764,8.192230870338095
8.06,6.325451997487536,-2.2308562120493196,7.751200837386518
8.07,5.890785174695664,-1.9796688665845172,7.116169820219055
8.08,5.142318009736322,-2.3838601705863796,7.096125678784462
8.09,4.536805378933216,-2.4630502533326726,6.494241510584431
8.1,3.82093736403876,-2.2524435199002517,7.05246207372354
8.11,3.9624102245730968,-1.8632411417390227,7.8557004807197455
8.12,4.932342187399422,-2.5912248413164067,8.265543384669076
8.13,7.506626242751119,-3.7331500550037435,8.160632776078119
8.14,9.215648009991476,-3.8544500741994376,8.53415463154518
8.15,8.964120138306145,-3.0112887606193697,8.630506051965385
8.16,7.537812102885083,-2.7528681855223662,8.70993223478731
8.17,5.596827142944185,-2.8504092527359197,8.696922096716143
8.18,3.894171337705895,-2.9032860023514724,8.061377992124882
8.19,2.5017225379369283,-2.9178265672186834,7.692871372250999
8.2,1.7961438623030601,-2.183185347286194,6.90660017520795
8.21,1.9485709440094112,-2.1240265466156085,7.035793568660257
8.22,3.1454772348914397,-3.3435211305775185,7.46961009018426
8.23,4.514974137649239,-4.120710141439962,7.333528246460836
8.24,6.041402309654049,-4.070784877868822,7.072622568690754
8.25,6.10559586954502,-4.2569041214152055,7.671836626265794
8.26,5.909080466548963,-4.191491192159849,8.395972159072041
8.27,5.792350453977808,-4.030930808667886,8.993575615115567
8.28,5.5021742715424296,-4.262067585405511,8.715210277517372
8.29,4.989539399976636,-4.160419809448804,8.305860477836935
8.3,4.626912728226339,-3.644690699788768,7.784787519838348
8.31,3.916334312876322,-3.187328208122644,7.157434664111803
8.32,3.694182427816793,-2.938471809925683,7.001449612360094
8.33,4.992463577296965,-3.181075441756577,8.241402155637632
8.34,5.500746728501128,-2.5236533994846586,7.238129816000335
8.35,5.730020376688747,-2.5823347790021,7.3432949123035325
8.36,4.615505249259993,-2.9062637795974235,7.650132607700463
8.37,4.248681520707026,-2.463291379627323,7.675958201257118
8.38,4.42944934576261,-2.798251545685133,8.490774257311484
8.39,5.108782385235494,-3.5198814693985856,8.370945000162056
8.4,4.847294208605017,-3.1834093164795716,7.447223483937076
8.41,4.922844637222099,-3.139327895298334,8.059180770771608
8.42,4.699792270597953,-3.435661487270242,8.72901050257741
8.43,4.29954413260555,-3.14286653480009,8.202806026882287
8.44,3.567942705903317,-3.0006166999753447,8.234894707622892
8.45,4.186688947390999,-2.7205267189563744,7.953121008655378
8.46,4.663305325987951,-2.9125550579677015,7.795466977256446
8.47,6.000956822825537,-3.656574143541177,7.456603103193159
8.48,6.44677943067994,-3.9214407265905766,7.7742032906900285
8.49,5.5289148306415346,-3.441851133390247,6.853095618718377
8.5,5.2199169296416805,-3.8454779304005746,7.27291034219763
8.51,6.673299021424867,-4.790804632835445,8.830777058150952
8.52,5.866277396842888,-4.411698134727338,9.265704575696242
8.53,5.235829891590467,-3.3155094458482335,8.693296061201524
8.54,4.509170178863808,-2.9396598275232306,8.142623674738857
8.55,5.186342609789575,-3.516561099418509,7.553754671589606
8.56,4.945780620468736,-3.355483318800977,6.995711971537084
8.57,4.369332857058913,-2.445926079921609,5.630545103736113
8.58,4.778710471527202,-3.2193512062671914,6.439661760045899
8.59,6.333471940247286,-3.4931834204689487,7.322779684207726
8.6,6.6509656971429525,-3.7101780577970542,7.987448523023424
8.61,5.6933711881191496,-2.8647493671238458,7.16185741993127
8.62,5.284677024829091,-2.8540500460641223,7.374038752844566
8.63,5.856342533401567,-3.186361154309707,8.297272064280017
8.64,5.283796128878662,-2.9439341032257875,7.1582413379985335
8.65,4.56247937391074,-2.1286974753147407,5.9026749526752855
8.66,5.277926469406911,-2.508287869897943,7.135929815790867
8.67,5.565198801340799,-2.7057142236295606,7.186155913573351
8.68,6.179859976516496,-3.1235275046978535,7.040602834440583
8.69,5.416507708216779,-2.6741129971775637,7.45143112011379
8.7,5.598578637279134,-2.6345202525439366,8.030498964229425
8.71,5.2330119977230956,-2.9536357532482325,7.802064362203246
8.72,6.301287247287509,-3.6415838707640593,7.107708017516456
8.73,6.55586302147026,-3.28879440923488,8.07593402926136
8.74,6.398749537458754,-2.8892660604979836,8.049224579404505
8.75,4.989590015397035,-2.8821648432390643,8.176955064254647
8.76,4.598361451812009,-2.9315560952211395,7.99495992228883
8.77,3.805720899585095,-2.9179220159073935,8.093273077431231
8.78,4.340336344737079,-2.783428504584308,7.579461602166197
8.79,4.563659137447148,-3.2216511327801824,7.13589696360793
8.8,5.24596539553342,-3.532575528901688,7.281353751191617
8.81,4.920644790775712,-3.030539205589565,7.4606422505733505
8.82,6.171571184627839,-3.7043664148474313,8.457407197202453
8.83,5.437065915764972,-3.5091083338000417,7.842970314971698
8.84,6.158184656279827,-3.028098093726422,8.12090286726728
8.85,5.41851919323236,-3.2215376517603818,8.594145560052748
8.86,5.357180392413369,-3.332830474265696,7.893588148078592
8.87,4.898349691666887,-3.5050605211610826,7.01103746524106
8.88,3.733333305237277,-3.4253211352685042,8.074945352106509
8.89,3.641953566543981,-3.398452637135643,8.93047442556865
8.9,2.232470375699598,-2.169214783422206,7.175830734899707
8.91,3.994275890890046,-2.93898282780375,7.7497375169897795
8.92,5.427049305149197,-3.3799039145074934,7.803655906227539
8.93,6.905533936034876,-3.1955594170017223,7.7610001406234534
8.94,5.0880776488214075,-2.499384327496872,7.239269456995011
8.95,4.77896572736117,-2.604779928984092,7.721650525439182
8.96,5.668270303872264,-3.22106141062359,8.938281071743003
8.97,6.160063154329856,-3.8771190732227887,9.106609780717688
8.98,5.445747885967047,-3.199658952519263,7.542612589580904
8.99,4.45341639723512,-2.7345952269896885,6.857655256620512
9.0,4.867941933114995,-3.69025257319446,7.453620152868989
9.01,4.334948970075635,-3.335996063798867,6.660597132502629
9.02,5.259521368968975,-3.0952208479632115,7.849321768267534
9.03,4.619072835533568,-2.1500787488636726,6.871605383789345
9.04,4.999113311322411,-3.2438286668170293,8.714602050104927
9.05,4.86335148772371,-1.8226875052258178,7.46794073523879
9.06,5.726072234989768,-2.2662528435849802,9.148799676065945
9.07,5.619744479232124,-2.001330731408249,8.304971637263405
9.08,4.273165901258543,-1.7908703092953862,6.848375154706932
9.09,5.265399286959012,-2.749840962186045,8.730995311272164
9.1,5.747182879042203,-2.905078161967533,9.336018353133397
9.11,5.271288674109138,-2.3862901294253756,8.119861540812575
9.12,5.750458426733115,-2.1349834561424412,8.381438548463715
9.13,6.481136971675876,-3.3539758926135788,9.590281375953184
9.14,7.165024105883909,-3.3235136001156746,8.937077803833665
9.15,5.986437927195674,-2.4128319896666723,7.491390954265416
9.16,5.6713501919454385,-1.8985810801046272,7.1382766134330415
9.17,4.5586432685119895,-2.213740661547754,7.049663046985288
9.18,4.756721866237991,-3.0274327227351163,6.563879625890546
9.19,4.246391150409752,-2.6893572769782654,6.685395792436891
9.2,4.055312942034811,-1.6849370690188559,6.304857534978541
9.21,3.72944431753615,-1.8653249894849326,5.309369272254156
9.22,6.301077448814044,-3.3052272198735113,6.960279239547723
9.23,6.955679048268876,-2.9661426767355983,7.792395201030625
9.24,7.220021775909273,-2.2824051891293586,7.311790498832439
9.25,7.217522915670223,-1.8160790101774125,7.375767776793005
9.26,7.8605162837697495,-2.721454442746647,8.420563510265923
9.27,6.808713136026317,-2.1445065510183907,8.911954042153354
9.28,5.557738069199188,-2.0010037770951805,8.246915736914334
9.29,4.376348799411731,-1.7981665039628993,7.5187328897117105
9.3,4.565214725542148,-1.8411086325450372,7.125266773627518
9.31,5.561032418366324,-2.8485992599615155,8.627333394692178
9.32,4.946390116861517,-1.8464376856361622,6.5522242628703
9.33,4.651293452179074,-1.7471305812611186,6.57596327036258
9.34,5.467445935932935,-2.1029062073511517,8.351506979122309
9.35,5.159486633067793,-2.8292074597264825,8.546506738945661
9.36,4.704728210719218,-2.3061866486315687,7.491887655577561
9.37,5.205893527292489,-2.558710361843002,8.135879421476236
9.38,5.513486381407941,-3.092016838785268,9.178679377155794
9.39,6.123708996989408,-3.4855634143165473,7.895271063958275
9.4,6.0981302714895875,-3.2836514544694824,6.374521859275558
9.41,6.925018481683214,-3.3405020167302544,7.289500448609214
9.42,5.23381963296182,-3.123556434703875,7.649060260099331
9.43,4.178931708583154,-3.0897039385604055,7.629979439702891
9.44,2.8828552043971545,-2.917189163012353,7.293802948411183
9.45,3.758693601227704,-3.3766227648925553,8.811480160319329
9.46,4.626221323168233,-3.3388963142214583,8.566744404957902
9.47,4.792433391802536,-2.3110882497959944,6.346002787202925
9.48,5.913181565880136,-3.1927122589766608,7.736322877175792
9.49,6.257392763484534,-3.3004318941417443,7.609555116235731
9.5,6.146047225766496,-3.432624155939599,8.35209334543617
9.51,5.749580175472835,-2.3431667721677774,7.377546310851801
9.52,5.156622353502527,-2.11303826780385,7.744832509203861
9.53,4.545525668133122,-2.076531605236265,8.465581584212893
9.54,4.394528049802463,-2.024007184865914,8.89742280029639
9.55,4.963862333195765,-2.188492905206183,8.8128930375741
9.56,5.66859974265155,-2.938260094056023,7.7880532025808265
9.57,5.793244128967283,-3.0846871339125888,6.906273147235723
9.58,5.6814885218860445,-2.9250312074415445,6.845938219297215
9.59,5.0612832628883595,-3.472450819844842,7.908310946098281
9.6,4.5691150208185025,-3.1226339398888148,7.868224659802605
9.61,3.419199803944729,-3.333284773010992,8.086774199793702
9.62,3.530513199482223,-3.9315542874622302,8.20581431744258
9.63,3.4769766954943,-4.149725972713049,8.603485930248906
9.64,3.6317162067675834,-3.9207060982234334,7.992871520340123
9.65,4.620706019689809,-3.9828254030010664,8.16571595455537
9.66,5.0399369924156305,-3.9624626392163096,7.420518091668793
9.67,4.847563616579207,-4.095495459576745,6.664365163860934
9.68,5.313682415665997,-4.316796491891881,7.289939935343456
9.69,5.81025256464002,-4.151169021565938,8.304571502694575
9.7,6.060127168971352,-4.468058064011731,8.789451355002214
9.71,5.690569019565948,-4.28532399388392,8.336750570365988
9.72,6.249360229215208,-3.562655942227584,8.695166382571209
9.73,6.2839518450295,-3.317123542509393,8.273099451900242
9.74,5.039941896716349,-3.3970021486695177,6.614831476829178
9.75,4.207750904721057,-2.972971552480577,6.327783087679714
9.76,4.665056657606737,-2.451572979576567,7.568217874156683
9.77,5.075095846013063,-3.382328506128515,8.409238119798669
9.78,5.18345756766255,-3.74969090106202,7.964110310536801
9.79,4.987940058558359,-2.670057515876125,6.746136521376737
9.8,4.785427230240304,-1.9914570161954464,6.803911617398271
9.81,5.517749263311337,-2.707160123371908,7.776194970837106
9.82,4.949474028532473,-2.4719106643473747,6.714645372814117
9.83,4.67658297544572,-1.9023284094820154,6.607934872312279
9.84,5.3476670004214695,-1.8871580299123982,7.623965174710722
9.85,6.107411044490978,-2.5100306315919925,7.9939902676473995
9.86,6.235511537313203,-2.6307465996891297,7.683696052815701
9.87,6.733029499816751,-2.4841305064148718,6.864256831796256
9.88,6.79771566599289,-2.830031443000737,6.616890747887337
9.89,7.11412346345505,-3.4383073956985033,6.856899859607454
9.9,7.213397139983288,-3.3873957633069764,7.300250811658608
9.91,7.065579216558255,-3.096701234853499,7.455542203715179
9.92,6.264191553756066,-3.2725826406779657,8.108899794285735
9.93,5.318517687231493,-3.1579430515388727,8.222322440138777
9.94,4.370648853150172,-2.6782907483113307,8.131301336383302
9.95,4.042328840278782,-2.5747902179133813,8.494208447417483
9.96,4.237526676143735,-2.6237466581911857,8.112610137129753
9.97,4.674207233729775,-2.4888046248783677,8.268537347790433
9.98,4.615620818039026,-1.804941058223297,7.8556989611975006
9.99,5.350232242120806,-2.0659970305038162,8.189380297578163
10.0,5.521533427191981,-2.063968489480791,8.23190948475853
10.01,5.594261566003736,-1.7865114807783509,8.121459886711838
10.02,5.142575256339436,-2.1855155724992796,8.686663740316998
10.03,4.9526638654902175,-2.4014451207235856,9.09594616089206
10.04,4.445440631762492,-2.6517566884130823,8.669162655504168
10.05,4.0296273632607535,-2.980977471711247,8.787332403177455
10.06,3.6779192590662535,-3.0468738071983243,8.934184701769908
10.07,3.119940189953309,-2.890394416405325,8.097075471739599
10.08,3.8630212384512204,-2.939839461123676,7.566003881733302
10.09,4.782428978908952,-2.78083359684805,7.407007713175174
10.1,5.575303927025011,-2.6624169070145083,6.888135761418475
10.11,4.934606672251125,-3.0990588772189884,6.497195518092147
10.12,5.3654736660631075,-3.8214563216930966,7.080975358422296
10.13,5.810899778775838,-4.188844964083877,8.308866602880318
10.14,5.808958661751356,-3.7505512917978487,7.7615790396121325
10.15,6.510723280400512,-3.908584710848237,7.496335114968881
10.16,6.6736718887987125,-4.170827499222068,7.393933487145527
10.17,6.063968255367579,-3.422544593956201,7.196407392843563
10.18,5.168749383808593,-2.7834658015161517,7.411431315333871
10.19,4.582853241400089,-2.50687336500574,7.221056018759757
10.2,4.501584842571064,-2.8558676511467027,7.450678635930163
10.21,4.820541435466077,-3.1729024134826678,7.835269277717071
10.22,4.568322777733858,-2.5819233685948624,7.343920161544999
10.23,5.145166078013555,-2.342893489815559,7.548957892697314
10.24,5.740464666378129,-2.7817203179770056,7.691779781999386
10.25,5.397022241691964,-2.969571222486501,6.516461490373844
10.26,5.1946520825416265,-3.1047566809261347,6.506102556906802
10.27,5.897254427847954,-3.4865162741933586,8.562312999567384
10.28,5.411157868976237,-3.354016491403621,9.249540434113646
10.29,4.844932026576455,-2.5288937535380933,8.40903765383839
10.3,5.300026051335098,-2.80540246021817,9.126926589846743
10.31,6.325384999862314,-3.7775141748682453,10.022827954607646
10.32,5.737133413599944,-3.3002901045136652,8.488401238443359
10.33,4.669665330078187,-2.033286578072694,6.7309272180176025
10.34,4.909235292121116,-2.3667339517907933,7.359835976093627
10.35,5.47250623187173,-3.6814616586638835,8.01250335916816
10.36,5.100997039231385,-4.434572998896417,7.904602904793152
10.37,4.6092756764447955,-3.864994218532893,7.761141566249878
10.38,4.683099986364334,-2.7313030977613817,7.296549029510644
10.39,5.466168170514118,-3.1458322504272735,7.366947563736784
10.4,6.019768132196555,-3.760771780886522,7.611175175603209
10.41,5.031606660933969,-2.7458269238009425,6.967688673853432
10.42,4.119012619898783,-2.089112984944905,7.145397686231405
10.43,4.3032117397349445,-2.367864815582445,8.20000413544027
10.44,5.113056249886581,-2.5087986954191352,8.422870047996721
10.45,5.3848356532989134,-2.124419696664114,7.430536489696281
10.46,5.928614333032075,-2.0686257585134005,6.791437194856959
10.47,6.144704463202143,-2.534616994157156,6.896096250076617
10.48,6.22167270219917,-3.0328893587294856,7.131624431888703
10.49,6.8620719124954705,-3.3649267626887474,7.861573426877071
10.5,6.768319656476606,-3.0221086820275462,8.339923395926604
10.51,5.816326154114308,-2.7965813492462774,8.476410191531562
10.52,4.643766900176624,-2.5514056001501038,7.7047139176274815
10.53,4.241912087613824,-2.697491345921137,7.414024854694333
10.54,4.132069113985255,-2.8408200609452487,7.449286329023103
10.55,4.329120978809213,-2.7238487537471983,7.116240264472113
10.56,5.233186066007176,-2.954242093848556,7.557328535317653
10.57,5.386807782613684,-2.8906436979172185,7.556692475811398
10.58,4.87987914904009,-2.8132817658288536,7.161280686197331
10.59,5.351629015603511,-3.2212596258709234,7.93733183487825
10.6,5.396816982068459,-3.1826085244491615,8.233161495261925
10.61,5.604899124781208,-2.9805480650741676,7.7581733745148265
10.62,5.397195837499579,-3.3359608744405573,7.703378841583956
10.63,4.981781890014668,-3.3841149609380037,7.820732945165086
10.64,4.41143180921338,-2.8298791790403666,8.04014005921572
10.65,4.39521254535809,-2.8695842640138554,8.12146352041184
10.66,4.939097813834073,-3.6095009176611774,8.42761069208609
10.67,5.0819906348735335,-3.1403472509201107,7.814067446568627
10.68,5.169097877582375,-2.2235318411041955,7.475735416037202
10.69,4.738829583656698,-1.9955869261961514,7.613887678595502
10.7,4.727011488712221,-2.46466443089026,8.20652323464718
10.71,4.859297246626661,-2.402795914261322,7.725679302172769
10.72,5.523031721940511,-2.572269523911698,7.592530919199063
10.73,6.234509941321737,-2.951497524144362,7.692932062253275
10.74,6.1285138161802974,-3.1772919727741087,7.433564180706028
10.75,5.442418654673044,-2.839251193916648,7.003107745945637
10.76,4.774229326092484,-3.036554737294656,7.953902127869397
10.77,4.1505761435447495,-3.0002721694049574,8.823870165556635
10.78,3.5155091340888633,-2.4320408318005633,8.446713114406776
10.79,2.9079669443253597,-2.0339354447586424,7.750904558644678
10.8,3.6071814251509657,-2.594823670740612,8.566177220745141
10.81,4.267762285335403,-2.7356369157050247,8.316889000454097
10.82,5.0344558411551255,-2.941973816479514,7.525366388801449
10.83,5.623308342090785,-3.74049769112314,7.882334496602995
10.84,5.640518980634625,-3.877813343619327,7.729288910555451
10.85,4.947733981206837,-3.4387590792393787,7.823571268203796
10.86,5.185324737495096,-3.6103833254416307,8.547411516891792
10.87,5.197290599313469,-4.141652106374987,9.381177078320755
10.88,5.507430536753354,-3.999334089690637,10.030703918900654
10.89,5.620176982219813,-3.3455488197987457,8.964806098722741
10.9,5.717280893838204,-3.4448455175218493,7.555135157120098
10.91,5.768536113665268,-4.014054533752039,7.007079630666004
10.92,4.718382286163658,-4.095797812414394,6.682387912396439
10.93,3.766803621264763,-3.426839874016917,6.678611659490795
10.94,3.9152972007465743,-3.5818634955342996,7.96604490114115
10.95,4.7182985453642186,-4.191823879574485,8.556777931433663
10.96,5.04462532075613,-3.844094698497457,7.166867145860325
10.97,5.8189847969206845,-2.9967686937837614,5.338621422854844
10.98,6.710621353960839,-3.160189300587827,6.200802222003021
10.99,7.15520933132214,-3.7484210566738145,7.545322155613195
11.0,5.950691392777044,-2.9177817205948773,7.060120960207135
11.01,5.190736292833615,-1.97131100621109,6.856062513077758
11.02,5.30951828720237,-2.082315004859112,7.916822334456125
11.03,4.924801751734309,-2.4023762373116697,7.701721927069514
11.04,4.573140051953772,-2.526015087903354,6.842414311981936
11.05,4.754729874581005,-2.3944964274832694,5.294941814943595
11.06,5.857121232214661,-2.8726077631509828,5.868680122702093
11.07,7.1899401248552754,-3.446118927174468,7.114502499994753
11.08,7.460598138169118,-3.9558002947169415,8.122713820868727
11.09,6.458574713646171,-3.382800626955665,7.4660696318573185
11.1,5.268344065268761,-2.706497884196324,8.009779000333785
11.11,5.348701441445217,-2.839971779568672,9.42156622269455
11.12,4.803846033899575,-3.2157785213904355,9.334195929259108
11.13,4.8061064172948935,-2.9775855940947915,7.6416242062814606
11.14,5.787560369210142,-2.6532353407866656,7.523218222303482
11.15,6.140296452848685,-2.4324627284331353,6.989001773458309
11.16,5.297280160655514,-2.66984771513546,6.821487430754113
11.17,5.405218312157783,-2.05600359980908,7.074142326627961
11.18,5.1812378967488195,-1.6670810642125733,8.025899425636213
11.19,5.371000562138153,-2.0584730442313277,8.475344434272031
11.2,4.809862335712384,-2.3205120214498787,7.711842383650098
11.21,5.120309683332794,-1.8841346908335435,7.335184437673549
11.22,5.354787203465745,-1.8604978358694606,7.713792129295557
11.23,5.966967557841552,-1.9609774736267114,7.634699310245908
11.24,5.948889613886906,-2.3680100040750367,7.864555820574106
11.25,5.720246687978454,-2.0922904628803707,8.315491531219681
11.26,5.511000046378329,-1.9704835305930477,8.293179941640878
11.27,5.548406651340439,-2.060291702568082,8.422118424631801
11.28,5.433310066922416,-2.2607347587325446,8.389359074357312
11.29,4.894111614574281,-2.183102222223384,8.192137513937961
11.3,4.489700324892584,-2.173379075509396,7.724430819715067
11.31,4.734614361534445,-2.4325394987134,7.57557786705254
11.32,5.311844815143263,-3.3042848667423588,7.503330859911492
11.33,5.49574431862696,-3.648203590915224,7.909024572998138
11.34,4.844554559869144,-3.252004415767623,7.749636213884668
11.35,4.380208539384125,-2.9607351984416703,7.762894965806622
11.36,4.463660371593412,-2.8689161526433042,8.060628390204265
11.37,3.3874852970934484,-2.6207915849152013,7.460198609407894
11.38,3.360418771041036,-2.531229746254705,7.613323790267531
11.39,3.192863532426485,-3.0220619089292544,8.588542229800447
11.4,4.413672876823257,-2.8058060499342647,8.203663565597669
11.41,5.811179877330724,-3.273110401154635,8.054616989518404
11.42,6.798083357468596,-3.7585657937081582,8.15390027803841
11.43,6.283307851077157,-3.3991480791370323,7.108095547125117
11.44,5.59702034034978,-3.400503426113109,7.405578936536914
11.45,6.408678980705225,-4.174602703884195,9.380640072489456
11.46,5.905401721179152,-3.5138839443361927,9.99099724742168
11.47,5.879931789588539,-2.9007111849180753,8.672680071511458
11.48,5.2109549373213575,-3.1719175107498727,8.601480681200691
11.49,5.9088581371230475,-3.501621191325631,9.532353560501738
11.5,4.0308370892255905,-2.758633074815661,8.90878382108162
11.51,3.5367903693462663,-2.740213465650237,7.361006533255601
11.52,3.8281073550178744,-2.943805695103392,7.179067431009449
11.53,4.785553422832807,-3.511623540977584,8.811755065724244
11.54,4.035719757499788,-3.40640990654408,8.552279809407432
11.55,2.9534574152072715,-2.1414247105596074,5.548269989758033
11.56,3.662175467305755,-2.44440690213206,5.811092714035903
11.57,6.142086153659705,-3.390752232011069,9.156061076479267
11.58,5.47024232270211,-3.101655500781102,7.707781793087869
11.59,4.2663927088986835,-1.8234009104960682,5.376866655707505
11.6,5.323643204440198,-2.1593862938432102,7.564388969690552
11.61,7.041003915556926,-2.8868908204197123,9.12952191706139
11.62,6.907224170138765,-3.1322770692770185,7.666795449392504
11.63,6.343786598625461,-2.2008960899853807,5.055555856200171
11.64,6.438784540863208,-2.7948656312581837,6.6165923893751435
11.65,7.189586000659745,-3.1464160846354017,7.678469276851052
11.66,6.1045178712991985,-3.261125009402428,7.404949842155427
11.67,8.008886698383478,-3.5872092646284996,8.433143110033823
11.68,5.904537152837386,-3.087753856517645,7.6035540028297905
11.69,5.773880765849153,-3.0284571046294695,7.266951187971886
11.7,4.766712355704354,-3.1112278336538393,7.119186925627534
11.71,5.241098698576736,-3.5412613269240008,8.387170238172857
11.72,4.519631392441686,-3.1537731321099276,8.069408839616097
11.73,3.9317355683651107,-2.031675335142305,6.0873694412315436
11.74,4.162058765391395,-3.0561537565739263,7.137486555750178
11.75,4.468933334899906,-3.0337882583930598,8.007800951959727
11.76,4.811630157350857,-2.690947180614303,7.049334528019234
11.77,4.605905325709147,-1.9538042221336551,6.816551981580123
11.78,5.953894697728934,-3.0455926437351497,8.599773294362217
11.79,5.628994736641843,-2.605977261897958,8.431215457305425
11.8,6.1190837460416585,-3.002952888847715,8.144301666599675
11.81,5.496704639303469,-3.0724433789500214,7.84403982380968
11.82,6.541655954270474,-3.6459438196016283,8.127967115375117
11.83,5.14380569645423,-3.4379726325782833,7.606960553021978
11.84,6.02128303300915,-3.2243545902597153,7.4922560667146225
11.85,4.424031574990334,-3.178431065575597,7.47230618147712
11.86,4.646265422617447,-3.4069044960149553,8.540399131557837
11.87,3.9785396691639954,-2.666674020384251,8.379267332318847
11.88,4.490161942807884,-3.4717928343688595,8.694490602121133
11.89,5.1156116086973835,-3.8464560126523186,7.752653254850064
11.9,6.328111448558575,-3.578132072712988,7.2596514230613565
11.91,5.344416022381746,-2.503165936890887,6.629406294040241
11.92,3.532262154486887,-3.253822020890367,7.367885780856212
11.93,4.325079318352129,-3.66492971858307,8.09681968561055
11.94,3.8221959416339626,-2.5415972995299705,7.756059496684317
11.95,4.4928778054125855,-2.261715249118891,7.7113265089212994
11.96,4.303742455082892,-2.2699085045125424,7.13503656809176
11.97,5.66300365762432,-3.2164708875955026,8.173085049495496
11.98,5.686442409201379,-2.6848703406910044,6.579984582079066
11.99,6.929722892138624,-3.539562290083437,7.188155095778812
12.0,6.540088051974666,-3.8246881466945593,8.196157922835434
12.01,5.454908081916015,-3.6350686658113136,8.057664686508886
12.02,3.984225882936264,-3.342614885377583,6.904728248841023
12.03,4.68226302845583,-4.274550279623779,8.150183606714354
12.04,4.507284746424895,-3.592733342477513,8.383491958673114
12.05,4.932165685724126,-3.2040431787743784,8.65212541168701
12.06,5.017450896751582,-3.7781221528293627,8.006273203361538
12.07,5.88870663232114,-4.435392236746917,8.777006974245854
12.08,5.360638703522942,-4.324890526158904,9.155747395264742
12.09,3.7430499445212346,-3.338875368877924,7.136810084677356
12.1,2.765306376593957,-3.6303326678526253,7.269436587662558
12.11,4.509846654761472,-4.733967517244605,8.629731724688815
12.12,3.8905480687801344,-4.842611096903597,7.994936563474737
12.13,3.0590417302887736,-3.5542015331957955,6.683230702451947
12.14,4.021842658173056,-2.8388010273356477,7.1818162774316345
12.15,6.7889198482949915,-5.041031255850162,9.88979048985017
12.16,5.428193529809968,-4.13697863875601,8.279055605690445
12.17,4.278245705007556,-2.1055953195785437,7.063968285832009
12.18,5.06938760457376,-2.2359294955148616,8.8438345866293
12.19,6.663465358304369,-3.1980446438892036,8.356730305263197
12.2,7.104656023545591,-3.3875192505372365,7.593571942092077
12.21,6.823081159061665,-2.1081230329611413,6.423713249162612
12.22,6.220249913499857,-1.8224998808760628,6.70865566705804
12.23,6.300621210197093,-2.2172772011677915,6.627109956017231
12.24,6.469236302308827,-2.3053434967960755,6.604354754638597
12.25,6.490286750992253,-2.6592105081370265,7.025050968930126
12.26,5.444251891272432,-2.1785371701248977,6.557628031538179
12.27,4.8763155417861785,-2.119998847609389,6.172514971883943
12.28,4.030130445024267,-1.9847599121411268,5.340434951399604
12.29,4.9592348369788475,-2.430444936342387,6.142768975777457
12.3,5.8623614546703315,-2.4256805436218842,6.42002104131724
12.31,6.971885805646329,-2.9364274835561472,6.910161291679414
12.32,6.72373290719836,-3.032857112060303,7.441923183087405
12.33,6.257771945873014,-2.61186744441747,8.731668546145896
12.34,5.497134022890142,-2.336711836583507,8.925074057755609
12.35,6.045612380511457,-2.919383449894339,9.138643473817526
12.36,6.010428616615522,-3.216367381911265,8.807938710812007
12.37,5.495744140303609,-2.350786291181345,8.75735745169989
12.38,4.333117887668754,-2.1337465538942624,8.200020892213306
12.39,4.515656458033881,-2.8373114968357194,8.846133008115453
12.4,4.720350949630363,-2.8579424005240237,8.7597617565108
12.41,4.05277010984169,-1.949369750634058,7.472587123315316
12.42,5.25165352867037,-2.5158143824377945,7.963468046139728
12.43,5.198973519061986,-2.4142383424672538,7.376135350473054
12.44,5.7853112149384724,-2.3719570741855955,8.075797827038537
12.45,4.49803130627031,-1.9827913427716888,7.876857709189279
12.46,4.043560641288617,-2.5862258300062115,7.251871462677332
12.47,5.233218630272423,-3.4754913444450812,8.207948456455163
12.48,5.755774503942478,-3.837519775537351,8.585906078966831
12.49,5.559487039344131,-3.7374002799465504,8.005152861524515
12.5,5.357420058704643,-3.8365272037215568,7.396088929100006
12.51,5.9525178558331815,-4.102922021525543,8.42672716271955
12.52,5.503655905181602,-3.674777626144521,8.283095152408782
12.53,4.451504238569228,-2.9113364904516046,6.948540952308167
12.54,4.089264323535544,-3.583180991208796,7.762747654685478
12.55,4.424524577156068,-3.6413215120138913,7.937472988818804
12.56,4.217248419706607,-2.855652962298783,6.696084692029698
12.57,4.794755398180426,-2.901274219632685,6.4602240433932145
12.58,4.756171869836157,-3.344877554077873,7.365848387787016
12.59,4.424001159266791,-3.260744569344863,7.296177100020107
12.6,3.7980629084659623,-3.297048420040992,8.034747330137803
12.61,4.952658387145748,-3.0611170308198314,8.96238409475334
12.62,5.921888671740102,-2.667071588705299,9.201920158864723
12.63,6.362410017081938,-2.300754678731762,8.103977734224006
12.64,5.935419330321951,-2.572031381672722,7.373696962659337
12.65,5.297652712395731,-2.440548089966194,7.75377429937773
12.66,4.6539635815010625,-2.1614724067029183,8.580389679644632
12.67,3.8783254735798263,-1.7319674864170058,7.986672322051732
12.68,4.164815740657506,-2.3965554011136985,8.897777323813857
12.69,4.493817847555397,-2.6226083288689153,9.404495795973146
12.7,4.118083626737778,-2.1695074472328257,8.263564711817454
12.71,4.5508983292104075,-2.019664840104338,6.969957854076931
12.72,6.268348999725371,-2.819349183416352,8.050889856974518
12.73,7.1447930652971845,-3.6745114033816,8.69813332065333
12.74,5.377132572932246,-2.8308831674688504,7.618236570584247
12.75,5.42697565337136,-2.02706949339051,7.7863025394622944
12.76,6.586080527800107,-2.7564400480207274,8.861314795065214
12.77,7.237300717639957,-4.105519623909491,8.394240140126682
12.78,6.100758775566869,-3.5178917490793067,6.955052256056153
12.79,5.098319263479148,-2.514824781973107,6.517616033755752
12.8,4.707755540480439,-2.7487538774195728,7.154702513538853
12.81,5.4340950599664115,-3.448848590982008,7.737473819720533
12.82,5.366283598937787,-2.848379005989804,7.093063618955131
12.83,5.198292697952386,-2.216446691906943,6.419085005408998
12.84,4.8579870853790155,-2.2900604346073594,6.806768501488058
12.85,4.6917573617601045,-2.4235613954019666,6.752590197074499
12.86,4.532982271874635,-2.1420612782680677,6.508052699779278
12.87,5.067484609346015,-2.5139848926104267,7.2295078222201035
12.88,5.759058212686513,-3.144516964994637,7.605117921072057
12.89,5.896013784731692,-3.2143975696721148,7.269427911555617
12.9,6.207368701663799,-3.278622680635355,7.720649550574676
12.91,6.660216421056733,-3.482899123310454,8.346538343301697
12.92,6.257665334336714,-3.56263645351548,8.031331772898287
12.93,6.046469044171421,-3.453246531176917,7.64928047435129
12.94,5.849557619124993,-3.4105531103221858,7.62548854468628
12.95,5.443098576932477,-3.2706107734144925,7.604354064685135
12.96,4.680300811386175,-2.886199268567989,7.01976332833591
12.97,3.970518365438889,-3.105786573483077,7.454661763211723
12.98,4.276763918272319,-2.902279614410594,8.057150559883578
12.99,4.434214626029621,-2.797447856691132,7.69218204879824
13.0,5.445863248079642,-2.722834765012464,7.462801697524567
13.01,6.271609326380822,-2.5651139999699852,7.983309899919208
13.02,6.092053398621165,-2.5413257235362474,8.210212443625736
13.03,5.327435048914053,-2.7149659877095256,7.308333219605228
13.04,5.181016387656727,-3.2505666090412224,7.599595575050043
13.05,5.1317246586865215,-3.148377280216291,8.194433617052317
13.06,4.391704226830355,-3.0525224974445275,8.255558294402803
13.07,3.876228310786276,-3.2841730633915733,8.040360696463956
13.08,4.234713616609189,-3.0487152282433003,7.525613086624652
13.09,5.337438007842721,-2.8126944026732623,7.421447283194991
13.1,5.671970594025458,-2.695874248079069,7.240433742535368
13.11,5.477829144729487,-2.929043411191484,7.570677233395743
13.12,5.793102727093263,-3.165017910964779,8.318405769832625
13.13,5.87634799730733,-2.80756536297148,7.927957298582878
13.14,6.196196965693708,-3.0177684315388857,7.7871924536356225
13.15,5.7898409084093165,-3.368840540240878,7.937785687299036
13.16,4.482470835963105,-3.0097467585339386,7.604101819062983
13.17,2.7958996747190756,-2.1246545573227134,6.970222176791613
13.18,2.6305420309523426,-2.5267887363583146,7.5542170787778735
13.19,3.436859483763275,-3.3586969901417487,8.58226287903369
13.2,4.429625803843179,-3.1552516418197194,9.050945640122986
13.21,5.43369727515682,-2.8837903702451233,8.640851376023617
13.22,6.197273486285325,-3.5606032909084733,8.229686794734317
13.23,6.403468326494374,-4.054340488301153,8.76207583469735
13.24,5.535657049813013,-3.730768352358253,8.586660678655292
13.25,4.635789596137004,-3.2921063631973975,7.804476666730119
13.26,4.672901162788902,-3.4797511790368683,7.978826491678817
13.27,4.672766045529733,-3.9980786849962655,8.14135857109287
13.28,3.8860848340714744,-3.6774381387988595,7.124421821244895
13.29,3.4842567364247508,-3.2970789244299676,6.616992099373097
13.3,4.348888056414951,-3.5133864466654803,7.41003059743371
13.31,5.517570975714849,-3.744332988942082,7.820939435518965
13.32,5.689869232562257,-3.0897562355882138,7.238505311272689
13.33,6.136903981876723,-2.575958832293411,7.64021737301349
13.34,7.057177244439222,-3.282599188797806,8.02519431123054
13.35,7.141743581499127,-3.42151431420573,7.243194669131839
13.36,6.628199551764021,-2.6898690103879233,7.523838714074315
13.37,5.812472714528084,-2.5420696695315805,7.9246009700993865
13.38,4.512161556078264,-2.903216360373418,7.1765212033693615
13.39,4.947468176850312,-3.4919483132702407,7.946296269124058
13.4,5.934655134303829,-3.492328769763047,8.660892409897455
13.41,5.443371721692741,-2.782978112984357,7.382222352224514
13.42,4.770067230780624,-2.4615369216353153,6.11918881275641
13.43,4.587501410770023,-3.0439899357893543,6.3336534963530235
13.44,4.587543274818224,-3.2176199842453537,6.4873049228042
13.45,4.801303928424237,-2.551768054416868,6.010606523796942
13.46,6.07093854971028,-2.871324720464146,7.142689182433671
13.47,6.30892782670421,-3.1924459607792968,7.87856797171471
13.48,5.483165304182443,-2.6114323706905376,7.629044728059686
13.49,5.565892391658926,-2.356724365249564,8.001280568012877
13.5,6.506111090520446,-2.836600912095917,8.370160854553653
13.51,6.976453907914971,-2.9373507149949982,7.736978577863875
13.52,6.401516605568947,-2.5641118767888007,7.286570592924962
13.53,5.96935866799815,-2.7097969782440456,7.97810945813181
13.54,5.652224564812393,-2.7298706518545073,8.201405918492073
13.55,5.37031130604663,-2.4709195732717153,8.09354146254926
13.56,4.896697211933224,-2.16898531393846,7.705239891984061
13.57,4.5854529829838455,-2.19770590676868,7.510918774210643
13.58,5.261705972294227,-2.4210064499167245,8.251384909260507
13.59,5.480661398377835,-2.254513356868374,8.501005302027524
13.6,5.33232037956871,-2.288222031522973,8.176589375077143
13.61,4.851948225948164,-2.073266282958693,7.241181065604592
13.62,5.209203726369472,-2.6472411382439938,7.239170448660706
13.63,6.1156667071065876,-3.4253022644517124,7.9731707298303025
13.64,5.6956313980377375,-3.284770623504102,7.661470361324929
13.65,5.000707732435535,-2.886747169048414,7.51216350359502
13.66,5.321001533102659,-2.69596275968656,8.208660534196978
13.67,5.173524020527756,-2.600976182658551,7.83723581771598
13.68,5.046361173521644,-2.4223929353839697,7.556520255659103
13.69,3.674996874785104,-2.071939544034809,7.070849451013836
13.7,3.8206209893427743,-2.6913700721577585,8.170891420477359
13.71,4.595462906225742,-3.0277442689908374,7.961379711988092
13.72,6.263710009735046,-3.3576013767296935,7.738216291990975
13.73,6.764171910952145,-3.184079953240405,7.764091156432264
13.74,5.2541964941167345,-2.412080697764473,7.106629149572387
13.75,4.117289955083056,-2.593642733646979,7.201440195107276
13.76,4.266487809368864,-3.657637478232104,8.916218610094857
13.77,5.554431932390991,-4.054566406603937,9.794621327026773
13.78,5.145617540945074,-3.0147715748374546,8.411927458988133
13.79,4.991085614127029,-2.598534984780932,8.070521833123436
13.8,4.878796233160334,-3.201580706550558,8.536663860354778
13.81,4.034487756572249,-2.9603720414481325,7.936736896154027
13.82,3.1224574869546697,-2.1430377278775725,6.99071831681746
13.83,3.685941635420167,-2.167101323100536,7.4964404558580044
13.84,5.151131436380136,-3.167149956456188,8.775318169033874
13.85,6.686850647218697,-3.8730885952677103,9.147490791727433
13.86,6.897156270788823,-2.5460548354366974,8.030551833828868
13.87,4.968323360360321,-1.9619438393080917,6.262966059011417
13.88,5.500900848263641,-4.237188594936767,8.674408384161513
13.89,6.321831744173103,-4.415945391195282,9.555638015636923
13.9,3.2672961298188263,-1.6340175332600413,7.517247090249166
13.91,3.3328488011495256,-0.8164015385970875,7.527735952052236
13.92,4.737648907542068,-2.294734913097931,7.841420148965417
13.93,5.809451985255855,-3.7557585639026234,7.683334432247553
13.94,5.330454870256631,-2.8629764084535974,6.242530821262946
13.95,5.438119494961799,-1.8115143822549689,6.330735907595309
13.96,6.490531572819127,-2.5872170199209497,7.756376361537668
13.97,7.053544677104237,-3.6884095073655376,8.545365254533024
13.98,6.839280572885361,-2.9824513939156954,7.8483195167141435
13.99,6.347228400683755,-2.3287535914154303,7.358494747630908
14.0,5.715407642071151,-2.6159616615684267,7.757808616016037
14.01,5.6172166290657435,-2.8412828334735774,7.922084909204477
14.02,5.514681245763622,-2.337887134075838,7.598519095358855
14.03,5.50722074229381,-1.8880163349061398,6.8174352035286905
14.04,5.823634285105895,-2.476465033858346,7.487006860621444
14.05,5.142968111481854,-2.5575652373250937,7.219831594160564
14.06,4.822633864348739,-2.4279765368428072,6.923027596929277
14.07,5.711647885789339,-2.7420905530442528,7.0370518472253005
14.08,7.284676376650023,-3.5591387831511927,8.133027814787983
14.09,6.56516566815179,-3.297474535725519,6.642112903364217
14.1,5.584786673142452,-2.908526911551239,6.181493465523839
14.11,4.988493893916362,-3.0639781218280375,7.4521481376824905
14.12,4.3331527579052995,-3.1263681981713125,8.3613423643562
14.13,3.6385667647439255,-3.3626173832201904,8.338469016195111
14.14,3.780790197116547,-2.433415260980846,7.154375427825234
14.15,3.7477083383634553,-2.11560089428171,7.169133077766155
14.16,5.001578354199896,-2.4826335696230553,8.484402648447228
14.17,5.099735095346713,-2.0611294709291723,7.8687432729085645
14.18,6.722812438780094,-2.719826801231071,8.316891262082377
14.19,7.115656060581084,-3.4375652931366547,7.128647976394807
14.2,6.627338522126777,-4.069026726287562,6.514150451133389
14.21,5.584227359818831,-3.9033524238236277,7.926844576259949
14.22,5.026834960656796,-3.6577580573626345,9.973080962364273
14.23,4.088053207227696,-3.624806912290939,9.654079947081573
14.24,4.056698029750227,-2.913885881787768,8.187466939147596
14.25,4.987464110320089,-2.124491390104212,7.600591599553778
14.26,5.481140885935198,-2.1925612208437903,7.76071029319991
14.27,4.763606502676893,-2.4837229546243744,7.296725282138816
14.28,4.362934897498572,-2.5855133711517246,6.390508550451462
14.29,4.548769697871765,-2.6064592111583265,6.941315571480986
14.3,4.891457974869387,-2.922503358947219,8.119261615817999
14.31,4.889692646201869,-2.587971317797559,8.209036949053203
14.32,4.0410749131144685,-2.624159486836819,7.056373071749738
14.33,3.988386450395259,-2.531238419489318,6.309172195343762
14.34,6.175407100115205,-3.4289963388011215,9.301396681199883
14.35,6.323155838149496,-2.612977290930561,8.535318086761205
14.36,5.505991588829183,-2.199110614726184,7.471343724983535
14.37,6.550557514806571,-3.5056675754992437,9.05993793903692
14.38,6.469272798485196,-4.217014837369404,9.885597014242965
14.39,5.024038714430873,-3.2897524088517978,8.49630166559989
14.4,4.468995449954067,-2.9020505274367276,7.984135771764068
14.41,4.135016774534398,-3.100452648256149,7.753981654485635
14.42,5.064671535991459,-3.6813072679180374,8.345073649162407
14.43,4.345575008134834,-3.3575037059516557,7.6563668099484055
14.44,3.744387329331556,-3.0234275218272204,6.907230153160644
14.45,3.7825983013924653,-3.4322168841724783,7.754816111603046
14.46,4.06487881465044,-3.5663675657447405,8.36663395241225
14.47,3.3390562132058594,-2.9697329943493074,8.402250256716828
14.48,3.4717881958346206,-2.618775037984133,7.963229567630175
14.49,4.716601562043038,-2.9957731382683117,7.259339405815626
14.5,6.4261750809262725,-3.8503344168040674,7.306885160630003
14.51,7.405800948074163,-3.9276736822067027,7.417582698429967
14.52,6.4283197108265995,-2.7483084962871525,6.262200591252003
14.53,5.953413045247292,-2.59980506767332,6.625730283886343
14.54,5.378379361209089,-3.3590119248866097,7.665993892969651
14.55,6.36893123324705,-3.975481736979222,8.946505087788262
14.56,5.652901153328876,-3.5358348888073476,8.217303573063699
14.57,5.585306125917099,-2.885722627557391,7.625701078231894
14.58,5.862738400448541,-2.5292448625509474,6.852130214235868
14.59,5.977798884197485,-2.3379138043666865,6.711482191467685
14.6,6.659974212715065,-2.112571178204542,6.43838495445153
14.61,6.48602614838189,-2.6929696726562415,6.620778444103594
14.62,6.473181795739045,-3.201678589461372,7.691488005199128
14.63,5.545738980735398,-2.459651400448282,8.012408843543064
14.64,5.579408496308164,-2.166126915666721,7.993585456609329
14.65,4.945566366642938,-2.834046392598635,7.164184256490632
14.66,4.853932295419038,-2.452540267870294,6.883520778529202
14.67,4.571831354424871,-1.9547409969614278,7.283544019238723
14.68,4.322282566886626,-2.426752663057267,7.414127157251755
14.69,5.344908980307229,-3.632319061119802,7.7013306190231186
14.7,5.795914540784139,-3.3534079060968525,7.710011796002908
14.71,6.5751448638267505,-3.1455769318801514,7.956429854062455
14.72,5.991574032542187,-2.9761711881277306,7.286696781034641
14.73,6.576384626089673,-2.894130223081203,7.729888569439002
14.74,6.039407547826219,-2.7274487256362048,8.366669879175188
14.75,5.60096701348929,-2.657017958066669,8.077507042733622
14.76,5.334136492589349,-3.3494273827983094,8.627977117281864
14.77,5.479013126873851,-2.511919431075961,6.997670933744057
14.78,5.792909354651866,-3.033598888339793,7.886713936692769
14.79,5.513340173537842,-3.2654635915567463,7.926938451977543
14.8,4.726340497871535,-2.640494643881289,7.896829151985767
14.81,4.282761709789587,-2.1372446179742304,7.512612283473847
14.82,5.508928920767473,-3.0058093260142615,9.639252172323461
14.83,4.676670337863102,-2.7609619451587326,7.164938936087358
14.84,4.408262761028931,-3.349134046379247,7.698417139514113
14.85,5.317212170134635,-3.634761881486219,7.897322365887303
14.86,5.036166680243187,-3.548846066114204,7.581780666965574
14.87,5.577150922027856,-3.1249543583379165,6.53094170023237
14.88,5.391016672119084,-4.090674925773251,8.60809850991143
14.89,3.5126592461084707,-2.814413906217971,6.941902227225438
14.9,1.513234962466888,-2.3588830386767836,6.077222083666874
14.91,2.202239526755121,-2.7647900922017956,7.122886847960476
14.92,4.4093178017183305,-3.921992607912203,9.548210870878046
14.93,4.954435161687144,-2.958790120760133,7.260853971377819
14.94,6.316030811013851,-2.1460566461026573,7.34755997721887
14.95,8.197834497284346,-4.103962031299528,8.465485709821479
14.96,8.162131143604169,-4.295686802995152,8.443760276898445
14.97,6.405256423294097,-2.9570903966109725,8.334607423751756
14.98,4.876825239851913,-2.7178872135689147,8.580901189033163
14.99,4.306797973467242,-2.9658700296135647,7.2338117885069835
15.0,4.80786675650656,-3.270174195993435,8.6836824364969
15.01,4.6108134267337,-2.6789896029453484,9.428506483932473
15.02,3.838682633952971,-1.4750171676682011,6.629347470318086
15.03,4.973008610682293,-2.783040096156436,7.297269065028761
15.04,5.484925524775716,-3.36815927854363,8.667924445606504
15.05,4.578505394401291,-2.3203032700885955,8.241979805725775
15.06,4.078147527503209,-1.909811684454774,7.189774904481533
15.07,5.213095913860502,-2.9955287305888607,7.830110634864238
15.08,5.85045899094136,-3.6900716316249738,8.271249986281166
15.09,5.148623079221496,-3.38576564651526,7.801955798037866
15.1,4.4319706440765305,-2.4666670011250034,6.542628323237252
15.11,5.364371342350841,-3.343341897885958,7.858886103140767
15.12,5.7277146622112305,-3.850885266480709,7.576114522664619
15.13,5.93724114084174,-3.6215210288194286,6.988961152856091
15.14,5.816873042199555,-3.631532737863464,7.336800095841585
15.15,4.849161164557569,-2.8389265081604513,7.111137756533282
15.16,4.864829083313974,-2.882793116896147,7.369508676075627
15.17,5.271354863588633,-2.56562237761792,6.694675725919884
15.18,6.384059691937721,-3.26723217885734,6.631250702553627
15.19,6.467573288599898,-2.907517033728005,6.640996695080815
15.2,7.231475513564906,-3.011541787184072,7.4128133443308935
15.21,6.234458153071292,-2.7343404837056777,7.636315322820272
15.22,5.201142777457323,-2.50944827803137,7.601992489417872
15.23,4.262164276065572,-2.1398273455231673,7.837308526482479
15.24,4.368500797660441,-2.2706139759561523,7.825271428743673
15.25,5.100478987200773,-2.6835494939892133,7.468072896917802
15.26,7.136258499680255,-2.9679983071834704,8.183725221693628
15.27,6.954886315595392,-2.914864371687129,7.932792279114396
15.28,6.556255908017013,-3.0152173839345537,7.291320557140311
15.29,6.325226790000676,-2.935323496920352,7.764401718872129
15.3,5.731167900505614,-2.848795457601059,8.970287531675371
15.31,4.592851471856365,-2.3092732268594007,8.083734095523758
15.32,3.8687372419816515,-2.3491834009892107,7.624090563240126
15.33,4.22836517675028,-2.7385049012405136,7.454292448271544
15.34,4.479414950251227,-3.141635811260815,7.4669280126939395
15.35,5.679141223546914,-3.3555028631857278,6.659983290281749
15.36,6.185564488673705,-3.557484100476724,6.505533589259325
15.37,6.6241168226351546,-4.084796778189455,7.8620395228230855
15.38,5.464146455402859,-3.5858427766294416,8.243933043368619
15.39,4.444121996382943,-2.8740379182654845,7.477759881467717
15.4,3.843660827590906,-3.2002803532616744,8.592306351544298
15.41,4.23620141541554,-2.5681881991167934,8.467435611684758
15.42,3.3669060707058427,-1.951032704681035,7.142330183253828
15.43,4.246621180995184,-2.0038488359997846,6.327367698291938
15.44,5.372599688409096,-2.5533631791123708,7.186425656408525
15.45,5.9052148817009105,-2.4993483780639756,7.195407274809552
15.46,5.263131090716427,-2.107939818992233,6.658203679496665
15.47,5.737696924112867,-2.732290080506395,8.292281391293528
15.48,5.018249599765041,-2.733713792347425,8.542306433483073
15.49,5.436406778903759,-2.7820376443581916,8.736838889070556
15.5,5.5545405144224125,-2.5355513360784823,7.733530765708626
15.51,6.674628969107468,-2.613817107273387,8.063833590075722
15.52,6.1294058377607685,-2.7793957148397865,8.082703180216033
15.53,5.612415897218839,-2.688189014488549,7.5276219182973945
15.54,4.526052964598889,-2.8846678837462325,7.668256717921063
15.55,3.907489900003462,-2.8630607573274847,8.825611287921866
15.56,3.079820069889068,-3.214713996417962,8.819909075323018
15.57,3.4778293608043263,-2.9500372748344925,7.768353538065259
15.58,5.0074803088925535,-3.4168659061406985,8.469582413768826
15.59,6.219652509970429,-4.02280744085821,8.517979465218625
15.6,6.243180176890176,-3.1020414348030165,6.826749917897984
15.61,5.8804382914012825,-3.499847245348137,7.491459597813448
15.62,6.4421758170574766,-4.233637832950141,10.010398345279622
15.63,4.728281447232908,-3.3394016668801334,9.42760939271415
15.64,4.129688940160605,-2.296652924833703,7.903944239717612
15.65,5.235639465161486,-2.7638452442759394,8.046184920195003
15.66,6.1001908158375215,-3.504954474200652,8.149371285172744
15.67,5.607415822953121,-3.14396448375298,7.5450126713046055
15.68,4.358694166570085,-1.928210679559248,5.919458388699432
15.69,4.4927799730024285,-2.60374522589485,6.302902121015702
15.7,5.950928509523338,-3.7918560701599318,7.916977972856985
15.71,6.480427750523037,-3.666982199846189,8.640634492518663
15.72,5.4411245286131225,-3.218810889922577,7.9668555161334265
15.73,4.96014074068608,-3.0012752140525345,7.9321766883147555
15.74,5.181920290679907,-2.7833559844146682,7.778933550153327
15.75,5.496534184916292,-2.8317823557720705,7.3378384363987115
15.76,5.546989246558226,-2.8906504449290313,6.22807776715794
15.77,5.314269382166663,-2.9148314982570493,6.457400791472341
15.78,5.4473081077090155,-2.9775360935386064,7.618522956408902
15.79,4.975004353981668,-3.6254199949609123,8.215481198217345
15.8,5.258586453346472,-3.486820890888389,6.7453920892810055
15.81,5.369195950842369,-3.127965398931978,5.880969164158918
15.82,6.081412646549065,-3.5017560261818357,6.688845070458444
15.83,6.347262032968786,-3.857136460604317,6.704497343269482
15.84,6.303459972613553,-3.86897862728172,7.049019380445232
15.85,6.997647004097173,-4.078961610679912,9.261246339920994
15.86,6.257404006613037,-3.5341053766551425,9.343067941362994
15.87,5.588236160919896,-2.7676374425208845,8.610562467200117
15.88,6.030332108878356,-2.643648626972989,8.896343696887056
15.89,5.946284905953061,-2.2378997635401014,8.024765308841948
15.9,5.896839001916034,-2.1436984438863433,7.186968837700662
15.91,5.552816682837987,-2.1036230224446353,7.135307723276532
15.92,4.732542151528475,-1.9999047391878961,7.040337984455288
15.93,3.8465832046155257,-2.5772724005157475,7.408783802307288
15.94,4.009455412032325,-3.0013000004145662,7.893179897612431
15.95,4.82909529333182,-3.38966977673683,8.573516456781425
15.96,5.854599689859861,-3.4201715831808115,8.197937981477464
15.97,7.357966404360987,-3.957227265967488,8.50377595354464
15.98,7.895684948216274,-4.296008042279352,8.454237421092802
15.99,7.148567226147821,-4.276456577765721,7.988432385510169
16.0,5.650191244239624,-4.381204605442767,7.3641340220649845
16.01,4.422050895976931,-4.778763531744231,7.614458347592824
16.02,3.398507224341281,-4.317464822217169,7.1739383491039215
16.03,2.2554248701834267,-3.6986453857323562,6.611277999971438
16.04,1.6722474139009103,-3.3434292743527125,6.466463398082984
16.05,1.6781139274956052,-2.9140040037074493,6.515441957588405
16.06,2.566737891365785,-2.657937434350039,6.867297458090382
16.07,4.2497425569596485,-3.0734517969392288,7.477669649081786
16.08,6.00756385125699,-3.6189509347801234,8.322872965126635
16.09,7.260292587054423,-4.067523037339479,9.113542527646603
16.1,7.460716502126177,-3.8392311139016457,8.742356315512573
16.11,7.486427100923322,-4.048296045234655,9.081579336190226
16.12,6.435084339775546,-4.008764880722431,9.18978312888224
16.13,4.379846554734052,-3.2924622366313794,8.132379543556965
16.14,2.6731474991530497,-2.6978562309583554,6.94076183885134
16.15,2.454047453983607,-3.1529815455456043,7.866939684681681
16.16,2.698805186831061,-3.270422063849435,8.076249007897822
16.17,2.9570322435961214,-2.618728966696537,6.586729195590747
16.18,4.915428897735933,-2.9639339458431317,6.800051584026631
16.19,6.980540946590955,-4.251429762241712,8.56207111336847
16.2,6.325412412205232,-3.9608762358592986,7.958478967212233
16.21,5.084304053863348,-3.051775680975602,6.5436558859235685
16.22,5.713881054559496,-3.4827579173983034,7.232147970419451
16.23,6.893701144343502,-4.595607180623455,9.121638536969963
16.24,6.317021465863377,-4.04850201818973,9.373025819347593
16.25,4.307707374952264,-2.50366515906063,8.14897119374424
16.26,2.9879037440170584,-2.007995305916458,7.5839599758027445
16.27,3.0904326599025755,-2.549315484623632,8.079255975510696
16.28,3.671537723343365,-2.752929703049574,7.386979625000184
16.29,4.195691094661724,-2.2264214253490806,6.145468248826654
16.3,4.907836693900668,-1.7801732338169878,6.601378777087063
16.31,5.9522019129694534,-2.2647549300920224,7.3499726648902115
16.32,6.319118888740741,-3.0083377715268393,6.6872411966651075
16.33,6.8673395942963085,-3.1953275367164804,6.369048463707503
16.34,7.824053943315929,-3.421682702661881,7.961892533174582
16.35,8.12098014362098,-3.7839995851214177,9.252894763067292
16.36,7.642179126942008,-3.6721663192474723,8.489877579511095
16.37,6.931969480420663,-3.5462710094205296,7.763553970148372
16.38,6.23548011175043,-3.4002149789606992,7.914262564237171
16.39,5.120292735327033,-2.7590100737116767,7.219500061309301
16.4,4.172739222556946,-2.60916763965466,6.429456023086845
16.41,4.138764915957374,-2.934582074363717,6.567449434019597
16.42,4.505368114451408,-3.261677627365158,6.719600548467783
16.43,4.504592335184427,-3.3484736431040982,6.281794015259475
16.44,4.089074921208106,-2.904486122969683,6.048083280095083
16.45,4.309605223820853,-3.0482879101721982,7.457134429069601
16.46,5.477814554869236,-3.2344312957212944,8.633038185073891
16.47,6.100857680357498,-2.592928022563348,7.867562846218678
16.48,6.473978778971384,-2.4404379612103173,7.60440312589619
16.49,6.628701854869822,-2.6927956359218874,8.07927888973385
16.5,6.154854279300952,-2.8775852787799576,8.037437195226916
16.51,5.765244854688589,-2.9920017752453605,7.759196606049173
16.52,5.65654905835414,-3.1734733840332243,8.04885367530932
16.53,4.81735329780033,-2.6687399465876265,7.6715125455638935
16.54,4.0192914414442225,-2.3825276404070164,7.393309589826571
16.55,4.20068024668339,-3.168078726140339,8.067710379972322
16.56,4.146042223259422,-3.3016257381837453,7.47784624232769
16.57,3.9219153144477463,-3.0507185554295067,6.772956137085059
16.58,4.684677846933567,-3.3366272921262,6.984048082143929
16.59,5.7301465091743005,-4.309637523099464,8.097871925223677
16.6,5.776420527199196,-4.161622219167761,8.273550655955821
16.61,4.88118415843568,-3.3802768232865192,7.574947713481268
16.62,3.6796528146561096,-3.2444570482940827,7.306151777608043
16.63,3.131647009699525,-3.2880574516994794,7.589295477503336
16.64,3.2930921070490324,-3.1836385355381105,7.93432097449477
16.65,4.282361050688584,-3.372112703452308,7.749079513063742
16.66,6.022935352546119,-3.3307771744456645,7.8248545345992095
16.67,7.807560565251144,-3.3779791711026315,8.112697631746588
16.68,8.3565140756379,-3.788402909140068,8.102108284008585
16.69,7.589675616641222,-3.6436990771406967,7.8732510837247025
16.7,6.441664658771474,-3.4452626260870067,8.228668438554486
16.71,5.029114040110908,-2.913051234978846,8.336719982876833
16.72,4.58353082117108,-2.432909397322997,8.16843499402867
16.73,4.797288784402743,-2.9180386120134783,8.511475776375729
16.74,4.689595143595959,-2.9304319731002977,8.342738633422535
16.75,3.7258307555260477,-2.2387541561610544,7.661923941664621
16.76,3.0089263422179853,-1.8997006837396062,7.1945227295939125
16.77,3.0481566186011695,-2.666142240116934,8.095006570484362
16.78,2.7746797910087464,-2.772209361413156,7.800190273811905
16.79,2.2541660581079643,-2.582983319999538,6.832388259640631
16.8,2.921244852264114,-2.868472046879774,6.735325690881544
16.81,4.793908615016437,-3.3706236011512076,7.1934638385488645
16.82,7.034348605447328,-3.8887586427637886,7.9783598512866005
16.83,8.452028118355038,-4.385526390401279,8.920209982319536
16.84,8.193829522103004,-4.76806449127575,8.574848371646098
16.85,7.935049815719792,-5.0343678258887135,9.046899548112162
16.86,7.4745606591384925,-4.589619652178031,9.22209894008245
16.87,5.2716421765055825,-3.6723132065185817,8.008324665840364
16.88,3.7231407636554374,-2.8738482277702007,6.845984267295325
16.89,2.4479576494462947,-2.154972238575468,6.39781968461721
16.9,2.2135084938428737,-1.9677463876328134,6.228822306808655
16.91,2.4651233736060965,-2.3787146597492668,6.259176762270466
16.92,3.89289653449094,-2.6833512077808384,7.178716587262948
16.93,6.511852639392176,-3.14238933670989,9.076793204795337
16.94,7.829628002072005,-2.96116053476843,8.672994556264545
16.95,7.445262621188624,-2.5605769617010052,8.040689870065583
16.96,7.284912733357635,-2.1825285599125492,8.25670971867435
16.97,6.347329955239272,-1.8473470740898061,7.771260774165365
16.98,5.188617939615872,-1.7680693527912021,7.179788584917299
16.99,5.12516635579958,-2.211058384427171,7.13602102999223
17.0,5.259896463839607,-2.778609970873597,6.936295761175704
17.01,4.9939298317212,-2.6506253296962594,6.173279407207308
17.02,5.314381682018697,-2.6083112262308266,6.372373606741744
17.03,7.002291449489246,-2.960634092936661,7.690461573012425
17.04,8.11821727497654,-3.074352524646452,7.494326162320181
17.05,8.106970668345182,-2.541764526288253,6.596706852816086
17.06,7.728832471415742,-2.245257208477234,7.055353787010825
17.07,6.602910825855229,-2.1623818064846416,7.742531024604975
17.08,5.4561490378110875,-2.192133183337202,7.692927958817441
17.09,4.353779489341132,-2.432026018816307,8.005782566929923
17.1,4.465515692127612,-2.5136640656232823,8.54476562643574
17.11,3.812735906770939,-1.7165158635398778,7.9121964260306665
17.12,3.827199990453265,-1.6484995078824705,7.608947697115676
17.13,3.7313122005555535,-1.4887716961909454,7.428225032407814
17.14,4.394821448967405,-1.8381136679100298,7.373208722012978
17.15,4.514528586316815,-1.9379771223000062,6.978007323460952
17.16,5.579517269997266,-2.5915540386719127,7.6164106488451955
17.17,6.38824412161084,-3.0521610328720707,8.368875305189388
17.18,6.997479654109753,-2.8876365998648965,7.753546565757805
17.19,6.94782056193188,-3.3061671406290047,7.852338360416438
17.2,6.5269940286583426,-3.435462730200971,8.608093470088212
17.21,4.845085141584107,-3.1512081967200474,8.131372719803084
17.22,3.9957498212867524,-3.039227789175428,8.52485265874803
17.23,4.118117281015128,-3.249155612254079,9.29433224183018
17.24,3.96394608975119,-2.800056702458988,8.611282753749359
17.25,5.106520471959724,-2.97210416124356,8.890749649171436
17.26,5.832053753541917,-3.363086413856722,8.667641171310304
17.27,5.824986250828434,-4.056448170810326,8.12737972159865
17.28,4.519846099211665,-3.574915315624735,7.162250297480081
17.29,4.53318598685149,-2.901165742473485,7.56858582405868
17.3,3.9228230594404083,-2.791314082918809,7.835555117980684
17.31,4.319919989621211,-2.9589627099329445,7.645246709628065
17.32,4.27069380880232,-3.177812853692764,8.022228813110011
17.33,4.12780834887537,-2.5492335575396594,7.486222693094313
17.34,3.749909815105604,-2.3543231531847284,8.15641901786174
17.35,4.819263740389789,-2.524371003147276,8.979281511512953
17.36,4.845689640599529,-2.707923688549113,8.131022742259294
17.37,5.359713356444749,-2.5821641848521764,6.772541149412655
17.38,5.518835023167124,-2.7511152007667667,7.56091130935123
17.39,5.040863643092513,-2.7995238749190507,7.186056464879281
17.4,4.909446881896423,-3.312101003422556,7.516847677994164
17.41,4.798942016914251,-2.9841251423560524,7.500319895719375
17.42,4.2419019858878135,-3.0140016307421167,8.116573503824032
17.43,4.058849514039615,-3.4118368826115395,7.743932973305557
17.44,4.823673149304196,-4.458123729276644,7.979821047362832
17.45,6.818378205731076,-3.956816337687651,8.501210234105852
17.46,6.268649015522423,-3.3354857450101374,7.838214342346915
17.47,6.414665671769896,-2.992025513633002,7.292696314617064
17.48,6.03323867343415,-3.881248460420526,7.444127306937266
17.49,5.521119302393058,-3.372794616242427,8.05321860429354
17.5,5.183060548954341,-2.9514361056976854,8.443387753940142
17.51,5.060370631900636,-2.732782105504701,8.13315093305119
17.52,5.4471574397538625,-3.2513877884405744,7.778407295453536
17.53,5.512790939197174,-2.7983180322731234,7.701225966468343
17.54,5.829956584002233,-2.308878396068724,6.949614301627815
17.55,5.903508347566762,-2.496524985338503,7.195598752724305
17.56,5.318147943999098,-2.5049537007578393,6.922672615517524
17.57,5.037865611304211,-2.3138781422954176,6.620376399537319
17.58,5.629131311488248,-2.1474092523087327,6.3143236614741
17.59,5.482333506393885,-2.6045263544310986,7.045235370087229
17.6,4.80014370269203,-2.8125961881665473,7.480291147247102
17.61,4.696150142761558,-1.9032845437784578,7.5492662582196575
17.62,5.498527856655227,-2.61766191386056,7.710485195065973
17.63,6.89448532748926,-2.3216286493182143,7.490086499282069
17.64,6.988940975077886,-2.648698341823142,7.1038372314839435
17.65,5.7664524260588745,-2.629174408280473,6.753226038713796
17.66,4.751848691279445,-2.6514226316287797,7.073083980733361
17.67,5.323616495738727,-3.3401288584109636,9.293376089302116
17.68,5.631269794699673,-3.499360543930715,9.3420480564643
17.69,4.564383638026779,-2.478896281745643,7.7301853324825345
17.7,4.568699971215826,-1.5777147033049768,6.936861200244891
17.71,5.08814112416779,-2.5246715592993376,7.602375052793284
17.72,5.639107675875403,-2.976379822975689,7.478785563358049
17.73,5.046425424721092,-2.491561674062386,6.60895503818953
17.74,5.402372198143096,-2.8703202991914627,7.3855385829856655
17.75,5.629890862025799,-3.1953693499006537,8.511562914825431
17.76,6.080625083311523,-3.068044605699268,8.742644937320746
17.77,4.86201242413353,-2.7572183873170806,7.2716224904392375
17.78,5.18030301386675,-3.3288150330823862,8.540832898665869
17.79,4.425736131169345,-2.8852257932507954,7.542250472332427
17.8,4.889889222368306,-2.3756186387713543,7.039234406649185
17.81,6.515805828732395,-3.816169310573868,8.15446799847644
17.82,5.592121042308641,-3.032433510829108,8.174405850813605
17.83,5.342041307325917,-2.0968077546431463,7.68729491909039
17.84,5.282251597682373,-2.6388213506167664,7.901755993376495
17.85,6.763506341139681,-3.606249661026686,8.68973309982061
17.86,5.580480002778457,-3.065893581364215,8.013803275633386
17.87,4.557865738429998,-2.188906630209566,7.208181978765624
17.88,4.288305706731656,-2.8191188461309844,8.148269864187792
17.89,5.202471980007137,-3.0360086740091177,8.45401307145743
17.9,4.185516098112033,-2.876914496426858,8.681665982495447
17.91,3.7721342496027104,-2.6515977155258246,8.174863024840938
17.92,2.8862317189560835,-2.1636139869692568,7.029582994739697
17.93,3.2481717480920933,-2.722978311935888,7.78107488219026
17.94,4.537467240915988,-3.329465158489456,9.087587968675026
17.95,3.4303413732912795,-2.9146949311947354,7.593369898523065
17.96,4.063463741723006,-2.891913127396307,6.212667287085864
17.97,5.26167651090424,-3.8664061785736337,7.399984947369603
17.98,6.312753951191928,-4.0132406976822095,8.5544518206944
17.99,5.72419607668822,-3.9465896788544264,9.058068945815078
18.0,5.463281219831394,-3.7582166797967593,8.599948114255909
18.01,5.4395328213114755,-3.6744976629358104,8.60525326728129
18.02,5.75401648152559,-3.9212420018189045,8.562017764974666
18.03,5.097891567349716,-4.422420433608736,8.560829933159079
18.04,4.3135216727704755,-3.875160189443349,7.3029472303787895
18.05,4.403205850458966,-2.974117615087486,7.684869941767555
18.06,4.636873341215154,-2.9733097024112416,7.022620840875932
18.07,4.568398967437844,-3.334391443620128,6.696699211459319
18.08,5.313175832144209,-2.9926132729283523,6.8800624783423165
18.09,6.316632315841179,-3.567593406686721,8.72891886889018
18.1,5.887722823057586,-3.7422467751780393,7.966100679823678
18.11,5.917750548829982,-4.107804676359286,8.024600153696417
18.12,6.162939741066856,-3.782397728486693,8.151817375030662
18.13,6.260769986182801,-4.098869674186184,9.004038566264548
18.14,5.355168086924381,-3.6112794016017533,7.52049120437226
18.15,5.159472966520004,-3.110986164454465,6.8397328217763
18.16,5.419268554101632,-2.8033390952006148,6.765093053772077
18.17,4.9926896117109,-3.2222722895817433,7.1507896498540156
18.18,4.383375085887824,-3.606572741918452,6.679624068925016
18.19,3.9481103177674113,-2.929467100946213,6.365769637683457
18.2,4.835154467347967,-2.88938269595511,6.731066879212951
18.21,5.798280431326432,-2.561749239436564,5.77097969130472
18.22,6.813581036391101,-2.9004160022520713,6.616899859235572
18.23,6.453135719336647,-2.882626783141138,7.123433946650846
18.24,5.6398685706565015,-2.58639584307281,6.746876931825197
18.25,6.296376787389732,-2.845439546850648,8.250568787879219
18.26,6.341345321480631,-2.9101864541717153,9.077486041583493
18.27,6.126634019514417,-2.845488185716556,8.782259877096859
18.28,5.02726705391582,-2.5583462544051043,7.809219365754871
18.29,4.460626844682287,-2.0127205962770516,7.46867149336695
18.3,4.504554300695188,-1.7611680639514475,7.162687094036511
18.31,4.919889885284843,-2.2728443255989776,6.877343864658238
18.32,5.132286096500215,-2.5140138076983045,6.393565484380963
18.33,5.903409970983117,-2.632300567419559,7.929386468417387
18.34,5.707964405552079,-2.7688440859122263,8.039932150386415
18.35,5.662187155729493,-3.2544155005116586,8.51321730893298
18.36,5.0068212102078276,-2.6888547663871756,8.476851340994413
18.37,4.408747772691604,-1.946012992936114,7.962618784068046
18.38,4.25290394515915,-1.9550642997187002,7.061258863543695
18.39,5.9087237981878715,-2.895779938755853,8.23762694847452
18.4,5.867964313261866,-2.678705780414737,7.904455634120306
18.41,6.036800494780372,-2.656064371890303,7.672682055946005
18.42,6.561512200773291,-3.1865535704386683,8.574254838398153
18.43,6.762413665250254,-3.9846647541285383,9.190100422934641
18.44,5.717468202025609,-3.4455162916625905,8.609126111185489
18.45,4.45325488686919,-2.617530094298275,7.171114218027049
18.46,4.8434249033784225,-2.4743424271771586,7.1734129172291565
18.47,4.567894125288461,-2.887278754103225,6.9215027625664
18.48,4.233488392735244,-2.9511681499381366,6.972509164367702
18.49,3.2134131489142543,-2.64801029958071,6.911087278999964
18.5,2.282411687469168,-1.7915543031170862,6.980758719178517
18.51,3.4171710457119056,-2.283786890335121,8.19003107486451
18.52,5.101913209059712,-2.911405638709838,8.40603381796578
18.53,5.962117010471663,-2.4202155593544004,7.560387667122929
18.54,5.948338666026496,-1.9511868714619092,8.027142919299084
18.55,6.469409017097319,-3.023663399014551,9.055822944820354
18.56,6.997902269101444,-3.744299935145695,9.56732046849798
18.57,6.339869705674831,-2.6229562902739927,8.97588917052232
18.58,4.984499356813334,-2.155508972684979,8.385597277372026
18.59,4.565096913302184,-2.5226705095425275,7.931119830864709
18.6,4.373553675560051,-3.632566575945392,8.451120100251048
18.61,4.482705645285432,-2.966701340388454,7.936033599496567
18.62,4.282327659031916,-2.289420534355645,6.735701977534383
18.63,5.708847886353061,-3.078265036076843,7.234685784130486
18.64,5.737440130819753,-3.679363224259243,7.677636841058995
18.65,5.451392781654062,-2.891333242082914,7.671036378317069
18.66,5.34428494036203,-2.2611374877723778,7.711490615134259
18.67,6.254535544355081,-3.1339110278776987,9.199837644261244
18.68,5.932610345175547,-3.294143586488235,8.778119426082585
18.69,4.949260223512207,-2.1851040300579085,7.428198522324674
18.7,4.935787763836382,-1.931999519415219,7.349065627967248
18.71,5.52677541813354,-2.2422521663409394,7.879081454609482
18.72,5.7690413094414765,-2.3048395178475887,7.734472541346622
18.73,5.568561786893666,-2.1586075476987947,6.9245145970058735
18.74,5.500489574224094,-2.2130147261586344,6.678806406824707
18.75,5.06401251878269,-2.3049751657281954,7.221478364792306
18.76,5.463882427444708,-2.5015736239421322,8.093394706225352
18.77,6.134866942786895,-2.3280161702967885,7.533931853105391
18.78,7.3069645709121795,-2.238552699295944,7.105375117892181
18.79,7.252132886641637,-2.4191253233227594,6.928299937950851
18.8,6.685063377617634,-2.6599149080265936,7.003754967147882
18.81,5.449548620663749,-2.5948854933278285,7.53105474403349
18.82,4.687582469578651,-2.151020592656166,7.545216321948316
18.83,4.531994931852301,-2.2659712556799843,7.696359857735993
18.84,4.626611887429103,-2.629454674316701,7.675153728469499
18.85,4.391905402836633,-2.120909246504627,7.171519435710752
18.86,4.597570043698651,-1.8648981251638608,7.075261495158255
18.87,5.7643237593284535,-2.6181688190259336,8.068642950762806
18.88,6.791724330101607,-2.9504709479690794,7.805186739514023
18.89,6.511548825640957,-3.0652626320200156,7.446372737136275
18.9,6.856217903981403,-3.3458925894382747,8.209131605024309
18.91,6.665964798935501,-3.3141768993214265,8.814625281335056
18.92,5.993266575141662,-3.1743736198289736,8.758527840242303
18.93,5.486938925050486,-3.302281308830695,8.844152835744076
18.94,4.158287242519267,-2.8591308578428025,7.818059908344559
18.95,3.235532722526976,-2.4932420623871536,7.017806119164762
18.96,3.466667258751492,-3.0974709599583234,7.42204863032955
18.97,4.999399827316761,-3.987678568845923,8.063813288693238
18.98,5.697577288329249,-3.2912680653178645,7.300680028235999
18.99,5.923215756562189,-2.8784432182751085,6.887999107714165
19.0,6.348609079998635,-3.992267481186158,7.914012834986232
19.01,6.320277513302415,-4.133626770453761,8.468254221209698
19.02,5.2003999783729,-3.1795506354481797,7.942800681452413
19.03,4.54169381510735,-2.652172345297649,7.682571870280728
19.04,5.016025981771088,-2.890775855942875,8.391300826105494
19.05,5.102119246613801,-2.979873974263818,8.27500577197851
19.06,4.218466018838833,-2.52499355843101,7.268624050857861
19.07,3.813687955127797,-2.3525049489052554,7.2737106631746
19.08,3.4426581991970884,-2.5077533768847515,7.622955414013854
19.09,3.859653715590223,-2.9032191771594116,7.719062372705963
19.1,4.288989893030283,-2.791106338493021,7.282491903836661
19.11,4.895415058470396,-2.907011985602742,7.230529256608008
19.12,5.200743555720108,-3.172979193902681,7.681103432006474
19.13,5.603004263710355,-3.2890166861242442,7.911648528524261
19.14,5.993315495445748,-3.4716725598262976,8.42927682387138
19.15,5.8580508894111185,-3.4797431889134707,8.563986777103732
19.16,5.105894068913715,-3.1922926929485236,8.251070133380717
19.17,4.503048189295175,-3.1774056428438415,8.077105355308163
19.18,4.5790664627417295,-3.4881956306161177,8.655350176312009
19.19,4.868161484733281,-2.888865586254128,8.130181105018705
19.2,4.488340334523696,-2.0971342699210593,6.760439657849407
19.21,4.631604857180324,-2.302830455960717,6.372162325798918
19.22,4.985252161501241,-3.023854512735738,7.153650830501753
19.23,5.434582985221155,-3.128249615351382,7.9362055813417225
19.24,6.02475706476401,-2.8152714498345714,7.890387431165478
19.25,6.887919853827688,-3.343073077575146,7.911203968015308
19.26,7.308568199927166,-3.749937440809175,8.243935663481217
19.27,6.773005790555629,-3.445772078256869,8.374261273640206
19.28,6.0046999814744755,-2.991166282186948,8.098570420996944
19.29,5.969059229323863,-3.168663302757273,7.778713723712709
19.3,5.794634408998074,-3.2706159034511932,7.637876517910776
19.31,5.069675306426704,-2.794322271681459,7.404031071703062
19.32,4.1609864465324256,-2.4777077406794166,6.7962427956457105
19.33,4.001920723459424,-2.5942675478055164,7.079889213068169
19.34,4.744688276099277,-2.444561136848638,7.79725876989063
19.35,5.20850930725352,-2.063693951004098,7.329432234271683
19.36,6.167672085923943,-2.2088099752541424,6.45953252243846
19.37,7.019532934488312,-2.313569885190873,6.072398553979582
19.38,7.092808071297085,-2.6213630930231,6.714619291902301
19.39,6.230560374882233,-2.5475162639710276,7.217324698272915
19.4,5.09616706297683,-2.1884193342203893,6.787010663827968
19.41,5.348984817360429,-2.6219927676143593,7.201051682057034
19.42,6.1748584847287695,-3.127728452397749,8.105956253624496
19.43,6.067752867068913,-3.060739822161591,7.305498284925458
19.44,5.737236384323629,-2.9453989904082065,6.344589267087342
19.45,6.146998431573806,-3.1746272252086936,7.306407177517637
19.46,6.220425612943119,-2.9728598456047375,7.745183589605121
19.47,5.454994898255367,-2.810642131992003,7.058776215080827
19.48,5.372846906595678,-3.3833133504230988,7.492486714424246
19.49,5.450746009125102,-3.7613680426485856,8.57587358018171
19.5,4.45845814573097,-3.3208454885258027,8.33408211380535
19.51,4.346294304686923,-2.8393245066019497,8.158859583233507
19.52,5.191873457065912,-2.723405269527027,8.944683214736818
19.53,4.806680727671989,-2.4371059604183785,7.740150858203075
19.54,3.9670240994203607,-2.4991965170294255,6.39932425451733
19.55,4.638167632162631,-3.064333556717923,7.512532559118566
19.56,5.452192293491763,-2.9861471650117832,8.75492316150399
19.57,5.341644175337665,-2.5828799423157,8.214801249565882
19.58,5.810467977254523,-2.8131941048900146,8.173722298160577
19.59,6.706156483508638,-3.6678898513763767,9.200189832758587
19.6,6.580298089588711,-3.7304847767381744,8.85562619406288
19.61,5.615818023633642,-2.706208389362722,7.41255181466924
19.62,5.238909832692842,-2.235972395231898,7.406017086829829
19.63,5.104083396634316,-2.963248782511392,8.097361715606949
19.64,4.541674106542182,-3.296389403658328,7.973683953892732
19.65,3.358565239074614,-2.710281558708004,7.534141323176581
19.66,3.075706564367104,-2.0577358793983525,7.456898124505886
19.67,3.9903856918025893,-2.4941720289380567,7.585989807076708
19.68,5.519645852583816,-3.427502222478932,7.4018404682193495
19.69,5.750568561244297,-3.0845495930942537,6.505741449878655
