seconds_elapsed,z,y,x
0.0,-2.608515441966057,0.3506637417122721,-0.7000882970184087
0.01,-1.211317397882127,0.24634857519221984,0.8348029939578306
0.02,-2.6304900075794757,1.3794989140902292,-0.9538902639643291
0.03,-1.9595933257677376,0.5174680518493371,0.7541908921357006
0.04,-1.8165687287849384,1.9399825625898182,-1.226316820734685
0.05,-0.3962612743649278,0.029146771836328543,1.171808721557983
0.06,1.0119112184758363,-0.14644710338535108,1.7384432584776972
0.07,0.5145527786348573,0.6686393343455329,-0.2262969406411399
0.08,1.3746051359137357,-0.40994209667866843,0.2626915363904151
0.09,1.6678872026762233,-0.41776772221486164,0.26872185173319024
0.1,1.4218839725306132,0.10206910373924918,0.2890045499558019
0.11,0.5216657887858757,0.12185086242941567,0.37574080439434404
0.12,1.1770108384434277,-0.8363958566552245,0.45123227888819106
0.13,-0.23155922163948522,-0.5315930734627564,-0.037249673574284166
0.14,-0.4706587119754678,-0.13091790542594164,0.151999945264446
0.15,-0.9130549600426177,-0.22029995405020494,0.06994866988410184
0.16,0.35466319228651666,-1.2728463496869074,1.1782419967892734
0.17,-0.42512490433307654,-0.9978958118449224,0.5318917558621843
0.18,-0.6558415176114426,-0.288903866970667,0.5039506667664335
0.19,-1.1746792225954472,-0.28034653415910343,0.27778551890601916
0.2,-0.9527835304975777,-0.6205992669623492,-0.5547897903175196
0.21,-0.9480955180817121,-1.1081914809056725,-0.46759216978462376
0.22,-1.1138912333820643,0.18274783040697304,-1.7384142171957853
0.23,-0.6525754330821087,0.13346636023273825,-0.19561698586070492
0.24,-0.44985316997896135,0.007285246756935121,0.19319372183047614
0.25,0.20691276488767749,-0.04569781878299667,-0.379092897010971
0.26,-0.38777847465747967,0.28875976664722464,0.35957997810302716
0.27,0.031170652406950355,0.8620161799938423,0.8483676996053047
0.28,-0.4941255928012191,1.2697030084788334,0.8604929039813941
0.29,0.31057242407465985,1.1945236233050076,0.7989074685356083
0.3,-0.12165913532427866,1.5077447671723512,1.027430021596204
0.31,-0.42797520334243816,2.232018812283585,0.1457520673715303
0.32,-0.18828155598027718,1.5944881436512013,0.39213065019353266
0.33,0.20533928914339555,0.8257825824816277,-0.12181916864590288
0.34,0.08875544520984446,0.8201785292466118,-0.027579743532954854
0.35,-0.01579104056364489,1.5783109665273747,0.668878462000556
0.36,0.13648336129911612,1.3909863072252622,1.6972515381541509
0.37,0.8174508318997481,0.6586007310642051,1.691689842312554
0.38,1.088515538679461,0.20826317713842196,0.8116712073552799
0.39,1.4102826897498648,-0.17447762166467282,0.847408793301357
0.4,0.8080745996793576,0.12223017227229696,-0.16020902473194776
0.41,0.15604117644667903,0.5595645494742846,-0.9244329513969713
0.42,-0.47076117158990727,0.574942183902728,-0.6882924409152723
0.43,-0.7429262002822038,-0.045731527966220216,-0.5568653145052531
0.44,-0.536330817797261,-0.6009059458593873,-0.11025074915316613
0.45,-0.07797536636053108,-0.5620170308287011,-0.7051078881113256
0.46,0.5083350719795375,0.08677540185816447,-1.3225217400182359
0.47,0.5651346863011054,0.20070214993213997,-1.0282706559205816
0.48,1.12182052725245,0.07743848891412719,-0.3763678090792368
0.49,0.8266873065547498,-0.5179433454733591,0.2740490260650207
0.5,1.0630182135335733,-0.5732656564694328,0.005908888690435076
0.51,0.7129197546820699,-0.7243169394224337,0.5084293463068509
0.52,0.9363256711292084,-0.3610270062638849,0.056000417314017836
0.53,0.8528247329099247,-0.4586523429118615,0.19411965947714177
0.54,0.658877708412252,-0.0583713725057045,-0.2532210901791665
0.55,-0.8914380547865403,0.4284092887259745,-1.1260101214257356
0.56,-1.4274650391193335,0.47627116350441484,-0.5912530876321853
0.57,-0.852548312309298,-0.2415869885040826,0.2649357226123645
0.58,0.2060725726114224,-0.21734370144083406,0.41174723287476306
0.59,-0.18167319442956298,0.8216162684179796,-0.6374443570836201
0.6,0.7174755058707607,0.6307766203536262,-0.5551367756090544
0.61,1.2927169224000739,-0.25378882385758816,-0.09614359085101534
0.62,1.158278634525106,-0.5117422149201694,-0.5928530073567571
0.63,0.5849743307062428,-0.14067693588326194,-0.5327843153726614
0.64,0.4249034949567699,-0.0009678685486452188,-0.17900680125781054
0.65,-0.22159245955895154,-0.08602931179943862,0.09847067295250415
0.66,-1.2640452713548926,0.3527982914287611,-1.023489905148291
0.67,-0.21494826427899943,0.005712812401200013,-0.5948630288407728
0.68,-0.4808135942325685,0.048430882067482445,-0.4667945199615363
0.69,-0.2693587188911169,0.5308990159975452,-0.4663256339840054
0.7,-0.840254672102488,0.504336686884989,-0.45929220077778976
0.71,-0.18108123502903434,0.006505777869846325,-0.41448867289984437
0.72,0.4907341383294047,-0.7056777472255569,0.002946291637367017
0.73,0.21943124328906863,0.1621897202326066,-0.6500194746782344
0.74,0.39131478372130984,0.23560363006835885,-0.2322304639298117
0.75,-0.031225494068509534,-0.07447597716039916,0.3890590259305892
0.76,0.25766805715237445,-0.2709820812476593,0.2634045078680892
0.77,0.6018932260954698,-0.13077176229531845,0.7878266628362055
0.78,0.6193418366675663,0.24884494450593414,0.9122092328061328
0.79,-0.16344102290420526,0.4327206120753668,0.2976323414417316
0.8,-0.5011363568384842,0.3096559911635389,0.1065069892120855
0.81,-0.2422624573151989,0.37391954414338985,0.19053119495809337
0.82,0.4034848358905212,0.5336888521384184,0.21483545163933224
0.83,0.5307377769545445,0.3836542080192541,0.045974537850443094
0.84,0.24900926326166758,0.48558429252583774,0.40125275290824763
0.85,-0.20782067095712445,0.7987285481535553,0.49776857905802746
0.86,-0.15717945629476163,0.809801953088532,0.1462537126710526
0.87,-0.2650814239962467,0.4869490254112485,0.29447464480402763
0.88,-0.3946101238911693,0.713549359594156,-0.46901967488466245
0.89,-0.3899019831355668,0.4655639280180163,0.062056047074144645
0.9,-0.3862976799114036,0.43564545594209103,0.46597310884259285
0.91,-0.7596356222326613,0.2770265680999499,0.7545264849739047
0.92,-0.4830444816943693,-0.3378704964787898,1.2888581801603203
0.93,-0.3993394897757267,-0.35794078310973604,0.6645020611542475
0.94,-0.1358183060379324,-0.357126120257633,0.41353417908561074
0.95,0.5124421186961381,-0.8404243778347754,0.9431795405164591
0.96,0.40831674749713986,-1.2016298785513109,1.2211302110345235
0.97,-0.44503063613326166,-0.9142731416761918,0.5764782887413963
0.98,-0.7565157108518654,-0.8790341709255408,0.25741738867045566
0.99,-0.9457066754808412,-0.9956331250701361,0.010901464798890136
1.0,-1.0145067154806748,-1.185729760737623,-0.11787654817370505
1.01,-1.4368960340222385,-0.5795687718980558,-0.44242136135669047
1.02,-2.0278756070175894,0.021564680025000154,-0.3485066547646529
1.03,-1.8954209101214423,-0.023458140952891664,-0.26739393874998285
1.04,-1.0153638752330159,-0.45966228872147114,-0.7512009552253294
1.05,0.9483899871023532,-1.3464995844873124,-0.059142477060548954
1.06,1.2138223172934142,-1.253084273295944,-0.26198282012497187
1.07,0.7743008164500775,-0.5125946317280132,-1.250477275921332
1.08,1.1568004981050588,-1.0366932708661445,-0.9128302126115768
1.09,1.6995992730040599,-1.7772304791703983,-0.14292975753970127
1.1,1.6727731998715616,-1.5093967225966922,0.27489233604362395
1.11,0.31080735263557907,-0.370240211460572,-0.8775142301487423
1.12,0.09319815177729084,-0.5107345050680718,-0.05475011244086951
1.13,-0.12378276806993037,-0.5793759892866912,0.016460265479361354
1.14,-0.39626163390233426,-0.26704885174527293,-0.5580940552273874
1.15,-0.5208820156107561,0.3028366779948548,-1.5841237208962753
1.16,-0.5531918876851494,0.12476185690599537,-1.9580913060556924
1.17,-0.14975640813257576,-0.607127058561923,-1.3146691822163878
1.18,0.3269867467509038,-0.6608702051696347,-1.0021351819835718
1.19,0.875845867615362,-0.6942909104555322,0.06906507490205523
1.2,0.7938461201196352,-1.1338779558643493,0.6581987270313635
1.21,0.10177047729069238,-0.898646258979614,-0.2694743615779405
1.22,-0.12885871111530756,-0.2777878878133644,-0.6519681754397563
1.23,0.5966702656268525,-0.8261180725093047,0.2029978501504093
1.24,0.09313537581843889,-0.760257375087445,-0.05605350507303253
1.25,0.05604477120283849,-0.40216731571228975,0.3426192363073249
1.26,0.43239692989489015,-0.20100226582971464,0.600572404907304
1.27,1.3936793486311805,-0.4826783110227626,0.5875602098905865
1.28,2.0565411562844766,-0.5963434128324093,0.3570114919012271
1.29,0.9815765034351108,0.3470984619158693,-0.6464044825637386
1.3,0.07491318366903155,0.8961893520035642,-1.1509362465276645
1.31,-0.15913481415327774,0.2663089845812979,-0.6403798047217852
1.32,0.1648114663175472,-0.22111197733062524,-0.29104670110037595
1.33,-0.46382601156392866,0.18465759370118112,-0.40792806080255084
1.34,-0.6776772941978116,0.6593931049616221,-0.5410657896485154
1.35,-0.23702010758638078,0.6427446998080621,-0.6638545601766725
1.36,0.6916382525313586,0.5682796079163337,-0.1691904094249642
1.37,0.9898297957876429,0.6281428733200368,0.2091200111723441
1.38,0.118983723786732,0.6537915961867514,-0.431809338291156
1.39,0.05395670356512646,0.2947749267410968,-0.2375321716332838
1.4,0.26761210559976367,0.020089377503271787,0.7573431891785521
1.41,-0.023347509769529817,0.23748460170521127,0.6603702974358253
1.42,0.08342964239549303,0.44083545956832937,0.11963384461216328
1.43,0.544589304940864,0.09742834474130416,0.07429525756003445
1.44,0.4042157161453339,-0.01695223078667804,-0.07720814933452036
1.45,-0.12738771436203822,0.5424518447656563,-0.4859251148112292
1.46,0.0062881226523511516,0.2888271438954657,-0.2016460683579941
1.47,0.5137979622907818,-0.5546180231406758,0.7883084080843588
1.48,0.24529453779267718,-0.018589995814830982,0.8967330710206074
1.49,-0.29437898988690475,1.1008987960162617,0.5391452717198851
1.5,-0.7736970246687719,0.9651162240481277,0.12464890475939665
1.51,-0.8330769565408982,0.4679482880274241,-0.47254002356839575
1.52,-1.358706828963411,0.7031525696824141,-0.7399309718610989
1.53,-1.8478655913835231,0.883791897093418,-0.10590132884012438
1.54,-1.0297761814025372,0.6654624915423786,0.782944391179959
1.55,0.13011495340330045,0.36133977274973234,0.7820794011809035
1.56,0.9777753966443422,0.4534849940497372,0.39941068300388105
1.57,1.0594367983662807,0.6871587168923832,0.6185678590882109
1.58,0.659281861998336,0.4292527378974569,0.9171549120450317
1.59,0.01655732406520017,0.2762588995417242,0.49410175913419524
1.6,-0.1784408320018821,0.2910977729017724,0.6239135022109
1.61,-0.36122214520643353,0.376272687115468,0.7539992254051668
1.62,-1.164459336118197,0.7894045454803431,-0.7174617537341363
1.63,-1.972956839806805,0.9799762551054849,-2.436161775189025
1.64,-1.6816615744455314,0.6004616942768144,-2.253884152314275
1.65,-1.2530599885871974,-0.004148165543460721,-1.1499746538817135
1.66,-0.9617381965096398,-0.1490996907602493,-0.3180665907837277
1.67,0.05734427993452541,0.14952446174287515,0.11224517452175718
1.68,1.255093848757769,-0.28201667823884985,0.9088827829798014
1.69,2.4874165103720896,-0.8480002283829279,1.518981154275961
1.7,2.4316082559487695,-0.7935387560273759,1.4049109797209836
1.71,1.2088126669629848,0.0009369867756273563,0.197169128374705
1.72,0.7039139671869022,0.03780053696237625,0.7537929556798277
1.73,0.5178597736280021,-0.0821267213847749,1.3712226392913445
1.74,-0.026083260077115256,0.00746854909481877,0.5803953817488696
1.75,-0.20931907797460783,-0.009987427024583712,0.1356234612098886
1.76,-0.42691546206933256,0.18430843398563565,0.5043496802999705
1.77,-0.7407059294913816,0.27619158665648424,1.0042792062584918
1.78,-0.6669230244639862,0.2268036519691355,0.046836954177447855
1.79,-0.37924104163228534,-0.013809905575182458,-1.2572775966229368
1.8,0.18391348493401638,-0.6068575031920034,-1.1891262725455387
1.81,0.5431350473044312,-1.333672487247565,-0.7064744334165343
1.82,0.5972223589608165,-1.8333305486058997,-0.39672111857875897
1.83,0.8173449367262211,-1.7149233788173917,0.354515951718175
1.84,0.4140667419818878,-1.533162498833673,1.6190674482915781
1.85,-0.750570095896576,-1.1892830525714155,0.4018895902187954
1.86,-1.0933282429621967,-0.7073169599601701,-0.9204342535363432
1.87,-0.639841756764619,-0.4648788161137245,-1.1208734980253645
1.88,-0.36736641332419684,-0.5280178896202805,-1.2237387390591368
1.89,-0.32105943056491776,0.19823793046185675,-1.8636614144847643
1.9,0.7590716698380277,0.03539653613273194,-1.1777298455237755
1.91,1.713898595549627,-0.6873346015766933,-0.46490090077694796
1.92,1.1555482896296907,-0.2872173139865436,-0.46420978433172017
1.93,0.21461774720329307,0.2827402811075683,-0.6603514835045796
1.94,-0.43076371719089607,0.6746211446621498,-0.9036316515519233
1.95,-0.36729535645405076,0.3632890723069253,-0.49731935243956954
1.96,-0.05692565382061852,0.12090015345275404,-0.2958978458584998
1.97,0.22508178347619345,0.06250934309582233,0.14257231023182063
1.98,-0.15213866767817236,0.38720580625772677,0.5019851872429846
1.99,-0.7477332440435065,0.60087318518035,0.1805951147433156
2.0,-1.2561043949355266,0.4275678088066803,-0.008058149247724066
2.01,-1.0152483951948066,0.11952162840879096,0.40775071555124914
2.02,-1.0917781794728492,0.5206448605801516,0.13572113983972298
2.03,-0.9473001169974353,0.6460907806594157,-0.5363351806669557
2.04,0.12203654004018306,-0.04746015862888532,-0.3148818683649399
2.05,1.5266677463625018,-0.41369585854495805,0.10975194655996875
2.06,2.275759174891162,-0.40481604483668404,-0.08801702223678003
2.07,2.0445205593078897,-0.3315729952565961,0.20777147766186901
2.08,1.4799704136994103,-0.2964371670916749,0.8145002106131672
2.09,0.3632281118365117,-0.28552160192626297,1.0515850128871485
2.1,-0.43073165766071986,0.5434401714358,0.21163789074637646
2.11,-0.4080497328631011,0.42948592715163286,0.9141273017660045
2.12,-0.5280358281560286,0.7738216068910779,0.13677525052048448
2.13,-1.0023089106529268,0.9277906577360239,-0.7790454290697055
2.14,-1.1626610177165742,0.5106069559233163,-1.1837727175166377
2.15,-1.1970331246327808,-0.027182132136244083,-1.2536931808380443
2.16,-1.2846089844381012,0.0984200337787061,-0.40359399874683927
2.17,-0.672006580567743,0.45794172857421284,0.8014856137783349
2.18,-0.4462761141384159,-0.19665196765797438,1.6802473888637208
2.19,0.31780156020650574,-0.8878001333315164,1.7500565721921553
2.2,-0.04007147763300097,-0.6535710197773138,0.7023716102398523
2.21,-0.14657128871304115,-0.18773721233695914,0.07697355152662029
2.22,-0.18469311471035157,-0.5452398296726123,0.2175974802816322
2.23,-0.9725858998847796,-0.40265063762831976,-0.4431678814220884
2.24,-0.7314495880703827,-0.42689381639146606,0.12401430112864185
2.25,-0.569804394146032,-0.24598681041675746,0.45426740825201856
2.26,-0.5596203585647623,-0.49933980949499285,-0.21436549096938035
2.27,-0.6396950155585852,-0.899771340316155,-0.04931497457605374
2.28,-0.8557652377304784,-0.7439077404214622,0.6379786367002587
2.29,-1.3852336147048125,0.00723290133604756,0.7204779770558024
2.3,-1.1380708076215933,-0.2141154454998305,0.5221174630934131
2.31,-0.09390105352896654,-0.4787297832621916,0.0032305252974777062
2.32,0.3931995114616962,-0.5276696310683472,-0.15315652216191947
2.33,0.23499654987037924,-0.19000912310557155,-0.3400347277876359
2.34,-0.8118910434959187,-0.8224529152313644,-1.135946958947094
2.35,-0.2233079424067774,-1.6355693295246356,-1.111104443382796
2.36,0.5708264511067571,-1.430834330526923,0.26620847889583377
2.37,0.7156039408618383,-0.7461219138832756,1.1143423731929745
2.38,-0.12984663946669742,-0.7209024383423697,0.46928646325626533
2.39,0.44473307477404855,-1.1301329100833943,0.09418932927303167
2.4,1.2125243866145357,-1.2563235610738785,0.9563055248286899
2.41,1.8121547268177256,-0.546673374673539,-0.11808823472919901
2.42,1.5344090667891515,-0.12142623959592615,-1.5124896974557624
2.43,1.7669454182070912,-0.1752700109472049,-1.2259521973925087
2.44,1.8615867004334405,-0.07167479023613345,0.3207318505023227
2.45,0.6470333230108061,0.5586216038224678,-0.25742498241203127
2.46,-0.009426228516685262,0.4660944918870577,0.2370569803537797
2.47,-1.0928585888488653,1.600227212290632,-1.0887256830769632
2.48,-1.8751258357545204,1.780951328933968,-1.4819523482837693
2.49,-1.861811477225198,1.473936294051549,-1.5653906942447002
2.5,-0.793146208995676,0.28041388069725265,-0.8397479588656006
2.51,0.1451075604374673,0.6997439525701789,-0.728305666196943
2.52,0.8980937919000301,1.7166058461201887,-0.8788022547349553
2.53,2.7814720271734905,0.1153255504288615,0.8643567239484385
2.54,3.6431070482322685,-0.6421616287568155,0.5635330216049308
2.55,2.3323608612491866,-0.08529549117769139,0.012011136974452292
2.56,0.5610544738550634,0.6392747740800853,0.4654360864250629
2.57,-1.0017257317313284,0.41954451928347525,0.11790505900339748
2.58,-1.4267314821295818,0.43583271000854756,0.4453632798085984
2.59,-0.9064388393602448,0.7998811434302018,0.262858337235169
2.6,-0.33494563774732095,0.3101901861056132,-0.19991647266536547
2.61,-0.4114269385258724,0.7150585347099122,-1.8283884682257807
2.62,-0.08162851332926735,0.5699315611724529,-1.1404986958460217
2.63,1.2097064166133584,0.34396452105982156,0.0592459052822547
2.64,0.7857491263224933,0.4818945140431686,-0.5405494598030409
2.65,0.7949652781308433,1.205003297832318,-1.7222017715402178
2.66,1.862317209265849,0.5343370233666956,0.8186182369869731
2.67,1.8048196382070603,0.40195893677595007,1.0659412819241676
2.68,0.9493407374704796,0.4553994453920605,1.357601632214927
2.69,0.37166789295794755,1.5767387238349433,0.9805320527540714
2.7,-0.4488411581398527,1.0934165767226247,2.147529859628173
2.71,-0.773711087964954,1.3727428154573205,0.8247735853580842
2.72,-0.6348148015264147,1.2340598498264481,0.7419560051458564
2.73,0.34665802395560585,1.4338033380360204,1.7014484447084752
2.74,0.28671973334938067,1.2275538815404723,1.7492700814921944
2.75,-0.6561946456817352,1.0699105215059408,0.41138461330525167
2.76,-0.9098701273290156,0.9634257327609633,-0.8811001308587113
2.77,-0.5993079171359393,1.119416449563269,-0.780248717577191
2.78,-0.44325451501332636,0.5080829798032777,-1.0288459581715437
2.79,0.37179360179965826,-0.31611712440516254,-1.1092680242674122
2.8,0.954553314045333,-0.8846252252781698,-0.4998525060251936
2.81,0.7544449701474301,-1.2422049251184326,1.085521195156529
2.82,-0.3023229288865612,-0.8498734338471207,1.2792958588046728
2.83,-0.02876952340364101,-1.2050833826229932,1.3092473650595873
2.84,-0.6735311227980797,-0.2384198296889317,-0.3863015830953507
2.85,-0.6388029919476,0.09254147037509118,-1.0555565713152064
2.86,-0.7195442491590943,-0.2187899627108949,-1.1569506586766802
2.87,-0.5903839539536019,0.2962057679247272,-2.1150938471655616
2.88,-1.301646222844741,0.46440884772862784,-0.8486357370327486
2.89,-0.12974324040448046,0.2803232054152997,1.777747062457889
2.9,0.36261381516966473,0.46567682965804563,1.6844436769078996
2.91,-0.021200862404949082,1.190490889165332,0.28201689223462356
2.92,0.8887020008918892,1.3134673639298902,1.442370084022331
2.93,0.3451265641019527,1.1835542933150014,1.477281007467593
2.94,0.05316910364669758,0.8921001730872654,0.6695090724778423
2.95,-0.34291306635488894,1.0869515233910731,1.3023411155774223
2.96,-0.6646286865381847,1.437511365480847,0.46331577945685704
2.97,-0.1085410307183795,0.5166287532628162,1.4761764472266443
2.98,-0.6814822259561432,0.4963205639011658,0.021214273041237575
2.99,0.10742506791200339,0.3546954952931618,0.5555340183464118
3.0,0.6170128870067877,-0.11595387677349171,0.622391759080003
3.01,2.1156310490688854,-0.47571860135665495,0.254982249144972
3.02,1.666836918462398,-0.4878658036737948,-1.4375827882980106
3.03,1.0809128819240728,-1.130100202995662,-1.5509215633154367
3.04,0.45245653826171695,-1.7303744234580447,-1.208464438855201
3.05,-0.32652168165647383,-2.332330233387127,0.04287613250486406
3.06,-0.3916341732878758,-1.4347795733603141,-0.717670056662192
3.07,-0.5203838916636911,-0.4285328710168432,0.3379804115560181
3.08,-1.0033676572707175,0.05092881158767158,-1.2251166919998167
3.09,-1.6990658379607158,-0.1182958156978674,-1.8757052711494915
3.1,-0.8223592444432221,0.23837637199543382,-0.8185649329606296
3.11,0.4627369007866603,-0.41830422067981327,1.3902628699112265
3.12,0.5223346276877343,0.4295010285597331,0.3081927209133393
3.13,1.5479636798394847,0.05254826765396356,0.12200413556010409
3.14,2.4401604648511133,0.024818437279704526,0.02270608473890614
3.15,2.084654066014113,-0.8473630972230957,0.5972399562148057
3.16,1.4375979907104017,-0.16954703682607705,-0.16800409962804733
3.17,-0.7737797041842913,0.32403334304214604,-0.8035198402048801
3.18,-0.7474019641040262,0.2105405974523141,0.3760831172228142
3.19,-0.8935342864134751,-0.00017288029894641234,0.5690375627625973
3.2,-1.4250387332557288,0.04974446776062836,-1.4024175255636049
3.21,-1.5205164884640845,-0.026709367385311863,-1.9712548487674622
3.22,-1.2345858112059829,0.3147645764496336,-2.3249815090297656
3.23,0.16333573575080465,-0.10729014717588242,-1.1095765255630028
3.24,0.5151146551819062,-0.5901629598188594,-0.1904435603582376
3.25,0.6137667821127039,-0.2927487871694566,-0.8241769831690698
3.26,0.8571952405332044,-0.7766107320917425,0.006580043538313696
3.27,1.4452326768876382,-0.34913014388960734,-0.3563954197493597
3.28,1.8599678909428774,-1.0810664207329184,0.41845627725131246
3.29,1.2568521138480828,-0.4327858752053606,-0.1022506718706111
3.3,0.4611031148424948,-0.3832317803687112,0.33966750458527634
3.31,-0.7849193958953149,0.2570272657677957,0.4186797824346842
3.32,-1.3595594885331566,-0.17944880917828387,1.1475989093050143
3.33,-1.2569250651778363,-0.43391741590846794,1.4422540291275225
3.34,-0.26783271427286676,0.2461931548660352,0.6932139050119253
3.35,0.6807143271346506,0.03939252149785435,-0.43062168528586253
3.36,0.5889016370536303,0.2188976606677205,-2.1894364040149346
3.37,0.14857015830430767,0.3008187412187634,-1.9101418543322177
3.38,0.0916878173000648,-0.3578118884019768,-0.4692875646285322
3.39,-0.5658605527327568,-0.18248314855347175,-0.5007978427388639
3.4,-0.17308108113110782,-0.29343799225891043,0.5878050001480795
3.41,-0.4671214742196989,-0.24673102072219502,1.3043253886610588
3.42,-0.9540034044394636,0.40727019056365915,0.871055850788257
3.43,-1.389685552977361,0.06226563090424849,0.4318509789495568
3.44,-0.842932892622526,-0.15284498486853276,0.26235702043987374
3.45,0.024793002308966958,-0.0600940087294835,0.4950682617624145
3.46,-0.09596238455314483,0.1384077981318122,0.12367335049373192
3.47,0.0434387599757076,-0.03246986238114356,-0.24810586532343062
3.48,-1.0198266117632944,0.005658200828100404,-0.2914323113060751
3.49,-0.6721011190241998,-0.3591252273494042,1.0007923890489316
3.5,-1.560460184443571,-0.10122648336121717,1.2365726416699614
3.51,-0.9636138686579102,-0.7621682321987168,1.237807378154449
3.52,0.5048017510141045,-1.1092346300269222,0.8149718106934822
3.53,0.8101146779386673,-0.6602200368796822,0.10078816709743263
3.54,0.7488078245204093,-0.5368840247413635,-0.638513613191897
3.55,-0.2600404834528878,-0.7830161118678933,-0.16355667319309503
3.56,-0.045801591167036915,-1.171404226387495,-0.31129003348578926
3.57,-0.8445329526114673,-1.0506362815708656,-0.7425870746661412
3.58,-0.9035465989021995,-1.457045156611781,-0.5711879887062925
3.59,-1.3836908985042842,-1.8757990096940158,0.19486573464521295
3.6,-1.5943603035648712,-1.765708379225507,0.02303404537450584
3.61,-0.584033022315569,-1.9180096111396416,0.7851117126253999
3.62,0.9807412446936669,-0.8254187301524527,-0.733768104841802
3.63,1.6096548867834357,-1.116837132980207,-0.5602661986250574
3.64,1.6677273563982078,-0.954495266004019,-1.086771497445111
3.65,0.6467430918287426,-0.8802149839791128,-0.7560625834918461
3.66,0.1719533423976296,-0.19794825943738767,-0.9962419611281047
3.67,0.17206167000604847,-0.2366625539452277,0.14506172339066462
3.68,-0.1721862768927106,-0.2682418652427698,-0.1995151005710869
3.69,-1.0504510895717398,0.2938731444478483,-0.9970013372371439
3.7,-0.7142334529271589,0.23346712259201635,-1.035178739791452
3.71,0.7356462757919677,-1.0187987857979395,0.21081344273636082
3.72,1.5562413506667805,-0.5308049352096099,-0.8773735736222574
3.73,2.2312650735838613,-0.30710063974061264,-1.3148657396793964
3.74,2.6237426759677778,-0.9963242026540104,-0.5409942654026878
3.75,1.997556745800298,-1.1537485259641314,-0.12972094805933504
3.76,0.1598938294241395,-0.39378654773862665,-0.6119524290968215
3.77,-0.9688597780071279,0.10805989762419023,-0.814961689594372
3.78,-1.0804718090738998,-0.02624264226685887,-0.475693706158153
3.79,-0.05400641788815582,0.24017386620375808,-1.0962272822710724
3.8,0.28570723899345224,0.31280687258264006,-1.4741659448765652
3.81,0.6717261676994737,0.7613660085894881,-2.0052670043437977
3.82,0.23653236538291217,0.8182616663954958,-1.4635597682762853
3.83,1.3764877843529855,0.0027281629800397864,0.11184004017863661
3.84,0.9518983930162478,0.23414250244196233,-0.08114897278006532
3.85,0.8954703864453889,0.9688108496285018,-0.45572010337167057
3.86,0.954659200720415,0.9540035038606139,0.7346258419810359
3.87,1.5579856105016785,0.013649090864384292,0.8973801780651589
3.88,1.2607496780545102,-0.019890053754131054,-0.46321968621130416
3.89,1.2139089568395631,0.6013732495976979,-0.2215564331726567
3.9,0.7835579087033598,0.464200246374352,1.2952241091875767
3.91,-0.706470161609144,0.42275210458608814,0.5339170104974779
3.92,-0.5817320945625853,0.41857078909571543,0.21322881560208073
3.93,-0.10961070704142321,0.5790333196996204,0.8988473467373529
3.94,0.7083414693700977,0.18142650325943713,0.7388065215718684
3.95,0.45318031883795423,-0.3107651320110619,-0.5352324800843482
3.96,0.5479627739191595,-0.019454922545688563,-0.9309547400389699
3.97,-0.5126749631245674,0.4330823007279759,-0.3156408447533663
3.98,-0.49797801571165234,0.5002047498022939,0.039682209236245936
3.99,-0.524154538945499,0.3381507878735636,0.04929471387159244
4.0,-0.506076884715695,0.25404891782268046,-0.4028603099473515
4.01,-0.8204912222128586,0.5485952823158217,-0.5705608774372607
4.02,-1.2315474034086276,0.6887643125506501,0.012641339792897326
4.03,-1.2280306319892074,0.25867056733398286,0.387184742333102
4.04,-0.7346419139815314,-0.16203486528200692,0.6024494190463651
4.05,0.7734519568834074,-0.08039567414419571,0.7044668575394253
4.06,1.3574883835909748,0.04887683791553468,0.34510890450106524
4.07,1.498391841918435,-0.22003695996082318,-0.0007076859216948241
4.08,0.5724871141566377,-0.24313780686288822,0.11738900286143406
4.09,-0.164629444652623,-0.3326830486571229,0.5272312049328279
4.1,-0.8701779502688195,-0.49059880320792554,0.34362521890302705
4.11,-1.3734992868912648,-0.6646635155981687,-0.0946958603732964
4.12,-0.9226522751734578,-0.597053571806387,-0.22135879917802054
4.13,-0.3561111263356883,-0.01861579824614929,-0.6409286526733957
4.14,0.2949441143171582,-0.1417188440041374,-0.3197617611812814
4.15,-0.044882978923001325,0.106153182922921,-0.7209541629472912
4.16,-0.0880761967721015,-0.4644408100379634,-0.5219161100147989
4.17,0.21690960014391256,-1.3183427164350097,0.5297944918283868
4.18,0.3965710478319933,-1.1171641946149469,1.1318215196247285
4.19,-0.530252545931082,-0.38180656279977626,0.38856904925723035
4.2,-0.3752747776072528,-0.42154556442051916,0.48344614894557125
4.21,0.18405674041260808,-0.693767377015977,1.1000496218909492
4.22,0.05188663529829439,-0.19979597258129791,0.12959575365185455
4.23,-0.334442319740306,0.034696328665024465,-1.172290338624012
4.24,-0.2127054859865469,-0.07716629442427325,-1.2426954072895942
4.25,0.5816655823447969,-0.30576527341865106,0.3751441412997197
4.26,0.9965310832900387,0.017547443382336977,0.4856740273487003
4.27,1.116424558803991,-0.4365085627107663,-0.28359352010413436
4.28,0.6987222189442944,-0.6168989145412254,-1.1111822919785281
4.29,-0.4052114711997412,0.22108034182139918,-1.199374661462549
4.3,-1.406043954165851,0.6106142026110976,-0.7137481304849782
4.31,-1.1594233510641725,0.05319667199707204,-0.40374984513380063
4.32,-0.03147713686856607,-0.2448186373327055,-1.1784246837923698
4.33,1.4044393435545433,-0.35809270470600396,-1.6705876256233612
4.34,2.5354114639531313,-0.7706994200450795,-1.169951374613827
4.35,2.7071985851683036,-1.1247947892864874,-0.6437716156245483
4.36,2.1481814730032642,-0.8069855382435537,-0.21860965481045286
4.37,1.326508108495042,-0.12586214061217785,-0.10649713494679704
4.38,0.8873930710500108,0.07646365652576603,-0.03276429713329839
4.39,0.7720733850937693,0.03318475682129071,0.1345817937879913
4.4,0.07005325059374168,0.7289084997383983,-0.6340067206287393
4.41,-0.541514051891209,1.337420543031392,-1.0994232706307596
4.42,-0.6984750461851785,1.3257176540204472,-0.7173692498493993
4.43,-0.24579486170728035,1.1336359916644183,-0.33108301533915174
4.44,-0.1198885277274916,0.6959511024955887,0.23568783161975146
4.45,-0.48637893896001877,1.1042949274557023,0.18961667569539778
4.46,-0.36524461585219814,1.5007494926700184,0.3522902932662433
4.47,0.5510041279142092,0.8239298944894198,0.7787691084034024
4.48,1.3690340244186212,0.30267991975702785,-0.3361636130911575
4.49,1.2253114376701335,0.12700887302032518,-1.031032176226092
4.5,1.1778730036248009,0.03426554723242337,0.09301750923703005
4.51,0.2618670479014184,0.21971965764748894,0.3234574836384932
4.52,-0.7843105133922206,0.3577124833295052,-0.18407842426863485
4.53,-0.7752774754855764,0.0967114359538198,0.6751728517039786
4.54,-0.2543027981843184,0.12988037335356656,0.9543713762727466
4.55,0.27803406307770323,0.2505753073839594,0.02219502498695829
4.56,0.5523116835550981,0.21442135209841265,-0.7120809626656642
4.57,0.6157284563873651,0.3226935980049515,-1.1062405620492952
4.58,-0.4107540251164986,0.4393731861202593,-1.289599041779879
4.59,-0.9848495346947873,0.522445786770201,-0.7370537103202444
4.6,-0.5568955989173403,0.05605146217179489,0.8923010109953632
4.61,-0.0923902932357056,-0.22063262271015355,1.5162621098454752
4.62,0.00350415783888915,0.06727888278717234,1.0999778996058607
4.63,0.05308580784378451,0.3793147127362442,0.4153574225663633
4.64,0.336358728261761,-0.22935528644123643,0.3831856898932107
4.65,0.4185232814813621,-0.6830645305189789,0.3374039583345887
4.66,-5.389724436776738e-05,0.03826829539777138,-0.16088873887140817
4.67,-0.9753711757185307,0.36633940843416113,-0.29713514476701697
4.68,-1.1399130538252786,0.11015767222666334,-0.08360834913341127
4.69,-1.1649210923565165,-0.16262984623948218,0.28991059529525287
4.7,-0.9533284954958404,-0.4559908212317579,0.4372033455899268
4.71,-0.8737993602250754,-0.39952152528107887,-0.34168421690314965
4.72,-0.09395306597061213,0.01858251444313943,-0.6833930641629347
4.73,1.1582813477737504,-0.2794451524059624,0.5793497910230222
4.74,1.577942270634699,-0.43251333327314573,1.2072342682429238
4.75,0.8956157120665295,-0.46892281050416235,1.026854915494193
4.76,-0.37370350369345556,-0.1397449571159404,0.2703503628174088
4.77,-0.8004319096121888,0.1641465259415137,0.10682986411307799
4.78,-0.8222197607952028,0.37931706186149106,0.05711435269263473
4.79,-0.7316421395455229,-0.00019654226724192053,0.24467594498834033
4.8,-0.9374630261014102,-0.03728180760511831,0.16708509116853942
4.81,-0.30474947073513975,0.14442446655396532,0.41440700465058555
4.82,0.7954070420184255,-0.10849595901982663,0.6168870678511124
4.83,1.132878615264937,-0.13797665107771356,-0.5441967244474383
4.84,1.0546226790039137,-0.18995226517311753,-1.453817741270091
4.85,0.5853194436149157,-0.5315669200369919,-1.046558314553725
4.86,-0.14295617833861557,-0.5400093515694997,-0.6122424428056916
4.87,-0.24374541452276213,-0.35513412520982396,-0.08576200607004597
4.88,0.04148290059597803,-0.009399173325395822,0.36604192011517495
4.89,0.0896537765440312,0.04024354112720749,0.39093786968496913
4.9,-0.3537518936881476,0.3336216533368161,-0.7045891431622513
4.91,0.14938670688320405,0.34589909839618643,-0.54433878663367
4.92,1.3465752337020083,-0.07341342851488102,0.06389098387485236
4.93,1.7601103365220374,0.15718277873581377,-0.012865496594034022
4.94,1.425314560515864,0.3998933000873577,-0.3359297640765513
4.95,1.294315783855334,0.2133807638451145,0.01114342229866252
4.96,0.8336831249403295,0.1762719635979121,-0.0027248080943380573
4.97,0.173721131624653,0.14976267978061525,-0.043636361702244345
4.98,-0.49372805580756973,0.6994621287582763,-0.8464709383187297
4.99,-0.10590280690639584,0.8706368972684372,-0.8608381298145937
5.0,0.9868564049499656,0.49678805553968264,-0.39730592154993544
5.01,1.7300583699878298,0.02556815137149115,-0.4120463646571887
5.02,0.9435097030794193,0.6600760644924191,-0.8759555509625099
5.03,0.19598741940481396,1.3921955391095326,-0.9056109837813562
5.04,0.2307938457046608,1.2161791404548263,0.15625273961345587
5.05,0.3109668051554471,0.4578409830596815,0.7198980047187059
5.06,0.12829403836534753,0.6481413544821704,0.7562398492305206
5.07,-0.15805717186117269,1.2502270621312797,-0.045293288998081147
5.08,0.37334153701537665,0.4172312579562359,0.1392763951702341
5.09,0.9710574622423223,0.15345361260534973,-0.22697712797956468
5.1,0.6329829026566026,-0.004749614990301843,0.2697375508642825
5.11,0.29743681721840287,0.06201965021591934,0.5957600680272598
5.12,0.2723347764327805,-0.5984262889856127,0.7590675429040601
5.13,0.1354247647417458,-0.8094808017930549,0.8071760050449002
5.14,0.410726480366984,-1.1220803518619218,1.2823649251595073
5.15,0.42106214545947085,-0.9059084999082372,0.018075326069264482
5.16,-0.0694916012889478,-0.9949865213280845,-0.9189336686538964
5.17,-0.7100007235868552,-0.4654140417193307,-1.0400103811626724
5.18,-1.3230006956959068,-0.4024914704335844,0.05626197022865457
5.19,-1.9343537814680862,-0.5085459389197671,0.12622376386835524
5.2,-1.6757251605925532,-0.4953405959437979,-0.08784757279639382
5.21,-0.9169136740114008,-0.08208719349052175,0.0562664036242873
5.22,-0.09622246416494667,-0.14233918409840646,0.7829101715461031
5.23,-0.624564559008725,0.35054103063835773,-0.46194092368393547
5.24,-0.5772608940916113,0.35327323507224273,-0.7215514890620527
5.25,0.07933758409272493,-0.09884742884870007,0.19088919200919888
5.26,0.4444908264043561,-0.24108451427165656,0.24088561870468092
5.27,0.49135879807281974,-0.14958471698728099,-0.11526008833682763
5.28,-0.10966809858972659,0.3331658793844685,-0.22929227801413204
5.29,0.10284086772078549,0.06335428882293202,0.16903284454519343
5.3,0.4022774777009342,-0.5419738637579383,0.09661463594897253
5.31,0.01381994416777474,-0.36722892749607816,-0.9324271482244133
5.32,-0.5663180502374204,0.4504175615531154,-1.02755898922618
5.33,-0.9293494056689701,-0.16126566835991374,-0.4013369575169572
5.34,-0.5228411037954902,0.14061495583520034,-0.8081220607992305
5.35,-0.04327839551365518,-0.02500978907648487,-0.3543828803345616
5.36,0.5104561318020546,-0.0811801469913203,0.35428925797768446
5.37,0.6950960532799256,-0.128419906188287,0.3468493425480032
5.38,1.0120921769161193,-0.06618943657689197,0.4246856232616315
5.39,1.269293113139637,-0.18125122240283956,0.9795480942930916
5.4,0.4351128584368087,-0.6703303000391851,1.4312703776015019
5.41,-0.030945945115576516,-0.26648648802800967,1.1887707300804744
5.42,-0.8793780870871452,0.09356063028455922,0.5937273779540887
5.43,-0.7361240794116386,0.19393205443484413,0.5190065954382307
5.44,-1.3650110612735387,0.5222715452107529,-0.4914322744510018
5.45,-1.5065144670893929,0.3447619118085879,-1.0376015125101565
5.46,-0.7149499194227998,-0.5070382862041046,0.12800959683519694
5.47,0.2426782813710461,-1.0657078830211444,0.8328976480506197
5.48,0.6477906216861031,-0.48324358523975586,-0.7757841607174218
5.49,1.4652923588024145,-0.9970154277336551,0.5212458125429268
5.5,0.39265227237177414,-0.07901186243690135,-0.5969540288338262
5.51,-0.6372523815357939,0.11087951837605976,-0.4473942432068854
5.52,0.3665941883570135,0.05900736406241659,-0.06068669984603596
5.53,2.0921165811019313,-0.9150337631492108,0.6121852378759408
5.54,1.9423310721932332,-0.39457940917534556,-0.7445156762939081
5.55,0.95168045284142,0.4658931510261765,-1.596090848695924
5.56,0.41479321558561255,0.2458659778547949,-0.741049173032972
5.57,0.08754593025494502,-0.20941527086564296,-0.05231660908264867
5.58,-1.1202951456563486,0.5692353755178248,-0.9846266109682894
5.59,-1.3816201166560773,1.152537651810278,-1.0640883338382183
5.6,-1.2691728207925854,0.5685924052606467,-0.6760853008272982
5.61,-0.4418743375911657,-0.315448335371551,-1.2005709369221118
5.62,-0.45085991513575074,-0.07768057319257352,-1.6281128590819658
5.63,0.6487986694759336,-0.43630953973020176,-0.44696244832527077
5.64,0.9587397140485078,-0.25272823592602445,-0.7291099735317516
5.65,1.509963304040083,-1.500401057783632,0.4246938276673349
5.66,1.8451813096117737,-1.3768970587640819,0.8764355330105938
5.67,0.6065918031638041,-0.8305364573290622,0.37545380357769925
5.68,0.44952648636716774,-0.8678387946681834,-0.07402715689530219
5.69,0.33841845694324585,-0.8330389662873909,0.057260626383595914
5.7,0.3867007482757789,-0.7210307189066386,-0.2618686148108739
5.71,0.1536597826784525,-0.6649084752976594,0.59885755867932
5.72,-0.5275599197251157,0.29028770111952734,-0.5396148850979376
5.73,-0.9743395704877107,0.0724780919158147,0.6519703466287604
5.74,-0.4684996965048976,-0.0992296944218141,0.24467359105851366
5.75,0.29067310780714556,-0.35149876604416475,0.15050495110676582
5.76,1.0626652073106146,-0.0021691527682716717,-0.7887357026181367
5.77,0.18481584539237764,-0.49060963630372045,-0.712490488718811
5.78,-0.5189641710637766,-0.29621582619954673,-0.7116354183077159
5.79,-1.9595331228576667,0.15334157246031868,-0.7624052299822991
5.8,-1.652285884244072,-0.5236891189240748,0.4621942748182319
5.81,-1.4119310448637772,-0.8934747543812706,0.028422820934382868
5.82,-0.9788139149710401,-0.7108415634310608,-0.3356228339544318
5.83,-0.7222199802022996,0.010273691335641535,-0.5704689379018445
5.84,-0.3181239824951176,-0.27067604701544606,0.5016069069982331
5.85,0.13962913592420015,-0.2275360646052421,0.6034412762230449
5.86,0.9501215087890422,0.17578393905590686,-0.5573811190165817
5.87,1.9411075692248927,-0.1570163457223008,-1.4859267480898395
5.88,1.826644373565125,-0.6030222109258828,0.20977642901978422
5.89,1.6054186144512528,0.5293014576839093,1.1549848974390624
5.9,0.06899242751971603,0.9507524922478,0.7980677097140442
5.91,0.7102337129714384,0.4502006965365729,0.43903661293924956
5.92,0.13048790317287548,-0.3833238626327434,0.13138974265267436
5.93,-1.6138414365864773,1.312597849697544,-1.0738912514985113
5.94,-2.2936838002345423,1.511139194694735,-0.004909039371135794
5.95,-2.3843329102891158,1.3700988141824133,0.24020878958053218
5.96,-1.8756693305221581,0.20636534933368872,0.3818907699649591
5.97,-1.5553619351584858,0.7114859063978849,-0.5410708700965312
5.98,-0.8840380431030248,0.5522586303801227,-0.9634793851995602
5.99,0.3589845353674735,-0.4439837533898052,0.2686055657728405
6.0,0.5655945565778103,-1.1335024428650367,0.860897585044465
6.01,1.3686310440394094,-0.6386817573915996,1.373063950477247
6.02,1.1987585133074103,-0.47261566660888393,-0.5745963278520023
6.03,2.1185517203121127,-1.172713211400998,0.2859329685653453
6.04,1.6358537428152147,-0.6944184621653428,0.5355238313175656
6.05,-0.5571176752291201,-0.23799432689226102,-0.1901960497920773
6.06,-0.8892583251860083,-0.6900946415907715,-0.2568656190276402
6.07,-0.6710600311943754,-0.729091695062641,0.6931743097122894
6.08,-0.9603338543457489,0.3864384970221083,-0.817921662781361
6.09,0.31932420350952484,0.5424927017642834,-0.6733749632573202
6.1,0.38983095873853624,0.08720547366395243,-0.020858525187052255
6.11,0.4857084912851845,0.4782187482537335,-0.15250924102208682
6.12,-0.0030481814203512357,1.0385920955381203,-1.2730775244192114
6.13,0.7555657910587337,-0.24094000700883586,0.6896869578410335
6.14,0.9837449572200189,0.2301414350176295,1.08188703580733
6.15,-0.6724561654646504,1.0969110075847204,-0.9821903701010811
6.16,0.46429520793896734,-0.0034848002976711544,0.332160849401178
6.17,1.505409190666981,-0.7221562693975423,0.6435717813932937
6.18,0.29504241038176443,-0.29426537515022566,-0.25138395843848543
6.19,-0.40418443311353414,0.5248431142317772,-0.7362849516949482
6.2,-0.22152939929179552,0.562293909305705,-0.7195747274463042
6.21,1.4004252408647644,-0.37902736606285653,-0.4909709066870217
6.22,1.1699507014364285,-0.33380044071181264,-1.0333136830611862
6.23,0.908669011568196,0.1260720010487291,-1.3171367287732858
6.24,0.12642303328996737,0.7965305252853387,-1.2474631930710953
6.25,0.9584666912940139,-0.03228040914190078,0.3085382200568762
6.26,1.3877082200498074,0.12355356576479676,1.0671216218650401
6.27,0.9269811135713945,1.0304727701854817,-0.11794493609947115
6.28,0.9034102439475957,1.3035870493914752,-0.5883049756433739
6.29,0.8642176332676739,1.0828374227820858,0.12578091617511647
6.3,1.2222231799500567,0.6357798908133759,0.30650152723841884
6.31,-0.11435253626990825,0.897409253152816,0.37447466037910243
6.32,-0.5169477446638548,1.0786197020820683,0.10652298274657737
6.33,-1.545405736748207,1.0305104364578501,0.03019110341290716
6.34,-1.0227043629682704,0.5198513910236928,-0.186901895643632
6.35,-0.2561421433185834,-0.12648224962811816,0.3192580779762977
6.36,0.5404163553087314,0.5470428763494208,-0.9561503552490903
6.37,0.31675022057972313,0.5141068939299223,-0.7760189395406916
6.38,0.3833218027258385,0.015479232508191146,-0.021116284271560006
6.39,-0.18628809834119384,-0.7771841451984889,0.6128752697792043
6.4,-0.5942735020688508,-0.6855086265892562,0.527669327908929
6.41,-0.08236205904227994,0.013770884963578471,0.41909642799241137
6.42,1.0545811530087716,-0.28479183619831855,0.9196817853838415
6.43,0.906262850741701,-0.5273669692722486,-0.1818179412916865
6.44,0.18018388089965537,-0.33404866239362574,-0.05087532184017974
6.45,0.10289332000296553,0.17128317572393928,0.6260802978974371
6.46,0.17227294640238108,0.2886880368369406,0.9514770551668731
6.47,0.39141106450423857,0.5115055903822967,0.21740048132399895
6.48,0.062478237507569194,0.7744971248446523,0.5558255562084252
6.49,-0.08490935658397232,0.61645388737326,1.0206687257714104
6.5,-1.2041521072351373,0.502906725128535,0.6655920974524705
6.51,-1.1701644917149834,0.540891303417449,-0.33891374797054924
6.52,-0.7884279962093036,0.207735642771199,-0.16860757075652033
6.53,-0.5720888053901729,-0.22527374684761925,-0.253881861014769
6.54,-0.11106785163478802,-0.22345290918990612,0.06272102018187078
6.55,-0.49454569375531215,0.21590379357443262,-1.0608508076230845
6.56,0.6294218129776548,-0.4794833870042513,-0.021943363322005336
6.57,0.4267642514271592,-0.48879928536709255,-0.46500936298804274
6.58,0.2390902630274469,-0.4845320290878379,-0.48921837944498986
6.59,-0.3773800933151344,0.0389241296336017,-0.33838132988321995
6.6,-0.7617278179185505,-0.33646489353600645,0.30312280724256974
6.61,-0.24800696982764142,-0.24433138919093395,0.21268699805547153
6.62,0.21609491963021046,0.045875357588610395,-0.3294356782444517
6.63,1.1343363603929695,0.43261314125655503,0.10291950052669185
6.64,0.06225394326123078,1.0337402973696104,-0.7618196062856359
6.65,-0.1473388242171597,0.7669186101280475,0.10460854308759088
6.66,-0.26315922731281693,0.3645116817015108,1.4275947156669622
6.67,-0.17315787378768463,0.08559124889927189,2.302539399051974
6.68,-0.3401069990565838,1.244389865329739,0.20662721051858454
6.69,0.20330567859031723,1.0198817724164768,1.2128441325377393
6.7,0.6097977117964986,0.7685369764715865,1.5556452959650013
6.71,-0.22998838463151883,1.1608121775856461,-0.23046571937151056
6.72,0.8010865479904841,-0.2958936061361947,-0.6414072647359129
6.73,1.4880671145293303,-0.356842873204333,0.2624923290549617
6.74,0.9860693608793255,-0.1727497239109339,0.43514232264429026
6.75,-0.8848476341638669,0.5467950103895549,-1.4908118152257244
6.76,-0.746366030202268,-0.6894207528172935,-0.7473718176367288
6.77,0.915775166428664,-2.1119422368042393,0.6715958231873626
6.78,-0.027365393561603005,-0.9010408988817287,-1.1514867485232128
6.79,0.25303541740839863,0.049029342099403295,-1.4224760133223584
6.8,0.5758083620737549,-0.24963226816515274,-0.02636056587415464
6.81,1.469002270737463,-0.8259130206756182,0.6843750803485024
6.82,0.06592594063332294,0.4239878402754234,-0.8715198324156352
6.83,-0.09545226268186165,1.1567008551522806,-1.1949833960054674
6.84,-0.2472237828012818,1.3773834352128222,-1.1179686382932466
6.85,0.25224305387864165,0.6489500803179595,-0.5443742280786523
6.86,0.5029991038434324,0.9422636728877982,-0.28539664929067227
6.87,0.4853737057328991,1.6857455925815406,-0.3413023457237056
6.88,1.0992188029107368,1.5503634375753836,0.09919593213868304
6.89,1.5004618591467973,0.5512310552203817,0.38550219855909446
6.9,2.3125888790801814,-0.4706735191101976,1.6523050709883933
6.91,0.6584132398051187,0.5249461081197733,0.5792871452296557
6.92,-0.9268309054369376,0.8506306297322934,0.4061436127798046
6.93,-1.0317037416550108,0.5231290452602121,0.7827572521257615
6.94,-1.1417622776168252,0.06532496251391061,-0.29546150429987394
6.95,-0.720860583221226,-0.1658474490663707,-1.1801245371990554
6.96,-0.4139299098099339,0.19156689427425663,-1.6992284784396277
6.97,-0.3627725559698258,-0.0031652968393931537,-1.073251183074198
6.98,-0.8350282121294077,-0.40337491489686633,-0.7161004039958858
6.99,-0.6815322229720654,-0.7052177002546625,-0.12250863293316462
7.0,-0.22627239019700587,-0.7011476698853871,0.3910437914374007
7.01,0.62605666365786,-0.5319858148487431,0.7899197604317437
7.02,1.3532735136038319,-0.7298030731353649,0.8579731289548106
7.03,1.4928762733402021,-0.6971060455732211,0.5941515354563283
7.04,1.8709517204146158,-0.44443760305148156,0.45287551452623537
7.05,1.1777548068088481,0.04757917218399417,-0.14573075143862524
7.06,0.40847185751094933,0.3129830960340413,-0.8803404840954859
7.07,-0.4188569447234575,0.33398937518884897,-0.5199024952645455
7.08,-1.2142342157289747,0.880318572072518,0.3113477363228599
7.09,-1.5985728121526412,1.1354185166632442,0.6678572816401412
7.1,-2.0258725320264235,0.7262748160385843,-0.17187776522448375
7.11,-1.9098240617873197,0.39565604036979307,-0.32504304675199486
7.12,-1.5169989520332716,1.0857605011608835,-0.5271301033814995
7.13,-0.5223890145222273,0.3431428507470398,0.06611234308481263
7.14,0.2690519561803997,-0.5043221054957688,0.0995081748010748
7.15,0.8524612292338094,-0.28400091293452323,-0.05949796873615252
7.16,0.7269438701402314,0.16904231876429499,-0.3069949336735178
7.17,0.7614567461359116,-0.09122037959365631,-0.36278568279101736
7.18,0.584692851102478,-0.42874636748032513,0.6535879121306214
7.19,-0.07394659303572215,0.08296917468681483,1.2433249047395747
7.2,-0.9267986939430792,0.18197919500962156,1.1227687920018414
7.21,-0.8210173586270162,-0.27808201043697245,0.6613954224750387
7.22,-0.402304539969538,-0.4345083223107445,-0.35515334996160647
7.23,0.15649334493571793,-0.4316169074652711,-0.33325983040890533
7.24,0.06822314084305812,-0.30742493033398244,-0.2079848330766092
7.25,-0.5018764302778824,-0.14839785684073623,-0.5966895902290157
7.26,-0.18794506634141533,-0.4140195678999641,0.8741327892064651
7.27,-0.23381220837931932,0.129443593268209,1.6166834769889795
7.28,-0.7725503661308788,0.6977017994019946,0.6669483762423455
7.29,-0.33229442743962606,-0.0038874120708018863,0.8497602124718651
7.3,-0.5078789922755871,-0.11865330352668195,0.6273493789845543
7.31,-0.7761422318381977,0.34632509844631876,-0.3494982720723658
7.32,0.173581230242796,-0.40355547628101773,-0.8766939209503388
7.33,1.3547435595780084,-1.075867327007274,-0.5329655565451332
7.34,1.875769374986103,-0.4617844455289634,-0.21298539926052845
7.35,1.3852231657894536,-0.3370311555733448,-0.14721489082854639
7.36,1.428923420753248,-1.0317786886148037,0.5533450898642125
7.37,1.1064815261809253,-0.8308792515375638,1.0101461761676438
7.38,-0.08836740830804185,0.12309612508985752,0.015459529400720247
7.39,-0.46787078466594456,0.44896342070152295,-0.8843370600184693
7.4,0.11734613576019903,0.5374345954342727,-1.1330045371554405
7.41,0.5572787971195863,0.3239771847348761,-0.5473973551726923
7.42,-0.3084811030213845,0.27155342833054213,-0.8861252801049014
7.43,-1.2324074387313402,0.7902639408929506,-1.8688657885158588
7.44,-0.5338528018648461,0.4134899154552273,-0.838751576368928
7.45,0.8081801435708634,-0.017963062424293692,0.3250502933002774
7.46,0.8144164213583774,0.35872211373568247,-0.5597816718431402
7.47,0.5602670289362518,0.7804247044839234,-1.442884645285018
7.48,1.0320856200068975,0.5406214943344094,-0.366815976544723
7.49,1.338570695120144,-0.10923882012929947,0.6539722312076914
7.5,1.4829376575978526,-0.3453450897423356,0.8426979121209963
7.51,0.6895832256845686,0.34513931744232257,0.20279045333330745
7.52,-0.10668446449567251,1.0968668821122711,-0.2863826685378165
7.53,-0.13495853996114723,0.6795326104933853,-0.2446448861982337
7.54,0.36192641733375897,0.10440495519869213,-0.16260522650515807
7.55,0.9037322758438666,0.3209597787523523,0.029843197282846234
7.56,0.5224936542803602,0.49910878583014845,0.2451379754395424
7.57,0.15009212118231433,0.23133537195916762,0.3695291642455584
7.58,-0.48487048246661857,0.3061481036357694,0.45676268627598354
7.59,-0.6402589241889372,0.5317760793391454,0.6368313005137923
7.6,-0.3148463260750756,0.7049254661385417,0.03792937363035906
7.61,-0.13001538547397043,0.43057288024021806,-0.22543403320031563
7.62,-0.1273893444336484,0.29429353978733713,-0.16018498729555664
7.63,-0.04902629476124008,0.32790992695451143,0.05073649689585494
7.64,0.7405513864404968,-0.04675263828140191,0.23994222886255567
7.65,0.7043418891351169,-0.27275088088629007,-0.16399493926549244
7.66,0.3329267199898214,-0.39176197077576247,-0.19008129103822968
7.67,0.05751797899180708,-0.8739719574219749,0.9078149654497087
7.68,-0.20676080617054401,-1.0757292593447394,0.9615350503480581
7.69,-0.7126939936907571,-1.2365786162174806,0.37083188021451546
7.7,-1.2066983506385534,-1.1786350987109588,0.040927974230006756
7.71,-1.517784756057522,-0.7205356695726048,-0.4705826957836068
7.72,-1.6941250310618194,0.2799350590439984,-1.6429407713546804
7.73,-1.0377300595958405,0.1931491708020294,-1.3777420306598203
7.74,-0.4323972540130848,-0.039331309019915495,-0.4136132502779248
7.75,-0.4196285237610473,0.07709349036242555,0.18230247216866027
7.76,-0.6088115029487036,0.2977540384964423,0.2833343787052934
7.77,0.04763542372722868,0.2721417042802937,0.6037450593943515
7.78,0.2567524624713169,-0.0639139051787838,1.24534521424146
7.79,0.4511773399724064,0.01509929457585148,0.8248217978245711
7.8,0.27830048023662957,0.23582272862681763,0.4295875870763506
7.81,0.2659923156013528,0.1206332683120252,0.1597824926187083
7.82,0.3340330744795017,-0.502303904715001,0.25904406971369626
7.83,-0.02429231848360216,-0.18907140318685672,-0.4946099680390134
7.84,-0.26347899676891695,-0.033181469731078765,0.29396052791964494
7.85,-0.38484343934917503,-0.03873099696705714,0.6532206296094201
7.86,-0.6393298018421139,-0.14650669993608387,-0.2395799764332736
7.87,-0.5281759815438506,0.3793864971442385,-0.8539645635368815
7.88,-0.38036966167061176,0.10473172988782392,0.6205951822788471
7.89,-1.2086390455052525,0.4573759772462592,-0.6583501725859568
7.9,-1.4835113864499365,0.005520130652952651,-1.490719445176201
7.91,0.32728123216521154,-0.8180545924126458,0.15238737995475032
7.92,1.6714394491742328,-0.8830800438005201,1.6036149374575175
7.93,1.363681636284659,0.3674559829222879,-0.020374139573761853
7.94,1.6736253214821213,0.4117120954058213,0.09329702887426862
7.95,2.3208442591292,-0.3946531910901236,1.4012824879764474
7.96,1.1734797427070849,0.03842099148543436,0.7102116797177621
7.97,-0.18998931305758643,1.4080639898233416,-0.7581984953266833
7.98,-0.4479907319521809,1.711171722008626,-0.7359568204347648
7.99,0.16954329275049793,1.1559836489983117,-0.6386716634127196
8.0,0.7401148585228139,0.7919417879729309,-1.0883735181304708
8.01,0.6650493985475183,0.8493944889980501,-1.4759472023206293
8.02,0.516699773965927,1.0193358955778957,-1.0764434295717924
8.03,0.3361754703928422,0.9168031404353411,-0.2783903757647257
8.04,1.5676452877565163,0.3083196862820601,0.3810719556435051
8.05,1.0942812146317324,0.8275539662619472,-0.11740028220394498
8.06,0.6746205581659174,1.000465541192896,-0.6930812761125518
8.07,-0.07397369720475984,0.5879867252787606,-0.7415362463362122
8.08,-0.6704772404904874,0.584078363105347,-1.3444471136910403
8.09,-1.3331558036278215,0.8207754093884423,-0.5887808547537845
8.1,-1.1193412269266263,1.1721453492409004,0.12271191588900972
8.11,0.004910073300471292,0.26255222484258556,0.5689398703108228
8.12,2.5892070372807994,-0.7572145076733711,0.4318374838385237
8.13,4.0516150969488525,-0.7473216722531676,0.8810586256081954
8.14,3.635955499851215,0.12249602081630372,0.9111480166824217
8.15,2.1214207054222283,0.2924479415023103,0.9155058420083066
8.16,0.3245960138364152,0.21822418200891672,0.8257087170282774
8.17,-1.4015922787859625,0.08857615633487395,0.2169453038235721
8.18,-2.6293654479768733,0.2265066519428638,-0.28411760381306245
8.19,-3.2554411628582147,0.9609697346377596,-1.0005643861647375
8.2,-2.967168616167372,0.8005060313587604,-0.7026660173608441
8.21,-1.7592124207288393,-0.4322129384810482,-0.3648331242525169
8.22,-0.4004220791567407,-1.1208892351881654,-0.46939036456419564
8.23,1.0032675767140646,-0.9841728549909322,-0.7295481425731041
8.24,0.9535324353914418,-1.2553434438822966,0.017958037678501775
8.25,0.7787895668188536,-1.147632953314113,0.7548995167859841
8.26,0.6279259886378314,-0.9764331321590076,1.1209751426944365
8.27,0.38388977366180965,-1.2215810368395998,0.847987512681255
8.28,-0.1765999378151609,-1.0904278916084393,0.4675578345336344
8.29,-0.5281372957978353,-0.612066081363501,-0.06254807068220587
8.3,-1.3033711651273632,-0.06159455914933944,-0.8136138536957805
8.31,-1.2820785362340545,-0.005265131699798725,-0.6711299599148846
8.32,-0.0010768753484642296,-0.12728045485930675,0.4695574278725358
8.33,0.4111961050382779,0.45829914376807446,-0.657501358488572
8.34,0.49351101122041197,0.4055954259317641,-0.48827600615393985
8.35,-0.5109717226943266,0.05298116172659615,-0.13269219220974324
8.36,-0.9915954831067497,0.48478560734941345,-0.01138209359371592
8.37,-0.5348848592656761,0.1182220159704773,0.5967514220637424
8.38,-0.02180837595668918,-0.6378656456463448,0.5603110809588463
8.39,-0.3386833534913489,-0.1472540192451894,-0.46986807455418594
8.4,-0.16681871861922226,-0.2720441424440529,0.3852514579928078
8.41,-0.43583821212532414,-0.4979303401248744,0.8848123886031881
8.42,-0.936317453781068,-0.15910299797654506,0.22420396418168617
8.43,-1.474791291454115,-0.10986754320179107,0.505343047641505
8.44,-0.9510443064079114,0.21713062057304403,0.0048378548563926494
8.45,-0.3136770648482614,-0.0889164573823141,-0.07963779335367428
8.46,0.9514557416148949,-0.865904430107324,-0.2870748649943725
8.47,1.224163759232557,-0.9604647480096776,-0.16551214455523813
8.48,0.2447648092495087,-0.5558509307476951,-0.9883517903404638
8.49,0.16816730083616302,-1.1007142865362274,-0.3721467858183746
8.5,1.6161586630999434,-1.9688505190475356,1.139442615879852
8.51,0.5067012338358658,-1.426106384468088,1.3983807699767694
8.52,0.029720065292645998,-0.34742747293208703,0.7638372651985086
8.53,-0.6505473955803838,-0.13138307524285817,0.20350306301406512
8.54,0.1215682742979969,-0.7053219158215551,-0.3546423846866502
8.55,-0.31025664078384185,-0.41541398978196004,-0.948535272109098
8.56,-0.8489112544668452,0.40636477221067396,-2.3171250091273707
8.57,-0.18606667991418682,-0.4597812898691094,-1.1954375256822072
8.58,1.2734735296711837,-0.66522485038713,-0.4316719350932652
8.59,1.395367538994489,-0.857136673498118,0.17909759577026713
8.6,0.4175150830194917,0.06487035128951071,-0.7892057908968267
8.61,0.0953119452548417,-0.10396171302119846,-0.26379844150174914
8.62,0.7218163866172465,-0.3865530776277939,0.4273616796670736
8.63,-0.03956521413394779,0.00997404269577354,-0.8966415619358855
8.64,-0.6006111100331659,0.6745995812530001,-1.9127256751911683
8.65,0.21908588870416157,0.31377811518755055,-0.6140846513570628
8.66,0.44303809554031165,-0.002041415852546797,-0.659670088462116
8.67,0.9310963718664466,-0.2386348364662202,-0.8724601063593753
8.68,0.3054196341232943,0.14362991586015558,-0.2448280894774399
8.69,0.25905439316221224,0.1401797759738707,0.24895231629326345
8.7,0.19731716038133698,-0.2602796096680388,-0.15856778183288606
8.71,1.1012832699420854,-0.8446831150959727,-0.7331438133064656
8.72,1.5311536306279738,-0.41459789606793723,0.32768913814317274
8.73,0.9845063061126264,-0.12102149594502995,0.21644266774104493
8.74,-0.2430480277900872,-0.093179445014618,0.3043529188114031
8.75,-0.639349572465677,-0.19193940613217567,0.08936337124271512
8.76,-1.3760064445392155,-0.1163981248712381,0.23843763010235589
8.77,-0.7028005617361472,-0.04200266910296721,-0.4166599559173458
8.78,-0.6141050310309548,-0.5923259287677467,-0.6874401890936447
8.79,0.16227082636588813,-0.671778343685541,-0.6533496224332688
8.8,-0.2867939947892595,-0.42233744443834204,-0.2173364000022312
8.81,1.130803038918951,-0.92356630033746,0.485884083623553
8.82,0.1323783772839722,-0.875882831584588,0.09793087965781384
8.83,0.9855252034986598,-0.1953203244826393,0.14132247028055306
8.84,0.23587571467233037,-0.6102169354402412,0.8300128598237032
8.85,0.11294329217114492,-0.7081325189444148,-0.15390672084259693
8.86,-0.4337418010583741,-0.7812486944949736,-0.8986847411703429
8.87,-1.3949056680671539,-0.7909527854253866,0.3505701950541033
8.88,-1.662105669443254,-0.6359962033270994,0.9464416215273486
8.89,-2.971008083131005,0.4212131497018751,-0.880466205816697
8.9,-0.8435931181607316,-0.31848124477968537,-0.11520783651090176
8.91,0.3503465363353477,-0.8767781072930849,0.02777249493521171
8.92,1.6508481189660686,-0.5124908383242875,-0.1672212119671989
8.93,-0.3861113204837309,0.15057585196732493,-0.7868288808103664
8.94,-0.23971036809914517,-0.13826065027217088,0.08243101298418547
8.95,0.4211668319014335,-0.6829238274163764,1.0376496403215623
8.96,1.0833741764445706,-1.3783825298750165,1.1994197767245387
8.97,-0.11622878165143344,-0.4608167027459368,-0.6021541659004636
8.98,-0.630472558287402,-0.31790120233037955,-0.9697243157766529
8.99,-0.44408002739310076,-1.135342552409153,-0.5070447368713156
9.0,-0.8287398640948958,-0.7810997307460649,-1.2386458043268613
9.01,0.10926131749146437,-0.4496285156592796,0.05769662660707679
9.02,-0.7671205414825296,0.2898775268622216,-1.052783521757962
9.03,-0.10117628354579576,-0.7004097520006868,0.8933944924459278
9.04,-0.41507947745758883,0.8239707539363018,-0.5195724892034346
9.05,0.6872905677082769,0.12562371404802322,1.5382213477241966
9.06,0.13991797013276575,0.6114100446202043,0.0034802057229038888
9.07,-0.9474814495537288,0.6677466924426537,-0.9504637708287231
9.08,0.1974783329760954,-0.3751345203949178,1.0762236566843157
9.09,0.4617734687802121,-0.28002762569515377,1.2752198334726688
9.1,0.047951634581911894,0.12992757043860947,0.22696999283817995
9.11,0.5210888798286295,0.3501371265582601,0.5314537394669112
9.12,1.4699150271051633,-0.9585334808805511,1.836264853188728
9.13,1.7555794942131728,-0.6591592895327133,0.780506824689355
9.14,0.7788282022097848,0.18361234563482487,-0.4503755214926431
9.15,0.23325627013641906,0.7108382733096291,-0.8433961252238554
9.16,-0.5487633632577614,0.2562917749171159,-0.938085018259882
9.17,-0.507750897122358,-0.5289627848490585,-1.297731497931588
9.18,-0.9928344145003619,-0.01229759710313745,-1.2205057395434116
9.19,-1.2141805375084715,1.0357880626074603,-1.839003511682062
9.2,-1.2827184514827998,0.5411757269231878,-2.4184370209774593
9.21,1.3044536215187976,-0.7789128533636062,-0.7209582881800348
9.22,1.7093254147025865,-0.249154490027601,-0.09039920158970148
9.23,1.9611146188492867,0.3784687115702035,-0.5794668169657692
9.24,1.9550646061858181,0.731751678917469,-0.3800131783510302
9.25,2.711284900587324,-0.05214478829783813,0.6640750188963365
9.26,1.3722640552937297,0.5000287166488473,1.0295515675985834
9.27,0.20777515547318173,0.686894285187454,0.24377099149301626
9.28,-0.923053077135115,0.8879891743636706,-0.4671323619512866
9.29,-0.4998864809151347,0.7288913696021155,-0.5734136729573763
9.3,0.39978086068104646,-0.14574303999115776,0.6869897146435048
9.31,-0.3468263256687361,0.9570365767823782,-1.5518995463671048
9.32,-0.4989270472150861,0.9164340950885634,-1.0352255166792717
9.33,0.36351786238962985,0.544799721931566,0.5414355670535784
9.34,-0.1165250001598897,-0.10047701294702947,0.6304658027249408
9.35,-0.4569389596260463,0.4230571472592159,-0.40502426200052166
9.36,0.03095250229268013,0.168371727025638,0.43569705127648434
9.37,0.4460569235764645,-0.4590865305470339,1.3233104514980196
9.38,0.9030121678461157,-0.6455849528973581,-0.2454052649585047
9.39,1.0075183475934704,-0.5614366419540447,-1.4140307772452214
9.4,1.6672212215496063,-0.507916612245357,-0.48443297748098146
9.41,-0.11778547351226132,-0.3411810336089457,-0.19414696831811953
9.42,-1.0627832813720688,-0.26197583471882685,-0.3433563256072896
9.43,-2.3023512910984696,-0.14463611961092082,-0.4359228216899118
9.44,-1.1573951678789818,-0.6273173870576944,1.043443745997252
9.45,-0.5341095698711363,-0.3930342055651251,0.4539869068488703
9.46,-0.3064788399283272,0.5038349255723604,-1.5107662113365494
9.47,0.8958726557799086,-0.4824673707817226,0.06510100329713621
9.48,0.9805177378637112,-0.46610507497902315,-0.24662780423549766
9.49,1.0231700618359998,-0.5133381289154785,0.5235115470887396
9.5,0.4809497630294832,0.5639981110081794,-0.5287327018064939
9.51,-0.07754478886633566,0.7579116099858257,-0.024373381011900043
9.52,-0.6567297633326012,0.7341277069076175,0.7343311763064029
9.53,-0.7632818714838783,0.863731750595286,1.061974659651686
9.54,-0.07364238688149945,0.5763262806950488,0.9217446146012123
9.55,0.515811688127885,-0.11186014241464745,-0.22215262716157935
9.56,0.6639316196702263,-0.21701452253529357,-0.9042145453423432
9.57,0.3761962326900729,-0.06578651235296983,-0.9233233749615685
9.58,-0.09589775641820493,-0.6672198423070523,0.20564742120751303
9.59,-0.7319664614651713,-0.1482584485388091,-0.06459508680169507
9.6,-1.724477965376841,-0.5474990235402036,0.3498533560001771
9.61,-1.6006614678982123,-1.1038673461663968,0.385698006874709
9.62,-1.6472391919634013,-1.188302834378024,0.6720076823178204
9.63,-1.4070459668492186,-1.0645501744816714,0.23687194377615328
9.64,-0.4596206121815869,-1.0511116183741949,0.2788069872851704
9.65,-0.08810947257061734,-1.0413423832824782,-0.5728580081609039
9.66,-0.29347540167839264,-1.19784034891193,-1.1757876986558153
9.67,0.27110766546618065,-1.4337533547632895,-0.30177161876074154
9.68,0.6244409731556223,-1.2367271478177206,0.5718488007363703
9.69,0.9187359350696309,-1.5598505579150677,0.9160330987256711
9.7,0.532923676825702,-1.3047805844248637,0.5171669751737576
9.71,1.190074274067501,-0.5702150448193958,0.9987505190064363
9.72,0.9762946495772423,-0.3536346192142931,0.21535391060515946
9.73,-0.20750371068162374,-0.4446877321372054,-1.3669858803005512
9.74,-0.95876585941403,0.046215374415670744,-1.3181141477315832
9.75,-0.40224748223517914,0.4671133800319191,-0.13102831202654455
9.76,-0.017224210329404806,-0.5189695165447854,0.5885986141256523
9.77,0.05495898423647186,-0.7811703340136504,0.15312126709465887
9.78,-0.3113984410355577,0.49849460036386445,-1.2534337727855882
9.79,-0.20877486952270932,0.9259376982937993,-0.8430354910362623
9.8,0.35395364210324226,0.21225604929573846,-0.03036582342433917
9.81,-0.2852184079986646,0.5853487330693361,-1.2311601622288777
9.82,-0.44421454449456466,1.1416767370444298,-1.054536240400238
9.83,0.2980351642268086,1.0231394725362357,-0.06240699929357768
9.84,0.9756570594738986,0.4465502297944192,0.19519194558983952
9.85,1.1435210886906244,0.4211300124735556,-0.1878803889278958
9.86,1.5554787906251473,0.49802740531117645,-0.9353629744797476
9.87,1.63049829626028,0.14669489580355974,-1.1624376925137578
9.88,1.9822643198180616,-0.4747542714627942,-0.8382216666927716
9.89,2.026634172267173,-0.29001468404494657,-0.41748810146462856
9.9,1.8370625500020499,-0.06498077112678809,-0.286423716403324
9.91,1.0310832234469867,-0.2250572952800186,0.4054960396660185
9.92,0.07605061254628209,-0.0975617467941009,0.4054123563162257
9.93,-0.8552346402805616,0.48183314209480854,0.3387219107910444
9.94,-0.9838867187900772,0.4413906425089082,0.7576833845542442
9.95,-0.9101409285312188,0.43076794269343455,0.29695809909170806
9.96,-0.3639867945102951,0.7026468070634646,0.38552509305985366
9.97,-0.4825772754911037,1.2306137901457435,0.13885041424907157
9.98,0.32163625510824523,0.9741726650114813,0.4221302221510512
9.99,0.3764904236498654,1.0277219289775856,0.45182155032591154
10.0,0.44471459039178285,1.2644747161158971,0.35129418134083434
10.01,0.005521034625707099,0.8569108712185003,1.001418480952352
10.02,-0.16288890378110737,0.6445015980617756,1.28675600712304
10.03,-0.7472537859507693,0.3717865300729403,0.8600127038390958
10.04,-1.082018478764676,0.07590466051011362,0.998954392861446
10.05,-1.4610193288116604,0.06353783314013213,1.0785151427441626
10.06,-1.98806022202902,0.1654528008017796,0.20769193234835825
10.07,-1.0999674978314335,0.13170719872505818,-0.2645639186165292
10.08,-0.1998245545340666,0.26803863971286607,-0.3679508477528919
10.09,0.3863901044862598,0.42119695032775806,-1.0562513465145658
10.1,-0.1306768607970157,-0.13706279334294416,-1.2302372423020993
10.11,0.2896320784437877,-0.8993108625358424,-0.495124051606676
10.12,0.6662115131200346,-1.075157145867831,0.46107943131864404
10.13,0.7211576717763953,-0.7138702659463593,-0.030596792257101213
10.14,1.425789310035106,-0.9283905988738113,-0.28627688604582724
10.15,1.5099226863896513,-1.1292932423581967,-0.40609763824163525
10.16,0.7832274064303613,-0.25406743653975633,-0.660535143629724
10.17,0.004315565036528754,0.2791079580188333,-0.35249715229493866
10.18,-0.6110997519341548,0.48998934421826085,-0.6001013664540777
10.19,-0.5678687582533732,0.044982797928613864,-0.26956531254469435
10.2,-0.34316827637220176,-0.12254259585675187,-0.03831095727563201
10.21,-0.5232800087140135,0.4518456195096116,-0.43262291912033657
10.22,0.07419322398329836,0.6115434390217046,-0.1918365779597903
10.23,0.6225315716382257,0.14631393988917488,-0.2412359694775688
10.24,0.17547721215571754,0.023418309608392703,-1.4118770284819067
10.25,0.12723861809476913,-0.1822577790108717,-1.0851605717671382
10.26,0.7834964698093889,-0.5258934159558581,0.9631713042158907
10.27,0.16000349137089814,-0.3264154748300301,1.3940772058819508
10.28,-0.33916240430274003,0.5138274153242929,0.5418893215155104
10.29,0.3270220692297679,0.030556048319773536,1.5279114288756594
10.3,1.1960800676125984,-0.9136795630890285,2.184750629309879
10.31,0.40180914671783796,-0.16973473144726986,0.33670089612934617
10.32,-0.503683954625371,0.9618141255885275,-1.1222162579584527
10.33,-0.1368021464630045,0.4180733152085517,-0.30916947183845633
10.34,0.35025118542992906,-0.9071146543299418,0.1889725936177404
10.35,-0.11910990908641787,-1.5231178362567095,0.09167080781250816
10.36,-0.5821466197202972,-0.7755183048997496,-0.13770686693755146
10.37,-0.4162296316805975,0.22941769848886892,-0.581585158772387
10.38,0.45624201081090504,-0.3730182500637788,-0.3425890827508743
10.39,0.7875470254936271,-0.8376312374043202,-0.24139289185177945
10.4,-0.30612272404468427,0.29352644730663896,-0.9586755398883994
10.41,-1.048037339852252,0.8336450533348231,-0.5940035261957524
10.42,-0.7380119858313161,0.4406671117270261,0.5350472801210979
10.43,-0.00689354272157306,0.40105420081042786,0.5312762625788368
10.44,0.22512414232297412,0.7847654033972851,-0.5298749682577486
10.45,0.8127429371453987,0.7662953355081703,-1.0539513789851118
10.46,0.9740395506011246,0.27346552938212865,-0.8849479125467855
10.47,1.0838328257341139,-0.25502452662852165,-0.5736418095463273
10.48,1.7145585484038242,-0.479440902897953,0.11711817681410762
10.49,1.493637885587857,-0.11097745181473048,0.5274476966727614
10.5,0.5358846634988494,0.11997222250811315,0.5800243027247586
10.51,-0.5984850330961449,0.3015085222068642,-0.20222834516042468
10.52,-0.9607280011656643,0.13375250626267315,-0.43049239917163756
10.53,-0.9956744238051335,0.03527373372113058,-0.425077148448945
10.54,-0.7623407529196078,0.12321768267456365,-0.7090194532950242
10.55,0.20077519207751904,-0.09557177332801735,-0.26037192804463716
10.56,0.20145907403620708,0.0013954080946869546,-0.31794640261668916
10.57,-0.30827539136580057,0.0015213087690990547,-0.637095025327486
10.58,0.2588057302687243,-0.34971054084663655,0.13708666762641666
10.59,0.29919735063753794,-0.2941530582023479,0.44359024584359175
10.6,0.41771629303550306,-0.12833617450867316,-0.1606180083969653
10.61,0.2533793532962695,-0.4500307928781747,-0.18799936465439243
10.62,-0.18466837892074317,-0.44265990617199974,0.0317426843834251
10.63,-0.7830059244971164,0.12278330133565238,0.2359186466509344
10.64,-0.6830330107821863,-0.08378999494629105,0.30624542564130985
10.65,-0.13688901779334356,-0.6769236340868996,0.4937031237174459
10.66,-0.010019899764537165,-0.16132811178299347,-0.0014386089318775262
10.67,-0.04562557928521703,0.7962402476422089,-0.42771272286334827
10.68,-0.35301550395142467,0.8863796344278607,-0.16231937560291929
10.69,-0.4142643126426163,0.4253446103866679,0.43680487129770473
10.7,-0.26375003504880556,0.5375048948687737,-0.16797159350699217
10.71,0.49173915942696067,0.34974553196437075,-0.20206426658512353
10.72,1.1362109930845465,-0.021911562121132388,-0.13165813772750992
10.73,0.9035552677023585,-0.21900174651842044,-0.357218177118935
10.74,0.16621205964193425,0.16217220433339166,-0.813490006506446
10.75,-0.3675539801737362,-0.08638747646366969,0.28237679716457353
10.76,-1.0297334526746962,0.025256976431450952,1.0271128212874694
10.77,-1.66521376764786,0.6484361084673216,0.4917669047710502
10.78,-2.18887792559011,0.9063251078756082,-0.02943169758105462
10.79,-1.388301802377463,0.33159475235122066,0.7761531751951461
10.8,-0.7633821845393841,0.25400455109788755,0.4386537590892009
10.81,-0.02984505367319005,0.00428976578662307,-0.3178099481383427
10.82,0.5503731008932747,-0.8338222350843485,0.148866698546612
10.83,0.4037985209905507,-0.8067739594190578,-0.09649333697094543
10.84,-0.21733360204583443,-0.38594093874590735,0.06694391654528795
10.85,0.11809819390221404,-0.6860577503654081,0.8926148806615787
10.86,0.030204181322665277,-1.1661117007155426,1.6897240171324575
10.87,0.4484588912629665,-0.9500796291585661,2.230331042076941
10.88,0.4007364021839677,-0.2917590713023193,0.9646305085239402
10.89,0.6471478137523187,-0.507802351973111,-0.37192219279633615
10.9,0.5388401027766732,-1.0720442976651026,-0.8234547876013993
10.91,-0.5290903293956345,-1.039161950204437,-1.1573270511785279
10.92,-1.4464548208368264,-0.4184918188695844,-1.0217175850151297
10.93,-1.0786569275919482,-0.6749392134068007,0.31519412599100055
10.94,-0.4134369890672495,-1.2336468680381185,0.674206865116891
10.95,-0.03167452855181646,-0.7381479571137092,-0.8944582982060938
10.96,0.6814984882873257,-0.012028252462699538,-2.403124000311711
10.97,1.581933354179668,-0.2699862581210963,-1.3492903592608367
10.98,1.9046202014253233,-0.7719041625969594,-0.2044778115691882
10.99,0.5821791493771031,0.19657011581009462,-0.8152081129578214
11.0,-0.003160276347510221,0.9958260812543256,-0.7903568573006332
11.01,0.11901143656146505,0.8017015235849767,0.1698125058038627
11.02,-0.33803855063938837,0.5197069559690995,-0.1879444621780596
11.03,-0.5916145280171284,0.43303349576706157,-1.1346701652652906
11.04,-0.38082629203690915,0.5211645042461551,-2.521903562376488
11.05,0.8164476156108822,0.018725953214580034,-1.7454520934530093
11.06,2.069157462964049,-0.5810958308375693,-0.43352184788946607
11.07,2.2151331924327473,-0.9758140065043359,0.33298423118937115
11.08,1.080302553353053,-0.26816036385439873,-0.42403273364273325
11.09,0.14059892401307794,0.3063003641051799,0.4615029044619125
11.1,0.11476883327937364,0.10728687772746327,1.6996435934012246
11.11,-0.3897831508013821,-0.21348582532792876,1.3736810730363849
11.12,-0.28119371160781614,0.09230832966253376,-0.2519313940892481
11.13,0.7647104183845044,0.3947908912686204,-0.2007897909920432
11.14,0.8847798442654031,0.6355219131662965,-0.9183909208642593
11.15,0.13426859196828808,0.37599069525293255,-0.9129807833047207
11.16,0.2645223886657369,1.118437586399731,-0.5961369070473
11.17,0.022101562682953036,1.3814809574748652,0.37275271235670926
11.18,0.237144926259005,1.0077231120124304,0.5923349613000808
11.19,-0.3321756509761041,0.785317279427306,-0.07416238132285499
11.2,-0.005276941848892712,1.2947996711594019,-0.4207683963619535
11.21,0.27860975215203937,1.2363985090060379,0.049713701741882194
11.22,0.8451589134650475,1.1578742755686864,-0.17531270744063127
11.23,0.7995993352086989,0.7632125581874797,0.23712446570872292
11.24,0.5387305259259534,1.103293505566637,0.5955166239978671
11.25,0.3448421232120397,1.187091911459454,0.5769907111827021
11.26,0.46228505473897713,1.113901885119786,0.667574599527422
11.27,0.19635493385962363,0.8703141789759136,0.6786330510698382
11.28,-0.27643447598679005,1.0955749415648495,0.3176010366888915
11.29,-0.6529911698279252,0.9350186770976645,0.11715656557527718
11.3,-0.3816531779445015,0.7352153467093177,-0.259044212639721
11.31,0.2582031073063899,-0.24379030950336894,-0.09116837604065361
11.32,0.27770939115871685,-0.37297222726852697,0.11952635604991362
11.33,-0.3202836714556787,-0.0198522990514622,0.07838360789330251
11.34,-0.8134815890671604,0.2427330172338019,0.12368262888191583
11.35,-0.6941593532118909,0.3983642447423114,0.1902662325234062
11.36,-1.7855092189364319,0.5946874224750593,-0.24280381215161606
11.37,-1.7725505882057389,0.6225847713151799,-0.052913423041544394
11.38,-1.8540310743725694,0.13510490967276587,0.9811769629168787
11.39,-0.559433926923221,0.43617521246181473,0.309187288565822
11.4,0.8070508779991822,-0.23903996157642735,0.5004502324700546
11.41,1.6712293640947644,-0.49937239145630014,0.28840030593026367
11.42,0.9227790589421926,-0.1868411512952774,-0.6357547390166128
11.43,0.5505003547068961,-0.3204493144015291,-0.08942299685665817
11.44,1.188790464572468,-1.000753841017475,1.9004473876052077
11.45,0.7407735757045979,-0.27967163589868493,2.160937992691385
11.46,0.5658265004502394,0.3257966957037518,0.7815642510698573
11.47,0.2207414293738651,-0.13356591549311642,1.0340412872020954
11.48,0.5972818099309894,-0.29521655505377536,1.8358449820030005
11.49,-1.2599278754344179,0.41743864560723437,0.92084593839159
11.5,-1.5898685602163223,0.36751389168139365,-0.5175474348254375
11.51,-1.1944134311260255,0.1471321105285571,-0.44402251553078503
11.52,-0.27614466156695655,-0.47634682140917356,1.2867182620982023
11.53,-1.3307197916854423,-0.17983404336458947,0.4438331083615397
11.54,-2.2061219790030586,1.057110768890092,-2.528489370817726
11.55,-1.1859936482771947,0.5145845629937094,-1.4208103079654348
11.56,1.083719028796025,-0.3728611816299217,1.5249959444073593
11.57,0.05437715061812716,0.15738979153660354,-0.47587284892580684
11.58,-0.8784121875482434,1.2914932701539419,-2.296924991946791
11.59,0.3542523267050386,0.7945611273221225,0.20481563638242897
11.6,1.9107573289382263,0.11989611705842323,1.3270018920759163
11.61,1.638776283106941,0.035770067173840216,-0.40160638633995216
11.62,1.027364031435696,0.810400835611231,-2.6386973220691314
11.63,1.3277466696112858,0.2370687927700519,-0.9009873626644629
11.64,1.9788907463915812,-0.04760630492108501,-0.1861854847573202
11.65,0.9848348545763094,-0.3751835681571298,0.046859210884543416
11.66,2.6718833663768184,-0.4180941487294035,0.4416434644112859
11.67,0.634062108227419,-0.009852446628236823,-0.13131534973712283
11.68,0.5704421440747456,0.001702203239958734,-0.574879626279455
11.69,-0.439622968858095,-0.07105216431460026,-0.521391445857771
11.7,0.12771760495847614,-0.503922395902673,0.6895206786718128
11.71,-0.785791671361946,0.047008933205204585,0.0988290770069774
11.72,-1.1733733489955176,1.0120549095010376,-1.8066229996227605
11.73,-0.9434728245764804,-0.09873322868555413,-0.3529758857374209
11.74,-0.6044448692386986,0.04691360627122439,0.16498204684471135
11.75,-0.3988946454922788,0.5268178638120242,-0.925463605330176
11.76,-0.33456911424454433,0.9837826259529531,-0.7136300641929693
11.77,0.7597676914864093,0.052042203059368616,0.9066667296399087
11.78,0.49245821787789706,0.3285750124982636,0.674609967321886
11.79,0.9117065909004073,0.16885844549221274,0.28458605350493665
11.8,0.3867887032639754,-0.2279446038166303,0.18555180797537943
11.81,1.2947967183118003,-0.4674464716276353,0.2128674425810719
11.82,0.05427249181104476,-0.4361902320500293,-0.05402902572967704
11.83,0.6941315498800597,-0.12471786791173473,-0.3361660243797702
11.84,-0.711225268017656,-0.08822810322566861,-0.29141684464606493
11.85,-0.5400237730852118,-0.43480759183383627,0.9984992256933946
11.86,-1.2844741069259915,0.47307826660380076,0.41120084120665
11.87,-0.41122139324946777,-0.5448992026280887,0.9463403589772789
11.88,-0.04556743979079686,-0.7781262701119714,-0.05212485002005415
11.89,1.3006112962017318,-0.4980237878432515,-0.46810089646141534
11.9,-0.27882626643542097,0.7280328387310819,-1.3726096039097888
11.91,-1.298596540797866,-0.3467568830777663,-0.17252934877027065
11.92,-0.9901989805185323,-0.6370185892110273,0.4907133519265459
11.93,-1.2950516094352313,0.7119263034288347,-0.32693154742062047
11.94,-0.5638388859114727,0.8068541323816011,-0.02760561900901401
11.95,-0.766217353746027,0.6458894562452958,-0.5054654155495176
11.96,0.5032151244129405,-0.22178733694853076,0.4597612266734826
11.97,0.5951809488457512,0.4577310635972768,-1.5090699172925113
11.98,1.873527400155269,-0.6801917488054255,-0.17918899900638618
11.99,1.150616254265455,-0.7932635832276277,0.4759826506921551
12.0,0.17822592838576176,-0.48057278994487024,0.09814875529818373
12.01,-1.2795609634737155,-0.43712026823607786,-0.7936597587103806
12.02,-0.35326093496829486,-1.2211523725707953,0.43594524287623776
12.03,-0.6744054534849105,-0.5527891339627593,0.7624478029409922
12.04,-0.2654801148093332,-0.1145908503250543,0.6870909535298515
12.05,0.03292836214585428,-0.9425573979377662,0.3390386795115632
12.06,0.6730401152508404,-1.4310080695138998,1.0936712059377312
12.07,0.15978986708096404,-1.2544373092632766,1.2440781247665043
12.08,-1.7530067352039556,-0.23592755039943727,-0.9259638317699693
12.09,-2.11093917808423,-0.7520186327907434,-0.3132365292250059
12.1,-0.5607688250339041,-1.8760260756942082,0.9750168276132855
12.11,-1.455818565600518,-1.7520056532458854,-0.04692787009422889
12.12,-2.083102449436404,-0.34302283066275696,-1.2640399956120756
12.13,-0.7999712606527764,-0.07224344234524856,-0.1613626454798049
12.14,1.6945524829456324,-2.221752101296986,2.135652753502586
12.15,-0.06913682446038107,-0.909331875927568,0.13074055418405345
12.16,-0.8646375800075675,0.97696241245093,-0.5444365461559092
12.17,0.027403694322480982,0.5141858523110213,1.2263316408426592
12.18,1.5320110958521986,-0.3547322270289211,0.4374807106995362
12.19,1.9403264692356372,-0.31906726587312806,-0.3642606462216819
12.2,1.4280349383469304,0.8728149180245202,-1.3075602746653743
12.21,1.0020624729162717,1.0763445701789764,-1.1011512573584907
12.22,1.0959921711445502,0.6300652584479723,-1.110894908294337
12.23,1.236217046143104,0.5801500910559714,-1.1847663166467173
12.24,1.2510116648937295,0.22592703536469777,-0.6808103541293469
12.25,0.05467302228702727,0.7643332417290815,-1.3181851023267768
12.26,-0.36606366809397073,0.8168826440113577,-1.7359419979844564
12.27,-1.159014589055803,0.8771882740589266,-2.431616404650174
12.28,-0.10672505933369432,0.47270398386416873,-1.5551172520822458
12.29,0.7272074024445394,0.4370414570481636,-1.3063090189983473
12.3,1.8716163038380293,-0.06769553867154031,-0.820653504232634
12.31,1.387196897786076,-0.12432434900845783,-0.15432469592569084
12.32,0.9753345090424161,0.4099297395882625,0.9852173149973247
12.33,0.2933209049364321,0.5143257179342342,1.2436771239367985
12.34,0.907507232181985,-0.06960024623426245,1.2631990946335214
12.35,0.767370481596815,-0.23619873008001718,1.006487185675684
12.36,0.22202296568629615,0.7142397713500281,0.8548026243280933
12.37,-0.8913573432061987,0.7005968646413403,0.4835841269832141
12.38,-0.6124110049160463,0.023170300193770876,1.0815876196425414
12.39,-0.5063855829307192,0.1891869614693217,0.823410595132621
12.4,-1.1137137138323885,0.9951882237907357,-0.32954603679752464
12.41,0.20611857165287134,0.33905341097327807,0.12129359572970835
12.42,0.048449537225151926,0.5644190401626047,-0.35655968302942154
12.43,0.5291490518146396,0.5309536279357159,0.3372317107635758
12.44,-0.8297387482462689,1.031713235532464,-0.12178509231094152
12.45,-1.0329123982725081,0.13979624906568883,-0.34765184897014645
12.46,0.1110192570296834,-0.5574905510981671,0.43918660018368183
12.47,0.6505293988082971,-0.9412913206609655,0.8220686434047556
12.48,0.24131085319585258,-0.7533357811495416,0.07600614930115843
12.49,0.22065086018250749,-1.0430559769235248,-0.2543339148471417
12.5,0.7398680302734331,-1.119665058767044,0.6517112137908337
12.51,0.27910849174027536,-0.6778253046120282,0.39168759600664926
12.52,-0.9403919548917173,-0.00040383719828702297,-0.9739433447454855
12.53,-0.9412062549743455,-0.7848030164418914,0.13471596679410408
12.54,-0.8699798987675302,-0.6385713988966941,-0.002203232233001267
12.55,-0.8862263815432627,0.06266219067726649,-1.2075847990185802
12.56,-0.4119108401299316,-0.05015675615354268,-1.2757481031667997
12.57,-0.38205127649667003,-0.5269898381575385,-0.35629938343984435
12.58,-0.9288211896887947,-0.3809390243449661,-0.5378896583165612
12.59,-1.2684772535281514,-0.4460742524164368,0.3209506987238914
12.6,-0.1265534579961163,-0.1744674606516204,1.2712027751518675
12.61,0.843368581896737,0.23470752837456277,1.2716336334145013
12.62,1.098955102292993,0.4713442815500874,0.20825829150655137
12.63,0.641198164678271,0.2558757723312421,-0.5085841988359334
12.64,0.03870594447570268,0.40107599356101575,0.009633711017668963
12.65,-0.5756480839200475,0.7332895321055075,0.7582924929289482
12.66,-1.3925120417130692,0.9913812372326277,0.16361484774119828
12.67,-0.8856811657968691,0.32260080591953383,1.1856487043407198
12.68,-0.7647141370672055,0.2362334321167261,1.4538377407182752
12.69,-1.0386417968406396,0.661106276144934,0.24072142412984673
12.7,-0.5807496492819735,0.7151771607955908,-0.8206173335963649
12.71,1.3219011966192484,-0.19879636161751466,0.4103923769020134
12.72,1.7385244210123079,-0.8968402717199995,0.7928686907122651
12.73,0.006667587121315706,0.07272966158656502,-0.2832260166048832
12.74,0.2688678719146322,0.7422159884860289,0.12737681982570584
12.75,1.5327832225105003,-0.18608235751572874,1.0647231781984616
12.76,1.9429808802947413,-1.4193057535812708,0.4459011012112701
12.77,0.6513559048461741,-0.61387929902997,-1.0266207857237104
12.78,-0.20488812802984696,0.3293467377950447,-1.2982306813890179
12.79,-0.4576489754171477,-0.13445659131439514,-0.5241482962281526
12.8,0.2512653491529075,-0.6973838064782781,-0.09858413880447907
12.81,0.09957542229681891,0.012656380214887242,-0.8659490120221749
12.82,-0.08818309389715612,0.5435248033714088,-1.4219818223317704
12.83,-0.3478823056777431,0.42894455652471153,-1.0032504001744666
12.84,-0.5654226995252261,0.2910360220798516,-1.0811769474643869
12.85,-0.7215247396401461,0.6376815731483199,-1.3791750583001565
12.86,0.008118452201405602,0.08654006438601806,-0.4192471530349002
12.87,0.4972274663456199,-0.4787263809004259,-0.26330795184383177
12.88,0.6605772653588468,-0.4825938432355899,-0.5882765210182868
12.89,1.0572935916510502,-0.6129219194123994,0.012197299867326669
12.9,1.394033700413067,-0.7797779591002659,0.4768057216244011
12.91,0.9794013403079429,-0.8748386160242895,0.17930603686974408
12.92,0.7305016732041619,-0.7659863451274298,-0.2040847197646054
12.93,0.5895921768286587,-0.6800936805998243,-0.23973132514098067
12.94,0.1675339752451605,-0.5537200925248524,-0.2581040086053272
12.95,-0.6735414688353507,-0.1542754401434895,-0.9209794858436237
12.96,-1.2329550483577854,-0.48767226120384854,-0.19441118050611253
12.97,-0.9776769620820633,-0.15080826870967068,0.11296223308961734
12.98,-0.6667127797540979,-0.12337531155813251,-0.20479599163975312
12.99,0.3127342646254009,-0.01234782057873526,-0.3214667913186998
13.0,1.0973817595517426,0.11917332460614212,0.22483128703261016
13.01,0.739752080600066,0.1302987872908842,0.3123037772192155
13.02,0.0051208826395944575,-0.06364509821886435,-0.6358125494013552
13.03,-0.01042333393962461,-0.6116770428484731,-0.09547394668235351
13.04,-0.17180817213959437,-0.42866887227480305,0.39319604496353383
13.05,-0.9419016162671976,-0.36362217770656535,0.3437001099466146
13.06,-1.3149606473376532,-0.5596920946142437,0.11679761038260097
13.07,-0.9126408568041726,-0.34733290597334804,-0.2657623901757553
13.08,0.17880002104497617,-0.09402999908728439,-0.4346868900470387
13.09,0.41107106407809746,0.02876613794407478,-0.6469868479524101
13.1,0.24746906685369768,-0.2734530228135977,-0.14957420950245387
13.11,0.5743982086809165,-0.4297802468874619,0.5405068840840215
13.12,0.60671157985677,-0.0681942077665641,0.041386397841795514
13.13,0.9879272145520238,-0.3322012852301199,-0.027635685688732738
13.14,0.44351724985525004,-0.6481408004711499,0.10779681067900308
13.15,-0.9598104680495609,-0.1490878931812356,-0.3699250258711904
13.16,-2.5108623642880317,0.6541458369771194,-0.8462256779884302
13.17,-2.4922220926401493,0.06384646944481949,-0.15987575410255245
13.18,-1.6567352864266507,-0.6484000519541111,0.804163664716996
13.19,-0.6488434851536546,-0.331592586998177,1.198072703274924
13.2,0.2900722178020212,-0.20169107977168935,0.7875059320349991
13.21,1.0143404082434293,-0.9296367832697716,0.4374535312340437
13.22,1.1197799500477876,-1.3117221481091765,0.9269576319467512
13.23,0.17091669035517956,-0.9372297328205107,0.6902624340471063
13.24,-0.6650429370291591,-0.5208736754453012,-0.09870149169263372
13.25,-0.47929712167822586,-0.8228137069160197,0.20883708830376835
13.26,-0.5898900879206492,-1.2691854252068386,0.24494716522256285
13.27,-1.4470036954414742,-0.8568575241862625,-0.9038065967920361
13.28,-1.6721156592288635,-0.5317683298223064,-1.1854261131898294
13.29,-0.7185221693641535,-0.8408070838545956,-0.2600532206137595
13.3,0.3330045232978316,-0.982389758348764,-0.034557146661125325
13.31,0.4271760247629867,-0.25835098114176946,-0.6008458842106931
13.32,0.9712185388732341,0.13027496806219876,-0.0473945307117769
13.33,1.8375907780860266,-0.6274555004213689,0.14133297116575963
13.34,1.8309752499566467,-0.5867243419276683,-0.6567217882573605
13.35,1.329013475708514,0.07970025100167281,-0.13302459334002936
13.36,0.3407535837029323,0.13262933086668696,0.045601585343529635
13.37,-0.8289182982939077,-0.22804347103230435,-0.6997562897512195
13.38,-0.11202522767559255,-0.8098403574720748,0.32591393799597346
13.39,0.6960618498843744,-0.7159653037217881,0.810669575577006
13.4,0.07270851173783316,0.012984021728520357,-0.6567593143428451
13.41,-0.5457043969471673,0.24661110333798206,-1.7692074606337294
13.42,-0.624938710496101,-0.3973605237873058,-1.4388568577332923
13.43,-0.6450484662600182,-0.4213854566647838,-1.3712350617463778
13.44,-0.39004642793818034,0.17051586085139614,-1.721540765967412
13.45,0.9286654222881806,-0.204192273495179,-0.5666178597152579
13.46,1.015583119723561,-0.42526920630878795,0.06653649141761021
13.47,0.14579318072049738,0.16181779732519228,-0.15523530241868685
13.48,0.370082984523698,0.33666464067975443,0.23148412676880323
13.49,1.380419720852627,-0.175550886680624,0.5403733600146862
13.5,1.6591573943761395,-0.18077236206562566,-0.17515568459978717
13.51,1.041218355669048,0.18929310834551463,-0.5145671916184833
13.52,0.7135512343312046,-0.00904797830626035,0.23467120089152796
13.53,0.34590916514101727,-0.008956655080151876,0.3955464617316601
13.54,0.07548868231170786,0.32144866568598973,0.17388563551864733
13.55,-0.38647785514693217,0.5759662685722016,-0.18085715902674201
13.56,-0.6352202141569301,0.4758865841336013,-0.21786090832170113
13.57,0.09579882083674103,0.31575374079865837,0.4638453752421174
13.58,0.23511903316979704,0.46837733218042127,0.6954866983608025
13.59,0.013697820787220715,0.4649520243209837,0.247656514235037
13.6,-0.4003119611911207,0.6510047391696496,-0.6669725054169302
13.61,0.07988292303333329,-0.04820210000905863,-0.45989630900866824
13.62,0.9013387093382287,-0.6807760817032282,0.09388192928382168
13.63,0.3910616195360269,-0.5177911238507571,-0.15346948974787325
13.64,-0.33737291652781043,-0.14406336417768226,-0.25143031348908906
13.65,0.13912753410151235,0.12354969561351334,0.30016046828950693
13.66,-0.022657497519094384,0.10636211568365547,0.07208318865879344
13.67,-0.32138302254807116,0.3619217868014235,-0.398130352763542
13.68,-1.6337832294952952,0.6506543112694528,-0.7517393163127005
13.69,-1.297699615639634,-0.008961410143679049,0.4214810452960131
13.7,-0.5120294656404207,-0.35126123471355103,0.15042336205339948
13.71,1.1725802904024052,-0.639148513373517,-0.09285889598372571
13.72,1.3859182059314916,-0.37029248258557623,-0.0974951414959272
13.73,-0.17593792040073297,0.3775152269292384,-0.8076276276591307
13.74,-1.1779021826695268,0.03657809015148642,-0.48841613062520567
13.75,-0.7954546040374285,-1.0786682465608017,1.3312420395798716
13.76,0.3401498529354801,-1.2507723800088746,1.8783617627335436
13.77,-0.17173974526675684,-0.19581362462317417,0.3926501589402118
13.78,-0.19828059644015092,0.07714605259503775,0.3185471760727825
13.79,-0.4079105908340872,-0.5322167543775567,0.6558901520966312
13.8,-1.3161479676339387,-0.20538732422138142,-0.052553149780532805
13.81,-2.1224940391127447,0.6340203355488484,-0.9089017382143185
13.82,-1.3932711474086408,0.3873611991577677,-0.16569740845710929
13.83,0.11765097004157427,-0.6183307584193332,1.0025086548509548
13.84,1.5393724390189938,-1.1612187190724061,1.3619952967770295
13.85,1.4404863098773082,0.3128577236402559,-0.1403976848778946
13.86,-0.49269478719168414,0.5709164477563091,-1.491125392746025
13.87,0.6075575936689008,-1.8850050101509153,1.2317962468974795
13.88,0.7289550631426709,-1.4418064865146687,1.4400793067752224
13.89,-2.167634323625083,1.2404118331503988,-0.48838145241371866
13.9,-1.7357352614887125,1.7459499959775022,-0.21655911531982824
13.91,-0.3677960436751596,0.03655773918522374,0.011078163338263943
13.92,0.5687858742074757,-1.1197723813316223,-0.3246262767126476
13.93,-0.05676657309104634,-0.040896743974479295,-1.6775970424358337
13.94,0.2572643995278857,0.7861721987887142,-1.3154060444305629
13.95,1.279601265091939,-0.13779946038451438,0.07912339173857094
13.96,1.8128401098587923,-1.0883787773010285,0.7357105035000379
13.97,1.3779465319562267,-0.23006207651643665,-0.09496861655455813
13.98,1.0412710251159567,0.3120988601834153,-0.47089588024871526
13.99,0.3905975077257809,-0.05378991082738058,-0.026198533212588162
14.0,0.325241102243143,-0.2431540290770051,0.09137693291400405
14.01,0.19540604536076875,0.45442980780026204,-0.43542876198616814
14.02,0.34881184438604607,0.655043074086637,-0.9147114136433645
14.03,0.46510160623171487,0.09768819244108375,-0.32054989458156496
14.04,-0.2164320564234643,0.11058436881423,-0.7269201232046044
14.05,-0.3864212311055111,0.21788101468874704,-0.945051364376465
14.06,0.6199202840466801,-0.2370300659572288,-0.5837070552069064
14.07,2.0582967281995006,-0.9204753254464523,0.21452130375129028
14.08,1.0845340813221156,-0.5888628000994062,-1.343129617123718
14.09,0.2522204680007716,-0.22844100068741474,-1.6054089885922183
14.1,-0.28490415199819286,-0.4322776557002651,-0.15440573415446562
14.11,-1.040368503332378,-0.46416627050349557,0.477430014043845
14.12,-1.5746174738104213,-0.6935016125954911,0.4460534868928064
14.13,-1.5053223889095302,0.3980334493358326,-0.9053413670275251
14.14,-1.331256227436516,0.49974194638178715,-0.4591431875671683
14.15,-0.20247860764963818,0.2097739741557943,0.6662089176352382
14.16,-0.08740689364769344,0.6015444069638242,0.03727425765557523
14.17,1.5848880286226465,-0.1158148722213949,0.49844927947335504
14.18,1.7815396978138822,-0.807339267399878,-0.8742575659334066
14.19,1.3186299451216912,-1.3519888352244502,-1.2348914425418815
14.2,0.19908308388304274,-1.1543493910462204,0.4526146126404944
14.21,-0.2895281713599956,-0.8777324321369343,2.1635289042888575
14.22,-1.1834555642657987,-0.8581089760943971,1.7085147527284388
14.23,-1.1167810234036222,-0.03048873852391951,0.17850417278049305
14.24,-0.06215468658400169,0.692960511169446,-0.20375656084000987
14.25,0.14607282604651928,0.5371699861094471,-0.07637163212113565
14.26,-0.4403598329853991,0.31204058835006543,-0.6723259825590581
14.27,-0.9293539332134563,0.1544126523071904,-1.3489136066026755
14.28,-0.5908730430030061,0.2372930940241004,-0.8995224607586348
14.29,-0.23793485647067578,-0.1451797953966207,0.5574916283087537
14.3,-0.46454684472241525,0.31527259932628054,0.1803165848944464
14.31,-1.162120634237993,0.2027748775041209,-0.8781893343815702
14.32,-1.152692139717545,0.26804838735053815,-1.3135452497051179
14.33,1.2735621490352655,-0.5946200394990228,1.7951757187325792
14.34,0.8233380325411145,0.4122308305513163,0.42986061664202313
14.35,0.38762571330640855,0.5935927911307615,-0.20152205401121126
14.36,1.4239598555797288,-0.8144396259483769,1.5196607594408198
14.37,1.1185113954164898,-1.2471143495694377,1.9682208567084858
14.38,-0.31964547587523445,-0.3348943508347598,0.6402781172209542
14.39,-0.8267085065865225,0.09363828950705379,0.00948766301342004
14.4,-0.8735013214160728,-0.299551329228746,0.10504001167155197
14.41,-0.1531358571914735,-0.792326918283519,0.6069280123044982
14.42,-0.9914949023492355,-0.3074828587535995,-0.4396197350060012
14.43,-1.3819217162980826,-0.10036392526496843,-0.7961656298322835
14.44,-1.356699761986502,-0.5527501255580247,0.12654770847089897
14.45,-1.1300364319346112,-0.6033719277163245,0.5737900052788846
14.46,-1.9186523830819022,0.09651004055909305,0.5360657566368765
14.47,-1.5892392759958769,0.27310952044721065,0.11322980753066904
14.48,-0.311778700226927,-0.13156671928025548,-0.5331250105914838
14.49,1.4286776532297203,-0.9449085307526597,-0.4416592316029792
14.5,2.1214661880972567,-0.8534810840050703,-0.42442136234832745
14.51,1.0896805365345685,0.2822162681385362,-1.4740646009356988
14.52,0.6322778951718799,0.3932927989544634,-1.127617953578031
14.53,0.29719374035885904,-0.5333043352574992,0.17561428523808534
14.54,1.0982905138992565,-0.9722024460337927,1.2047053772336846
14.55,0.42178963040961504,-0.4336790711663855,0.33806075206394937
14.56,0.3653806412453733,0.13201352407095904,-0.15462966953063842
14.57,0.640802527568144,0.5387586669702504,-1.021613510877717
14.58,0.8741714606657811,0.6669159464134103,-0.9413283406129506
14.59,1.4203777881741952,0.9122358760225157,-1.3601828153659759
14.6,1.2574394080174338,0.1916110413144284,-1.0084744920044497
14.61,1.2518853072438691,-0.08129228464403183,0.028955673851364636
14.62,0.2551925947387799,0.6251377614066989,0.34004796638718215
14.63,0.35445811282416173,0.8567751409029148,0.10247282329121213
14.64,-0.26373766910253404,0.176454974630419,-0.6209566527205868
14.65,-0.34562430743355793,0.6710644375423891,-0.8455786067417665
14.66,-0.6756667117790625,1.2039495032497216,-0.5218287149471292
14.67,-0.67461390512424,0.40826658358129475,-0.15138774658082985
14.68,0.10574901501402051,-0.5533903914995063,-0.08091787321905458
14.69,0.7300546812716739,-0.28123195888288416,0.04304015317268069
14.7,1.377226350658791,0.06600700524342455,0.10566051828080372
14.71,0.8558316642061012,0.005136484214066635,-0.3567327226426316
14.72,1.316782897340887,0.3305909421213258,0.02762879102396749
14.73,0.8684745297200424,0.3036420112464059,0.7311558911577798
14.74,0.1977038326734143,0.39619324262071737,0.33390519189792817
14.75,0.336814475570313,-0.1755035325621267,0.7809018320948233
14.76,0.18544424246332844,0.5888741344668074,-0.72532156247346
14.77,0.7477346230033867,0.029091011816975394,0.24827613343536298
14.78,0.16854669358664867,-0.14771782597789077,0.18317204218429056
14.79,-0.48748225417656627,0.6725632954405273,0.014015630041465572
14.8,-0.8405742427540353,0.8435150415867336,0.10581881802699093
14.81,0.4607875348873829,0.1194236931231308,1.792379078949725
14.82,-0.7038118328554616,0.30872781332809157,-0.72209446457434
14.83,-0.6218018463227422,-0.26143548696492946,0.03678175892617189
14.84,0.19065766620279015,-0.527258027995057,0.16767980356717443
14.85,-0.0860032711260421,-0.34997181083209045,-0.2851125469797654
14.86,0.41542898784637916,-0.10068799145436136,-1.1028965615944666
14.87,0.20742813781404398,-0.8609636549332973,0.8899871571102663
14.88,-1.9749431809077131,0.3489216877323439,-1.0482280200491296
14.89,-3.5936863696981525,0.8707949468802346,-1.7894201669071066
14.9,-2.670891281804337,0.08725977205280973,-0.18060108619104084
14.91,-0.5136012233299603,-0.7344660140373024,1.6326184639039436
14.92,-0.20681088872908038,0.29960357641899094,-0.6265178080304122
14.93,1.362949874427173,0.8602778015116609,-0.16753969982436373
14.94,3.1470118237592266,-1.1726656352781517,0.8334134624323317
14.95,2.735363153271234,-1.0525730173637604,0.6617475392458614
14.96,1.0495446874346865,0.2632654317006359,0.7004185974531878
14.97,-0.4930025849935429,0.317146306393082,0.7573658743287248
14.98,-0.7812463867748484,0.15048241829301184,-0.6197384799609187
14.99,-0.30163906431611015,-0.2122717599497754,1.2946727103567786
15.0,-0.6653305011375727,0.647641957729183,1.4100773664337838
15.01,-1.3254174921524886,1.5091313905048087,-1.2255920957813076
15.02,-0.04837488630988214,0.23085895037881168,-0.31264747572941076
15.03,0.3082077089928258,-0.3386035284164762,1.1496297235318116
15.04,-0.8319975937656676,0.9960511252324209,0.17068653832200223
15.05,-0.9338378539058636,1.0473118971936652,-0.43815593227008065
15.06,0.14910414809168143,-0.07078687578145183,0.16772879773419017
15.07,0.5888458874495094,-0.6680384951593072,0.5752279054713464
15.08,-0.13864597098710668,-0.14221868440143395,-0.18711677328925194
15.09,-0.7895616367836041,0.5308939812487836,-1.0580029553868124
15.1,0.31026913244249754,-0.3952102295902525,0.19349336928847946
15.11,0.5030170910078998,-0.8007296932694604,-0.2594281675580531
15.12,0.7765738963681896,-0.5632589968391705,-0.7070159247441016
15.13,0.4447001942621249,-0.5335933054206975,-0.38397035622290754
15.14,-0.3973978138661898,0.24817245455596373,-0.6367943915823897
15.15,-0.29762254449372405,0.18215918891147784,-0.3438975908292855
15.16,0.07643959456788783,0.4168682324404317,-1.1059790781970569
15.17,1.2701399783401173,-0.19548952563987088,-1.1516946138410182
15.18,1.2578368719655086,0.10925876941900423,-0.8739461291911499
15.19,1.9610367134601567,0.04108870506451142,-0.25077852463441097
15.2,0.8431965886649039,0.37394742398113473,-0.15282858630783228
15.21,-0.10356060654422282,0.5450547833734805,-0.0702437246557169
15.22,-1.0469068181976753,0.9269030974990294,0.1542364176419099
15.23,-0.753163578959932,0.739420240998329,-0.009963437876563747
15.24,0.02994672040778303,0.2765126703084091,-0.12724166765446895
15.25,2.0613928928378096,0.14433748257305068,0.4269510476297311
15.26,1.6066460163372929,0.0892723829657592,0.23910195425023306
15.27,1.3292760941972728,0.022421062015836494,-0.40858213744064087
15.28,0.9475333365206016,0.18797284286704802,0.15093391044984925
15.29,0.5662034521754695,0.2600624422694578,1.256215454091554
15.3,-0.82999332753238,0.8202761718014607,0.23110271566187146
15.31,-1.2276694798137255,0.6854265409818667,-0.12622350047467523
15.32,-0.9941912766254366,0.33702650418728863,-0.29525183597712207
15.33,-0.5414520682678878,-0.0701959702620987,-0.3142389585514647
15.34,0.5340558318980815,-0.24610943321256412,-1.0890105233733032
15.35,1.081473602034679,-0.468620690203398,-1.1007125379336835
15.36,1.373820785225058,-0.9220813392610855,0.31538661934547085
15.37,0.14224071569106853,-0.3103245122174282,0.4443730535782454
15.38,-0.8365796400500882,0.3593505591925463,-0.2143521750054491
15.39,-1.2400413458563553,-0.03165114679019741,1.0444409589736787
15.4,-0.9888997032804869,0.8083629797069745,0.5614473558207386
15.41,-1.7510407065458624,1.309464042576501,-0.7073351642173628
15.42,-0.7746598029601859,1.1893505881522504,-1.256408965501349
15.43,0.33691228773539383,0.69451305364853,-0.46670698061579574
15.44,0.7522438080673595,0.8906904728338386,-0.5662395331897255
15.45,0.06716927114216065,1.1554785076735612,-0.9022883818995676
15.46,0.6956761249997097,0.5971529260661648,0.7953103747940018
15.47,-0.2615155930626434,0.5686499849922867,0.9438439930872754
15.48,0.4179460814410178,0.7163893881122922,0.8971338065164091
15.49,0.4678318580595627,0.8176913522638143,0.2205976826784445
15.5,1.5860233429470898,0.8334107935837877,0.40991776418840337
15.51,0.9262211065735464,0.6562178096566919,0.4642568799594826
15.52,0.4187580668159315,0.762500012521591,-0.17297779082102807
15.53,-0.6738820945638405,0.5928735098881146,0.18626617875853382
15.54,-1.1995331387709078,0.6394402891779245,1.1712276967552404
15.55,-1.9631396929020453,0.2621516408560583,1.1418466470206887
15.56,-1.4440326583972314,0.6155439574577951,0.03942571832875318
15.57,0.10555102872167145,0.06275634239253261,1.0324578988538387
15.58,1.2316603300046898,-0.4332364632117895,0.8140515721708641
15.59,0.9858614695713823,0.607830180241515,-0.8733629151373361
15.6,0.9385803754080431,-0.04651610876256293,0.2793966906391189
15.61,1.2448048731806538,-0.556744277382806,2.542317051813911
15.62,-0.5112992988423594,0.444597169039521,1.6542049128223189
15.63,-0.9366462391997448,1.4007438614369307,0.2399760215287049
15.64,0.3888380361362945,0.7953620775636889,0.5828396757656801
15.65,1.0054623104514149,0.055585301482026034,0.6473625622116556
15.66,0.3543586022628914,0.7595524350462074,-0.27420166792837325
15.67,-0.7876760690060847,1.8060909376484198,-1.6778582637483264
15.68,-0.4604104437989637,0.9154671321456033,-0.9834370531094674
15.69,1.0008497084721133,-0.1294161087077703,0.56908449878914
15.7,1.3681932426111219,0.14871218263227307,1.0742045032874037
15.71,0.181129844171415,0.5239159928240817,0.42387413655327816
15.72,-0.0841272889345691,0.7844697019727475,0.4341038380148878
15.73,0.1281492244831472,1.0377468112891326,0.2086467916299275
15.74,0.4990383391125453,0.8525300571409669,-0.2117917032181052
15.75,0.3593655905793689,0.8781746506460756,-1.3539060343212486
15.76,0.3129217259579608,0.8686964481252389,-0.945675245128874
15.77,0.34066029672002895,0.767208090737745,0.21464169736655697
15.78,-0.031546915811077214,0.1014648015667195,0.6779747735566113
15.79,0.17314236096804303,0.3416539524434767,-0.9417212181910362
15.8,0.332054448380271,0.6906837479077855,-1.6068307361362786
15.81,1.0887807932779698,0.17523145261161385,-0.6588502089219231
15.82,1.2464179371514643,-0.014337955002739078,-0.9034208290939222
15.83,1.3490400843784038,-0.1446304429373235,-0.14172677592359303
15.84,1.8912607200681173,-0.2965055285596922,1.9254613717104778
15.85,1.0281900774218997,0.39294981030677195,1.6982910918972387
15.86,0.5375812453448254,1.0120908233494328,1.1441975053318167
15.87,1.0002418336481653,1.197022638310866,1.3860288273423413
15.88,0.841012878968968,1.5091844564760883,0.4002139933599843
15.89,0.752643658721572,1.6362539084100758,-0.3513130769237366
15.9,0.4189263306738886,1.6758305620529426,-0.39571121560402966
15.91,-0.44900785340088595,1.7164142206874504,-0.4646126622042588
15.92,-1.2437198181183424,1.085314529263275,-0.027585057344003478
15.93,-1.0250105601711545,0.6501415801874246,0.4721345250547427
15.94,-0.1524514646872126,0.3732938961157707,0.9981935784430106
15.95,0.9118533999343905,0.1939048817986807,0.8006602029817249
15.96,2.3600992484962076,-0.3104523055892474,1.013097053066442
15.97,2.713549588259371,-0.6460010722514439,0.9218588675119692
15.98,1.869096909589819,-0.5822111875166947,0.35140819286001446
15.99,0.4169429373775498,-0.7869795342423784,-0.1949581503244337
16.0,-0.7452557050494067,-1.1602357316764862,0.051913335352708166
16.01,-1.7833910435339961,-0.5973934342433995,-0.5676232987797035
16.02,-2.8514937121202286,-0.06053276211895862,-1.0383632505995342
16.03,-3.3666054594318577,0.2705466025736794,-1.1871843476698236
16.04,-3.2895496818742984,0.691890979146765,-1.0923600019578201
16.05,-2.302658083019404,0.8284446490965677,-0.6900306328820253
16.06,-0.6178467331573981,0.3917784672891128,-0.04688335087177656
16.07,1.0571798099343437,-0.2185776002216246,0.8640957871274847
16.08,2.2261765740072677,-0.5903616325874443,1.5465057844166987
16.09,2.2643796806793985,-0.42708631376059525,1.156373261103813
16.1,2.2959291747623576,-0.587884098757133,1.4754743786878008
16.11,1.1447469551401588,-0.549814999363312,1.47538966888816
16.12,-0.9608656490812776,0.21247002478709015,0.25958251927100207
16.13,-2.4831961030148135,0.6523739730260727,-0.7616270516921099
16.14,-2.5381944199846758,0.1282108261732065,0.2752178771147452
16.15,-2.3578304412447606,0.12824289727323346,0.2237688117484433
16.16,-2.0075905761043065,0.7152487852024113,-1.2297137065203252
16.17,0.129948114491809,0.1702857428462869,-0.6719304695342903
16.18,1.911100024711185,-1.0643295077452353,0.9767932849639871
16.19,0.9575863337500795,-0.5700377191160054,0.04693167452513967
16.2,-0.09227759590461253,0.23399188035346039,-1.1722323415597244
16.21,0.7328129562345104,-0.4148861285443684,-0.24020015351560017
16.22,1.8061770653255216,-1.4299288093558857,1.6012077932346596
16.23,0.9661327005425823,-0.6768006466709158,1.520855874043221
16.24,-1.026097266290823,0.8413218098803278,0.23036248853981825
16.25,-2.1542751225716357,1.1094748435852444,-0.11343475020628355
16.26,-1.9259045746241272,0.5312493780554579,0.3155677905024077
16.27,-1.3983846002205735,0.41915360977774835,-0.5515207055614454
16.28,-0.8867546638511322,0.9938313818330443,-1.6557584653735153
16.29,-0.11144542520113657,1.346986110142667,-0.9994021215008908
16.3,0.8700460838429392,0.7337545826861213,-0.36290673003660073
16.31,1.1318377390289136,0.019112735527018587,-1.1057492004613898
16.32,1.730211427777409,-0.0768554474991057,-1.252509612338387
16.33,2.726804108325314,-0.38828610435402305,0.5282138465607346
16.34,2.8448829665977966,-0.7441696892689063,1.5785835340847818
16.35,2.3070924492951868,-0.568304849029189,0.5657542875499044
16.36,1.711162080095417,-0.4972128993618042,0.043086628288355605
16.37,0.9285462277303362,-0.28957918017296486,0.12218837731494063
16.38,-0.18123404606892873,0.3207258637807397,-0.7043651334880017
16.39,-1.0183331612063584,0.37873941693887053,-1.3490634992957924
16.4,-0.9844113031750611,0.03352089739899723,-1.2089926648464084
16.41,-0.6059487263888979,-0.3022485660731601,-1.08875240831805
16.42,-0.6986809015696595,-0.3178892453728834,-1.5666697259386608
16.43,-1.098752311739535,0.08668772692909929,-1.6644040721594082
16.44,-0.7338116893542425,-0.1564716485669446,-0.09623549132442111
16.45,0.3962756132806498,-0.2214622800468894,0.8226226827176405
16.46,0.9311593049817043,0.40430605146166104,-0.0017340512858169805
16.47,1.3193600412061708,0.45315802480751277,-0.09204132976781994
16.48,1.3778152635199017,0.2136232396330778,0.32246547661868874
16.49,0.8872952392250395,0.03902526819379451,0.18626072455793657
16.5,0.5253148286860426,-0.12811717894120142,0.02629064208101367
16.51,0.39991126267464555,-0.2524435864378365,0.2761006440956055
16.52,-0.5090781884528173,0.32060012216308137,-0.22320053928222167
16.53,-1.1944104486518388,0.4314857248326889,-0.3425434123595219
16.54,-0.9545855251966564,-0.3660068556852839,0.280235651498932
16.55,-1.106411528080785,-0.3819570095146608,-0.4597510365667132
16.56,-1.2358253600398934,-0.17731029210160681,-1.0321859004716494
16.57,-0.3898392897784632,-0.5723312566647359,-0.6943470631012081
16.58,0.5907624742228581,-1.5007769632231225,0.3675585258035514
16.59,0.5076235620233265,-1.2068324932450112,0.43864169087699556
16.6,-0.48960702156172864,-0.4622824586055401,-0.31074871362245426
16.61,-1.5919757689669392,-0.43117123990712597,-0.5060073240300689
16.62,-2.0678327687156544,-0.40198320825579903,-0.18276099302977067
16.63,-1.8059451833655213,-0.35578726493020285,0.09321692833505676
16.64,-0.7664113136677698,-0.5665753638132262,-0.0402025784974932
16.65,1.0004536366667836,-0.48150583987001405,0.06708743378568842
16.66,2.668791978470325,-0.621685733229341,0.39924822641335544
16.67,3.062275900950579,-0.9507014982926403,0.2586123631034319
16.68,2.198770596878136,-0.8324452163758926,0.15535644504194115
16.69,1.0149152098022722,-0.5571803899622243,0.43779693937211894
16.7,-0.3191490707692954,-0.01978602162022715,0.5240972462224457
16.71,-0.642595508801193,0.38434601327476337,0.34327440540462306
16.72,-0.3414702143690942,-0.17987590254367591,0.7795644533043324
16.73,-0.6561248170631063,-0.015180291315665893,0.39501745221331813
16.74,-1.5384073123122108,0.6707736647049762,-0.2441462719230288
16.75,-2.246609883750016,0.8575533977275542,-0.5863615264068793
16.76,-2.0906279287545195,0.06696502918344126,0.31221877112137864
16.77,-2.486372237048708,0.08342957665714254,-0.1823071375740008
16.78,-2.9218921102958726,0.21248415460228656,-1.0835191673987405
16.79,-2.10573694714732,-0.10078077531187127,-1.0238829352550187
16.8,-0.20167013796395297,-0.6294239880679312,-0.48980430650572204
16.81,1.974999704173701,-1.1508952042926157,0.40181344663155616
16.82,3.201755397668984,-1.5698830512938342,1.1134034027036437
16.83,2.8500472364903517,-1.9962329574337194,0.815582486482663
16.84,2.6949725076245348,-2.1975457336695037,1.4223256183925295
16.85,1.9730953764434103,-1.6556837663415176,1.305366503072597
16.86,-0.13244054760222113,-0.717764516779856,0.017193374505949807
16.87,-1.6407929872781986,0.0591432539786189,-1.122821250345406
16.88,-2.6937181435209716,0.7659752867056041,-1.4952819844212197
16.89,-2.9159872134762206,0.8325208448768864,-1.6514015479008604
16.9,-2.575538675521411,0.4403994762119953,-1.5779039239507902
16.91,-0.9900394115414388,0.1364667714536954,-0.33622972240306465
16.92,1.5400891657687583,-0.3151995803694098,1.3954094452032964
16.93,2.585990000453101,-0.03756988241627213,0.7606254404789222
16.94,2.165498592634593,0.3685959396642444,0.315704213996569
16.95,2.003535909232431,0.7594729555606095,0.4101199294143106
16.96,1.0132934034782095,1.094502079465865,-0.14171047003191656
16.97,-0.060538328620876325,1.1082884838782494,-0.6256094426875483
16.98,-0.023561901102225336,0.6111728396915709,-0.6646979204174074
16.99,0.06675836212760368,0.1486235945234892,-0.9626251097241056
17.0,-0.20544367630024588,0.3235599421017428,-1.684634336472719
17.01,0.2710996637222434,0.2972507946677333,-1.214598092416666
17.02,1.9754347103365324,-0.03579582706176992,0.012037392118568602
17.03,2.9205294786062383,-0.0687518049580413,-0.36259353245829723
17.04,2.8524596259456914,0.516304897137289,-1.2050781154302017
17.05,2.4444476789037055,0.7503970563543053,-0.5429987923593654
17.06,1.2332024847775187,0.8274029746919,0.013727067639840662
17.07,0.1366229138256404,0.8494529503962152,-0.14726655029850189
17.08,-0.8157193883108005,0.551761636574757,0.3768067700705446
17.09,-0.6767738553624165,0.5797353491197286,0.734642527401308
17.1,-1.4414198039653254,1.3781905942092156,0.06313174822597276
17.11,-1.2711524566350092,1.4433218645456731,-0.22898727138594058
17.12,-1.3657347338182966,1.5250037806744974,-0.2846555461348681
17.13,-0.7127893837275828,1.2101191931354849,-0.4561203035504286
17.14,-0.6003774621494565,1.0605616375283873,-0.7415265231041643
17.15,0.5734879650224215,0.40001458127656486,-0.0036821658272762846
17.16,1.2294368375601314,-0.006376581938643518,0.6536631713083163
17.17,1.8573320248718146,0.23639956306508733,-0.10930868368592281
17.18,1.723537175074066,-0.36658493447913065,0.35408207170514344
17.19,1.1857010504163654,-0.2954601440767361,0.7667228267727579
17.2,-0.4924545284235849,-0.05522087333596325,0.37081874664131775
17.21,-1.1646150890232119,-0.009223477956614538,0.8691774753407469
17.22,-1.0112192054959306,-0.13114103072892494,1.5174613101518837
17.23,-1.1743743438930487,0.22763909131466,0.8040089496171764
17.24,0.1096560030570831,0.08063936848266626,1.1595490865725306
17.25,0.6759350727757514,-0.4576487720882394,0.8636687522880837
17.26,0.5405203509529546,-1.0453235324658177,0.26713066507854877
17.27,-0.7488050293112354,-0.4714656649054347,-0.6455302280356262
17.28,-0.6582804313656746,0.15944058644443687,-0.22627473480935817
17.29,-1.2156495157408083,0.1678706233742864,0.14267280598013585
17.3,-0.8776360320142543,-0.054832641167755804,-0.12868457471670244
17.31,-0.8836819458248716,-0.16349797421553278,0.2020131178695748
17.32,-1.1197352848707174,0.4988125427539936,-0.3782749918341283
17.33,-1.3550251106180524,0.5205434253260949,0.6554898017741521
17.34,-0.34531570507562437,0.3741465951641843,1.1078355454318172
17.35,-0.3525943719243941,0.1902064636153483,0.17390851044395175
17.36,0.18697354343373426,0.28980188054068456,-1.0474781375364954
17.37,0.2726937412520581,0.1395200478551413,-0.1503227681733822
17.38,-0.23596779442317312,-0.02886449381952143,-0.6207452812345466
17.39,-0.35963068363189216,-0.4775040060176826,-0.20557495112917315
17.4,-0.4642394275427227,-0.09424390484836576,-0.3321473704092194
17.41,-1.0564190506933069,-0.2185960822229709,0.38206532737711874
17.42,-1.1447876173273077,-0.7312365839431727,-0.12657876855909586
17.43,-0.2171055988880221,-1.750223450258889,0.406609289064992
17.44,1.5826100359699506,-1.034060836628458,0.5499453449079513
17.45,0.9612578292295391,-0.49533948819641677,0.030834286430513586
17.46,1.1333732793519433,-0.299916100852601,-0.588280254634805
17.47,0.7616321681788283,-1.155181909318011,-0.2461963721258788
17.48,0.1734997016351362,-0.5680473520292936,0.309605591135667
17.49,-0.09735700806982141,-0.12585189559315876,0.6109885915804436
17.5,-0.1531904471388302,-0.08317152470034646,0.25334365260230063
17.51,0.2069202657467715,-0.48525500261632976,-0.07368408420856365
17.52,0.3431705485957781,-0.03962914957547312,-0.12932142389935888
17.53,0.511884968824641,0.4169804425193417,-0.9051381158303002
17.54,0.6545809572958646,0.23813211951009755,-0.6981413201384871
17.55,0.0065827630109634196,0.19376162619326,-0.9066454795813222
17.56,-0.19500010383394434,0.4177571657658752,-1.2039908025201305
17.57,0.34808259928535906,0.5183862692759527,-1.4932338723411362
17.58,0.1841514213427773,0.11046394932772172,-0.7417271387925832
17.59,-0.49101781091703184,-0.1490829791074465,-0.1764286986086397
17.6,-0.647084960157315,0.8734012900492153,-0.372452702172845
17.61,0.4446196050901281,-0.013255128881710973,-0.017555463207491923
17.62,1.6566178225723478,0.45767802256640283,-0.4402156768886514
17.63,1.6753338250479126,-0.07000071233229724,-0.5950530558872321
17.64,0.15406874896246153,0.13768214758271036,-1.1861542228639539
17.65,-0.4561027332013572,0.013502131262846096,-0.5361180621553551
17.66,0.1579215741412626,-0.7606037290021698,1.7994672866592343
17.67,0.22398348126652795,-0.6838733305605711,1.2627819667716156
17.68,-0.7926168613319229,0.4100121152812267,-0.28272813766171956
17.69,-0.6116660539866006,1.10016188652062,-0.7872746024340559
17.7,-0.12932167920533788,0.013940292836575415,-0.09140767696721395
17.71,0.3379547000883606,-0.1849611998180195,-0.5129762011554141
17.72,-0.2748728480853792,0.28996910801642944,-1.219231943847898
17.73,0.3324427435746341,-0.20452420938630106,-0.24947808403945823
17.74,0.3117187418937068,-0.5209166868790176,0.9209229142224723
17.75,0.7681286090904478,-0.15239922603937636,0.5295864433800068
17.76,-0.39968052445973007,-0.16539385948545904,-0.2590522138774599
17.77,-0.12729507195806108,-0.4866487868946463,0.6552675868748631
17.78,-0.9021936573621709,-0.06993932848477283,-0.3912335562271678
17.79,-0.1424759678982221,0.37310771233619366,-0.712528394518153
17.8,1.277306399666762,-1.1261155371614726,0.4840831901182193
17.81,0.236564031212559,-0.11177745630971385,0.39045179705434363
17.82,-0.054609985772964706,0.7609505758155041,-0.20620373341639314
17.83,0.2208020375951506,-0.005472622945012132,0.2461125059633216
17.84,1.5219400921318145,-0.8591964052458574,1.0041222857297962
17.85,0.07187847839893076,-0.046565019878962874,-0.03313075660095372
17.86,-0.7520114076687071,0.6118579130138182,-0.5436609536194453
17.87,-0.8510482918328005,-0.07293601174232835,0.5935807794661568
17.88,-0.15131712181657675,-0.2559724082963175,0.6241388141086177
17.89,-1.0818250039962327,0.06350186953459369,0.8039085461565538
17.9,-1.5163125390182934,0.18607259604312482,0.31296216302592844
17.91,-2.4749160680168587,0.6948622441913662,-0.8465944769082071
17.92,-1.7201492440405937,-0.03577579597278815,0.24559410406593657
17.93,-0.8171307273411288,-0.4559129898906184,1.1185671270763409
17.94,-1.7248135141857825,-0.03229126668248238,-0.31021457297416694
17.95,-1.2199444701019748,-0.2107657351127624,-1.6030839036623972
17.96,0.3266577298197562,-1.0565864682993105,-0.22988819903032381
17.97,0.9866555458845997,-1.2571557488961589,0.9826492306904178
17.98,0.38531506259024756,-1.0742892872432088,1.149337837636307
17.99,0.22762510471997258,-0.8963586877437191,0.7744589056604936
18.0,0.2518286733560883,-0.9064910737203402,0.8451676781075791
18.01,0.45448439947082836,-1.1742410290147745,0.8008398313503291
18.02,-0.20828866743021057,-1.6219241687233419,0.5762481674269593
18.03,-1.011880751083115,-0.9473666985045733,-0.5082992266974943
18.04,-0.7299912732559461,-0.11942218176924367,-0.13770996139070124
18.05,-0.6643689715541555,-0.24559521112038807,-0.8811673475891014
18.06,-0.5625033017055764,-0.49535403551892787,-1.1614158537477461
18.07,0.11873077274412192,-0.24691887610992014,-0.6696444369241095
18.08,1.1730599579109282,-0.8300316448971724,0.9421366387650557
18.09,0.4916769635474112,-1.0178754647281256,0.119803750510997
18.1,0.7452789930478809,-1.324035651043937,0.22146224441916534
18.11,0.8601961169144887,-1.0406470270711208,0.47944424063473806
18.12,0.9841029575707056,-1.2959438572845485,1.088962251832845
18.13,-0.027605330655382922,-0.8286935148398226,-0.40152632976745783
18.14,-0.06604958725793679,-0.27983873374713397,-1.0002063205288119
18.15,0.11254216803122347,-0.12665794681918666,-0.9640678717971731
18.16,-0.3050809059099845,-0.5063799680552529,-0.7643621663154926
18.17,-0.9339097117496311,-0.8981619454660947,-1.1437666495884218
18.18,-1.3434663881043736,-0.12004406875190718,-1.4466550799078786
18.19,-0.22235089686613613,-0.18354226170950314,-1.1008782246027278
18.2,0.5065349619532538,0.1324792772279321,-2.0369232227922733
18.21,1.640680213045504,-0.24637392487382115,-1.0795084174827678
18.22,1.0245915256473455,-0.1173958648438611,-0.7039006193557997
18.23,0.33935059479331864,0.0249073371373933,-0.945207528930935
18.24,1.074687216994986,-0.11921473812877117,0.5376430616714942
18.25,1.094007968280522,-0.3011175969287165,1.3815431216549736
18.26,0.6580625851020703,-0.14369057306257424,0.7975347310593935
18.27,-0.3007238738212556,0.184982581617788,-0.15293914179803006
18.28,-0.820371372161525,0.6864937354212358,-0.3073516177372241
18.29,-0.7930230132847701,0.8641016070455668,-0.7266309769445258
18.3,-0.2659605877349649,0.3495694677948435,-1.0743431344483083
18.31,-0.10595757751122946,0.09203668696828876,-1.2602482447133083
18.32,0.6886186278087835,0.05308425630092117,0.1813434473131177
18.33,0.3897967439977096,-0.1936722357949803,0.2157777207297667
18.34,0.37920141866665674,-0.5891820122355788,0.7526596619764043
18.35,-0.3929303555621052,0.008963723155300581,0.6607879710648664
18.36,-0.9811007259410507,0.8243215855133267,-0.11259748868534825
18.37,-0.8324043881251592,0.5451970233434548,-0.5947814222752498
18.38,0.6813525839050402,-0.29579117396980087,0.4546068406173892
18.39,0.581752377571552,-0.002788391205063879,0.03959233916645644
18.4,0.6966879475101769,-0.04430033214300337,-0.11279556600862886
18.41,1.4169485388309628,-0.6293274894055447,0.8985149072680011
18.42,1.340628430151657,-1.3933379527536982,1.4000239663530942
18.43,0.29469567788236417,-0.6189425390116721,0.5297296063293788
18.44,-0.9116660747215595,0.04764114387630323,-0.6082904045284268
18.45,-0.43697377717953767,0.19257402737280105,-0.769432426773635
18.46,-0.7025503270547849,-0.28766047471154205,-0.8492876086917723
18.47,-1.1334058225977621,-0.27336288573848855,-0.880929646961733
18.48,-2.192664946770401,0.10683513889781167,-0.9715111769286661
18.49,-2.9592008940157717,0.929298619186614,-0.7786781986152383
18.5,-1.6077126956853018,0.2280840822609061,0.5875943900763357
18.51,-0.115729044634425,-0.30083547045289555,0.4602441327418082
18.52,0.712671348888707,0.38590479026639446,-0.2660150448559825
18.53,0.6022323697789611,0.6016358420507972,0.358847169277567
18.54,1.312317685425235,-0.5101587932750471,1.3832174976759841
18.55,1.6020616654447724,-1.0760850442661622,1.7831413457213758
18.56,0.8880841037652574,0.18726059046238952,1.0328358004496532
