seconds_elapsed,z,y,x
0.0,0.1676752418279647,-0.0456119813024997,0.1886420100927353
0.01,0.11922354657639941,-0.22921479843660966,0.12421675106690666
0.02,0.04720291740528271,0.061988765015626085,0.1272699044520505
0.03,0.21691793000587603,0.1299302104939445,0.07883262073490589
0.04,0.14217429141682364,0.31492864745620575,0.126934507871201
0.05,0.05220030896825189,0.20176976189165616,0.1782664159477975
0.06,0.14400451880272902,0.26304770061133215,0.08104407218144011
0.07,0.13384917145236008,0.10755065039505282,0.0507095708949107
0.08,0.10939914114828095,-0.04780156813250945,0.08313080924179542
0.09,0.027678978432497222,0.037706183410196346,0.10853932151434872
0.1,0.07455233175721188,-0.07615376652701684,0.007863016877012938
0.11,0.044240710206355005,-0.031358049281514234,0.06664822228577802
0.12,0.003302411231899638,-0.11924197332157511,-0.0071464220953782985
0.13,-0.025819725729655685,-0.015405931732772651,-0.02823999605970081
0.14,-0.024721934391706078,-0.06674996963057786,-0.11819187877977698
0.15,-0.09685959826056544,0.08110992017015224,-0.0012194090262957038
0.16,-0.1470133075060048,0.022091805935632057,-0.058309858119263834
0.17,-0.13103178699548884,-0.11282184690467195,-0.08858212692179743
0.18,-0.07064422636794022,-0.05235737332241291,-0.11695093401095201
0.19,-0.045035061235775706,0.062121455790873935,-0.06273672629517686
0.2,-0.08685761076191548,0.02926237801919637,0.01685256045016351
0.21,-0.02533365991082965,0.012231810503403226,0.02497802233006822
0.22,-0.007731478371609515,-0.03781374560596081,0.06201375249432062
0.23,0.05763282531370122,0.0383376475196879,0.07970391013494106
0.24,0.08759151268607616,-0.034502957252069415,0.1753650654470261
0.25,0.08379858336007583,-0.12408090965542398,0.14891705827704219
0.26,0.06619757570399168,-0.1317772740223546,0.15586279792688282
0.27,0.12750200732629804,-0.04558631808121372,0.1288519435368943
0.28,0.15156192047219746,-0.040807929389969896,0.1662218066236405
0.29,0.13850221126666565,-0.14036800393289758,0.12045335457127539
0.3,0.1708062114071631,-0.05825764414549561,0.10940271800560736
0.31,0.19574406980089976,0.07119209846202386,0.09009718991689589
0.32,0.12888110992588378,-0.026007998916455458,0.0673594196503934
0.33,0.04266758896852947,-0.09999493236154307,0.0763297182987496
0.34,0.012320618153397434,-0.007635026965893414,0.06536327018420758
0.35,0.017608781312828854,0.08420784897495953,-0.016015218881074718
0.36,0.08873330572785343,-0.0012863389711552746,-0.0466950385575953
0.37,0.12636427089052013,-0.06681419417340043,0.0011709593451879245
0.38,0.10645163660647182,-0.016099424459988937,0.08169769998385251
0.39,0.1138375256058361,-0.05561677753753885,0.0842486517339128
0.4,0.15200335668308554,-0.167392341958496,0.01945312382320035
0.41,0.1243283478605329,-0.34004577352401694,-0.020124391409393514
0.42,0.12287123699257753,-0.1802581553368198,0.03261177067093022
0.43,0.08664309900818042,0.08782759547833312,0.1310116242534198
0.44,0.09602821873221606,0.23572383371390498,0.15531182894719994
0.45,0.11057257633283919,0.03604008255363407,0.11881761374631077
0.46,0.09123624869434682,-0.0700093690181567,0.028758910381323697
0.47,0.05169601885374614,-0.06304093955290126,0.03423621790549806
0.48,0.03080938023735165,0.034918519810020976,0.04305833570586457
0.49,0.04523029460421843,-0.01416912512254659,0.03173616662715656
0.5,0.01240149367247981,-0.0650679996600993,0.0005181290006324629
0.51,0.02047170599325449,0.027274697213300007,-0.005389767821186044
0.52,-0.05730506888508639,0.001243916971067952,-0.02001526647457329
0.53,-0.11047495516365198,-0.13535936266054,-0.05350333006050264
0.54,-0.10387378690912007,-0.26446539376436135,-0.11603711292007386
0.55,-0.05218255089481834,-0.05738880734935999,-0.14991057443043898
0.56,-0.05130572852692226,0.15576364587930805,-0.09508922698706569
0.57,-0.13383759105888848,0.25175288374042615,0.04701476840022835
0.58,-0.10584350371139443,0.26671896564335335,-0.036260465507598254
0.59,-0.05486008989695828,0.19313446017079053,-0.14724529181371765
0.6,-0.07245282310118413,0.006121371767080121,-0.18470746233659188
0.61,-0.10954610832229798,0.0484784615701161,-0.13338616800959327
0.62,-0.12211225511560876,-0.020184568391802712,-0.15287035616962322
0.63,-0.12184326467940436,-0.11621748208780414,-0.14747697380990335
0.64,-0.13491107967887284,-0.11990180572706047,-0.13169636273202567
0.65,-0.048599316828828495,0.003014715616335683,-0.1934661853605579
0.66,-0.03452441878690088,0.07852315382950825,-0.10481254712381857
0.67,-0.044340610816855676,-0.06311194408980629,-0.08601123773159505
0.68,0.0037864158368880975,0.01636467712252699,-0.013400280580445092
0.69,0.0690915049181135,0.0387828273063019,-0.03651774938818554
0.7,0.10597000017870702,0.09809126390592175,0.029039667932865134
0.71,0.09491526457989645,0.09545868460782982,0.11962727263536936
0.72,0.12892770643503046,0.05397887629190355,0.08910366617880798
0.73,0.1017652545598044,-0.0759797613894799,0.09643835319024889
0.74,0.11521938134555224,-0.04241610839148854,0.08325019665516101
0.75,0.14978599026785824,0.07760293030188652,0.11106706965899489
0.76,0.173584098721662,-0.011908877184930378,0.1300341998329213
0.77,0.1566347590959073,-0.11168733312807244,0.14069196828960168
0.78,0.15128850336296543,-0.14039613756975997,0.14134164134552155
0.79,0.18427551380451412,-0.024180380741072843,0.15769787280340797
0.8,0.19957774538885445,0.03666632688798743,0.14037629288993186
0.81,0.2026217222951929,-0.028631216209430217,0.1610602517300983
0.82,0.17434841145238572,-0.07313646192614395,0.1968905578847287
0.83,0.15505969700704555,-0.054260768486700396,0.1823929453420883
0.84,0.16482221235060077,-0.05229381374950725,0.128671672657879
0.85,0.15864608076802472,-0.07343738325972944,0.12606346960158657
0.86,0.10660663277874223,-0.011782986667649377,0.13954448560032784
0.87,0.11379904655914339,0.003947975643249787,0.11378259659981517
0.88,0.08735929263272772,-0.05366012028436231,0.09275486326965096
0.89,0.06579707584731509,-0.08896323891777658,0.061469733859726476
0.9,0.02116279914447107,-0.08746594919993232,0.03525435785634164
0.91,-0.009137416097525617,0.043679366019353245,0.07374883857916202
0.92,0.004783738343800282,0.09275232981645427,0.05687056709386469
0.93,0.009098282160168407,0.02344230845276402,0.0011749602570697644
0.94,-0.051391620792512346,-0.08639740431116238,-0.020030021863551857
0.95,-0.1101417113170715,-0.10325622474113724,-0.0003495589012898271
0.96,-0.10013348707483592,-0.06774865620304964,-0.01942971817706577
0.97,-0.09422592552636898,-0.06788945593283875,-0.03465390983107846
0.98,-0.13613947064665813,-0.09769463887312058,-0.06160671589132601
0.99,-0.20861847318752869,-0.08018112786673386,-0.058854885583710534
1.0,-0.2391820799992607,-0.10748232764266202,-0.057708226177033896
1.01,-0.26513430557113365,-0.011758743445137325,-0.0910789990057639
1.02,-0.25460187697459985,0.15386190393192106,-0.11052329279155904
1.03,-0.1477442110231651,0.34531078070848925,-0.09696918293668154
1.04,-0.1261153523667327,0.35197158281823354,0.020017253982713003
1.05,-0.1766301757643389,0.21865734366956754,0.020510293110622555
1.06,-0.18643143023307848,0.11615827987955321,-0.06604993119807152
1.07,-0.16170104813788208,0.11946553134844869,-0.10920141579586128
1.08,-0.23710722965724956,0.08265704919522149,-0.10913876598065889
1.09,-0.31986591899257155,0.05859944223559709,-0.08234073589426912
1.1,-0.30663385324218984,-0.02173024004272891,-0.19058113324210338
1.11,-0.33375903909512117,-0.08036139478500422,-0.2434288937348401
1.12,-0.333607572665179,-0.020051756249580287,-0.22359657277445985
1.13,-0.3118428541101504,0.16582464882463227,-0.16915283008807105
1.14,-0.2504936294341193,0.18436411044387885,-0.1674280651069536
1.15,-0.23052087822563475,0.07429180562326197,-0.1905305400883434
1.16,-0.25261505872028406,0.14250927792738174,-0.15740873944975747
1.17,-0.22480785639617384,0.1937893749458113,-0.126596266187892
1.18,-0.223317530522371,0.11533239731142052,-0.112635880248417
1.19,-0.23628487322286362,0.034827204341884646,-0.1151857744061099
1.2,-0.18661623118366139,0.0674222667697596,-0.14575363769337735
1.21,-0.13456940526746125,0.040378310847868915,-0.18761544028445756
1.22,-0.17240601318184168,-0.06263448838744713,-0.1335289717948498
1.23,-0.20213226035495255,-0.043101559680291134,-0.08342964440402174
1.24,-0.19826762308487267,0.17254606165486597,-0.03126156358745072
1.25,-0.11671443986687163,0.1765454576924759,-0.07855615524611238
1.26,-0.04424791367285278,0.08617201538597957,-0.09500902045628097
1.27,-0.07586162891235557,-0.03391123583245084,-0.025660118841125863
1.28,-0.0679883035224684,-0.08264769382009113,-0.028274454482151
1.29,-0.01313643531137104,-0.0877795540709884,-0.06561481453060893
1.3,0.026163892098734487,-0.1123429911529337,-0.08366532842595216
1.31,0.0006948479146545577,-0.04381902149451857,-0.0039553528534616005
1.32,-0.016691498669590306,0.015120952138549873,0.02145117627667091
1.33,0.007844017684464633,0.09071333105100295,0.005390034554987535
1.34,0.053897343335023745,0.07994211970574398,-0.003532810995842587
1.35,0.0345589496424161,0.05615254956242224,0.0430249515289755
1.36,-0.01635452808764394,-0.007685559037007013,0.05883507776929378
1.37,0.044246637028009336,-0.08035054334584377,-0.006871030633136015
1.38,0.09958597971534469,-0.08149951506867886,-0.0008299352506276091
1.39,0.0825277929761683,-0.08059911500294448,0.057137398670051326
1.4,0.08260670968505716,-0.03583932034581209,0.0796682375807254
1.41,0.17521562384861147,-0.03410760398201074,0.08903159053220983
1.42,0.20688199970841753,-0.05887930375215898,0.11990754471844084
1.43,0.13473412610433536,-0.09668029686462647,0.13342262214901116
1.44,0.12441840721596927,-0.11365914086103103,0.0893787787849419
1.45,0.14735141670004065,-0.13803188000207137,0.05297790886229146
1.46,0.11773799076568525,-0.16044794054217612,0.09842343610567356
1.47,0.09284351647401606,-0.13342236115628936,0.147549762958572
1.48,0.14439029848630683,-0.13634017471196294,0.14201052007594664
1.49,0.20220204186650648,-0.20258057324288106,0.0934085373369053
1.5,0.20109403632853554,-0.29946080575023015,0.13647861369686076
1.51,0.17710232019479652,-0.2776975573822788,0.20577892217602262
1.52,0.17814644040099706,-0.0689825189097529,0.21220032978850453
1.53,0.20477201792916536,0.17538301763316053,0.22912174934027973
1.54,0.19662904686516958,0.2663221051171859,0.24414927569149944
1.55,0.15990174385803202,0.06330499201728679,0.22803865633204662
1.56,0.11412882009356955,-0.15812748021953996,0.16795275334692034
1.57,0.10155258884285435,-0.20009851411092605,0.11568422446993791
1.58,0.14405458504446986,-0.16548324289622665,0.10716160102789715
1.59,0.15321173970122454,-0.17467535798735173,0.1536301304650325
1.6,0.12802406474719963,-0.19253921594780496,0.22497937623326647
1.61,0.15692952774245683,-0.028111215921420556,0.2512886177482083
1.62,0.2283916176826591,0.007788617082510641,0.16582228974813806
1.63,0.18712867422243817,-0.025545202372305526,0.11263217940835822
1.64,-0.009312041206599626,0.03019487308324948,0.11167879529914315
1.65,-0.1534143791291595,0.19622357749349992,0.11593894894268379
1.66,-0.11214171767101058,0.3971953033202817,0.11030559899451785
1.67,-0.04876165540242523,0.3633977163881309,0.06580814315062287
1.68,-0.052531516054881544,0.15603741041803948,0.06498105866176024
1.69,-0.06472576380408977,-0.027312177125125157,0.0743544858226739
1.7,0.004125335715637786,-0.13287726398556607,0.028545223933432715
1.71,-0.025481814860543864,-0.1258951304606251,0.01660830511068161
1.72,-0.11070597478507901,-0.032904599655940656,0.01629839324779933
1.73,-0.13759646838453907,0.03894917064158368,-0.018490926420351526
1.74,-0.14355720677093894,-0.023913390828385898,-0.08141863651236544
1.75,-0.21125600915600154,-0.11848156104030137,-0.15075943928771124
1.76,-0.28263242962343343,-0.0037445347756654953,-0.17147760828644645
1.77,-0.22542105137577811,0.2583934951277964,-0.13674827858479682
1.78,-0.15286179155645083,0.3118635104084112,-0.1288654788210319
1.79,-0.1794010453744385,0.16784533714431402,-0.15120018763686313
1.8,-0.25198554534544665,0.11206160395100868,-0.15428020748633864
1.81,-0.2660428470559083,0.16963190893721525,-0.16857165155185014
1.82,-0.27946584139627323,0.0662671980171481,-0.20252835115024775
1.83,-0.3719036810573397,-0.06672319100505102,-0.25824325484423666
1.84,-0.3593191292458399,-0.023489315069485678,-0.3309685808314864
1.85,-0.2934850534927953,0.1465245956420122,-0.34846617501023786
1.86,-0.30329175229233035,0.1844523290884941,-0.33123806460504557
1.87,-0.36359175043795433,0.1434553994368451,-0.2972595990915112
1.88,-0.3216714337069364,0.2778949533616765,-0.2928390023946179
1.89,-0.25043487331267084,0.30303456300746,-0.27646104975300945
1.9,-0.2186237570045126,0.08125621041553077,-0.23422187271337516
1.91,-0.2021127649928095,-0.06525635471791957,-0.21034973012395006
1.92,-0.1349821280543319,-0.05713019599185904,-0.18700855632296806
1.93,-0.04381043680755934,0.009611857902123197,-0.1820585525524819
1.94,-0.01836022409892911,0.0410869057170401,-0.17819116095897083
1.95,-0.011720600501015744,0.035748464902754316,-0.16398375648652877
1.96,-0.029771210382999784,-0.00464484359473445,-0.1440416978384906
1.97,-0.0472978331186666,-0.0845095548278305,-0.183150922114389
1.98,-0.04152290884348806,-0.1594807428444025,-0.21664917273523332
1.99,-0.006331989103071493,-0.13581240995329033,-0.2013883713098155
2.0,0.00019152127007441473,0.027329932317651507,-0.1382441697578853
2.01,0.02412313218845326,0.10306546247210478,-0.10769706736546643
2.02,0.08855660445357458,0.15516661679853025,-0.08893841244220677
2.03,0.13757794851894134,0.21521474425372708,-0.030223236229151285
2.04,0.17468107521429876,0.3246343767778829,0.02079703385296523
2.05,0.1554428196808983,0.1557676460712419,0.017812975975819646
2.06,0.14851187135470328,-0.1542256650884376,-0.03695871334514423
2.07,0.09140042148860446,-0.2868026085858017,-0.07444786113999358
2.08,0.07721504848337306,-0.18164790963256802,-0.07378945852182656
2.09,0.15344606163293162,-0.09406710402701231,-0.0764827778717942
2.1,0.1403267141369485,-0.04251614553830507,-0.05122176320189107
2.11,0.15490342087771616,-0.039733573815395884,-0.028464885771736476
2.12,0.21013688646310064,-0.050508500407202804,0.0004176640766516069
2.13,0.24863796077472616,-0.08684728515015334,0.016070161623747126
2.14,0.2282353265253608,-0.07505204929939184,0.06369495704857916
2.15,0.1650891645851559,0.04482075707935215,0.05713941508997364
2.16,0.1519398382570656,0.09350244434359782,0.02197643800050611
2.17,0.09660170663005274,0.0409476123354939,-0.046520147590959154
2.18,0.049430619444996333,0.08869452496063791,-0.017804388988912484
2.19,0.033210390098119436,0.08023092526806758,-0.06698103051115678
2.2,0.038373920969729636,0.0012157549533387403,-0.12973247339400526
2.21,-0.0253174944749838,-0.10553729622000947,-0.1428677335361897
2.22,-0.01658375216464447,-0.09027122152297591,-0.1408034413454833
2.23,-0.016316251888649224,0.05726932028820491,-0.08451482100543978
2.24,0.032673384737660786,0.11091350134203941,-0.09225799905104459
2.25,0.03213371001337401,-0.04895517877605412,-0.1160405038359058
2.26,0.005419745032283442,-0.16984538795089418,-0.09409114011594506
2.27,-0.048656879530827854,-0.07628517871953586,-0.06600980195406887
2.28,-0.053152714563113816,0.06054549461906181,-0.10403465990275054
2.29,-0.037038539347738535,0.19132267225614666,-0.1405444905671331
2.3,-0.007885873759158106,0.1455319748422049,-0.1252083807535476
2.31,-0.036166958443709,0.056666134964065355,-0.08825740706556642
2.32,-0.05103499157107415,-0.04376245908097157,-0.07463093099022065
2.33,-0.027248994073022323,0.005158725626690997,-0.10815643603287596
2.34,0.01860550874521842,0.06551520631845521,-0.0420535172573075
2.35,0.008921017495610516,0.08358732796799048,0.016289872930855237
2.36,-0.048271983290283475,-0.040741808172374896,-0.00751083966849313
2.37,-0.010614530714262297,-0.04152427852300651,-0.06306257712562091
2.38,0.06582733207891786,0.1358218275510916,-0.03736331498423149
2.39,0.004273440871308341,0.22458870759375038,-0.007419388402437904
2.4,0.026556409991144253,0.23911241552776127,0.005568028014129
2.41,0.02984333521868218,0.06815274763100289,-0.041065335120193475
2.42,0.008953525082450979,-0.08698247136309696,-0.05082524784708468
2.43,-0.0628977851310095,-0.1587926476269474,-0.010989239349631008
2.44,-0.0034734681003971805,-0.11491057570219135,-0.02859020256696756
2.45,0.02573794750887761,-0.2651339143698742,-0.030663492144005978
2.46,0.07328040057468589,-0.342345898328458,-0.027751283211770898
2.47,0.12586886351079654,-0.23090844595921917,-0.023051163124965607
2.48,0.2027637736713356,0.015857148439790195,0.01549089318183428
2.49,0.15446115118989648,0.24195403094719345,0.12875921458848033
2.5,0.14672167348163936,0.38989710859137927,0.1615998659799765
2.51,0.2205205088484716,0.39897989905552844,0.06045396135394403
2.52,0.19823770046488806,0.23980906339331093,0.01982452455238234
2.53,0.1526642689617126,-0.03399100280414347,0.07474085235998358
2.54,0.10610283287887272,-0.3893386035065203,0.04984057518270056
2.55,0.0990274614870754,-0.5549147606870617,-0.00822955400651959
2.56,0.1468247424387476,-0.5821100187527215,-0.011916952157335226
2.57,0.20293286550076658,-0.18094870386282896,0.01945819794871167
2.58,0.20491054520973126,0.10978619841646758,0.12567153664265468
2.59,0.23467184052450973,0.11343163090154638,0.19160196780723884
2.6,0.2731765742001716,-0.03955575721935163,0.14374214199809415
2.61,0.2806388949350442,-0.08438316797694129,0.14019181234285158
2.62,0.24139368025901398,0.0666985883483789,0.26140421346846554
2.63,0.19453527524747583,0.11867036452356687,0.2802964844700615
2.64,0.33536282860885425,-0.004763536449355474,0.1816081634899866
2.65,0.3061473173720288,-0.19519389501843332,0.18127705335021377
2.66,0.34890465633100937,-0.22197933839955183,0.24476779068849625
2.67,0.349166390871907,-0.2133471639595642,0.30531260375196384
2.68,0.41356823959446465,-0.3320331773217532,0.29806658163112126
2.69,0.3079412614708901,-0.29395106773368485,0.2709612207453934
2.7,0.3118332326977812,-0.046337811373673814,0.2421234996816298
2.71,0.2813280972718918,0.04192875058251526,0.18395119087773878
2.72,0.17711348727705847,-0.13671703536032856,0.12392153034829642
2.73,0.15034562829851583,-0.20432080542389813,0.13007766520674507
2.74,0.19740739367702367,-0.05516629982291662,0.14531406180484213
2.75,0.2516003023055377,0.014331044817796089,0.1724532931771149
2.76,0.21385186986233348,-0.01943943622248906,0.1783700579755887
2.77,0.1588466856389806,0.14836151929706043,0.15461260478908354
2.78,0.16045145470979466,0.06817132655771134,0.1396568468417331
2.79,0.12664357407161836,-0.14461702151086744,0.1528058910159609
2.8,0.04928854595127449,-0.30977381677369953,0.14569713961328704
2.81,0.08766318781129784,-0.2814587829541796,0.1290470213843653
2.82,0.11987214509950433,-0.03155574344497349,0.24001782476321903
2.83,0.17406203561994246,-0.04325636940566355,0.24174485651180347
2.84,0.1584934694959865,-0.14700124122365213,0.25799809819010033
2.85,0.17077830856743667,-0.16969744853767674,0.28493919196842343
2.86,0.19324292284005226,-0.09919398735175013,0.3472216940874125
2.87,0.15018116029445897,-0.2886223667470708,0.2839168685406654
2.88,0.07850879251571428,-0.11009862548632644,0.3522524536489785
2.89,0.11913555996771055,0.04623111657887699,0.4293101998162381
2.9,0.2004161753402275,0.03689593182270243,0.3647209958090495
2.91,0.13673467768930092,-0.21333717596198598,0.31819386874503774
2.92,0.11600178026451041,-0.22283406812388315,0.23393457648152943
2.93,0.03983393855257401,-0.14082332925906743,0.2672161747213895
2.94,-0.011244308083344102,-0.05067938762731204,0.20453560117911257
2.95,-0.037780414971876494,-0.1752364050876453,0.0684225329114669
2.96,-0.09656034195358783,-0.008153729388217826,0.126969570304052
2.97,-0.15363031132812113,0.028386173102517117,0.05741670166706456
2.98,-0.18995190215081664,0.1439997308670427,0.05978286092516271
2.99,-0.20424539204140404,0.2664605428973118,-0.03158885036461919
3.0,-0.19256782601893613,0.2712756894851534,-0.021088610020923715
3.01,-0.17253713791339056,0.12260512893087434,-0.09257581881155798
3.02,-0.2526785799284393,-0.17311830807827344,-0.14072606374964547
3.03,-0.3334072314781912,-0.18543397669106582,-0.11951102777483728
3.04,-0.35392396056482606,-0.014251187095610428,-0.08789417789073274
3.05,-0.29910021377364227,0.1448684703423582,-0.028737886836405668
3.06,-0.3215273255522407,0.030161271125908565,-0.043726556715017344
3.07,-0.2698851358325074,-0.015852867985255866,-0.06741079437171958
3.08,-0.21514139688037787,0.015319452114859002,-0.11252654658072178
3.09,-0.1878760285587463,0.19584782161441802,-0.08374991569220984
3.1,-0.3401540838586483,0.28094051035215717,0.00902445857420049
3.11,-0.32656028209651256,0.3212741016536589,-0.016344171518421293
3.12,-0.2573220118249619,0.2900355175072355,-0.09549450052632442
3.13,-0.20711767172654436,0.14422580349586417,-0.17776066647912112
3.14,-0.3305884747025729,-0.0800538933631667,-0.21313896965810844
3.15,-0.3681632987882894,-0.18780461316721955,-0.18944283617783397
3.16,-0.32292459868348283,-0.22945030584146126,-0.3058966319351368
3.17,-0.3110323028583903,-0.17132377857448713,-0.3157750200407245
3.18,-0.3133240412674077,0.08900357139138483,-0.2925566261487707
3.19,-0.29064737432484444,0.08889335187972262,-0.2537325434122053
3.2,-0.28960229488947,0.21558773024877215,-0.25043084070457394
3.21,-0.2422259364272253,0.16753622072503577,-0.274185797711007
3.22,-0.22386694071646998,0.2593845511004692,-0.18300201293545035
3.23,-0.24239383862183214,0.16479291527596812,-0.1487454582565982
3.24,-0.12660722640874175,0.15580547339046694,-0.10365670909411184
3.25,-0.07545628126949373,0.3012230026419059,-0.10121246897529464
3.26,0.03271658705832087,0.12352053629543518,-0.1113541725125689
3.27,-0.03141273587978526,0.0001941601877644446,-0.05758738413344215
3.28,-0.027861404470074676,-0.09716910511683632,-0.07541928889868711
3.29,-0.06674075339555623,-0.15925536678246127,-0.07046168514254122
3.3,-0.0380677318984584,-0.3590558404070719,-0.1468754343887704
3.31,-0.07869117411808996,-0.25243371114462515,-0.11675570927690926
3.32,-0.06282665105294194,0.045903258955953374,-0.051724276710156676
3.33,0.04092118431821757,0.4621666123428611,0.061049031374010736
3.34,0.13045681338484236,0.38085413113564676,0.11081358625287901
3.35,0.20625022605489118,-0.023075254331533294,0.05536806379469612
3.36,0.13883873666646215,-0.23163730118839562,-0.0033966006371223315
3.37,0.04342015834332338,-0.14213066803425525,0.05494567077233727
3.38,0.06710890873504985,-0.03137356288387332,0.04926180316294014
3.39,0.03420919080654705,-0.11751396476962801,0.07756879552463875
3.4,-0.002188728952062514,-0.18942820092707624,0.0367029316379156
3.41,0.03694302898069233,-0.16473529706458842,0.05697550916185348
3.42,0.04581434743945527,0.042512640589958677,0.061671047336578654
3.43,0.05113194120009517,0.08920877258341191,0.06834468551712564
3.44,0.03207267816285028,0.09074988188750963,0.09017712467988069
3.45,0.049581344228350706,-0.0661828981205418,0.029370825008986846
3.46,0.023972164935328017,-0.0024234442814384327,0.07251493863099807
3.47,-0.021348528259010208,-0.09998624945655048,-0.03448288503297462
3.48,-0.13569140868624538,-0.05684791747022606,-0.02412844566471671
3.49,-0.1935857180777885,0.021507265436743347,-0.1324575078331843
3.5,-0.22058394875839438,0.27788091658482467,-0.13676400046714265
3.51,-0.23527060840877165,0.427271149425814,-0.11667910490908287
3.52,-0.22031613467511582,0.1434577916749816,-0.18483021877994787
3.53,-0.21742298871267138,-0.20651406473887904,-0.20044845373349315
3.54,-0.2264952739725137,-0.045342864777993375,-0.20085480404813785
3.55,-0.18497616076267576,0.15286132069025277,-0.1370642548130769
3.56,-0.13295970610139266,-0.030847123568256245,-0.1813978647622798
3.57,-0.18850461854069644,-0.14686862560789557,-0.15797909036502827
3.58,-0.24594911716637383,-0.05769873669522601,-0.16456829919019172
3.59,-0.30938628994433093,0.20135467540962057,-0.15214012880403047
3.6,-0.2950642431778786,0.4650475174453056,-0.11506126168447166
3.61,-0.18036815391044972,0.5868550112357511,-0.10610361033801324
3.62,-0.18483887814038955,0.29709091231125284,-0.17601166900490442
3.63,-0.22284144545504103,-0.11882045008284314,-0.1959709506529926
3.64,-0.2709632011798698,-0.05100308480479697,-0.18990285188514566
3.65,-0.1912429006894004,0.0703084778813661,-0.1998235774632189
3.66,-0.20095255728619854,-0.02615328831826615,-0.1814889094429343
3.67,-0.22696451273734763,-0.06427038114464091,-0.15017312507699263
3.68,-0.1437463032197189,0.013302078261310434,-0.1568602345281
3.69,-0.07985203100817967,0.26301999251549646,-0.13651199244235307
3.7,-0.14614785922007914,0.29707955839631617,-0.06688735609815484
3.71,-0.14014728474512186,0.3192494070254861,-0.05169267779104009
3.72,-0.06103864237964328,0.20238946173382083,-0.09505928586386118
3.73,-0.05325235224448391,-0.06149745298240749,-0.15404289272816143
3.74,-0.09941118437932314,-0.38906988060710773,-0.12840375731407322
3.75,-0.06884607308866081,-0.4056944021128641,-0.0849467913657911
3.76,-0.012688454157678839,-0.22223475610945367,-0.03886446391562381
3.77,0.03037958270212862,0.08163480253906656,-0.007127892608303567
3.78,0.06659770815483526,0.18190832519084332,0.0938113148586793
3.79,0.10895932956405303,0.058948003245284854,0.10910397005070759
3.8,0.17378036475409558,-0.08616152059568666,0.12208862917045686
3.81,0.20344495132674079,-0.10355124436319255,0.12643490582704608
3.82,0.14033161982767992,0.019161317603052095,0.26795891004180605
3.83,0.1739837709877498,0.008736621681851605,0.2722164090532682
3.84,0.2424377796423469,-0.011443356218736024,0.20267079732350582
3.85,0.22331091555651278,-0.11988585436574377,0.12444899838079923
3.86,0.16595332890877224,0.025631118038376633,0.19272914018585022
3.87,0.17525353817416983,0.013781372303441937,0.20763155451856513
3.88,0.1666159165982403,-0.1726798650408505,0.14414326265401373
3.89,0.05447308086553625,-0.3559605724723569,0.0940052162296065
3.9,0.05956100948650828,-0.22459400173098792,0.05323562207425588
3.91,0.10617186621133066,0.04547982706330166,0.1039897277660161
3.92,0.09766371632833812,0.0973187814056607,0.075802734026525
3.93,0.08646741962158185,-0.0012478090923360376,0.1070432311875961
3.94,0.12912731238687822,-0.07671863046657797,0.13773623844241523
3.95,0.13686194124948808,-0.11273545508860228,0.18592992737432146
3.96,0.07742957911231256,-0.21303503414846023,0.10608871831395073
3.97,0.062208581155380756,-0.08039771175627479,0.10438631382098885
3.98,0.06485187291591493,-0.012850058931407293,0.10636397809080861
3.99,0.06459971485164677,-0.09364357715831781,0.13227306116810866
4.0,0.07791487216289075,-0.23543580381198462,0.13939493837503777
4.01,0.05041450348649965,-0.11834960817753234,0.12889638870882145
4.02,0.016944454941593214,0.029374053225738356,0.14164646343855686
4.03,0.024708646019327606,0.21782174868938797,0.14978688562283846
4.04,0.05064065123994514,0.28313540535124393,0.1601768975165699
4.05,0.05019046228950227,0.09718245799957875,0.09145602200444539
4.06,-0.028252509851955567,-0.11858335805784155,0.048343072642375064
4.07,-0.1229436626918614,-0.19218504224863103,-0.01894431554776317
4.08,-0.187707103748058,-0.07313028371624972,-0.07619184350701108
4.09,-0.22118373927843465,-0.04920354642528391,-0.13221519019045613
4.1,-0.2695614688069138,-0.028708278700715253,-0.16573211207179722
4.11,-0.2588195400369916,0.1431610635110864,-0.12486282216290517
4.12,-0.21042888208616267,0.29176398338535053,-0.08039660559441646
4.13,-0.2220195238879495,0.18713024359317632,-0.06090846755870637
4.14,-0.17419885156374226,0.001261806279533669,-0.11593236264362977
4.15,-0.13350851413677103,0.011584023534207887,-0.11309387137302364
4.16,-0.14156213447995347,0.06899598704854813,-0.08913768336285595
4.17,-0.2221545841049014,0.12786810302698523,-0.049327747390403305
4.18,-0.24415434732220576,0.12035926479879688,-0.14552611676917698
4.19,-0.26155784875559496,0.07897550702589223,-0.22556213094614644
4.2,-0.31742063410379956,0.12755507314834516,-0.23254588881403007
4.21,-0.33607362992503204,0.22020223837961814,-0.24216457492174553
4.22,-0.29424968262946494,0.1340536676623279,-0.30062925145629565
4.23,-0.2387651929171317,0.0006677686007598751,-0.3274856777099877
4.24,-0.28158096456250664,0.19992906648161568,-0.23606068123795615
4.25,-0.2696355021649779,0.3746953094153521,-0.2070121404843673
4.26,-0.24048725412165523,0.17300989731777272,-0.27566611425863424
4.27,-0.22255856261938597,-0.13705929859626875,-0.3670973646833162
4.28,-0.2532226683165254,-0.20711522049828163,-0.4018082550427436
4.29,-0.2572252908444264,0.02002119155245116,-0.40524331970999083
4.3,-0.23343649813409512,0.31062769002042523,-0.3390519428589677
4.31,-0.1663760043980715,0.500494267203656,-0.23865264457577634
4.32,-0.07087189032013104,0.4689788266926729,-0.20000261176651074
4.33,-0.025834016972462532,0.19270413186070037,-0.20670890056520794
4.34,-0.014701610233702023,-0.08813311785524157,-0.18637273561802353
4.35,0.002270039179670599,-0.1339261465405785,-0.1375235202397457
4.36,0.07189407976536637,-0.12326953489151432,-0.1458715056472609
4.37,0.15797271616864872,-0.17971602485344657,-0.15706025786208688
4.38,0.1735490608620177,-0.09674072819448341,-0.10550426881073023
4.39,0.16025175123823612,-0.1104221243134123,-0.09015296440112314
4.4,0.14431702950934833,-0.14050740740143938,-0.09844259719031258
4.41,0.15015565194859393,-0.039764647623356894,-0.12112517247342373
4.42,0.17908949320820802,0.02904516081191529,-0.09912737591029916
4.43,0.13689185683638858,-0.036110843417927384,-0.06744275702814671
4.44,0.15446289334526236,-0.08426583702031253,-0.06211828934777029
4.45,0.24217787831306717,0.07526600930877435,-0.044688818319536305
4.46,0.2952657644214981,0.24027539162396427,-0.018128356630025363
4.47,0.33694237258576215,0.14599512457912567,-0.0017333666409025455
4.48,0.3104220785827917,-0.13504204011785872,-0.02639374364230635
4.49,0.24897978442429194,-0.24361351725394453,-0.01725543952758192
4.5,0.23285432005685577,-0.2167861623516155,-0.029642592426988655
4.51,0.26551401219943227,-0.20252363016453528,-0.029700988832614454
4.52,0.28209126338471996,-0.10754814530651277,-0.003979851384472193
4.53,0.3094611943649732,0.04178894596138397,0.02894479334845149
4.54,0.37828774975196133,0.10189075421899717,0.09441004291117541
4.55,0.4173796229845207,-0.01921746410015241,0.11551826164046841
4.56,0.39142265560854894,-0.18310252932517085,0.12458282470811699
4.57,0.3461794542227801,-0.2356203698124927,0.09073833518238102
4.58,0.3094833201460246,-0.17790701916545165,0.05765629459051941
4.59,0.23453176648948335,-0.060977606525943306,0.07201341043423547
4.6,0.19317573867443782,0.01679273267899909,0.09780538636995219
4.61,0.19479199265562494,0.015094417374191826,0.08432301455148306
4.62,0.20620988115436523,-0.03956714196156366,0.023620026420906562
4.63,0.16754625457047867,-0.08810578459587597,0.0041295454327563395
4.64,0.1153991139355647,-0.10149165404249724,0.026215952787070885
4.65,0.1242434247659188,-0.14679867530667642,0.040710013629027035
4.66,0.15013802614139451,-0.22154547985724382,-0.006586273443228757
4.67,0.1694055534755141,-0.1592641586111838,-0.002531598040636184
4.68,0.1461097109723525,-0.027797387152359136,0.044672319003985814
4.69,0.07259579719619548,0.11193669788429857,0.08217974497399644
4.7,0.04092097904028636,0.1669560349392526,0.05448880670845417
4.71,0.07828546469773476,0.19975023620644203,0.02296681890168778
4.72,0.061477210743637316,0.14764174173972766,0.0014160279870581477
4.73,0.03841160113014977,-0.08339878886875766,-0.018245577005708676
4.74,0.02152465818040968,-0.21608880995708618,0.005247082475151156
4.75,0.06277372059573297,-0.1278580490879578,0.005192543350187439
4.76,0.08116846318717023,0.035183078362312915,-0.019130009135167925
4.77,0.0404823951349664,-0.03636446794027169,-0.05289820858055926
4.78,-0.03560970081698017,-0.060828719468223845,-0.0319051286165989
4.79,-0.024400446049169,0.08348404235144015,-0.03896511892571105
4.8,0.036447213639814104,0.25047543982665327,-0.04010287585358113
4.81,0.046645233722859517,0.17645273539708983,-0.018948980045221164
4.82,0.07799931375508797,0.0517373864037682,-0.009616485244914479
4.83,0.12418401966419557,-0.0749447015831742,-0.00289826752446467
4.84,0.10881102164027631,-0.18061711573123265,0.02522949670919
4.85,0.07779385994605043,-0.15956698141898953,0.060506521752224283
4.86,0.11522723092786412,0.006472119020851418,0.11342524273361973
4.87,0.1411037429659276,0.039981816703028625,0.1072133149930971
4.88,0.1338533281134252,-0.13908519555762494,0.09531410376557099
4.89,0.17941870299301982,-0.05336576911125204,0.1058406032978239
4.9,0.22435377001565146,0.13333898184377516,0.14560995090673767
4.91,0.1701463689638834,0.10188284892455442,0.2119144278257099
4.92,0.1323226669419279,-0.09232814787100133,0.22992649792032877
4.93,0.18800460970057137,-0.12677980239756947,0.19312587135834483
4.94,0.22678625072125144,-0.19191681973234834,0.1621047743105393
4.95,0.21816673495619546,-0.2911038862382663,0.18685066476644568
4.96,0.1545356835979594,-0.24955220757612437,0.2646192768194379
4.97,0.1909193235064867,-0.06754158496086825,0.25454689524429314
4.98,0.24933461680786626,0.02276341923893703,0.22753038355272015
4.99,0.24516472387783156,-0.023173698901022565,0.23998088832019918
5.0,0.1960237507460246,-0.14272455849820892,0.3124244655294746
5.01,0.1676037347089183,-0.15532180755099606,0.3226501635253449
5.02,0.20016814841118744,-0.2071494818142642,0.24341621436025365
5.03,0.2196938111225401,-0.23538873734267488,0.21465184244142696
5.04,0.12179676549817338,-0.12119478985028355,0.2724126049840975
5.05,0.0827729293954146,-0.006454671766717056,0.3099121021803919
5.06,0.11542432961079503,0.04011856927048854,0.24966514440357557
5.07,0.123789334244098,-0.010545571036366103,0.1875290545864071
5.08,0.0940441184735691,-0.132953166035047,0.178580078979305
5.09,-0.010768413070665625,-0.1628019123747281,0.19428504227340596
5.1,-0.01050751640061422,-0.07325257044431346,0.1798723862041081
5.11,-0.02282954287253254,-0.06915530653004767,0.1519158799198622
5.12,-0.048289507431259655,-0.020626141388497117,0.10855830393441634
5.13,-0.1347850209440642,0.0171380803035361,0.10553827246431495
5.14,-0.14520713075833552,0.04928126375548736,0.09908978723464423
5.15,-0.17416289369765992,-0.08352189423656846,0.03906142066595337
5.16,-0.16657887562894572,-0.3355612112330395,-0.020731990490586383
5.17,-0.26261517506376153,-0.3148746214267427,0.01609419456703034
5.18,-0.25120910692497306,-0.09098612647532087,0.041179219154700394
5.19,-0.16266423902046823,0.16862460269109683,0.07964660553057513
5.2,-0.11722460592422733,0.17527739864451813,0.11608459403586951
5.21,-0.1554787632983847,0.07852636882436818,0.16182166534665782
5.22,-0.1407406678627942,0.002230857078704277,0.0933556020685934
5.23,-0.13677202895771262,0.07873175615327649,0.07001265436849494
5.24,-0.18709696687050403,0.08965503657168489,0.07588127890642592
5.25,-0.21337517610347323,0.0731721149049714,0.07291486874059971
5.26,-0.19702911874118642,-0.025916075105368298,0.054454839856806755
5.27,-0.17306329228581804,-0.039728181724903715,-0.006042180330095402
5.28,-0.1952241584957701,0.024267159936153387,-0.006520963731671416
5.29,-0.2187507406460129,0.058313049471008516,0.0359641450025074
5.3,-0.2395830905288972,0.0259216168774381,0.019830521189314842
5.31,-0.24882396570062737,-0.09183563602829982,-0.017018658301080285
5.32,-0.28255168022974353,0.07552994052150365,-0.038440978336722706
5.33,-0.23327462221782883,0.16503854568949616,-0.04634067677174864
5.34,-0.2477266879559544,0.1783079679129709,-0.03255526024767459
5.35,-0.2651202858016525,0.022165652286693822,-0.03260702739595392
5.36,-0.21326457865592144,0.18676287064094182,0.008548849513343155
5.37,-0.18682040094350197,0.17935086644409126,-0.053162615239398796
5.38,-0.2253019043718516,-0.06790749017446063,-0.09300146165006247
5.39,-0.32289167678487346,-0.16381017325219538,-0.12390509482718744
5.4,-0.2824257118202796,0.018144568576253448,-0.10037193396548968
5.41,-0.22383249008851056,-0.005683534534465318,-0.14246884565755524
5.42,-0.24035005823807248,-0.043787807209113704,-0.10622366620986877
5.43,-0.19148204142138261,0.03246274649619061,-0.11128044981803704
5.44,-0.12767497636196648,0.06423799456968488,-0.09234699410026624
5.45,-0.12252384930135878,0.2125005097588541,-0.021706199152238703
5.46,-0.14536212185254116,0.32658973050300794,0.032397017325684285
5.47,-0.05703657515737641,0.20060275508942885,0.023156588397177116
5.48,-0.12223049332101366,0.02416611225297723,0.035440498826951126
5.49,-0.1644388777638648,-0.1518190690615344,-0.026925665473409573
5.5,-0.12476554901137107,0.10025163218532518,-0.058130394530950126
5.51,-0.05609701921305874,0.3212532660372595,-0.061769728063736824
5.52,-0.1098522101647144,0.17480615749978723,0.019017748938746217
5.53,-0.14822449156348325,-0.0035317096343357637,0.030976888423239514
5.54,-0.10779945827304552,-0.08176403464711185,-0.0739349257535137
5.55,-0.10588124538281123,-0.23972728837072876,-0.1935751275946444
5.56,-0.21582235476251985,-0.2223279133272449,-0.12566301143735456
5.57,-0.18328887443877018,-0.13082137846819647,-0.10859070407296151
5.58,-0.12804064765719847,0.0626214234469049,-0.12280175969364412
5.59,-0.11019920675713753,0.1032115745435513,-0.1571366609868719
5.6,-0.13124285027332377,0.22507051507146528,-0.08811273007540915
5.61,-0.18345062169719167,0.2031033390998952,-0.11047474056761492
5.62,-0.222451347231004,0.2765618034366845,-0.12122256334572486
5.63,-0.193103409132527,0.12441838637102677,-0.18178419458097636
5.64,-0.2085937811292753,0.15058455959808914,-0.16409880422111137
5.65,-0.2454452225762901,0.016091891850322785,-0.13353751365727454
5.66,-0.1819609824177692,-0.006026777708465517,-0.20460891980366558
5.67,-0.15240969526506956,0.047817957901599276,-0.22352071951775201
5.68,-0.1375929315763774,0.10586980041066987,-0.2667454129291379
5.69,-0.24316338684243247,0.0070520652551612495,-0.2723913736234081
5.7,-0.2571967475696837,0.04264181030908358,-0.23984403351552566
5.71,-0.22207912080044268,-0.031533731224340576,-0.2593100389163833
5.72,-0.2249433628553896,0.11536127779275179,-0.28653501727412983
5.73,-0.22948341192160637,0.2906868503956245,-0.28777697014459297
5.74,-0.16891630363726415,0.29510508811608754,-0.2642589025362667
5.75,-0.13140058250217804,0.11266079273252853,-0.2286469029882011
5.76,-0.1275361032236593,-0.18773623196059475,-0.25055081401465046
5.77,-0.07234625021619977,-0.16584326763207685,-0.20599241875725374
5.78,-0.04405319978354447,-0.1529904954900746,-0.2435615283562686
5.79,-0.015159751378280453,0.031094022746038515,-0.2002951020347033
5.8,-0.06819851054640551,0.15779887836124268,-0.16375394627438536
5.81,-0.06486018218069363,0.20399392888988238,-0.1352222579362696
5.82,-0.03947753759022045,0.021421077611791493,-0.1862202854551739
5.83,-0.05786151829120659,0.056835737539379094,-0.16533069833856368
5.84,-0.05606032550110063,0.3335972642521414,-0.12116266136168918
5.85,0.08509116036511666,0.39116772471512146,-0.10411788576441532
5.86,0.16134997105034915,0.0992289626966551,-0.10153426085314983
5.87,0.05174442620956963,-0.31659734281059815,-0.10202420646254716
5.88,-0.009616626642938868,-0.12322343811896207,-0.013588307228779135
5.89,0.13756531832616847,-0.0008015007182929555,-0.11794749625661112
5.9,0.17495338196586457,-0.07434550383345917,-0.12441879719997843
5.91,0.07962241786783766,-0.368238463301726,-0.11219362359194698
5.92,0.06876261677206486,-0.3843334989146531,-0.12398267247283087
5.93,0.0924627389925057,-0.28060532883800976,-0.14173242959254218
5.94,0.15238930347084978,-0.10568521846786141,-0.1079947887398234
5.95,0.13773775160167145,0.17524777235700545,-0.0073753275163053805
5.96,0.15995698394276447,0.30964238973936836,0.00893776776210118
5.97,0.2817074551573867,0.2978254740890939,-0.09097770890240668
5.98,0.18874630579324972,0.1066745310661121,-0.09791813780590881
5.99,0.06381406699149086,0.1178099894610606,-0.09732092521051436
6.0,0.03846069294603315,0.2858054693388523,-0.034667126397335664
6.01,0.14635551585893142,0.23645686266059718,-0.14094932501272353
6.02,0.11402023642586144,-0.14927022012039856,-0.12790872855686483
6.03,0.13773888402322826,-0.2626905700012305,-0.08699294796840468
6.04,0.16517965526475856,-0.35328908640101014,-0.07568959853727654
6.05,0.22374065193811998,-0.20538549281008775,0.04375149202537412
6.06,0.1822084543074202,0.1045383328346177,0.12767059153278237
6.07,0.29342542142763106,0.21431701891395713,0.06251383636718122
6.08,0.3020965186929567,0.05800127728880786,0.07603446204210482
6.09,0.19348064286744776,-0.08364879055846676,0.03642241041749392
6.1,0.15904586254806774,0.10764456672850016,0.05171662915976282
6.11,0.2668774962816567,0.04235288797722948,-0.017193741917214855
6.12,0.15696011827383557,-0.177669721747115,-0.03176340113988232
6.13,0.06963548000168403,-0.15399305781997907,0.06332232021655643
6.14,0.19410866090766873,0.12132306022787785,0.01257838804212853
6.15,0.25167735347072595,0.05400297354464808,-0.04504204004830665
6.16,0.18348793238077005,-0.26325398823061374,0.021272430588946255
6.17,0.129921194927988,-0.2266143951036341,0.12491037657801812
6.18,0.20979444730093869,0.012073428002330659,0.1409528076546462
6.19,0.30657799891743776,0.05811307856989401,0.07401320744500105
6.2,0.3335569240412062,0.05228748756142613,0.14453123698676731
6.21,0.2221065477063005,-0.10384679715727761,0.1824171903578637
6.22,0.213578464935585,-0.09208416275844063,0.20004610317103874
6.23,0.281149805161762,-0.0793084054481897,0.13444428212606316
6.24,0.2542190657729041,-0.022694214978896884,0.14674050355135074
6.25,0.16075865391203317,-0.05735285231495,0.1861826476258857
6.26,0.18464786137363987,0.024831831271653674,0.1901093572124337
6.27,0.21124208928337546,-0.10215087797830227,0.11782953143193645
6.28,0.2261674938229427,-0.1768813995329781,0.040658145338368756
6.29,0.1630985996873298,-0.22595287514092863,0.13142896932252315
6.3,0.17328769644054465,-0.22831908216492547,0.15179546089199858
6.31,0.18580215310310677,-0.23588933741524173,0.15449079387814432
6.32,0.22705254115616869,-0.16017597267518668,0.08464636865505826
6.33,0.2156304078527701,0.026490858348921637,0.1344397574795377
6.34,0.14064377734630176,0.1726784938506613,0.18411348860775506
6.35,0.15575055157201265,0.15807216520562933,0.1865884951761135
6.36,0.15222462266139813,-0.11641690440092459,0.06013207701002152
6.37,0.11772267303047741,-0.32535958614264937,0.006409919600760456
6.38,0.05353626994222733,-0.24470182636563137,0.0771911458651113
6.39,0.08387573568053709,0.08586088362389646,0.1496809939517802
6.4,0.12164870362695217,0.21438865958859143,0.14354634135360023
6.41,0.09108966566404934,0.051603123994278265,0.1350221381185992
6.42,0.05384812154846807,-0.19226219938499856,0.1011386407500544
6.43,0.04504793002956798,-0.11446921541690526,0.07228321995124255
6.44,-0.0055627776474033285,-0.015340015577526827,0.058306782327287025
6.45,-0.019365126420984077,0.002088651985740268,0.060224078568806974
6.46,0.024056411965302577,-0.10918856477270648,0.030578417239741917
6.47,0.06910066581443758,-0.21886135820330227,-0.01356263983596124
6.48,0.037182914026067944,-0.14283557314327092,0.04752455373495517
6.49,-0.008082923896707879,-0.05980994430208148,0.035499544280671515
6.5,-0.005920436291919592,0.06954469416790043,0.04189186724677285
6.51,-0.02120963578960584,0.011818477337184148,0.007803449937095981
6.52,-0.041804638840917153,-0.0052266676330727305,0.00043942832386430783
6.53,-0.03969217822462907,0.06897641529988512,0.0665261057402387
6.54,0.008190684768197731,0.10848041621691314,0.043596183690736354
6.55,-0.001641615450139503,0.013451152655690595,0.09406799065494412
6.56,0.04084029774450778,-0.043655564578342375,0.07483425048291259
6.57,0.05531727900796782,-0.15784857682585507,0.0973651393304504
6.58,0.09642577531415833,-0.13064717573217552,0.13101851530938657
6.59,0.03184159110663998,-0.02015573805784911,0.1288725522797137
6.6,0.06933500200345646,0.16000475231772374,0.15469047221823604
6.61,0.054571788896637476,0.13397386977136225,0.1389634378368491
6.62,0.027681795898786984,-0.044973876636078,0.1502252157202318
6.63,0.0658515556356902,-0.1896865860193209,0.07768169182804492
6.64,0.07656848634795316,-0.14722580211562658,0.08120897892003764
6.65,0.01381161736564298,-0.1511903291527143,0.10759079865480047
6.66,-0.06658758568405113,0.05819438476083997,0.14779219479756406
6.67,0.04716838021231044,0.09455282462291517,0.0886608596902577
6.68,-0.0012188569615220791,-0.04384879582987131,0.01872601743928449
6.69,-0.12549275048672814,-0.055521747683171634,-0.010516704055769053
6.7,-0.02386689503977793,0.10019542428629427,-0.07084679648634495
6.71,0.06267265120125942,0.12628823348641044,-0.03182068604596569
6.72,-0.035733007245368875,-0.1440913716459195,0.0278751849687704
6.73,-0.14834056107721305,-0.10956660447293776,0.10181902262053379
6.74,0.014712235330136181,-0.1756813874324379,-0.0012168525200422066
6.75,0.07467570532213212,-0.041532668129167255,-0.042761782784459815
6.76,-0.03630836983855465,0.06937393038568306,0.13134990893096662
6.77,-0.049314953664699866,0.11770167136911296,0.1570165070769748
6.78,0.03218668918476431,-0.0008498063804943016,0.09086682548488235
6.79,0.04796249655076071,-0.1551394096697386,-0.0013481352309739046
6.8,-0.031169224484580826,-0.037190154192550215,0.12598209073900116
6.81,-0.026323749913288494,0.02631272968617991,0.12882739320289843
6.82,-0.007526222229754451,0.009838254789998177,0.08127968820487472
6.83,0.04383409332568011,-0.08901603304294761,-0.0015709126796330606
6.84,-0.014660307109484929,0.07823410226932885,0.09235467608056919
6.85,-0.0725846503710937,0.1768081624337939,0.16279267932440789
6.86,-0.03844295938095097,0.16739668576136346,0.09476780454047021
6.87,0.02431586483315879,0.11111704116103502,-0.014740412935708847
6.88,0.038731739827390685,-0.04877575768818171,-0.06717094257364392
6.89,-0.04948795548740596,-0.0950927234988372,0.04614264349071298
6.9,-0.059896326404225826,-0.1668458217243428,0.010025000520331237
6.91,-0.06484679676768489,-0.23794452914176248,-0.10497198758834932
6.92,-0.04067557067114586,-0.11397963123602196,-0.13892790540146416
6.93,-0.0324000661933941,0.08684582597840715,-0.10106301871363056
6.94,-0.06128300988792439,0.21524899351231133,-0.026960363550262628
6.95,-0.07834582781777139,0.05467713043530592,-0.05833642422992608
6.96,-0.08490693781212787,-0.1140180795490308,-0.1018634911462234
6.97,-0.09725780313675114,-0.09610148488132104,-0.11865645228887223
6.98,-0.0793251079276108,0.062319285775476504,-0.05243196956729807
6.99,-0.0675888710343923,0.18838620962886793,-0.00512431269554799
7.0,-0.03583606270680294,0.1902667304605295,0.006670059796415352
7.01,-0.031190010142578772,0.14274731905884103,-0.019119852608805703
7.02,-0.0503867638625916,0.07187615267371819,-0.0713466490540388
7.03,-0.06831954523521996,0.06683197954093588,-0.0530962362580993
7.04,-0.08564049847054724,-0.028240257426689785,-0.09835687782756047
7.05,-0.0767100968476464,-0.1785514787730672,-0.12539318636868413
7.06,-0.08209191089921582,-0.30049794295135845,-0.10726561328553744
7.07,-0.05889923497781453,-0.2482474746604265,-0.08528977298116965
7.08,-0.0013151596274817983,-0.11346904225726075,-0.04182457440097582
7.09,0.0348826933337347,-0.010894723743391949,-0.002349086419945318
7.1,0.022196917341997198,0.11771329588704531,0.024420285549671336
7.11,0.07674352831334855,0.203603469121257,-0.01632437567568305
7.12,0.08458262435331185,0.2423695391285987,-0.018039640396368392
7.13,0.054714321235194235,0.1605028208861703,0.007047807930251442
7.14,0.01946742518763907,0.1526995677292388,0.054991769882866894
7.15,0.03997202682028537,0.07883553764949154,-0.004142338164699104
7.16,0.06955605839854928,-0.10309496090675335,-0.0571531114136794
7.17,0.029527656030380187,-0.20095556744760204,-0.050693169400335907
7.18,0.02463339205932843,-0.161701938882326,-0.007569307363535365
7.19,0.07252460699255854,-0.0897667498511407,0.011913101570546902
7.2,0.13510320584159574,0.10389178693290337,0.05005710241723588
7.21,0.16414343702973833,0.12228577343471508,0.0804352152153014
7.22,0.13244344976710185,0.003344363176504869,0.11364678643132407
7.23,0.10442640948839937,-0.08976596391235109,0.08206709307789666
7.24,0.13163388925311942,-0.17155182576527253,0.03780908811701476
7.25,0.05825582742462425,-0.13188998424083306,0.09482651974743465
7.26,0.006686225705148449,-0.015831509759946506,0.10296483046956993
7.27,0.07306590964712079,0.004856513996423608,0.023961361606564594
7.28,0.08098189935887026,-0.05930970934881787,0.013241984929518696
7.29,0.016655577527723495,-0.0386039462143367,0.009008731163530771
7.3,0.017750065338644743,0.1643438369444471,0.007562427026396634
7.31,0.05664260201243494,0.2579542974942514,0.06127381402496154
7.32,0.015257288449114467,0.18282033963695785,0.10247819133955494
7.33,-0.0017911997828638179,0.056642271511381015,0.08382715843396094
7.34,0.06038158263454359,-0.10183962865154406,-0.0038834098210527883
7.35,0.05768079727509085,-0.18105731663694838,0.002284373123252714
7.36,-0.013812179630553052,-0.11344118432122408,0.07818486363253092
7.37,-0.033951146249540355,-0.01482646057783652,0.06873205994203058
7.38,0.018894556602389444,0.019948346684855837,0.00700914298164334
7.39,0.07903641609277588,-0.02298672824682105,-0.02379043058763465
7.4,0.010062128007040436,-0.14722631700300387,0.045926318797693065
7.41,-0.031657425845540425,-0.17661735346063084,0.11550695793941858
7.42,0.06892303866705389,-0.0246340266001134,0.10952025490956244
7.43,0.12316446309615353,0.12346145809275487,0.12683839605575642
7.44,0.05374669378507353,0.11930270670144427,0.1877121730024419
7.45,0.005990099122635826,0.049594338894519543,0.1821419074304844
7.46,0.04843464255235609,-0.03800872275760316,0.1063141127787715
7.47,0.06602416510958743,-0.08653918118683372,0.04993726081272077
7.48,0.053535148990886745,-0.11298701904695009,0.06377906047179459
7.49,0.04737630587941304,-0.09921652731425427,0.17652541832059054
7.5,0.07973182262183139,-0.08424168681480272,0.20130640015344556
7.51,0.13932852845747565,-0.11661124477699933,0.12579325264597846
7.52,0.14500965998395363,-0.1254239267330895,0.08815773019849305
7.53,0.10058275779342458,-0.06730167290555478,0.14351890384107127
7.54,0.0640701099664557,0.04729665637339003,0.21587861227335073
7.55,0.04837980709988093,-0.09267598158357035,0.13199878105319518
7.56,0.05474508490527984,-0.3251909150787671,0.06624640539760437
7.57,0.03715133249727561,-0.23604671955728632,0.08488313733900152
7.58,0.006359400995018263,0.06006880613818435,0.11935171547235666
7.59,0.007239278806213746,0.0968858541927356,0.1099445958551631
7.6,-0.011436060146992678,-0.06197643159049181,0.07806218282400153
7.61,-0.02385405879310255,-0.04328290662960832,0.07520394498399195
7.62,-0.008426180977526749,0.131333131298512,0.09052437147374157
7.63,-0.016685185995307324,0.12780737998683991,0.10607396175721528
7.64,-0.011288009585198704,-0.09507418788165121,0.055406296330093356
7.65,-0.004409352977903076,-0.20338422428272612,0.04175040790550894
7.66,-0.006213723221734757,-0.10061714020705705,0.07838036464902522
7.67,-0.02087381013598277,-0.013064643686345764,0.09194583511628206
7.68,-0.05071082771022766,-0.11700068689402932,0.06987256673883034
7.69,-0.1223206286148174,-0.14486094994913473,0.06893790776572586
7.7,-0.18484610559079356,0.034277674081516454,0.07134335473751835
7.71,-0.16587078603808766,0.20202576507108078,0.02074116692341366
7.72,-0.17555000773441667,0.10742465854783208,-0.013179455864782932
7.73,-0.20643127924429863,-0.01578053683175559,-0.017270482270953687
7.74,-0.23677344226126532,0.08870662578544668,-0.0009708597689465881
7.75,-0.21096436495163015,0.14939220647791934,-0.05231175943574299
7.76,-0.18385092388815968,0.11932301426562698,-0.08047203110528432
7.77,-0.22035681962748901,0.10740808080745966,-0.11793493300911968
7.78,-0.24520591157886307,0.12399512177403627,-0.12297875533044328
7.79,-0.24283990857991267,0.1205735630010124,-0.16376453061099602
7.8,-0.2690520967144641,0.04647541448956559,-0.21731632903578946
7.81,-0.27473958634839823,0.048585795132911336,-0.20915734809535605
7.82,-0.21673743934938774,0.045449282929655783,-0.1987269067183604
7.83,-0.2119478557049761,-0.031236947172508057,-0.1730497641067771
7.84,-0.18526554151827218,0.013045889763054316,-0.14324056012579886
7.85,-0.10289533407124411,0.1037519887399808,-0.12108652463017625
7.86,-0.0324910895361762,0.03704118861607713,-0.10931566795402534
7.87,-0.10483640775882194,-0.05548331698361983,-0.08018327262388653
7.88,-0.03483727934578633,0.021356930012185145,-0.0688308284016932
7.89,0.10747383122511249,0.18450106332483718,-0.06241925090944496
7.9,0.08552545027463368,0.20558654504590743,0.03571477794321565
7.91,-0.048737737050187455,0.1997757451826955,0.16080668212505814
7.92,0.04247209075644165,0.1957417315972967,0.11588900527925927
7.93,0.130439988449195,-0.040341209416375375,0.0021324542742497845
7.94,0.10428976269933482,-0.24005502232088863,0.007625791369920951
7.95,0.05359243915501469,-0.27264681324980894,0.08644314496557756
7.96,0.13715302603635415,-0.08618886624933746,0.0945725391066545
7.97,0.1907444573423309,-0.07490114436858061,0.04794100773662317
7.98,0.22320208293242888,-0.018704640289990165,0.06675403380658249
7.99,0.21706370860686358,0.04327749149141223,0.15195171016505704
8.0,0.1822119638446335,-0.03538221219364444,0.17756121987463794
8.01,0.15343972028897185,-0.07784215351779444,0.1608376825029695
8.02,0.15270962579825195,-0.02810413753983806,0.10045389303418419
8.03,0.13752975114847982,0.025699096087668762,0.1656101359007808
8.04,0.15596205233699564,-0.06404072391732585,0.11755641306271504
8.05,0.16233117154679713,-0.18282265829195257,0.07099595630545298
8.06,0.19071581166530743,-0.2520456613760036,0.04469734465802274
8.07,0.1812276622448389,-0.20924671317329432,0.09858163509147307
8.08,0.13819930352225937,-0.1294987400726598,0.12427022032867897
8.09,0.1402291873307627,0.1543793575489608,0.1159509439552702
8.1,0.16435854594040478,0.4477919714999442,0.10283924510355376
8.11,0.1739127401480197,0.57844281761754,0.1520980027622541
8.12,0.07938666458374542,0.2873391296277933,0.13058323183824863
8.13,-0.008769792839319179,-0.22486270015649132,0.014667577138535885
8.14,0.0066231266989045835,-0.5616640218803755,-0.12813844676420136
8.15,0.0026598813932230698,-0.6945952994283979,-0.14460302099041622
8.16,-0.030822046120124777,-0.7146778158232294,-0.08115345249447704
8.17,-0.045910893323950236,-0.4917881967716214,-0.027482138996146592
8.18,-0.029307259194909528,-0.1705328101241226,-0.044992920813981686
8.19,-0.01996242441857315,0.1706308976372156,-0.05076675983320208
8.2,-0.02438168642885926,0.43438190446789426,0.00481305083629013
8.21,0.01101780891588537,0.5765144737117869,0.047342730334131194
8.22,0.023913948037046252,0.3961597256165691,0.09134478596305125
8.23,-0.03342052306343205,-0.03728518340081698,-0.0012337194882769294
8.24,-0.06950211453865181,-0.23313554480327897,-0.039038077918112445
8.25,-0.02914148075022905,-0.05177946884408005,-0.004913972310335417
8.26,-0.024452732011328648,0.028185252859092003,0.04902644401285265
8.27,-0.04677663651763698,-0.10743623934013145,0.030016374552333212
8.28,-0.08614678569797447,-0.1382317938953464,0.043753166943182084
8.29,-0.10339309203941757,-0.06635624091557298,0.030902821408843286
8.3,-0.1317297043078454,0.14552895251125791,0.01878850981864752
8.31,-0.15467989473616953,0.24354665251868352,0.04522484704653032
8.32,-0.043531858330642305,0.11421777740321984,0.01912870986071084
8.33,-0.054928213329464765,-0.16242291787173524,0.03223362769356959
8.34,-0.0575484129743395,-0.11686998713765251,7.873797214515003e-05
8.35,-0.05675587364853421,0.003878792021000814,-0.01561505058224059
8.36,-0.025146667181471485,0.23290913012135694,-0.014651859548463606
8.37,-0.14403113278593926,0.12624193013178434,-0.04283783448310078
8.38,-0.16225865573424375,-0.01587233330599079,-0.09800445127173904
8.39,-0.19124675860323498,-0.06547796617239005,-0.1197481624090122
8.4,-0.21339534948251054,-0.08654116916378941,-0.14770466869167873
8.41,-0.1997543751255111,-0.08938869827326941,-0.11813644149927757
8.42,-0.19860625126923737,0.05645924787691105,-0.12285354901095288
8.43,-0.14285007339000086,0.22473706841026286,-0.08598147345502939
8.44,-0.0931647646021184,0.4128293793296325,-0.08392749102597219
8.45,-0.12203591828025931,0.3174573135051499,-0.0834939943424587
8.46,-0.1873627556170444,0.05579269898570257,-0.10173389964745887
8.47,-0.1768405230647966,-0.002654534721150414,-0.17065349696760976
8.48,-0.12120017944853416,0.01743503274097831,-0.1885774539341572
8.49,-0.1796585577532636,0.029362833118493806,-0.034302264315599025
8.5,-0.20443872936885843,-0.10050924094761149,-0.026156578556138156
8.51,-0.14034214905153364,-0.022813417605186185,-0.04297396412884501
8.52,-0.007288707078874693,0.013069693052165316,-0.13633966676431244
8.53,-0.01831548100396148,0.08517929464851773,-0.06581069010006133
8.54,-0.11485721472262828,-0.001618457440693595,-0.032903665325840166
8.55,-0.06384222968234805,0.043501889950174684,-0.050252787434916096
8.56,-0.038105876659050825,0.208795472132485,-0.04104231467745108
8.57,-0.008052662899721615,0.17796674034736515,0.01691371957586088
8.58,-0.07691450202825433,-0.03982998177898119,0.06038074652300196
8.59,-0.006973013399857993,-0.06574023344960776,0.024311362588137413
8.6,0.010942087834167651,-0.07653636637635144,-0.01056284004798133
8.61,-0.053308683177491614,0.025596594285092953,0.07351646288080382
8.62,-0.07292642678697316,-0.006082021990639375,0.06780949694313315
8.63,-0.00310452305609533,-0.012250233501335257,-0.0028381946531407395
8.64,-0.01821360351431572,0.01745624739710422,0.00386424024137481
8.65,-0.009446480500214967,0.017525905936409687,0.015133444869616614
8.66,-0.006236172912134315,-0.021967258090648537,0.09343757387284635
8.67,0.022800841519879753,-0.03504060438432865,0.05236294062767484
8.68,-0.02800646077000711,-0.049196843353591625,0.0332428897867894
8.69,0.010248059303419594,0.12575513678502367,0.047769182403806974
8.7,-0.03128393526477138,0.05195919343886533,0.06020250780432956
8.71,-0.059935591482976364,-0.005456640662458858,0.042815488711046616
8.72,-0.09940408600899142,-0.17611971977647228,-0.009676362622348247
8.73,-0.062060140549317314,-0.28358764870059017,-0.03391418472389198
8.74,-0.06786511911763515,-0.21474160861533184,0.011351705868275707
8.75,-0.08074099103798742,-0.02886677936296827,0.0073647493044426155
8.76,-0.03725701489187243,0.2302265927717934,0.06441216890502137
8.77,-0.09309052431245995,0.0847265542727273,0.013884789671350239
8.78,-0.1420368532843237,0.06837437801818436,0.02946557851985925
8.79,-0.1313901891105429,0.07721900850837252,-0.0816186615938802
8.8,-0.1875408438551181,0.21017551693192096,0.01271973622768782
8.81,-0.18297706792390048,-0.012039532584222053,-0.08363605980275068
8.82,-0.13903481117275224,0.04655553247552809,-0.024782625342156802
8.83,-0.13973414637734316,-0.008289035799459925,-0.07762669851676327
8.84,-0.10696325105611636,-0.002387410770624179,-0.09125712952490808
8.85,-0.11715905881142175,-0.2331778621073328,-0.055800031961152734
8.86,-0.20881413504877042,-0.2218673445194133,-0.0675963589636163
8.87,-0.34245507562990596,-0.03945161120534415,-0.033009682781397466
8.88,-0.23899860701785341,0.17809776320551196,-0.16955757413480574
8.89,-0.20841460901962858,0.5288456293353153,-0.12262085320160632
8.9,-0.20642086618493505,0.36501041914304316,-0.12678575478839108
8.91,-0.2911189286379624,0.09083860407716972,-0.02243342240647637
8.92,-0.22019309443113103,-0.15674134528318517,-0.16278568444111283
8.93,-0.1769213680480788,0.10325082218608575,-0.17739628219364237
8.94,-0.10872165921325609,0.13316382371194618,-0.14839521122024385
8.95,-0.19137817987385858,0.15585721405640726,-0.04579363303689867
8.96,-0.18019876720426856,-0.07007040955562806,-0.12919353937377476
8.97,-0.16895409394149064,0.007856076528115995,-0.16136622010598373
8.98,-0.2249521642778354,0.01138676689833478,-0.161123319604681
8.99,-0.16250165808351671,0.12587446332964122,-0.15004624991662624
9.0,-0.2038939724024694,0.1607095675864866,-0.1148427998696258
9.01,-0.13462298679987658,-0.14534931584988156,-0.18586055143088426
9.02,-0.22699755413938377,0.10332817565015057,-0.0845528107297413
9.03,-0.12460990712801205,0.26607741196908574,-0.1369065434852243
9.04,-0.18397533230394453,0.12193278684191064,-0.13995134953240196
9.05,-0.08909346148372169,-0.0944768063055018,-0.20161066338745914
9.06,-0.00613073125336897,-0.08570922796545635,-0.2025613729339473
9.07,-0.04903304369323425,0.13640847301029752,-0.08786451320508053
9.08,-0.136334820148019,0.11395615158517286,-0.029175849630666578
9.09,-0.06529537223608799,0.1067208487408878,-0.09015819775307625
9.1,0.026789499731347803,0.01994329998508622,-0.19866107367793634
9.11,-0.02846401463356809,0.04198843372190802,-0.170605748854492
9.12,-0.06089542070697788,-0.00024794516250166264,-0.08065533508529836
9.13,-0.02236048046557525,-0.04756818318015846,-0.09585110269326197
9.14,0.025500202563984116,-0.248028911285763,-0.16292209546485983
9.15,0.12483150421403787,-0.10804993519002141,-0.1805843909661264
9.16,0.08470671541415334,-0.13149899049773214,-0.04634852766594784
9.17,0.04467457648433235,-0.05826570113337906,0.03395538724413213
9.18,0.07576110947178302,0.12318088030106404,0.03896506635769996
9.19,0.1960844935001407,0.24475467035366363,-0.05124881235639208
9.2,0.12472633969970051,0.24298386696931915,0.0774435783852648
9.21,0.014141239549770432,0.14369220108318184,0.10729383189082829
9.22,0.0489964539795794,0.18064465451631517,0.08575698414967291
9.23,0.14580955801609716,0.007299485555749809,-0.05104469867243701
9.24,0.12558941085457453,-0.17924484890576087,-0.03538498633949288
9.25,0.09553816997876557,-0.3444761283694349,-0.027363967570121783
9.26,0.11320917873808546,-0.20540424195715637,0.03285046683301967
9.27,0.24615035885073258,-0.08933122547592226,-0.02681122991824591
9.28,0.2244108008859643,0.00013093727764472977,-0.021339683191515094
9.29,0.0887802035371161,-0.01269512226151541,0.05558280867866373
9.3,0.10770484838267316,0.07344453216668258,0.006691481296479276
9.31,0.12448805247834419,-0.026327299103217634,-0.09025809728857767
9.32,0.08867769550342917,-0.07832154679280989,-0.10283843111056493
9.33,0.011502829016960014,-0.03349349328445531,-0.08649043999843069
9.34,0.09451407519234917,0.0918187732760618,-0.08024004647488674
9.35,0.06444974312510972,-0.04927538607229483,-0.09171841140352253
9.36,0.038052601117464425,0.09092344943963475,-0.07990834699708728
9.37,0.05462132592072036,0.25509698325516184,-0.025785392247834108
9.38,0.13075228658539256,0.07679955290792126,-0.09332050900586938
9.39,0.021490580197233145,-0.27458552676369513,-0.09823303541562821
9.4,-0.023359641270531584,-0.41669315394851075,-0.13299028767095375
9.41,0.026093900393335086,-0.2834561306331464,-0.06844977498365724
9.42,0.10379011633348842,-0.20634191971300578,-0.09554733052576866
9.43,0.06977479508151176,0.12687378065478747,0.02544582143516627
9.44,0.054933933621404626,0.387335543811292,0.08813543173265351
9.45,0.1556602554910521,0.3394012276033364,0.03089434609261646
9.46,0.08868912164475232,0.08789492763959246,-0.030188823495414335
9.47,0.030909701073750243,-0.08621680007344311,-0.048117049635724725
9.48,-0.024730167680132756,0.060714831046935494,0.029521974397584597
9.49,0.019007505187162644,0.017961923158658293,-0.03585965336656858
9.5,0.007031403124013116,-0.1993999564225463,-0.10664014509484958
9.51,-0.010699020128512421,-0.14973891603038694,-0.14408972159939346
9.52,0.006500335162552241,0.06136025819589958,-0.13608542018414962
9.53,0.020804846294580945,0.29705036119667433,-0.09274037303320481
9.54,0.00027254554773542024,0.24949109015749377,-0.09663310273574897
9.55,-0.03960352045926114,0.08887321574094822,-0.15458921710639317
9.56,-0.06101825783305165,-0.1363638874623021,-0.2239468157508735
9.57,-0.09970840117540634,-0.12481339735547786,-0.2268333855473083
9.58,-0.08452639944963303,-0.1076097400894895,-0.1979022348335543
9.59,-0.05171809631725523,-0.09014222055602224,-0.2186124115602051
9.6,-0.04529976742425673,-0.05577165662646343,-0.1658219939813739
9.61,-0.07012168058071949,0.10374920474957537,-0.1335582524442344
9.62,-0.042750544772811136,0.26566734636166733,-0.14931735305659719
9.63,-0.02897611588167139,0.1840771963039385,-0.13000793600821867
9.64,-0.015128159182415106,0.07529757641122688,-0.1187653281377449
9.65,-0.001214015162486699,0.032304921163916527,-0.1350340336793245
9.66,-0.012728021971093852,0.06617508769650426,-0.09785950905288972
9.67,-0.04642490669336914,0.028255579601197553,-0.04650387848470084
9.68,-0.057550230468780376,0.09492673087051477,0.015603668738573651
9.69,0.022480157598586886,0.07232640203347994,-0.06131078458479073
9.7,0.0462190232646195,0.02604592130826253,-0.10626043034295564
9.71,0.052746367176628034,-0.1571529855589666,-0.09882324001450385
9.72,0.02790561053483045,-0.1614994323350335,-0.03740104305853878
9.73,0.022102407956730692,-0.027431453163143583,-0.03764215745137115
9.74,0.07501827330918909,0.07678750418832318,-0.03948849125935331
9.75,0.039205298235296004,0.002662743370413295,-0.010715969506266564
9.76,0.024648008918808775,0.05499788848222262,0.04149258855105059
9.77,0.09418200183151476,0.048222671232978805,0.05233046526580004
9.78,0.12718861030545994,0.0591172511936302,0.030406497435879365
9.79,0.039324769765607476,-0.08468432262879763,0.05868074993739049
9.8,0.07628555213623821,-0.019902695552290278,0.07417160986113712
9.81,0.13547177222386264,0.05674700246651772,0.05099898560838451
9.82,0.17902771437914933,-0.039453536209473346,0.02872065005554749
9.83,0.14999223899850184,-0.032269066855775574,0.11153917306328309
9.84,0.18381368904465992,0.1522114324481758,0.18553291801457342
9.85,0.2157798356944064,0.11274933477924705,0.1796926439588711
9.86,0.22776357972944034,-0.06251213365823498,0.13121871123265855
9.87,0.18251022169190795,-0.10333127422924812,0.15535106549623195
9.88,0.15580507065123733,-0.10283314194569484,0.17618130230811346
9.89,0.18819806984499782,-0.19420877425195257,0.1604566735618145
9.9,0.184922760224694,-0.40369024228872513,0.1416081178144837
9.91,0.21285618004863058,-0.41252480943997005,0.1774085933782218
9.92,0.20879304241984226,-0.2425130384622285,0.2204903231975717
9.93,0.2033386784236724,-0.02552019923171096,0.2221315686375437
9.94,0.15599158891522008,-0.05807757684637899,0.18358599414630675
9.95,0.10666706641806274,0.009840939962890802,0.1916727193428529
9.96,0.08237347731785755,-0.010306299667368055,0.11747052306777135
9.97,0.06821000058254838,-0.0020428139126529373,0.1447679625783295
9.98,0.08833126150052821,-0.03860945873404803,0.1261707862765845
9.99,0.1382874754857412,-0.13407604886767538,0.11177041047454551
10.0,0.14774426397756654,-0.197465631356268,0.09259341697047815
10.01,0.14539041368032152,-0.10565024970850118,0.13082762915456497
10.02,0.12016586927058956,-0.12754200897256052,0.1349037399612584
10.03,0.07385269851465331,-0.1729198588612771,0.12113414236582003
10.04,-0.02379331316557926,-0.12087723309717777,0.08286017684964653
10.05,-0.05472623243929989,0.03517791788235952,0.014297732271979764
10.06,-0.056842612248151916,0.23518583242783922,0.028340470666402662
10.07,-0.06578657941713972,0.20364654506979044,0.0045840033897159085
10.08,-0.0531744770037701,0.012862292938912837,0.002392728165055018
10.09,-0.01305388912266715,-0.04585319547408761,-0.02605361422103586
10.1,-0.009860849645678061,-0.0027654507893542643,0.025383506965972285
10.11,-0.031044732464049363,0.16410826335506845,0.08687753887250552
10.12,-0.05379034533805059,0.23549904582290923,0.04131636015410603
10.13,-0.07692620060703473,0.055477604144716454,-0.0073159265990422094
10.14,-0.11356973300534212,-0.0792783762828567,-0.025300380733660123
10.15,-0.12467079226226992,-0.12715866537804346,-0.032411024185971096
10.16,-0.13108841991224157,-0.10205962142336163,-0.03779546951971787
10.17,-0.08221746910666013,-0.10961027228770574,-0.05453431202108936
10.18,-0.07513560493680056,-0.04090129166278732,0.00717125704963094
10.19,-0.08869695711709401,0.04300536024245193,0.07456339064105359
10.2,-0.03388933641107625,0.14558416910574312,0.057635173150086205
10.21,-0.005578271178756961,0.11002948616183574,0.03840835497803497
10.22,-0.006981356143747527,0.039123359289509496,0.04972887162608575
10.23,0.031175688840168785,0.0008225108547940552,0.02179503013850687
10.24,0.07032666116582022,-0.04285052309770133,0.00982363152243192
10.25,-0.049312175436139985,-0.0811287936148178,0.08688146595877844
10.26,-0.141916201240825,-0.011133825594057057,0.10620134571716756
10.27,-0.05954040767791294,0.07174136329628714,0.015855441215136146
10.28,-0.0058775588446455355,0.04981021562467342,-0.09174811365480723
10.29,-0.11464774724880042,-0.030638126589988757,-0.056488584966293325
10.3,-0.18371613111482996,-0.004393222291488028,-0.013281932494663206
10.31,-0.11362472117537813,0.024421082038911298,-0.08206703545706176
10.32,-0.03963227152157559,-0.03741346170301787,-0.1399759909089061
10.33,-0.027782462023360713,-0.06256812401931663,-0.05247383674566792
10.34,-0.09226357811487668,-0.02546123735909547,0.07797542790568318
10.35,-0.08882032811707732,0.12947825307480426,0.11886148413330254
10.36,-0.0025250433258998312,0.2334473372485472,0.05343179482113757
10.37,-0.00907671032267766,0.09975775261530356,0.017178534538701846
10.38,-0.0996846092031069,-0.11308508928733799,0.03122899909115823
10.39,-0.12563284523931595,-0.12731721236215582,-0.0064350363115325444
10.4,-0.10028757578746815,-0.059854583376439084,-0.07637817669655289
10.41,-0.11526821715521808,0.017780604111512107,-0.09591282522971821
10.42,-0.13427617288890206,0.17265804658529066,-0.02584368489295282
10.43,-0.0691046093915155,0.22000930234609833,-0.01917049225526587
10.44,-0.026824992768094892,0.12125829163620173,-0.05047764892564695
10.45,-0.06498937182197181,0.040367856319522284,-0.08165051464302714
10.46,-0.10851382674513156,0.07337520056137314,-0.08110594782146317
10.47,-0.11276784325858387,0.07276169555522151,-0.06566227220758744
10.48,-0.10465536348258862,-0.08937643587735251,-0.11526665248847219
10.49,-0.11047071952345548,-0.1685058391768424,-0.16912239328994058
10.5,-0.0835904418363831,-0.12940773986294596,-0.2105220682236843
10.51,-0.1025696043574461,-0.06697952247807341,-0.18927389230059846
10.52,-0.12499947848329368,0.08002066504035338,-0.15704153983614016
10.53,-0.11174159044737986,0.15428314644079563,-0.16059002428996508
10.54,-0.10482708433248705,0.12534448463841985,-0.1397565963458305
10.55,-0.08971941132437247,-0.017379800027056795,-0.1669981818307464
10.56,-0.049465325400271716,-0.064324604307029,-0.18030829055507255
10.57,-0.03221862242767424,0.07309704805021991,-0.09462800811387533
10.58,-0.01666482721885843,0.09564233978538389,-0.08424163183772537
10.59,0.04116886140115719,-0.03543159462902119,-0.08592755245342895
10.6,0.061184752238246244,-0.09357167690011754,-0.05938411108813814
10.61,0.031249038109064764,-0.040193395272947297,-0.038168588288418834
10.62,0.013827968153607718,-0.01811672348670002,-0.06359623252771729
10.63,0.0122962590742716,-0.0059397380233383555,-0.05610892089304985
10.64,0.004314117008753299,0.049410827452793196,0.009250173476128415
10.65,0.03597683303619205,0.07691277266503196,0.030421425459271248
10.66,0.09568437280692085,-0.0685118218944452,0.006751706484676084
10.67,0.10518669538935828,-0.12019242187215878,0.008191884794419867
10.68,0.09657462236983677,0.021514331442817582,0.04821155260823353
10.69,0.18521011829636297,0.1803211202647031,0.0746092052748832
10.7,0.22862130192509503,0.15352266080768695,0.07053224382428176
10.71,0.17454504066806795,0.019266207432547377,0.05636680720918726
10.72,0.09366881751899342,-0.06195697771403664,0.03986954208931894
10.73,0.08948246791246733,-0.16449665724304857,0.0015663997031810605
10.74,0.026700113624300338,-0.2717073890632,-0.022266938725514274
10.75,-0.02942133649117755,-0.24783211352676876,-0.021785683430865566
10.76,0.028500934978908984,-0.13454649005729655,0.014942075810175025
10.77,0.10704148111824252,-0.04700283667474818,0.01167694654749525
10.78,0.09574382678941845,0.11611185501711636,0.07480820933087257
10.79,0.12379254844353305,0.29427989987811853,0.09288356473702651
10.8,0.18950981024740127,0.18882993614980856,0.0940759290990404
10.81,0.14875534585467368,-0.003139064751395154,0.07642163593566484
10.82,0.06553995900173339,-0.05442780841667672,0.06696227176606795
10.83,0.038271098151253784,0.00012229867499829954,0.0180437835875011
10.84,-0.021888138473659086,-0.0227487606485705,-0.006122767711509878
10.85,-0.0902959652355844,-0.1072785056568999,-0.03644631191551072
10.86,-0.11430941038570125,0.1209015470256493,0.007203151005455276
10.87,-0.029521028979937067,0.18260478151251114,-0.03648984110883959
10.88,-0.0009616255911327323,0.04419351059033695,-0.07345337397823279
10.89,-0.08673926926290018,-0.19131750751063256,-0.06353280925318208
10.9,-0.13792005669376675,-0.18138250360990213,-0.03905040845101967
10.91,-0.08082375628235486,-0.05119839911625955,-0.07667764821989204
10.92,-0.06860504137678876,0.09252745844083886,-0.06395456127838987
10.93,-0.13394787318588436,0.21702201457729628,0.0013040869864258773
10.94,-0.09350930604434704,0.526626779516834,0.012500398566174737
10.95,-0.014473351747152134,0.4744956139498275,-0.08988135918504524
10.96,-0.10255970709417303,0.1735490049356225,-0.20128727629942098
10.97,-0.3208510248108861,-0.019175873829835623,-0.2042533907867537
10.98,-0.35821835917610356,-0.034458941575526446,-0.24652619195922323
10.99,-0.2513453394131981,-0.00026673017359446483,-0.3314294238950963
11.0,-0.20603086992740993,-0.09424895122438602,-0.3116307582656881
11.01,-0.19287571130154718,-0.019145504349422138,-0.21184029859061426
11.02,-0.09870925099996325,0.23680655654864916,-0.11717054539651187
11.03,0.033798453844501516,0.30089631835192193,-0.1092756296991099
11.04,0.09851816038193201,0.15885131820422912,-0.1021285595973177
11.05,0.06037213442666841,0.020166868091654435,-0.045510145386340156
11.06,0.02101574442434893,-0.09343784059140729,0.03480396975511359
11.07,0.10278542459678858,-0.17872033933856443,0.020546212553368807
11.08,0.15920182472729466,-0.28812927272129707,-0.04468704723383056
11.09,0.11678666382703765,-0.31592440941042615,-0.006821515412262326
11.1,0.11356552047792232,-0.11835333662396344,0.09196020552941915
11.11,0.24526235964115028,0.1544555658835237,0.1514756902348862
11.12,0.30204242366068723,0.102212501868375,0.16216888101930757
11.13,0.28422483975072743,-0.20303388595434818,0.15703721829393197
11.14,0.23050989427224486,-0.2833245171303645,0.17674809302171332
11.15,0.2572362084044862,-0.1048441537387893,0.226545982743711
11.16,0.31483683507022125,-0.15202893518949367,0.21236396128757828
11.17,0.35682050606224364,-0.1668693855959215,0.24396591361106992
11.18,0.3738405313648753,-0.12765822060098703,0.25806094598909274
11.19,0.37478593858149645,0.00728292756181723,0.31012284425408176
11.2,0.33358485183592623,0.005766097724085676,0.29170097838908704
11.21,0.32328780407927976,-0.07527984713935475,0.25525628300722647
11.22,0.24934096902180514,-0.15565594084647147,0.23971587255774524
11.23,0.23264880731447957,-0.1080634984671352,0.22263015188150376
11.24,0.24811800911559642,-0.1060054567061847,0.20148342565397653
11.25,0.2729292656350276,-0.13585779564101133,0.2051595198704179
11.26,0.22809524484794677,-0.20049965457033772,0.22113403503332496
11.27,0.23991412753211902,-0.08279598690996147,0.2614318376878488
11.28,0.21743927140648353,0.009614188379940205,0.21740418601201805
11.29,0.2537059231897618,-0.017353344235407592,0.16007628669151008
11.3,0.1876553461847519,-0.10062877641251985,0.17758663156896864
11.31,0.15134964178155438,-0.12790945448317526,0.2019412202293876
11.32,0.12052742621516721,-0.09088948933374001,0.20320689319969396
11.33,0.12167622325919358,-0.1603801294581093,0.13634612266236446
11.34,0.11081791129012944,-0.1972413740644513,0.15733900811552456
11.35,0.08391493403820648,-0.2191302958775878,0.10672370822044619
11.36,0.048002439139456135,-0.15251049372396705,0.13833360339494546
11.37,-0.03040650129536994,0.08511715447950285,0.11237087386646638
11.38,0.06383615918262198,0.39672963688054014,0.13069796890568158
11.39,0.06679691874622096,0.3486422615975928,0.11622078346600753
11.4,-0.006090654494063186,0.036054830773101,0.08711480036198513
11.41,-0.012899476802056496,-0.16871835237874833,0.018256992588136334
11.42,0.019621391512734877,-0.03942200502693815,0.014916616337811868
11.43,-0.12994623409501643,-0.06846169802682393,0.09952274755804684
11.44,-0.16490624217282046,0.09320150970559216,0.08584371851811039
11.45,-0.061434374145811314,0.041603440277448854,-0.020414458602088955
11.46,-0.024067438183059633,-0.16247500732908693,-0.13949146465328016
11.47,-0.19429041295514662,-0.3069300649810166,-0.045562788153782896
11.48,-0.19152608716522607,-0.13355904737677643,-0.026081660604217467
11.49,-0.05833383069989764,0.09025356731735591,-0.03130544018264587
11.5,0.03918911603884766,-0.011160705447282043,-0.04309632405496887
11.51,-0.12343134705491714,-0.07596039999142697,0.06399417570204395
11.52,-0.17308713493769545,-0.026418276922266035,0.10103949948824127
11.53,0.012197513598062239,0.16975436769624255,0.026397871662975813
11.54,0.06452639480786707,0.19265031767536156,-0.024194403269575383
11.55,-0.12723197538189424,0.09851783345013067,0.12158444690573758
11.56,-0.1619540008351321,0.07077493096611867,0.12372584860540392
11.57,0.021373760401622387,0.1341637706191911,-0.002767485148911608
11.58,0.03623961451861619,0.06387846757812962,-0.08622482924830274
11.59,-0.07201898696666774,0.15382245798541982,0.02660414260084694
11.6,-0.07679052002996228,0.2419533941476346,0.0867813256096592
11.61,0.009530957925643515,0.04293805026616703,-0.020236588616969375
11.62,-0.017675964167729628,-0.1118531540609295,-0.10232485534936601
11.63,-0.06744628243101092,0.04436049661677029,-0.062209828853629766
11.64,-0.14463281294989905,-0.0681511604068326,-0.07417753166387717
11.65,-0.08586792411814417,-0.014799912327512791,0.026433153813984436
11.66,-0.023071653742821083,-0.19354451713193427,-0.08880693703526309
11.67,0.02851757369680808,-0.2002231511677498,-0.07471649325930309
11.68,0.037042115331428316,-0.31430659808383415,-0.057327574587589976
11.69,-0.05521231138992035,-0.07283939313532219,0.08478869938139628
11.7,-0.04246732137284848,0.044690959081621996,0.04931009190908019
11.71,0.0715404286874221,-0.05821161510800214,-0.06774655299698334
11.72,-0.011019099765530204,-0.24866446163818712,-0.09331823236423745
11.73,-0.07227799824328833,0.09135287109843422,-0.02029155372389716
11.74,-0.04811832817739862,0.300880461289512,0.038910981942604526
11.75,0.0026761733376452226,0.16792248244822555,-0.06327449100847331
11.76,-0.06777347748594931,-0.15747691292854119,-0.06844277542255363
11.77,0.0006205418363306848,0.07851048045350852,-0.04321634521883977
11.78,-0.019278301256981763,0.22111435101268487,0.047761223950856024
11.79,0.022186649202108652,0.048466027541222416,-0.062363729021975546
11.8,-0.06076002949283514,-0.03129355575500241,-0.009258826333568528
11.81,-0.02900899931960493,0.008794159146824819,-0.05466689417579127
11.82,-0.04221790053658928,-0.09069864141296334,0.020584524894263805
11.83,0.015406498358957823,-0.20068948765439512,-0.009498847753885547
11.84,-0.015533138907654936,-0.08392278540192345,0.027016259251545185
11.85,0.09078365149126325,-0.06333465506240055,0.02689468232125089
11.86,0.07439558272163237,0.22522282850032965,0.08411717440663351
11.87,0.0729445476008253,0.15597656215988495,0.038293822800252994
11.88,0.07546097983105218,0.04755156967194952,0.08997318048162038
11.89,0.045866645918029685,-0.453067628488988,-0.01922944852211173
11.9,-0.05029863727844199,-0.21690999760043178,-0.05486278732404421
11.91,-0.12025248982878872,-0.03864658317364559,0.007775231477008481
11.92,-0.018459550619788392,0.2547851054077002,-0.005691232533334069
11.93,-0.049572335330546925,0.09223764277958574,-0.02946954999048767
11.94,-0.05817263608761848,0.0020278348365100037,-0.10852342129790228
11.95,-0.10638374209910492,0.27545607395206806,0.022967398162276113
11.96,0.044846685344650014,0.49399256377453105,0.010049431153899079
11.97,-0.07279176346302844,0.11162298918865211,-0.04595761708506321
11.98,-0.15510979827347846,-0.3772128903145988,-0.14673700779293322
11.99,-0.11497076435188633,-0.19949800476201002,-0.10389622226320798
12.0,-0.03322864048484674,1.882216065800192e-05,-0.12473308351934548
12.01,-0.11779881649883023,0.01863206045099382,0.012359016195290607
12.02,-0.15879025374232458,0.07849820945292782,-0.013868324383542484
12.03,-0.07748155192522983,0.1288220634719122,-0.043923500190837614
12.04,-0.0005616336054430456,0.09306605569586489,-0.11182741861563199
12.05,-0.07181128269615904,-0.24326764389724856,-0.04901669906727458
12.06,-0.1446420711739752,-0.1044876418083333,0.04622009298437023
12.07,-0.0591544825746972,-0.12682445773677664,-0.03529558771009944
12.08,0.02926589215943587,0.009388169924807984,-0.1385781011527108
12.09,-0.0905379413558416,-0.06533960483334315,-0.017386917625249194
12.1,-0.16558310837640636,-0.051981348364894396,0.07154689247372502
12.11,-0.09360865969504123,0.28526762350552043,0.0038711005781261747
12.12,-0.03599457704440905,0.376435594719578,-0.06921441397113132
12.13,-0.1887750821707648,0.13935731722101585,0.0851700334211683
12.14,-0.21556203330483723,-0.10538343674450519,0.01545075289333668
12.15,-0.1659171404344233,0.03447887231472902,-0.049045578881541305
12.16,-0.0963597645723153,0.2550965400944391,-0.09063875787765054
12.17,-0.08144546387187265,0.3007971607637987,0.019008647790469037
12.18,-0.05726138605945316,0.18529009372857222,0.07196399172848267
12.19,-0.09179245628646089,-0.04037378573392863,0.00016739375235902854
12.2,-0.07314729461283836,-0.028881540377113133,-0.0363022555825361
12.21,-0.06609877410384041,0.05509510930025092,-0.0497086395633531
12.22,-0.017343245057394388,-0.08006992247875898,-0.07055686163326666
12.23,-0.04529781450777679,-0.19521226469845998,-0.013039317723113092
12.24,0.006974566679328179,-0.23266072659707387,-0.0002946700191779324
12.25,0.03800060399838417,-0.06641463214744417,0.056923962566784725
12.26,0.08917540082633069,-0.029156026296486226,0.03728088571312889
12.27,0.07839566717074042,0.16829242464329636,0.09760080072674626
12.28,0.10491877180892786,0.168881924774201,0.10354784985385947
12.29,0.08420321684028914,0.047842173750494536,0.14684863516061558
12.3,0.06861714115608014,-0.2495439193137849,0.11139785243272372
12.31,0.09259258427831916,-0.18468142599954032,0.09714447401663316
12.32,0.132479518718679,-0.05833462061799733,0.06639198051627457
12.33,0.13631299221753848,-0.06560227029106627,0.1168611703513501
12.34,0.10854359661358454,-0.18467177362009865,0.12800479179316168
12.35,0.14497776289090422,-0.16204385713801098,0.12778763847783667
12.36,0.14316230912703823,-0.21395399919365604,0.07731403885216839
12.37,0.0928477438209948,-0.1252902685873369,0.12999867030975126
12.38,0.030075951744631523,0.03157879365235881,0.1805868056265498
12.39,0.053271199387914095,0.07939672729528552,0.0747193269381293
12.4,0.05890986183178984,0.06421382119515653,0.07368335487560641
12.41,0.036651984942686365,-0.04308067477590068,0.022619997886584742
12.42,-0.00014794832707232304,-0.08647503199150895,0.09635422173071499
12.43,0.02742864624389644,-0.04150543584402186,0.03348811674324667
12.44,0.08774751166557965,0.08959787540665637,-0.001878599265588959
12.45,0.04981208249257392,0.11993797581184734,0.049339309068259715
12.46,-0.04031786579890123,0.0844930617948426,0.08270063423561526
12.47,-0.04656535971706603,0.012552852838666745,0.04504852247904681
12.48,-0.0074655467229374495,-0.0019764911170444543,0.02214642474197086
12.49,-0.03877439475518831,-0.03493732531697288,0.03699215436338336
12.5,-0.07002637796507055,-0.06879776236553793,0.04050278550231246
12.51,-0.011955199934445335,-0.2562453740475852,-0.03968661313525756
12.52,-0.05449347423477088,-0.09686298905273145,0.012859066264577905
12.53,-0.07616437645521083,0.14726391456008225,0.06979988473403874
12.54,-0.029474097467746336,0.26287306382802644,0.05736796167600489
12.55,-0.062484703516064694,-0.08429444259183387,-0.02672312168520978
12.56,-0.14857137774318352,-0.25179396451135355,-0.03354092057450024
12.57,-0.14144964303859445,-0.12457376586137467,0.027963018126359356
12.58,-0.08468073825048057,0.1307383366078122,0.06536891215217383
12.59,-0.09189267583644381,0.16710866062238228,0.10827216932409227
12.6,-0.05192635780490788,0.19301483688716256,0.12513630119266853
12.61,-0.0024059450332226833,0.05189687181321302,0.059084474246054584
12.62,0.003952758707870834,-0.20123638150871206,-0.015711965843759536
12.63,-0.10381713060069896,-0.23093978929206732,-0.0029533347786899686
12.64,-0.1676501790233077,-0.04474272212597159,0.0026405666955196584
12.65,-0.07836800318174864,-0.08758126978123691,-0.07473670607562798
12.66,-0.06615252350667501,-0.041808297624072906,-0.0447828771549719
12.67,-0.09622904488691753,0.06511746719560337,0.0056731932657017444
12.68,-0.08200395728986293,0.3187156118440236,0.0036171659579869184
12.69,-0.015968860176866568,0.28502043289971324,-0.07226459257067816
12.7,-0.050389422327820635,0.19220330487052176,-0.04199237063372262
12.71,-0.1953416820469044,-0.002837327128176095,0.040040443390081296
12.72,-0.1693531453468745,0.015781309886821807,-0.004833325891425686
12.73,-0.04473945489128604,0.13364565817293148,-0.08883255896875931
12.74,0.009722245259366888,0.10594449042440632,-0.08337390284851003
12.75,-0.05154622555701552,-0.07343333804689768,0.042568208945024257
12.76,-0.0031459015534813623,-0.13915290248582335,0.06659146896299492
12.77,0.04438688363065827,-0.08778347176805903,0.02043830486309503
12.78,0.017693868428885907,-0.0601806532698643,-0.038925394898422304
12.79,-0.08033421649131689,0.015247701003340854,0.018414156340404594
12.8,-0.0795717373702531,0.06927718497621758,0.0032103776969963057
12.81,-0.06723707149858826,-0.024407403275124792,-0.07336714558646665
12.82,-0.09003380879624422,-0.08021529431092056,-0.12666660706790367
12.83,-0.14110643240802026,-0.018202648765507565,-0.10425806152487163
12.84,-0.1228709243965957,0.11903438766881001,-0.08627541770532889
12.85,-0.15007911848221384,0.2144534431934215,-0.07746198212256719
12.86,-0.17674280292506064,0.12085375117347176,-0.1106890865032668
12.87,-0.16821857568759715,0.10847254822157153,-0.126728232442601
12.88,-0.16289304850310293,0.11237837271769655,-0.16450916346769245
12.89,-0.16627323011019662,0.03445273234184493,-0.17998988499513338
12.9,-0.16200374768272038,0.04742486325078964,-0.16880956161849
12.91,-0.10991768238329837,0.02586675155714568,-0.16904443878925657
12.92,-0.09157180050265362,-0.031614145407856294,-0.16866440036871244
12.93,-0.12237893790676917,-0.03302486735705245,-0.16526682923461092
12.94,-0.13783561552632584,-0.1229442207722577,-0.16721751040235464
12.95,-0.18653866217409218,-0.07617014500806824,-0.1737848568644243
12.96,-0.17312705040075776,0.1101416749593775,-0.128539792051441
12.97,-0.11967791223930561,0.3162721805697443,-0.10768713122085628
12.98,-0.0710231546242313,0.19656286778850443,-0.110055003244956
12.99,-0.05485252523182948,0.012088658997828376,-0.10250454028229913
13.0,-0.03472278856847321,-0.003782593535759762,-0.10057798348856613
13.01,0.020493277168664784,0.016889453656314012,-0.09174976040671887
13.02,0.014315522863597626,-0.05111944296451377,-0.09850795759449811
13.03,-0.017444191325523706,-0.1205268382264604,-0.10211999023809264
13.04,-0.057581594473022066,-0.0862650677451178,-0.08268290221588044
13.05,-0.08387853937933602,0.13177870125556662,-0.07723280814572536
13.06,-0.0641271638513472,0.2630662656512923,-0.09863683840135333
13.07,-0.032829939883991285,0.18352774117260032,-0.08826309489906614
13.08,-0.005980323409650986,-0.03906912669262484,-0.11739697891698968
13.09,-0.009638398047100908,-0.03040721962727237,-0.09345298074165886
13.1,-0.0025568959255676984,0.18153385480529957,-0.004341223690942102
13.11,0.0679976059265177,0.1667271028740287,-0.02072188559789294
13.12,0.07928027296772033,-0.07276751394827047,-0.05430605617941276
13.13,0.02553311431762708,-0.300785859901065,-0.060551155343504935
13.14,-0.02045949849473152,-0.2859082010541236,-0.04712505301421029
13.15,-0.0009919166396853054,-0.18129964982441565,-0.12608816618404323
13.16,0.005575247099330177,-0.09930913629589018,-0.1420656746020608
13.17,-0.07141842593818064,0.12471328777660573,-0.06122810423375865
13.18,-0.10412724498455406,0.4240272586769246,0.0026873689757999954
13.19,-0.0314149940545814,0.4072753113813505,-0.053960834187243296
13.2,-0.007558832262153693,0.038676639543084056,-0.12870961486259322
13.21,-0.09011591357588142,-0.19531463487115863,-0.11800367760280085
13.22,-0.12271657228616083,-0.06770988946159498,-0.08950827879940167
13.23,-0.04629343741380713,0.03698606210191248,-0.11061982616052847
13.24,-0.031140404502873684,-0.0608807908734618,-0.11570289825995775
13.25,-0.04891922813261107,-0.1680558058653312,-0.06892456391218481
13.26,-0.0001214558252339333,-0.06882623102290368,-0.030350176319480945
13.27,0.03072398467764462,0.13632397999398738,-0.020072144935056817
13.28,-0.004183785540722902,0.23735510066851864,0.010684278557806811
13.29,-0.06753606447998207,0.22596827763337018,0.0529472544835993
13.3,-0.06309676545672617,0.20035293579530916,-0.003972848479965125
13.31,-0.046504817873667226,0.19629015822480353,-0.08009470850881165
13.32,-0.036246517745022654,0.14454127294033026,-0.07156165577841427
13.33,-0.028574643394057242,0.021878929592207875,-0.018880144101377703
13.34,-0.07154638053888877,-0.09216603474839352,-0.015089445093458886
13.35,-0.08668157246208559,-0.1875841274415189,-0.058050200049821706
13.36,-0.03245916760682905,-0.09205978922648707,-0.10614907416636711
13.37,-0.05627409472681109,0.07248110557274462,-0.0646435820118653
13.38,-0.10345321827451152,0.05805262759415069,-0.016122765486114608
13.39,-0.04680881737993084,-0.032020637827827735,-0.04522688272493135
13.4,0.04080995683302232,-0.15416279111972114,-0.08733867158311895
13.41,0.01512841256156333,-0.10678883746356635,-0.04573700449192453
13.42,-0.030774658723318582,0.13869615338126104,0.02774569639508718
13.43,0.006207272011743853,0.22002462664698785,0.020020890801856626
13.44,-0.02214594613702254,0.05720054847730666,0.020040299759863225
13.45,-0.07418533319044485,-0.08134018142893296,-0.002073011367617618
13.46,-0.05117188451837821,-0.02655249694380711,-0.040742786811761786
13.47,-0.0010260383005990623,0.10449252442490817,-0.03565293076987042
13.48,-0.0031575485813776566,0.10768846568799322,0.020354908910324192
13.49,0.002610324343985926,-0.038301377701105706,0.055267855483499564
13.5,0.06026089829173907,-0.14242244881208407,0.046132490667110795
13.51,0.08990516109478655,-0.10843787323966131,0.05862933275934929
13.52,0.07150947882615658,-0.08770579481347363,0.07142086292469026
13.53,0.045664280313424926,-0.06652466931715993,0.09005567632929791
13.54,0.03691683425288871,-0.04970495653022557,0.04885141879576465
13.55,0.04506732653866066,-0.03174185526582635,-0.007821192944297034
13.56,0.045598360655633975,0.013408585727308367,0.011770451435113507
13.57,0.014171581724255762,-0.037220927386343125,0.02783130815987404
13.58,0.013399555298801193,-0.03378431270323887,0.059382165434736046
13.59,0.09323138890329465,0.033883341555879715,0.04114017544690768
13.6,0.11126956196792745,0.023850172557993356,0.03343413963670349
13.61,0.0870044462094888,-0.026867047117441794,0.08802457469545134
13.62,0.04263027571708402,-0.09120610064861995,0.10959195383095247
13.63,0.03628649363569466,-0.10279536070485207,0.07936923839450573
13.64,0.04892581625592784,0.04622929865533888,0.07705817396859294
13.65,0.0414047689637152,-0.051785093065248325,0.020043228163577016
13.66,0.024863025778889193,-0.27944753853194815,0.026851211824093963
13.67,0.03371865704997329,-0.26327936700453114,0.01686560075965226
13.68,0.01563377044938266,0.1533944650092651,0.07993207063607327
13.69,0.05699882669423425,0.45825878639237605,0.11066611554909539
13.7,0.06255205378528658,0.3303022099599656,0.1479023975087791
13.71,-0.01369634465485984,-0.13579144829606432,0.07320513172020476
13.72,-0.02172320554881533,-0.40813828498728927,-0.038591043406768784
13.73,0.007417955245818239,-0.2710959680785845,-0.05628154333314752
13.74,-0.04468950984921637,0.055834476076256925,0.014829977013908922
13.75,-0.12925013576113065,0.19691097376012487,0.1350750249396026
13.76,-0.0507800590101776,0.07532607605531119,0.022862100423960988
13.77,-0.04478584385732562,-0.14592970011095127,-0.1065058306972621
13.78,-0.14229251439277493,-0.2272786687727974,-0.10283722479688553
13.79,-0.231846297240563,-0.09888248783380495,-0.041269113738547414
13.8,-0.17547739565581308,0.07818835729840497,-0.09474586187890874
13.81,-0.0827057352348253,0.14933414433805095,-0.1252326629989741
13.82,-0.10603463382300625,0.30940370340526197,-0.0505593189683197
13.83,-0.17408504543462308,0.47070884908655186,0.05492808231849745
13.84,-0.05801973025360512,0.27013246516732786,-0.027882314613035735
13.85,0.01764239611479889,-0.31964337197442744,-0.2909237145180907
13.86,-0.16416692507542813,-0.36096089469329073,-0.19481419199216715
13.87,-0.35150659893287844,-0.1324758806072617,0.06032014269678587
13.88,-0.2639790817189067,0.21994948984567914,-0.05605916799371827
13.89,-0.0795862433530991,0.20772621534101612,-0.2242436193185675
13.9,-0.005016393866394418,0.04227747385931521,-0.21613747008977552
13.91,-0.1470574660459467,0.21991406574195166,-0.010875590868025201
13.92,-0.15112273527396064,0.3023520664214506,0.02792779008185472
13.93,-0.03359114605056264,0.20809241863691647,-0.09853169656044886
13.94,-0.03108717274216542,0.013691611748806912,-0.15234126716525093
13.95,-0.11792638554479987,0.05017420122004808,-0.057854317437567186
13.96,-0.10125856914533665,0.08530814390027049,-0.04928993475119574
13.97,-0.0414835435473431,-0.027237993533110204,-0.14039563740472144
13.98,-0.05520052067500531,-0.29019416216407157,-0.21970606931478273
13.99,-0.10506618760453625,-0.09895897616601458,-0.12525707670858158
14.0,-0.058688900973797996,0.17793318740716352,-0.05633373140634406
14.01,0.006554307165679915,0.10360662139123772,-0.0989520334369832
14.02,-0.07018987351434056,-0.2306472944444713,-0.13374239841154742
14.03,-0.08934408171767709,-0.07849273408628343,-0.10677838222714996
14.04,-0.0037234690879604485,0.28058935084877873,-0.12266267655062275
14.05,0.04447627562765599,0.24260183304636943,-0.15546888715446308
14.06,-0.03642790383525554,0.0649424999076296,-0.09428956893940628
14.07,-0.040931600572464547,-0.04508698037031277,-0.12117251918535973
14.08,0.004864944749501392,-0.09572018840334746,-0.18170408622436826
14.09,-0.06874888916333331,-0.23322377381624268,-0.23551327855249907
14.1,-0.1417060612587846,-0.2354292569462567,-0.22007421709760885
14.11,-0.17594845697881567,0.08375431818484075,-0.19169153030308653
14.12,-0.10443213544188105,0.2459238212289405,-0.18731229906822475
14.13,-0.10822890117917802,0.14897766962659048,-0.23902864045906924
14.14,-0.11812287879104125,0.0954559221686136,-0.21438429417211624
14.15,-3.079103687717152e-05,0.28296131681457126,-0.19716417304538358
14.16,0.09875327306468622,0.4587963324737388,-0.09738625990205185
14.17,0.1607390638225024,0.13537624566224682,-0.08563906453924545
14.18,0.13355977373443925,-0.2933732881306327,-0.08868702487677915
14.19,0.05545741804116237,-0.5028333431664092,-0.09620294367665592
14.2,-0.01452542326271862,-0.2784480509347053,-0.03674853126126329
14.21,-0.01716634410627105,0.051451086425632606,-0.04653841058347609
14.22,0.09838015806500483,0.1729382261340168,-0.07325845892176024
14.23,0.11521142287637218,0.11129758737993727,-0.10189028201640328
14.24,0.06402121051543065,-0.1758449298812456,-0.127559337435163
14.25,0.06859458842526443,-0.09617787267786049,-0.07697475546557896
14.26,0.10336905488639081,-0.005541332576134634,-0.05775681636919831
14.27,0.15156626208446902,-0.007139734922595294,-0.02447084846771911
14.28,0.08082730079528022,-0.03991294551199141,-0.011972529774053225
14.29,0.08915360941884139,-0.019613022571004887,-0.014893837359591764
14.3,0.13489392795059982,0.13245528320283587,-0.0364618818220769
14.31,0.20828857630163636,0.08276332263429104,-0.09903765795870419
14.32,0.04399387066516139,0.15896367200406772,0.05241528795970736
14.33,0.011835936582886841,0.10350063709834165,0.026762182583932186
14.34,0.10980113970101917,0.06914745444693327,-0.08231530122511806
14.35,0.10772104390468662,-0.11648594859725157,-0.1470165020884349
14.36,0.028315732542715855,-0.23079907801355942,-0.08950538168976625
14.37,-0.007692251725088582,-0.07792913627450734,-0.037125070901031614
14.38,0.044962691839471824,-0.0482572095190485,-0.04313506415161862
14.39,0.11270163837395004,0.031679696833530224,-0.0997761457821383
14.4,0.05320190572731828,-0.000810573222971436,-0.04176586133412634
14.41,0.05047616898252251,-0.10784343314650999,-0.0404922877621868
14.42,0.04952459335816485,-0.05986839737450378,-0.06414085249404129
14.43,0.052505984608269635,-0.09911171133083801,-0.09636058970956528
14.44,-0.03048465425115466,-0.09165987357576166,-0.009653697898201368
14.45,-0.07417058717420226,0.013473244818585074,-0.0019073665102811244
14.46,0.015738081145081125,0.27597500158775107,-0.0411413312521133
14.47,0.12424738505514982,0.36834601635770764,-0.05121936741944979
14.48,0.1532371817568601,0.3034775205015061,0.025752020169607915
14.49,0.07124077895551309,0.08443187376567293,0.060291667455642815
14.5,0.048371210791291044,-0.05939256783652955,-0.004995061197897899
14.51,0.07855525759254253,-0.1843111227960783,-0.04835395926803823
14.52,0.06475059172379578,-0.11026850932048354,-0.08956966945392533
14.53,0.028394751894284136,0.011814958745370174,0.003960755489108796
14.54,0.0399445234675566,0.09918917698420053,0.027641343442315513
14.55,0.03035769858256995,0.04121889940794121,-0.020307515023321825
14.56,0.05386575014234937,0.009723043986777967,-0.009644106338977497
14.57,0.05590315647090671,0.08945931393297173,0.0008298895702959781
14.58,0.10847718707756435,0.03803825888660821,0.012161767549841804
14.59,0.11541223388955643,-0.20671745054021073,0.01717145433239251
14.6,0.09098682923083147,-0.15371761548605462,0.09306801135433196
14.61,0.1270908756445255,-0.09720365907662258,0.06004197692032017
14.62,0.16353649272109932,-0.08402050656471328,0.049894256443551645
14.63,0.15721884053554003,-0.21076609656540313,0.04174887623012797
14.64,0.15920861176406118,-0.1072715770948805,0.08695619189400193
14.65,0.13694578822199258,-0.047110383856746305,0.11046898764246751
14.66,0.1518070952953214,0.0423991024487489,0.09230752120161055
14.67,0.15338577817342394,-0.005839828472691927,0.12020120231639514
14.68,0.17438396345153562,0.10430491459389579,0.15414622640309888
14.69,0.09974837713265394,0.07414787295549101,0.16206750853362217
14.7,0.09630968280734756,-0.04563938378630195,0.06195986502579906
14.71,0.09872193050681538,-0.14596921866392965,0.054280959082961454
14.72,0.12305709504036515,-0.11406162112082313,0.0622055757440369
14.73,0.10865226134107844,-0.19000916385432962,0.09400394303115595
14.74,0.1136765353701214,0.11557369279445803,0.1759906098394888
14.75,0.19704530378872037,0.04745953915792898,0.08213347058444177
14.76,0.14922918479229116,-0.2114921737459155,0.0770582856803806
14.77,0.06093039314895016,-0.2527298135675145,0.08747114763207224
14.78,0.042465740521311315,0.029862138776897952,0.11940911220720253
14.79,0.05039702218924946,-0.023391288145417702,0.02071016172876418
14.8,0.02677132311803684,-0.10083395165355571,0.02962435830699374
14.81,0.07133020339365953,-0.144872240046014,-0.00571005908289927
14.82,0.08388720824527254,0.04226459318679086,0.06267482761409883
14.83,0.01838287313621367,0.08323854487897675,0.10978646738141387
14.84,0.06791650241676736,0.053321133112881884,0.041789174964445994
14.85,0.07079247266979082,-0.1479752878801164,0.026917209720278664
14.86,-0.06431168575810921,-0.37103632808415243,0.06400788694202823
14.87,-0.0723728580847523,-0.42246408920364603,0.041815118604054215
14.88,-0.00814286317398441,-0.347708170427033,-0.03539851216503136
14.89,0.05512150013743469,0.03241291640771684,-0.045055370395338135
14.9,-0.10228060588457849,0.45715339274438366,0.19743986370078706
14.91,0.02466220625355887,0.710858005309176,0.19759789639907166
14.92,0.15459202937262553,0.5135323972336125,0.08537059003867263
14.93,0.1661681210109455,0.10077628603102744,0.04368499111199232
14.94,-0.016633304105241078,-0.2969847634626968,0.10669079499401463
14.95,-0.10933633224446204,-0.3341899084708088,0.10418004724978779
14.96,-0.008239906767972077,-0.28157263751447853,-0.010477610321805912
14.97,0.13106195397987733,-0.06109730974837484,-0.018489400808285015
14.98,-0.04784700269571297,-0.10090970472467203,0.07782535610877928
14.99,-0.11181149640239306,0.011899239926814388,0.07792961174916829
15.0,0.08525205330713631,0.13964880255321221,-0.021966135592936285
15.01,0.06895526865910416,0.05758011923163994,-0.00797043609255857
15.02,-0.1468974207831063,-0.059366906588796016,0.027874139950326032
15.03,-0.22229224442999077,0.046844950931215705,-0.005218284185831608
15.04,-0.09305774340132783,0.2643933142926265,-0.10941562432929186
15.05,-0.042413853025031555,0.060063773738068364,-0.15198150660372228
15.06,-0.13590910091017566,-0.04491562472099211,-0.042218366635103304
15.07,-0.1085690488712481,0.1288517513353804,0.03637655606672498
15.08,-0.037101323441259396,0.07116150374359728,-0.04412430652989492
15.09,-0.04426710122847252,0.08519244010603244,-0.028184050865155165
15.1,-0.03891809985476838,0.1342275827644398,-0.03806007163911548
15.11,-0.07596976703500169,0.08966203648595325,-0.013282436354276346
15.12,-0.10603858175186771,-0.12825094793158467,-0.043182692598400345
15.13,-0.06321980997759918,-0.04999370147400734,-0.07824556269380965
15.14,-0.05821038969337014,0.19059224651487447,-0.05534404239953048
15.15,0.012865981447638406,0.23420364486837172,-0.06974856209426476
15.16,-0.007301459073194653,0.20582351076124458,0.010355620117143775
15.17,-0.03203351965633248,0.1038648424707678,-0.057216913885592996
15.18,-0.07345858130465688,-0.05948881287757568,-0.04841732485275929
15.19,-0.054487665054249484,-0.216027175095529,-0.11864972893846606
15.2,-0.09671484160614155,-0.20961463167538955,-0.10108016367195737
15.21,-0.08690564688456257,-0.04281054505581629,-0.1204709995367991
15.22,-0.028593067079704795,0.23973615126207695,-0.10949128646008759
15.23,0.002511523017157774,0.2810094205893735,-0.15551219800092636
15.24,-0.013040701662915056,0.21097521718285114,-0.07895379945108812
15.25,-0.07923553159683133,0.00015566411241522198,-0.1409679734906689
15.26,-0.05931534182286369,-0.00659556366741512,-0.19029639367552661
15.27,-0.07581869380969673,-0.21924057370251598,-0.25900305530231915
15.28,-0.14171095160793648,-0.09851492844749954,-0.23893534719894016
15.29,-0.10031886443933044,-0.0911785475895135,-0.29420769142623365
15.3,-0.021732365332120186,-0.0029476597921132526,-0.2734351825672335
15.31,-0.02751307820490895,0.04408790182548063,-0.20464276542830503
15.32,0.027272578680702535,0.31435348263310137,-0.130183079983423
15.33,0.12508612672843475,0.2984077243994315,-0.10820351880315114
15.34,0.18961397992024343,-0.02124638297608987,-0.12475014694628248
15.35,0.10391045084258381,-0.249122246637188,-0.060788862829250716
15.36,0.13699990249166225,-0.1926636287168597,-0.060255667604559866
15.37,0.1844176146974118,-0.16652253154707541,-0.07100000492346673
15.38,0.1652104657084861,-0.15900484370639897,-0.08421471642507379
15.39,0.14070263576515118,-0.056729259147367636,-0.020568830633881624
15.4,0.23722739617066077,0.08232431478861825,-0.05317069045662276
15.41,0.28527738284725274,0.06569432943899861,-0.013350925041894082
15.42,0.26564265581772134,0.041160196148750744,0.06692669521270629
15.43,0.2730632985783034,0.07107598404308252,0.10806823840784528
15.44,0.3547566479502234,-0.15954943355807963,0.017913118195674756
15.45,0.3156800252987726,-0.25019420282633775,0.06952810493306036
15.46,0.3253722702060475,-0.15160339916233,0.07101278970305433
15.47,0.3644705066534429,0.20124132913285236,0.17533692372486784
15.48,0.3680519318077352,0.09813773542584199,0.0831383158458805
15.49,0.28853858328650966,-0.14536053192979673,0.0730111479895118
15.5,0.243608293035107,-0.22268525287230784,0.013935185084548218
15.51,0.2918779224675649,-0.24043715971601282,-0.003160749055766405
15.52,0.25804430992934924,-0.4942559702073937,-0.0028189560462360723
15.53,0.24099860353935051,-0.5269418171761558,0.07969037161249305
15.54,0.2755996464273211,-0.25714063932440795,0.11030244639695981
15.55,0.4821233080559687,0.1674284362868771,0.17427549732350686
15.56,0.4574116163880166,0.3560228435749682,0.28235949588954457
15.57,0.3923764933260514,0.27246028437385145,0.2992979806746758
15.58,0.4269802621759904,-0.040790642255200106,0.1709039446820458
15.59,0.3749812389377409,-0.3002869333554839,0.08306771396612833
15.6,0.1606694181289752,-0.3730238243977694,0.1642028993275612
15.61,0.10824387884613765,-0.13871166887821496,0.1767962758181226
15.62,0.2807998673961797,0.08791119939455422,0.12178256510787984
15.63,0.37141752230278324,0.07382366038152575,0.13149065205271784
15.64,0.29310351257049166,-0.15451094516424832,0.20464420067352082
15.65,0.23460327831044336,-0.16476740751051203,0.2824706925050927
15.66,0.3143235203777287,-0.050827679563803345,0.21489417828863228
15.67,0.35728015936494173,-0.04389447183105794,0.16437553617786005
15.68,0.3078852496170246,-0.058062438877944426,0.22796520790864067
15.69,0.2522339587254493,-0.09328570480409894,0.27057978306590597
15.7,0.2485335645969211,-0.22398635694231186,0.2025241367604249
15.71,0.2811786574190521,-0.1510764065847245,0.17594510319567924
15.72,0.25792202504215533,-0.10912423227900624,0.1779462283267505
15.73,0.2098939904204487,-0.07756649371935366,0.2180955589517229
15.74,0.2284853513735835,-0.21547087868878656,0.21088974036509492
15.75,0.2745796722385408,-0.28722644589695284,0.21993728222739706
15.76,0.24179788863971471,-0.29008395038744555,0.2731144005640214
15.77,0.22857069436275362,-0.11760689095496367,0.3350947216798747
15.78,0.28797503830247545,0.026105011966764378,0.37719468518624744
15.79,0.3404410281777321,-0.10099359015547774,0.34123185109049
15.8,0.27241079234501364,-0.17980111416801922,0.33083311974380525
15.81,0.27012493901908474,-0.16236453476195606,0.36249941717827694
15.82,0.24064656870466372,-0.15488606980942085,0.40449409385551105
15.83,0.17532535854591869,-0.2725272963371671,0.4461120199373988
15.84,0.18014021876736067,-0.2593339630831181,0.4113092432187622
15.85,0.20290241734812212,-0.10995596501135937,0.36678796337315267
15.86,0.16501769591354057,-0.08984301324110579,0.337565673656015
15.87,0.18676893596343777,-0.12676626019912324,0.29830655876240764
15.88,0.16198012227561953,-0.19454347379013212,0.31679229305026635
15.89,0.14888696740514076,-0.3012805943455933,0.32605144912809086
15.9,0.13743562140293772,-0.3331614005526226,0.3067620371314174
15.91,0.13595167154088303,-0.20271189958580701,0.2838874928925141
15.92,0.08213531695374233,0.04208182150918405,0.30138381563724526
15.93,0.0007464614175283975,0.2648842163909381,0.3034294302069094
15.94,-0.02448869484410502,0.28105252879231013,0.21353996366074898
15.95,-0.03700365856732,0.07912036417455072,0.13853279482128497
15.96,-0.08152769716335323,-0.1477596799219369,0.08526964044664011
15.97,-0.09700235851655846,-0.32989544401876103,0.08384542443517948
15.98,-0.11014131994971693,-0.45260302157319465,0.09711036765823962
15.99,-0.14632096073316259,-0.4869715238280332,0.1471608405754784
16.0,-0.15070147349234697,-0.39483109572948333,0.1921604824577279
16.01,-0.16242634739197312,-0.3081497464742125,0.1772479365007137
16.02,-0.19278109816846456,-0.26073599547684745,0.14817516551843316
16.03,-0.21647465049205325,-0.006796785600283253,0.10105959534500043
16.04,-0.15987636693327018,0.40069259363134097,0.10125347950741367
16.05,-0.12141275407479167,0.5962672084410349,0.1635300642062848
16.06,-0.13271102183412747,0.4906413674520225,0.18377401004093571
16.07,-0.17644841864922162,0.2577689613141032,0.14290443561699684
16.08,-0.15302214697006708,0.01423468388626954,0.028539549509747634
16.09,-0.22133292141420924,-0.23750265046160465,0.024922034737043283
16.1,-0.3218322593232289,-0.3978003925456476,0.030476263234144523
16.11,-0.34594426465484635,-0.465108000017949,-0.019487962104453742
16.12,-0.2764495855778738,-0.401392402253953,-0.09663228612365822
16.13,-0.35934197686770597,-0.14068149958241868,-0.08677971173814003
16.14,-0.43659450508473246,0.22303218191425944,-0.04273170331855643
16.15,-0.2770053819351405,0.5087531308601232,-0.08249875259904678
16.16,-0.12005054602760355,0.5360446597316094,-0.05192540562368144
16.17,-0.20233493420331056,0.26321133935571683,0.058457748628628854
16.18,-0.2702011196450131,0.022688238364576223,0.0667209186871048
16.19,-0.17490307036223854,0.06468829429383334,-0.013903047104822286
16.2,-0.09366209486467791,0.07378272182822812,-0.04567856734650296
16.21,-0.18743475924391848,-0.06456018825402014,0.04593935514142211
16.22,-0.24790009305068353,-0.2418132267456132,0.10384555680065377
16.23,-0.20025371378800355,-0.38132468104076583,0.045622594211779076
16.24,-0.12064353724976076,-0.3649696522617842,-0.012926453668479974
16.25,-0.11207886884030437,-0.03172225684140442,0.04547701184333131
16.26,-0.12289166179417897,0.35257444782901903,0.13615289128150984
16.27,-0.07036849644208036,0.3992822509554647,0.13510669174004214
16.28,-0.05238367314692708,0.20472024620415827,0.039404702861321306
16.29,-0.08891730851093166,0.1431171269341148,0.02845095350494944
16.3,-0.059170555375853036,0.2559096384512874,0.07072762239856573
16.31,-0.0286195211961246,0.2685169771555248,0.08332303147426302
16.32,-0.12223205285677892,0.11935213090413632,0.06797830343660247
16.33,-0.20549887959406463,-0.015172887587674773,0.02010169203689769
16.34,-0.17226815446817828,-0.09461723920970844,-0.03760388800843924
16.35,-0.16712430418989746,-0.1991196371125767,-0.08402096463272482
16.36,-0.18603007522961254,-0.3321871056233487,-0.07616260330541755
16.37,-0.158479706105524,-0.26701980072215603,-0.03988416865467894
16.38,-0.1107676148348067,-0.12507293301012506,-0.01757789003604797
16.39,-0.06636734325812724,-0.00929026013183196,0.02344429847747748
16.4,-0.09024910736718267,0.10256396438663858,0.07752407776938781
16.41,-0.12190454647529794,0.0481021600890893,0.07782303421689729
16.42,-0.15405845357574827,-0.07336088937027514,0.002904657014563882
16.43,-0.21850112425374346,0.03146724068827046,-0.033411545180405074
16.44,-0.20256538548173628,0.35057874811174383,-0.0032186664026705976
16.45,-0.13522457006794414,0.40765493056900853,-0.0360984414952128
16.46,-0.16485127183166598,0.09735741290338036,-0.11237483582677685
16.47,-0.20333277735397887,-0.11834418900912225,-0.15446526614854522
16.48,-0.16676958129904185,0.03169811976368009,-0.14514856518269273
16.49,-0.16859399787241422,0.10080138028087605,-0.12696218043240298
16.5,-0.21786380896945542,-0.030151347481283848,-0.10899462398886516
16.51,-0.19564647296049142,-0.10485664517557552,-0.14678063199468047
16.52,-0.15890038955239916,-0.06884343195356207,-0.18395670390477678
16.53,-0.17379619533642177,0.04761336985974128,-0.13547919297259736
16.54,-0.16298074854367173,0.17049689506630653,-0.08028745619738481
16.55,-0.10825582202017466,0.21424246992609178,-0.10464285336125835
16.56,-0.07496387266195284,0.10784561249253845,-0.130703710789212
16.57,-0.11848059882609911,0.040732341527774045,-0.08037789306294917
16.58,-0.16956530755717097,0.051537377913436565,-0.05385781566749995
16.59,-0.15945732335474996,-0.12331886357216942,-0.10960543676872095
16.6,-0.1448288060487719,-0.26994825146149193,-0.1735604008464219
16.61,-0.16591913459764618,-0.16269340698787177,-0.16829715448357896
16.62,-0.1464962434589138,0.18861632815008245,-0.10309363329057494
16.63,-0.1455016902951032,0.5200761120914588,-0.030394057289069607
16.64,-0.10830329104387659,0.574599940631067,-0.0018018066552039594
16.65,-0.06126083999571604,0.3702215517832851,-0.031936152151790444
16.66,-0.031943817744979376,0.043318824772810696,-0.09752850241701619
16.67,-0.08157611935375855,-0.25576849275221286,-0.13616740742777314
16.68,-0.13444710479019514,-0.28336243404675543,-0.10669426364765322
16.69,-0.11383269466158434,-0.08864848164525113,-0.12470084811150749
16.7,-0.04983960317309146,0.049994340464022055,-0.15834830595478497
16.71,-0.07745960050734044,0.002598174972928692,-0.16661284894222259
16.72,-0.13358111391202493,-0.1556743545850963,-0.1467255707793773
16.73,-0.13104231676990902,-0.09926601218598802,-0.1508372574232389
16.74,-0.10383196353934121,-0.08002648469541786,-0.21702264129569077
16.75,-0.15303490583393206,-0.043328544523283836,-0.18497667929727793
16.76,-0.18836765740547742,-0.031866882433763045,-0.14996423683763188
16.77,-0.13681298003933073,0.1222280949560855,-0.16455550600289268
16.78,-0.06121308207578235,0.4558111330683244,-0.156624212228923
16.79,0.0016916356608474446,0.6736099712227775,-0.09778584264357926
16.8,0.009247971950651026,0.5706388581632293,-0.037542180627755925
16.81,0.016457903863184357,0.2274641981367839,-0.04490089778268922
16.82,0.017666767060423794,-0.09609518412298636,-0.11784057395014479
16.83,-0.0243369274846259,-0.20452217039758802,-0.11659457454782862
16.84,-0.07268149830610199,-0.3337754354389464,-0.09999755204833864
16.85,-0.09932498437263557,-0.46605095232494054,-0.12628780861297453
16.86,-0.07098201922581843,-0.5676609555051686,-0.15403052921761187
16.87,-0.03374848868340544,-0.511116666749113,-0.14144472410184084
16.88,0.01720548837519415,-0.29197673303809885,-0.06256430771955158
16.89,0.08562697469299933,0.2420496332375099,-0.00920138888940424
16.9,0.12934602634367795,0.7122632987033103,0.037429492939947066
16.91,0.13092283709568361,0.7498142138014403,0.1114574963978336
16.92,0.10461287441956812,0.3311708914900974,0.06329989077699777
16.93,0.04730457811841312,-0.17950294179955925,-0.08335545453037643
16.94,0.03255049547114284,-0.32236907610709953,-0.0946761590119894
16.95,0.05471307604116112,-0.22843528067652888,-0.044715036863231895
16.96,0.15108372406404977,-0.2047523409251492,-0.015993841308290086
16.97,0.23847038275677787,-0.15976370265449125,0.07636785030092964
16.98,0.2555027755039901,-0.07144762403865121,0.18943311968621665
16.99,0.2830065370538622,0.010453993180616199,0.23504026824447327
17.0,0.2687168230442413,0.10851777778114645,0.22207424839269924
17.01,0.25783004942626975,0.22141553293649396,0.24550931469847334
17.02,0.26004489259141955,0.20025012128130248,0.25048094082971906
17.03,0.2897110116733842,-0.09492581771967926,0.20811957018390004
17.04,0.2581477322924409,-0.40553594702954066,0.1833984930405618
17.05,0.298456944731893,-0.43431862707266816,0.19877102102965477
17.06,0.3644332861592166,-0.332020222570704,0.2723085274312108
17.07,0.3699354025027618,-0.2841959178278001,0.27692638878744763
17.08,0.31449394617421167,-0.25714790318566993,0.3217749145975388
17.09,0.2895586669176772,-0.24420917783490179,0.2788716216217232
17.1,0.2604618564037651,-0.10304560453569112,0.2778018143504437
17.11,0.2213114945891317,-0.05776762942942162,0.22474268417233256
17.12,0.20701899734148568,0.027933392552579803,0.24872596060126057
17.13,0.2569248340102016,0.004640453344920304,0.22773063498004648
17.14,0.23111713248447593,0.05960927559811097,0.3043059562875422
17.15,0.21855744948356443,0.16869372135456773,0.34343361559204716
17.16,0.27349227185161357,0.17063706100922046,0.35571615317646255
17.17,0.23779067453312333,-0.20375863218874013,0.2498786709908938
17.18,0.15409996365941353,-0.511931554812203,0.21185828632023038
17.19,0.11548828542087497,-0.41796170178704045,0.18879411886208375
17.2,0.08590192910660513,-0.16179650512119573,0.1933822281860019
17.21,-0.01245590326817026,-0.017446498930657466,0.2227485355978355
17.22,-0.0006903776905301787,0.0990358861112724,0.14727630835298333
17.23,0.0032963549787885446,0.1779410349556401,0.12907934434362583
17.24,-0.009425939034969931,0.03356902117624648,0.0691757997352466
17.25,-0.12062322042501858,-0.1343352438541917,0.09756242780573471
17.26,-0.11504919753448892,-0.15370961773832903,0.07358900197633397
17.27,-0.10387560703821225,-0.02411515365925751,0.09108320539928769
17.28,-0.10049839315604955,0.013003561146025633,0.03410021412397748
17.29,-0.10130624681515843,-0.03553149327982252,0.060999702840149835
17.3,-0.12632560295611003,0.006939249816975569,0.08359441752365092
17.31,-0.12989261638900798,0.04979196955109456,0.04645773050990873
17.32,-0.21640723250082095,0.06277403036729497,-0.03423822758744254
17.33,-0.28059476796895294,0.23746521052455152,-0.01636252285372009
17.34,-0.2675701060339849,0.3238281377296519,-0.06272597849562474
17.35,-0.22569330971302637,0.18860731952327703,-0.11918978723630144
17.36,-0.2568021522333827,-0.05449338834794033,-0.18040042043254406
17.37,-0.24219927732236782,0.0279318477259077,-0.1465569476130585
17.38,-0.24033265767632986,0.1454449582727267,-0.07028565484732019
17.39,-0.2355516888594526,0.07842408517474818,-0.05757527705973806
17.4,-0.27318271991002696,-0.02144371740508955,-0.12831289992054906
17.41,-0.23131017422843717,0.1418956139732459,-0.14387682550301345
17.42,-0.23780756572882186,0.33488672176996737,-0.12600377383333095
17.43,-0.25175971250023954,0.30709123070430877,-0.03714041130137839
17.44,-0.2593878344516692,0.06708141309660928,-0.14638812924971092
17.45,-0.14731524089247344,-0.09645130221717009,-0.19125201456665086
17.46,-0.16957791076007808,-0.15739379672001275,-0.133967637268777
17.47,-0.16781634727533515,-0.06369147613972269,-0.07539561656270206
17.48,-0.17402106157457284,0.051521940981769106,-0.03939541298499634
17.49,-0.10774382906962858,0.04251310954084562,-0.07950144415408916
17.5,-0.14834437459446254,-0.005144608536488771,-0.061440090976254864
17.51,-0.11828238092515421,0.1213740695178771,-0.07059868073458936
17.52,-0.09787581504579607,0.07573449096270707,-0.09708829931914821
17.53,-0.08959881466090773,-0.053950506492512935,-0.07178839521683167
17.54,-0.12113348413071781,-0.029513964182176573,-0.035322766889739836
17.55,-0.04831822424945038,0.20265672531902423,-0.015917768063382493
17.56,0.019392829578084997,0.09138939290983085,-0.024332780505636285
17.57,-0.041758640798423854,-0.14448448764366584,-0.06186622841297873
17.58,-0.14142207327938708,-0.016566628756927597,-0.036946264414048156
17.59,-0.11496179277583711,0.2628641947862572,-0.04596301802931838
17.6,-0.03668933181089454,0.4219041023272365,-0.07329921632249257
17.61,-0.011752621271461892,0.16295462658118934,-0.11874229041638247
17.62,-0.09536105139520351,-0.05811431885992307,-0.1059715495231417
17.63,-0.05814801295333274,-0.21672946746834898,-0.1321406037437687
17.64,-0.000471906397355051,-0.0269275985916362,-0.1755477470043051
17.65,-0.08414712175426833,0.01639620278032826,-0.1756208211966201
17.66,-0.12161218979974932,-0.007373633389335981,-0.07839981363935124
17.67,-0.08960636379741567,0.05019486224827062,-0.0983551098408078
17.68,-0.013997033677255423,0.060217304589098415,-0.178022542720287
17.69,-0.035448135068490226,-0.044825520928775786,-0.20224508556084025
17.7,-0.03328861932194777,0.03347807246259025,-0.09860911878780755
17.71,0.03156280555808484,-0.02471253717445955,-0.094264739243706
17.72,0.06695167409735069,-0.004878615127820459,-0.05329963520656541
17.73,0.04045671171691169,-0.05288636350703085,-0.05506363589614679
17.74,0.08612525218975477,0.06913452951796084,0.02925561054018924
17.75,0.0687284095915273,-0.09435931203546202,-0.06260711888377402
17.76,0.02760379208862237,-0.14172531907389746,-0.017116580227182487
17.77,0.09870265577981575,0.12786616476855955,-0.020637868378523404
17.78,0.1832251670532505,0.2675500629664845,-0.011761575572903577
17.79,0.03936480394865644,-0.08439636819262657,0.05188959384486355
17.8,-0.06531233002969374,-0.11407990917927337,0.058314013477835956
17.81,0.1018606554283087,0.1501924540374482,0.04337619361981954
17.82,0.21163907162095413,0.1278988966512475,-0.05874927710437264
17.83,0.08118295117398215,-0.15107732197874305,0.03418945394352187
17.84,0.06061516412783466,-0.17187641030104064,0.0744890873429722
17.85,0.1339781396079248,0.010997993225855691,0.05726428448460259
17.86,0.10428584815732361,-0.0005616442466281012,-0.03144126135631843
17.87,0.04426018372637161,-0.1734209984513625,-0.0027162083289101716
17.88,-0.032555605721720275,-0.17787068379495466,-0.003572265381749902
17.89,-0.05133581115888383,-0.03478432960201589,-0.043051021534109474
17.9,0.020652187321950267,-0.08268407367876138,-0.13656115401398947
17.91,-0.00816709419089995,0.031967587349458204,-0.10025504167779371
17.92,-0.11700331443061328,-0.019677469553071855,0.003680372166368017
