seconds_elapsed,z,y,x
0.0,0.8965417202278971,1.353088095125556,-0.0935830505173653
0.01,0.9596930419033964,1.1741911984959084,-0.3167920634595368
0.02,0.9119605059318419,0.823474190863215,-0.5323736204793714
0.03,0.8196776010145957,0.44901310477288764,-0.5541337980329621
0.04,0.7537471126234527,0.17624495270481685,-0.4267934706657345
0.05,0.5731766119051356,0.06370521523370122,-0.4239273697409742
0.06,0.288132427226921,0.2226785925735451,-0.10217813131261189
0.07,0.06074420700239164,0.3072281078609573,0.3530204876083134
0.08,-0.050637660638917344,0.2649773994250537,0.5269092965474607
0.09,-0.11644548950150566,0.005880037569375072,0.606550466402375
0.1,-0.21171975576042204,-0.3880505794757345,0.3701121937939122
0.11,-0.1594600973724622,-0.6876114108387036,0.13841485569490977
0.12,0.05717470815764132,-0.6672792287696102,-0.03946230365597672
0.13,0.1798348730224378,-0.3642701917214849,-0.08688650474342174
0.14,0.3860133048227283,0.06148799292433142,0.08016612040567044
0.15,0.6855088537967461,0.5795535013304719,0.1151582886421063
0.16,0.9217728485084755,0.911553276740063,0.12038290391719776
0.17,0.9800783780061549,0.8778914805350153,0.03417599434340264
0.18,0.7946734938001688,0.5730650848298764,-0.025058685249643463
0.19,0.5470330512532408,0.34609463854250305,0.036178488073050484
0.2,0.3445444697260053,0.19337502981589003,0.1304850594456437
0.21,0.14546828261255737,0.06815529697025306,0.13625520863177032
0.22,-0.1430214168033723,0.17844079970758886,0.022570947177397264
0.23,-0.5361094200209109,0.42849183296017057,0.00029700073024123235
0.24,-0.9551532615768883,0.7529708032842483,-0.139381983623811
0.25,-1.243927199945271,1.034192050751907,-0.33796497824468263
0.26,-1.360252008903836,0.9447885755840056,-0.33579018893393575
0.27,-1.2751375682749813,0.35130331317257574,-0.37713051536704334
0.28,-0.9067317683689884,-0.5909270808809224,-0.6483861025052869
0.29,-0.6623269776732205,-1.4606385057666598,-0.9663800024439015
0.3,-0.7000827828384732,-1.826518684122183,-1.2496383612769562
0.31,-0.8478156237962649,-1.57429442022467,-1.406059570311887
0.32,-0.8180688194102406,-0.9749189185047479,-1.2238166854146229
0.33,-0.4662593592227001,-0.2471671316312224,-1.1239183760783362
0.34,-0.09971970739638202,0.12809688595017285,-1.1264711664531761
0.35,0.1134332604356425,0.19369032901100305,-1.171458808814417
0.36,0.23483737293893292,0.2957893453392168,-1.3306870247450562
0.37,0.3992575948220569,0.5208110862557734,-1.1885016614952413
0.38,0.5089768594646497,0.6094980429842596,-0.917616947237525
0.39,0.6602521168705779,0.6019184827381391,-0.7381747396639565
0.4,0.6570367192322458,0.4378841144805779,-0.6851190686072198
0.41,0.23010113902579687,0.3480545527517398,-0.6979568620692402
0.42,-0.0932268615586873,0.26921119120603243,-0.6841756827752122
0.43,-0.20402376129947883,0.14572306757741282,-0.6648843230915324
0.44,-0.08158652222357035,-0.030098296496937155,-0.5519238861960268
0.45,0.2251267187366041,-0.08761773125231864,-0.4011177935645686
0.46,0.3752578687896235,-0.023386933538192513,-0.20916882756596641
0.47,0.2979256090959691,0.039538667324634555,-0.03908401668675161
0.48,0.2112084661446803,0.23513947577727806,0.12259011439966722
0.49,0.3961795256644223,0.45552770925628927,0.34786648934104775
0.5,0.7102462745326307,0.4948367823747355,0.2518727971268133
0.51,0.9109888587013537,0.4107975415204636,0.1263491352744704
0.52,0.960117276266202,0.33166653854354916,0.05491228811211528
0.53,0.8837499022197361,0.4235051447855696,-0.09141992378482362
0.54,0.7288190135959106,0.6494004429421975,-0.184933557410588
0.55,0.5573704845170975,0.8212291165669594,-0.32571296331944827
0.56,0.49379586814470056,0.9079361077403904,-0.4161687851647003
0.57,0.4433105546557985,0.8669237814351217,-0.5460365894140398
0.58,0.3325970565712134,0.5708167269924427,-0.7625049783321891
0.59,0.19793157800218936,0.027520693731902492,-1.0512635152652963
0.6,-0.0058060518623105715,-0.3488691009952338,-1.3274053160783497
0.61,-0.3098873479812332,-0.3252806148952319,-1.456872922270873
0.62,-0.4915808483601051,-0.09559006007787434,-1.2247313284140182
0.63,-0.3130151392494288,-0.06590164564464104,-0.8844786036418975
0.64,0.05371153566037153,-0.22760488181367014,-0.7343721090984149
0.65,0.30719591835182014,-0.34414213033519886,-0.5467656993911666
0.66,0.24134231252704091,-0.3338235793273245,-0.5636464777034629
0.67,0.283520191240414,-0.21353878421343883,-0.5278389798932366
0.68,0.4571238197626974,-0.1646092166564325,-0.5480009129775139
0.69,0.550680581837734,-0.052836953662711385,-0.5785117807290046
0.7,0.561148974243627,0.2785560705795375,-0.4420741942433391
0.71,0.5971535635819416,0.6851247624235525,-0.39046740377121447
0.72,0.7073354422249875,1.2132624447020606,-0.2752845304734524
0.73,0.7994297357244041,1.8375561560348805,-0.20761599049938967
0.74,0.8515770119423641,2.4334674583821627,-0.165057681116169
0.75,0.8177467900060043,3.0094654703676205,0.0005780067804848486
0.76,0.7228760600622445,3.5202778600237017,0.5215583553183691
0.77,0.6033056503121976,3.6733259537784697,0.9148547276952803
0.78,0.4812859978157949,3.115423350732862,0.8105103774405645
0.79,0.39060020982457855,1.7125211862257543,0.5740774063985152
0.8,0.18919514305526774,0.015195493186537807,-0.17707117575395137
0.81,-0.005501718659342068,-1.73166503900999,-1.4396016119646864
0.82,-0.24216002699588654,-3.5623408915136894,-2.709679756016181
0.83,-0.5790449141396284,-5.32566120438986,-3.663177695278921
0.84,-1.0939824822664912,-6.638331593394422,-4.153272525972029
0.85,-1.652305519340626,-7.04604835432772,-3.87872212332344
0.86,-1.5900172291634422,-6.179093256770551,-3.1981979478459146
0.87,-0.945942508935681,-4.374905445189077,-2.9584656500059068
0.88,-0.038252471137454884,-2.1434578176761256,-3.0016027433821035
0.89,0.6896623855898929,0.1170241210902106,-2.827677898628214
0.9,1.285664206749477,2.1709795069229654,-2.4687889510854033
0.91,1.9633395764566086,3.6543041083690415,-2.107996559994768
0.92,2.5728883283237023,3.7110866059492302,-1.74280754766265
0.93,2.787154759630915,2.781697770401583,-0.9618599687177385
0.94,2.070344060134964,1.9107544448775895,-0.2891906598860174
0.95,0.810396607138445,1.1154434112917397,0.00208046460671932
0.96,-0.0962521911995841,0.4784759811153861,0.16368413883600508
0.97,-0.3951748019973743,0.22469624012707531,0.2389564529291003
0.98,-0.36443209479429817,0.4987889941905551,0.4032349871060746
0.99,-0.2600480929402243,1.2430112261448307,0.6573212197134086
1.0,-0.03953254125928071,1.8601294489671085,0.6903366878656545
1.01,0.2642596717442339,1.890598617984844,0.38532248876673303
1.02,0.5842106270229679,1.6861844777885322,-0.012104848983223797
1.03,0.636947384778463,1.5291681797275591,-0.34819578026678955
1.04,0.41119790202872664,1.3603909571529276,-0.6211677130665154
1.05,0.2677702175487284,1.082887234043412,-0.8416029407316841
1.06,0.30698583980499555,0.8504703178875924,-0.9945856309947233
1.07,0.19357993228925535,0.8353583592724045,-1.1887237595728979
1.08,-0.5137135468986617,1.458665143726242,-1.8034957938417826
1.09,-1.3941981046753669,2.6757982871905197,-2.277961847444695
1.1,-1.4598972737998461,3.6526038271395023,-2.200343388479518
1.11,-0.5946421400792289,3.7121358158144178,-2.2904454719130847
1.12,0.7211697793294652,2.702150177373573,-2.8203791119675694
1.13,1.8775538395584872,0.9099201105003586,-3.230965396097302
1.14,2.9274661035700986,-1.6590017088422446,-3.0386104634713282
1.15,4.0011692599490605,-4.75602046091589,-2.310099953753552
1.16,4.639330800237681,-7.348887176627752,-1.481655512242893
1.17,4.547103415362142,-8.521809455687437,-0.49916651890944896
1.18,3.768735122656908,-7.226865576871125,0.03280108836510939
1.19,2.6671689265707608,-4.390219635400247,-0.053281084331527555
1.2,1.6060882072916403,-1.6834794227799759,-0.3394432619331768
1.21,1.0556196523196688,0.17709659310438602,-0.33422945021300005
1.22,1.233039501872244,0.7953924787028366,-0.37909489746685915
1.23,1.1847417998633256,0.16769298874149938,-0.8698556844815618
1.24,0.3359901102469891,-0.644838513004504,-1.5180326018153738
1.25,-0.7743009705149897,-0.7760621752998961,-1.9319520431443535
1.26,-1.4548673887626635,-0.2289861567793869,-2.042440070373706
1.27,-1.582069114722006,0.8929411270769202,-1.9589127698672124
1.28,-1.2449886956858778,2.2515542859722033,-1.6803555620371113
1.29,-0.5369231907053087,3.3187112543201605,-1.3231466282673627
1.3,0.17326172065154394,3.8851978100541276,-1.009459924371985
1.31,0.5956738495938807,4.050378597946199,-0.7398040651270987
1.32,0.6492949716444876,3.9214020497513546,-0.5365874461500614
1.33,0.471766852131508,3.5742030738863595,-0.3880682009842195
1.34,0.378380225587885,3.0606001141197785,-0.29203554263217
1.35,0.5302347910314278,2.301773106754778,-0.22981195554977693
1.36,0.7858871936493451,1.3974071062533087,-0.22099835038730242
1.37,1.0116014018865078,0.5656043752142718,-0.320847839407833
1.38,1.157863060362689,0.0020836231453748967,-0.46050534136848725
1.39,1.2424402063409792,-0.21787715880410027,-0.6045772702638704
1.4,1.3132567728318514,-0.27878285709053646,-0.8485710898809871
1.41,1.425118948177745,-0.4558767316201913,-1.196714651718038
1.42,1.5800661041906823,-0.9640040549596424,-1.6689220273863372
1.43,1.6704223923370283,-1.833194989783249,-2.2718509769814723
1.44,1.550862798490891,-2.8163989405969256,-2.8036080272277273
1.45,1.281074299948012,-3.541338754859767,-3.1521707002337283
1.46,0.9796149394903791,-3.685989235196523,-3.3650714816920964
1.47,0.7039867174165778,-3.1609931856374507,-3.383661400665373
1.48,0.5559838202156675,-2.0803614233521524,-3.2343968978414197
1.49,0.5057748017336539,-0.785332445992838,-3.05746695032686
1.5,0.5419548086273809,0.20480236440798352,-2.7523602830498866
1.51,0.6415180969292392,0.7002418501251195,-2.2809952058458793
1.52,0.5850903092036697,1.0122798746061654,-1.7559563476580646
1.53,0.3366490747883667,1.4916351818673927,-1.2667665043096565
1.54,0.09342259586453627,2.15783925964339,-0.939119168870366
1.55,-0.03780373319656895,2.7734999622130854,-0.8001485718911896
1.56,-0.12801029717681867,3.1270976907130184,-0.7562555273325586
1.57,-0.2862369470761239,3.149662701873769,-0.6865319144397241
1.58,-0.47718723243976063,2.919676460467605,-0.6220090640877847
1.59,-0.5571022590213591,2.567339936109844,-0.6564513925834007
1.6,-0.4937081198272921,2.0796855466986663,-0.7979074178994097
1.61,-0.3656792633676925,1.4696615182368278,-1.0366032453965095
1.62,-0.17303985413005013,0.9222994519253688,-1.2859935053706735
1.63,0.03249167334986233,0.6102553458037964,-1.4744900960979133
1.64,0.18263630234898215,0.48856317075914646,-1.59574367528843
1.65,0.30227803730256253,0.43938975254654256,-1.6349167198364039
1.66,0.41205875916237195,0.4239876482300396,-1.7108108593570688
1.67,0.5098328990594974,0.4018484184803196,-1.9218980836328614
1.68,0.5719199583205291,0.3632226708514471,-2.167026954883446
1.69,0.6105295920311188,0.3170081496930788,-2.325026624144795
1.7,0.6733999088980649,0.2714259383593382,-2.3489987411031836
1.71,0.8027557069247044,0.22581239306028555,-2.294404631390959
1.72,1.061985297232211,0.08363015281251894,-2.2005332891048734
1.73,1.4503591701945382,-0.30016878812552183,-2.123852418728344
1.74,1.7906134240879128,-0.8594257563733061,-2.1364563909287555
1.75,1.9699634727708433,-1.3382638532617053,-2.164763276535028
1.76,2.0970932018165134,-1.5544237030969263,-2.0840385131595047
1.77,2.288336215605462,-1.4624701205337292,-1.855225554511772
1.78,2.5771611078756105,-1.1813584937707229,-1.6004360080339604
1.79,3.0139799183951532,-1.1257799125408627,-1.137615366261306
1.8,3.2309287566288587,-1.5278646291948261,-0.7106046022815761
1.81,2.976283295374967,-1.9998346104232778,-0.8192984727294841
1.82,2.465121260613788,-2.140368703315638,-1.1595830353314511
1.83,1.9380539980031262,-1.8028594348855453,-1.3838241086714718
1.84,1.6042230943604887,-1.1136820794011917,-1.3196247871115494
1.85,1.2018841273483711,-0.28710236250884497,-1.3305314473900423
1.86,0.7718815175519238,0.42746486409672685,-1.813855110889053
1.87,0.4497465212716458,0.8547406793022244,-2.2179936781444893
1.88,0.13711717513361663,1.27377897865044,-2.3509964004719723
1.89,0.10782163580328886,1.7893775896676318,-2.3282288688494908
1.9,0.2162610177659801,2.1957849226562782,-2.3347554625008846
1.91,0.2756639652500291,2.3102077641621968,-2.343418820731339
1.92,0.2244992946043758,2.212458666182915,-2.2243884917731327
1.93,0.1410002893594386,2.0206865772664804,-1.968834862228222
1.94,0.07742621421106105,1.8024856187816394,-1.570804521856516
1.95,-0.027265798886490944,1.627335787589831,-1.1206183064281157
1.96,-0.13253119963354548,1.4849829600639826,-0.8441325250576961
1.97,-0.06426811090870567,1.2353936421985616,-0.5462510114976212
1.98,0.23182856027848103,0.8072192673023315,-0.26487407642277483
1.99,0.6280330489318002,0.3023230837383494,-0.3092583834166116
2.0,0.9178246663911122,-0.039667885604044224,-0.7440541821585755
2.01,1.0637712613135166,-0.07887698386181129,-1.3828192585596597
2.02,1.1567157324669706,0.07538942082808647,-1.926003246558894
2.03,1.1963944231352466,0.08862117186444429,-2.0832356676231463
2.04,1.4719094832331039,-0.2979028074567388,-1.598754216321546
2.05,1.8514408022298916,-0.6988916202102529,-1.2848996054680972
2.06,1.870296882216589,-0.9035666729419582,-1.8190214499517765
2.07,1.5716834780785909,-1.080120051656317,-2.6156406927523257
2.08,1.3513729621120862,-1.1884246648238537,-3.1103425028447607
2.09,1.7711802933845695,-1.3476890651779103,-2.9718246807485653
2.1,2.459263732467339,-1.4477452781427254,-2.6145909705025097
2.11,2.610492053429218,-1.4319717372562057,-2.490070163943952
2.12,2.2521984226851868,-1.2264193809194015,-2.3355493238838325
2.13,1.3172366965469977,-0.683534546898156,-1.9265983761585097
2.14,0.22188422660753063,-0.024979576464343338,-1.182252803907458
2.15,-0.24935234850992302,0.7383707014269999,-0.363774610723536
2.16,0.040856823524907195,1.4969026907676748,-0.08153897128542495
2.17,0.3462938319137643,1.8618216793884708,-0.3941561572015559
2.18,0.3871608702002614,1.6565869227235293,-0.7028970911117736
2.19,0.6425472579579513,1.1319436147210626,-0.9469974530689772
2.2,0.9881190887794161,0.3591186904424398,-1.3305398899589502
2.21,0.8670708990330696,-0.5628331749300922,-1.832371956281959
2.22,0.9408444875609296,-1.1773816227127025,-2.1616993806538383
2.23,1.3197632975924267,-1.6350204040236584,-2.2490460112866866
2.24,1.7052709252220506,-2.0459402369986255,-2.24917377430242
2.25,1.8789554218982236,-2.289066011624159,-2.3495171539277186
2.26,1.9137582214768771,-2.3049556659385355,-2.627836076207796
2.27,1.80291951849062,-2.1071477665524863,-3.029702597727135
2.28,1.7030518989632513,-1.8714558420830891,-2.9889263134311093
2.29,1.7995857393637793,-1.4555693648390076,-2.609990892282881
2.3,1.9713115703500232,-0.7041463421859554,-2.133420689536187
2.31,1.967882760377178,0.1877313615484929,-1.5322288144423315
2.32,2.1023641914941518,0.8419785330122352,-0.6479052305228357
2.33,2.0877122986651018,1.3050881014843827,0.2442652594098793
2.34,1.9351478629486767,1.7182409001969776,0.9420634413115441
2.35,1.9153299189492237,2.04912269645394,1.3984011347628396
2.36,1.7465325354123409,2.105270403635733,1.3951105395119814
2.37,1.4109714684762333,2.0363625279599553,1.0550657236828145
2.38,1.026316516295211,2.042789698844577,0.6140354257044179
2.39,0.6694968056776368,2.254920368678752,0.17650396366901355
2.4,0.5778954620205206,2.458899770208344,-0.37811363237725837
2.41,0.5336379704533779,2.445046232112522,-1.042037843554371
2.42,0.4287712748035063,1.9314146535749035,-1.8037701463520384
2.43,0.28453095111478177,1.3833858235951044,-2.436217948973768
2.44,-0.049498292463447925,1.0668392932265982,-2.9522998436744032
2.45,-0.2724161018765929,0.9558630240696795,-3.142323661627655
2.46,-0.5188475254970455,0.9697996590126965,-2.9062195297841913
2.47,-0.7063010566370521,0.9572258866170187,-2.29990255321476
2.48,-0.7294081146912494,0.6531802661931613,-1.637738663080032
2.49,-0.6358996917707465,-0.231445305237617,-1.4811869682282224
2.5,-0.09586579219359749,-0.9381921781408686,-1.8150560093583386
2.51,0.28303790593841194,-0.7691331955691514,-2.163438612118447
2.52,0.26257142483424933,-0.046073975851034975,-2.2677446211684047
2.53,0.14912123847366285,0.34878214691011217,-2.230667289596019
2.54,0.17734758257844221,0.32693446229973955,-2.256641228494369
2.55,0.19200035429844,0.04064212620407305,-2.2468510284220056
2.56,0.08017463536121325,-0.3211928216461293,-2.1827113966735308
2.57,-0.31880803375749944,-0.4612239815931209,-2.041963819065792
2.58,-0.4763071152941394,-0.1795731193784156,-1.6383155370791411
2.59,-0.3919649768956626,0.5214142440965824,-1.2372621403683046
2.6,-0.4417496997731702,0.29057618548675357,-0.9257388835900912
2.61,-0.9373435408958387,-1.2034229302114146,-1.4337870475390455
2.62,-0.3910453643596472,-1.7500348117143811,-1.9007474852657977
2.63,0.8473718655950907,-1.0805194342414848,-1.489525394769473
2.64,1.9002057765373401,-0.820707220319828,-0.8519566460853074
2.65,2.279966111481423,-0.55844801156518,-0.7879211781052446
2.66,2.1287356243440003,0.17993583954512696,-1.098577155448583
2.67,1.1964261998970391,0.6605549689054185,-1.4197442330836427
2.68,0.1355668370108429,1.1693322791518994,-1.5769772131680915
2.69,-0.47050907852667134,1.997928855281069,-1.2627912678584359
2.7,-0.6143295872555227,2.7841298983653515,-1.451663270165937
2.71,-0.7177145354644197,3.2401745049544477,-1.8054630983663718
2.72,-0.6950439395223665,3.3073323120014577,-1.741975062182614
2.73,-0.689286477649561,3.2509226567829823,-1.379550511238462
2.74,-0.8704213678060002,3.4715632443562843,-0.7292077986574086
2.75,-1.1242416999908569,3.9877372433744145,-0.4108841596245795
2.76,-1.2903139903129757,4.073334660192195,-0.4596458280603678
2.77,-1.0869719002168297,3.544471691442217,-0.6886945946973904
2.78,-0.4771880652856549,2.669073375735567,-0.7996990556599031
2.79,-0.05250321612066812,1.7873961972938095,-0.8328825709996687
2.8,0.362955835783841,1.0663292016204227,-0.500288221559918
2.81,0.7987744573724824,0.5925293159891583,0.08110026558197153
2.82,1.037428140292873,0.09962183319227332,0.2915522123716029
2.83,1.29239695962679,-0.04377925381408538,0.6239026598140542
2.84,1.491744584264732,-0.017119069464551974,0.906435513188163
2.85,1.6001418782334502,-0.21201933566949724,0.5383929312629848
2.86,1.7098877411587081,-0.32506184407689265,-0.13407152204648032
2.87,1.825450588573108,-0.30277477909999884,-0.5366125672216961
2.88,1.8634022749090415,-0.205022601443528,-0.8950390943532802
2.89,1.9456456793285628,-0.22078859621074617,-1.422268225898529
2.9,1.761351995502611,-0.4475532285401692,-1.8125282478433957
2.91,1.2671211538707599,-0.24834420750161296,-1.9963537063028947
2.92,0.8384226333438299,0.35270954297241014,-1.9910034034341246
2.93,0.5484933128741261,0.6920346812575071,-1.9180934756045585
2.94,0.31013138246002264,0.7075826816366145,-2.0398919550282293
2.95,0.28117021767655276,0.6189144460238971,-2.149053092558513
2.96,0.3892455411596646,0.5367360880369546,-2.235914050006442
2.97,0.6520989077769727,0.4555715156592455,-1.9561173327224273
2.98,0.770929438974408,0.4616084804896848,-1.5674265774550873
2.99,0.605970713104372,0.514665597760098,-1.1094795321684026
3.0,0.2764308713082529,0.715142134103678,-0.8415510874068447
3.01,0.38335678627730974,0.8608258853410408,-0.8291883631160003
3.02,0.730911428283249,0.999391077044967,-0.6646306909870336
3.03,0.7414635101590848,1.1722740514310748,-0.6985009687009287
3.04,0.6843268135186813,1.3632293616176543,-0.6467840822891616
3.05,0.8836653321609726,1.4312041115341005,-0.4056312363211817
3.06,1.0194928648109882,1.4958200106771478,-0.4077312358747624
3.07,1.4272190155160176,1.331469023587671,-0.4881919491247318
3.08,1.447183649062224,0.9568840715835042,-0.5413439457204805
3.09,1.3521287361959675,0.4903226882820431,-0.48027659514680515
3.1,1.6299127756232181,0.1813377520092463,-0.27783577862828823
3.11,1.7522154676590853,-0.03868550307173334,-0.1190439862217016
3.12,1.9065680137492134,-0.22328572542938005,0.07481843074833538
3.13,1.937129179849337,-0.3276326005916002,0.09861935435291391
3.14,1.8377644131936337,-0.3263999912966411,0.1158228006738181
3.15,1.714264156553096,-0.0393844691407856,0.20955923092124384
3.16,1.8340625511964797,0.3855543509584811,0.26939082399587844
3.17,1.8971785643979688,0.6770228022817246,0.2722468966243017
3.18,1.598705944774642,0.740538436172819,0.14246230172032187
3.19,1.273088618458639,0.7310891548271905,-0.08620046592449683
3.2,1.1074322892993622,0.7785152067306421,-0.29532089739929784
3.21,1.1724699346164735,0.7587755040102921,-0.44362044666337147
3.22,1.4639624873371837,0.4060306275973148,-0.5514409760524817
3.23,1.4846427811894833,-0.08150345321004356,-0.6055392683535271
3.24,1.1369399814405348,-0.5660660575259719,-0.5972357927645984
3.25,0.712797248929097,-0.7760166674758117,-0.6259525543923763
3.26,0.43465180826507827,-0.7143674319742319,-0.6469963298972212
3.27,0.3047081198716229,-0.5325658961360745,-0.8375501477802816
3.28,0.41189038149439666,-0.2891492534934053,-1.0356660197592915
3.29,0.4787312232793074,-0.15417686039585057,-1.2119224771313086
3.3,0.4470408993215553,-0.14762724043525632,-1.3460181437495538
3.31,0.33925444293913426,-0.12960440930375633,-1.3632913279733874
3.32,0.3413982460322101,-0.10435432535488684,-1.3082598798131044
3.33,0.46461133339286803,-0.08141114565867011,-1.1812379828295385
3.34,0.6809697632720157,-0.12936564639878,-1.184560229622042
3.35,0.868657782980896,-0.2864011175218999,-1.2901564114630455
3.36,1.0347553708911768,-0.5756568921154933,-1.2745262468616971
3.37,1.046084587295546,-0.8681812078635153,-1.1959074405616905
3.38,0.9344510075480424,-0.9642399742946544,-0.9677251801731624
3.39,0.5939045420014389,-0.7886031436341129,-0.7614569516545673
3.4,0.2406210449598728,-0.3359909188857835,-0.7020043036297681
3.41,0.06131007031636501,0.29544688919052065,-0.6846159958332692
3.42,0.06936704518269064,0.8315297225183778,-0.4517809565715107
3.43,0.040656587653006164,1.124010221828005,-0.26685559812726417
3.44,-0.007745673198626466,1.2010503452648014,-0.29530999485641335
3.45,-0.016732357099599176,1.1917048822946832,-0.34836304674728286
3.46,0.11066856939833876,0.9669722402213161,-0.366234909607908
3.47,0.5233407920449726,0.2695471898419817,-0.2858330157083353
3.48,0.8357405902324739,-0.7447131964408052,-0.3133227272090878
3.49,0.6623884650448537,-1.6359322779676926,-0.3312934114643068
3.5,0.3596096369222796,-1.9579848151451364,-0.21389067980169033
3.51,0.06708021895105051,-1.589874601081819,-0.1344946665940358
3.52,-0.1395023618888046,-0.9700793785724643,-0.05756048792506755
3.53,-0.1824866062107905,-0.5135925499080491,0.15662445598392438
3.54,-0.06541578604531224,-0.2579208177110377,0.3092293832046323
3.55,0.14599135255641799,-0.034399548239128185,0.33350674465624003
3.56,0.3180525304961682,0.10951293372273163,0.32863513487306084
3.57,0.48064220767916255,0.15592468053875433,0.317966898963694
3.58,0.6799419439493861,0.333529172399848,0.13396086519919706
3.59,0.9881674664982044,0.585967015545811,-0.0020782755580635954
3.6,1.3942250619516485,0.7803672820964173,-0.20698428100948402
3.61,1.7364429871749159,0.691185400596394,-0.3152897883466693
3.62,1.7524625708254777,0.4170104281196219,-0.37488500713914186
3.63,1.5082334941011522,0.29481710958815194,-0.35212169917535724
3.64,1.068766846924618,0.44305064615480255,-0.01614869396935783
3.65,0.5949341210236193,0.729192030600982,0.4919960186886813
3.66,0.2507141299967093,1.0914999947904793,1.1264964390843124
3.67,-0.10602701019875721,1.3122641755874518,1.6819949079030938
3.68,-0.31899681780361544,1.2351650609274043,1.9946294860150986
3.69,-0.3351647076631005,0.9291613852354691,2.164259003119752
3.7,-0.1445710606283998,0.43760032499240653,2.219016859688115
3.71,0.09984112102084933,-0.1416821074387801,2.1070843852061216
3.72,0.28070542947297805,-0.752987324266659,1.7205098229125362
3.73,0.43720806520897415,-1.4132055825058556,1.0696843280541177
3.74,0.532686904466308,-1.9603143166577603,0.4676510440504177
3.75,0.5223518976286929,-2.087179515284063,0.07817087558332902
3.76,0.538771681462584,-1.9814965015997403,-0.1753337844270931
3.77,0.5497188731897806,-1.7558455353366758,-0.5432232291994146
3.78,0.3816503134743541,-1.359308366932173,-0.7906746580229924
3.79,0.14146899181034991,-1.0023238550264626,-0.6901787552782421
3.8,-0.02039913802683855,-0.6273005032442233,-0.419143073609705
3.81,-0.13101936426853433,-0.27285559362310974,-0.21318925312384054
3.82,-0.09731253147334235,0.02456987463914745,-0.14004360890991496
3.83,-0.0342101175457772,0.23608542270670171,-0.23611421735092575
3.84,0.010758203439201459,0.32180663009515237,-0.5526695158322248
3.85,0.05449322987636702,0.3580953422290873,-0.8838726106353152
3.86,0.16353980474283888,0.2284267772954079,-0.9309018237216363
3.87,0.3899208574021357,-0.21060915317709478,-0.6434220940167071
3.88,0.6695017283478772,-0.5355569691758313,-0.05178685722899472
3.89,1.0493841582962604,-0.7778477312329988,0.8261026554166057
3.9,1.0005196015898559,-1.2193043333026643,1.594693731372915
3.91,0.7373398975444558,-1.4069710102286586,2.008163447254479
3.92,0.5322979879752846,-1.090222317566794,2.178083131183456
3.93,0.40749229243652724,-0.5064071581594453,2.1640457334506635
3.94,0.45396102940977984,0.0029212328588078536,1.8385675421794976
3.95,0.6387725399206426,0.31099799821225793,1.1898172677022512
3.96,0.5265882206476823,0.581312493567792,0.5063255487307919
3.97,-0.1608457451942086,0.8411065811899431,0.07605428119339534
3.98,-0.8046922019031211,0.9231233322406215,0.11846183911537098
3.99,-1.0820101962841577,1.0121528416636927,0.6314512323091225
4.0,-1.1811562005234642,0.8807222462543546,1.0578496874904346
4.01,-1.093122280404688,0.5551240100561896,0.891138123097292
4.02,-1.0418393921254199,0.25461530818486605,0.3627494724358118
4.03,-1.2004999898572597,0.03913367736293879,-0.10105004996085731
4.04,-1.3718145477638855,-0.13904698118262426,-0.409355204810334
4.05,-1.2250676258584376,-0.3452089404263524,-0.34322228378882164
4.06,-0.9769403175940459,-0.5383583922635046,0.05052999588009688
4.07,-0.8066319413114743,-0.6434058056183526,0.4335238722857194
4.08,-0.5254257761191293,-0.8767631134662481,0.535308172749515
4.09,-0.17078961518526134,-1.1796765374947047,0.7955554791284575
4.1,-0.5142884609799632,-1.4263860840046028,0.6069008369686613
4.11,-1.1810836803118778,-0.7090864896421889,0.23249806730141262
4.12,-1.564359981340517,0.7019627454696555,0.2945050542541531
4.13,-1.7076620131726439,1.310663967844238,0.28673127930981596
4.14,-1.2233398135964528,0.9605823356367406,0.260992430592382
4.15,-0.6677022603580132,0.36277232375976426,-0.08603018420236833
4.16,-0.8418335776258647,0.3915429027443921,-0.79407023052004
4.17,-1.2790527998766663,1.1186375148429224,-1.01377542350383
4.18,-1.6134353833308963,1.489705490832097,-0.9325051396011895
4.19,-1.7787719285724617,1.3995116419350984,-0.8238107452951893
4.2,-1.7007564453820951,1.3380135787681537,-0.6599736828305294
4.21,-1.552737344686545,1.3314677762141212,-0.4879985680867924
4.22,-1.2293378121212435,1.130888398522867,-0.2873150852419525
4.23,-0.6557975680458275,0.8369779805309151,0.00014956464699245116
4.24,-0.1581684166998916,0.6097907049530523,0.2186625087560588
4.25,0.2087292541996108,0.5185370194686569,0.3112656383540556
4.26,0.36583592795083586,0.4881099598664556,0.34371709632056496
4.27,0.37579306962182196,0.49777840712169613,0.31646754966082286
4.28,0.4998509967020263,0.5743658348391888,0.31315843426871137
4.29,0.5531787615329349,0.6659074077575654,0.16497954049964716
4.3,0.4001261752359936,0.8043856135908103,-0.06002841707411025
4.31,0.2754140933048803,0.9842459666001934,-0.15121009782125505
4.32,0.23905652700574517,1.173856619110685,-0.1507517950327043
4.33,0.1441127188458601,1.37014942434301,-0.0954119739819929
4.34,-0.06597223721569669,1.5724972423328434,0.025930630201959796
4.35,-0.25112586104243123,1.6495858106191694,0.10565077952281726
4.36,-0.282680489047947,1.4851743187052668,0.06902867914941423
4.37,-0.3134937652125542,1.1826267871054126,-0.015133126375809566
4.38,-0.3314765983716911,0.9066561052471184,0.10428207791565447
4.39,-0.28593334665047443,0.7547298992600527,0.4220619234245711
4.4,-0.1423776148744931,0.6849149149227185,0.7380933684786753
4.41,0.07944266871720271,0.5281785281410987,0.9034301413833591
4.42,0.25676081572097975,0.22455054913771946,0.8400943730245511
4.43,0.2544897238296644,-0.06994577416831027,0.5879708477902992
4.44,0.1204335805631195,-0.18704359125971065,0.4104388350907016
4.45,0.060590543584179576,-0.05247693148203087,0.26813230175285757
4.46,0.2111231278191593,0.2171570837207937,-0.0026301755632389566
4.47,0.22301559549460426,0.3357559956657424,-0.2761441191136796
4.48,-0.07714140739603696,0.3187264225930349,-0.3586046879079652
4.49,-0.3360975952079032,0.33787313989568024,-0.34037007575129646
4.5,-0.4210222714951795,0.26326216622094367,-0.4083360279562753
4.51,-0.34981667715627723,0.0658504459440305,-0.5341001248303904
4.52,-0.3060591323897246,-0.022897373086427,-0.6754257367623377
4.53,-0.4312649698523886,0.015303339943740054,-0.8131227300390254
4.54,-0.45181826125370905,0.04570048609724286,-0.8844058128350326
4.55,-0.3234837512820931,0.08459423753856536,-0.8744157785055678
4.56,-0.18456888242323358,0.12998870123539427,-0.7622020342665959
4.57,0.019677346402126795,0.12128888623283468,-0.5004060302968254
4.58,0.25979800540033127,-0.03229770616624105,-0.21566192938964132
4.59,0.43958100610541945,-0.3161470291264172,0.051459949260346215
4.6,0.38611220772010324,-0.5427100951687976,0.24413354950731464
4.61,0.29946897726559235,-0.6913925291631999,0.4275204795179135
4.62,0.5119362969607201,-0.753771364094731,0.7105428131522723
4.63,0.87061096922609,-0.6864867996192361,0.9354784607785939
4.64,1.3070046713980834,-0.6101968189405239,1.0526526470363826
4.65,1.7439152144461179,-0.7128059699256057,0.9595845665640156
4.66,1.8644085337229268,-0.9283687339553075,0.7612705397074038
4.67,1.5852372202248328,-1.0576126314555363,0.5624589267531316
4.68,1.2238036207756262,-1.0562825217307201,0.3534126532742229
4.69,0.8694863420435212,-0.855733243664334,0.10438705299596449
4.7,0.560348716069546,-0.47745770627751544,-0.3609729438567067
4.71,0.5692412789330137,-0.09617906810495978,-0.9217775277215127
4.72,0.8259526227950832,-0.045585267830801544,-1.3200991298676843
4.73,1.1301762011514735,-0.28539404424050674,-1.4564703861366282
4.74,1.2348249188372191,-0.5285702495760844,-1.5580148438260684
4.75,1.0563765307901876,-0.8633894545457772,-1.595574687595661
4.76,0.7414016115596401,-1.2405787983532526,-1.4915836589737692
4.77,0.39736602855093955,-1.4264050661128564,-1.4804587901715143
4.78,-0.07270773527659449,-1.4492915875121366,-1.3757695087792203
4.79,-0.44316907427937596,-1.39152276142766,-0.9731502356001343
4.8,-0.5491423865309969,-1.3406590433107772,-0.5618724498016923
4.81,-0.49324058300988305,-1.3628796766937705,-0.21875114606875742
4.82,-0.44047523319308823,-1.3865890812756145,-0.06200782457867005
4.83,-0.4773655021025822,-1.1982859755182773,-0.05704727653281287
4.84,-0.47931051493910726,-0.7505817867649679,-0.13665705723111576
4.85,-0.3745814170852317,-0.5458411113394492,-0.44555227119084156
4.86,-4.3954091781840345,-0.5262891456253399,-1.2441446189213983
4.87,-5.648587888424149,0.9702530579265107,-1.9311208928435106
4.88,3.9127262454269176,2.3233618780689773,-1.295727733015924
4.89,4.8744340780571545,1.2964437822672301,0.12346538072631137
4.9,1.1320897268027532,0.5870075420187842,0.7879200177305319
4.91,0.6217487148337902,-0.17399844798243644,0.3568809408738802
4.92,0.2625207502711935,-0.7039055454743299,0.662526495056594
4.93,0.5276313340592462,-1.0735824709078965,1.1242018411298773
4.94,0.5120667013631434,-1.7932385886238105,1.1481509991726726
4.95,0.2040887559680602,-1.9186770564221254,0.9716177105836709
4.96,0.6268994005674748,-0.8658164197804373,0.5080935793560621
4.97,1.5977210502890329,0.5042122220382338,0.1715665588591654
4.98,1.9726516491649961,1.5442745073607171,0.46607708790514857
4.99,1.4766506269824837,1.6303672279866008,0.913955958390866
5.0,0.44309179817417926,0.841307138977227,0.6680727906076354
5.01,-0.31389786440825024,0.018901708538281315,0.2429685023568094
5.02,-0.45496527412967,-0.4578088529186974,0.10748037443248198
5.03,-0.037468260537618855,-0.5736455498147895,-0.11343913108450086
5.04,0.8595118467152518,-0.29954427702931175,-0.22170831120295598
5.05,1.4034048240323755,-0.3156016035297091,0.31548596068270873
5.06,1.088958217938399,-0.49763554898877266,0.7227607290671829
5.07,0.801177072713589,-0.23003605813287634,0.24969409144575994
5.08,0.2518645102856697,-0.7253098552068543,-0.8101312700626218
5.09,0.12265201735069914,-2.3747521664629363,-1.8923915492389023
5.1,0.6004626892461856,-3.4212301275396864,-2.0674368377319072
5.11,0.916657453360657,-3.1818418641532276,-0.7159307435874899
5.12,0.7730356827635882,-1.7105653609783327,1.1199743115086784
5.13,0.708631091249126,-0.42471634932363406,2.268650671596683
5.14,1.7516698419921768,-0.8440866307549154,2.7704302466193176
5.15,3.357147074653133,-2.162153467785083,3.103187420242744
5.16,4.4599110540612275,-2.8848614759292333,3.2452529437589677
5.17,4.247870604866881,-2.380461001977685,3.300264256119826
5.18,2.4256952911510745,-1.1553707956787915,3.420278532674056
5.19,-0.6103618194360215,-0.2913040317041191,3.3059942217253337
5.2,-1.9617371943030621,-0.4603987874865692,3.021150616890517
5.21,-0.10525604426027906,-1.4497744165181472,2.636401282490077
5.22,0.6602252645508638,1.0021189689738472,2.0277932954000804
5.23,0.6011814014886072,4.317117091095181,1.0015098203392956
5.24,-0.09644841823109679,5.988910355728554,-0.7238546113253816
5.25,-1.0635854377693437,6.1470454078494186,-2.340651981494604
5.26,-1.9996923643630844,4.960555223074979,-4.705034461404456
5.27,-2.7582840181566595,2.7141133074089585,-6.23192292786348
5.28,-3.735349521028764,0.07763327457956332,-6.106885364640609
5.29,-4.472709220448188,-1.5947438829258513,-4.446003728270803
5.3,-4.138727971678262,-1.7842660111555362,-1.9471378779682351
5.31,-2.8472817506658856,-0.9007758399879198,-0.09653630976299013
5.32,-1.6523224508003715,-0.04544200315595824,1.6433175709621268
5.33,-0.5491954120535321,0.15685461417032334,3.5191540065470863
5.34,0.607581912744376,0.655285259039084,4.8253881512119285
5.35,1.7336890450963325,1.4190251682451005,4.9284409302471035
5.36,2.7779116455918555,1.6986021775551352,3.7777564272634834
5.37,2.8031884063434203,1.7158943806932456,2.2995820820123383
5.38,1.5751689818442254,1.5757029437069714,0.6964401224721266
5.39,0.06649635799304457,0.9863403156583563,-0.9107728351136539
5.4,-1.1187171652140633,0.14798931572444532,-1.7727035548688879
5.41,-1.696306528986565,-0.37974425684973057,-1.462910437647125
5.42,-1.3884730176862372,-0.6940677079849208,-0.4656608087161874
5.43,-0.8156350873262933,-0.916265962806818,-0.10901707110001835
5.44,-0.08800381978750468,-1.8967176741708904,-0.7338945187925487
5.45,0.4634396620747328,-4.406289256037522,-2.2955756908889207
5.46,-1.166016993729654,-5.0739563177514615,-2.9839378084954076
5.47,-1.7066770250170802,-3.2755176516988977,-2.7701400818245645
5.48,-1.193296976625187,0.25960633171709846,-1.2782796148151316
5.49,-0.5166141878311862,3.2113205046226883,0.5454907662454169
5.5,0.22877754401043499,3.572931157156006,0.6811681743912193
5.51,0.5631679297102999,2.9794730925766575,0.37433962155471734
5.52,0.4958860971045044,2.259132525460341,0.07179081943601891
5.53,-0.13901544549519487,1.5447349239186972,-0.036501845871168746
5.54,-0.3701803439333361,0.7803662771938268,0.09003617706905882
5.55,-0.1857251933310088,0.6528335734288638,0.397909164340415
5.56,-0.10931609911936699,0.9953590870381747,0.6562522533646032
5.57,-0.023354142149194682,1.3650676966306519,0.7570514762160713
5.58,0.06120853107666468,1.469851826243556,0.6977237233391008
5.59,0.16421771735030327,1.434856563249494,0.6129192930437705
5.6,0.31378714021170606,1.5653228938260695,0.5295390943619892
5.61,0.5907606612008289,1.4574188740115834,0.36782715889853795
5.62,0.701753713119543,1.2161374192294003,0.3009945796786318
5.63,0.47874272161219195,0.9930022071753769,0.6395068485830574
5.64,0.016306326026765818,0.8252465574513653,1.1325481959693113
5.65,-0.3323700221246391,0.6497935461794013,1.3743340651749094
5.66,-0.5239044097705627,0.06778734905416339,1.396342837307307
5.67,-0.6768754961665246,-0.49345823061303223,1.433004405503858
5.68,-0.6774456457666838,-0.9334053086627906,0.9699646946414986
5.69,-0.40104628800475084,-1.181014384713811,0.13392050217252122
5.7,-0.016288420040529623,-1.2163640745326518,-0.7239856944750159
5.71,0.618116220052337,-1.1560175763513914,-1.3320429151073585
5.72,0.9837486129832916,-1.0616374654993015,-1.4603020618315388
5.73,1.3734710001992834,-1.1386245539004345,-1.3757356497051663
5.74,1.7933041417890467,-1.1504206415538512,-1.3402352401298798
5.75,1.4693938472036336,-0.6393317399250532,-1.0834714821673375
5.76,0.6734172357848404,0.32880409398601873,-0.7851982926578022
5.77,-0.0662925114507145,1.25391520466923,-0.5306899026058233
5.78,-0.4411679877325136,1.8429143814780982,-0.15744802503956032
5.79,-0.3075590976115415,2.0021042584268858,0.468881436005037
5.8,0.24884822310752833,1.6960277325638857,1.1178598152893855
5.81,0.8634669612664547,1.0176783547235582,1.5248982131154643
5.82,1.1942129979397307,0.25883799094288523,1.4942739418620425
5.83,1.1998442457333103,-0.09393157108248296,1.0542642001665326
5.84,0.8853349156309396,0.17764076463020978,0.39765769986551724
5.85,0.5977150684477259,0.682967656714883,0.0591176291274513
5.86,0.6124413147374962,1.0225551582782544,0.1788730534141581
5.87,0.7716242022525716,0.9643897348259308,0.4667760000925087
5.88,0.7803613258830755,0.3896208068764285,0.8468073906637353
5.89,0.524557252675293,-0.3848900047425444,1.085071571086321
5.9,0.32912037092229596,-0.8630848465272457,0.9428033544135903
5.91,0.3687916023689346,-0.7675603365149385,0.4807320202363387
5.92,0.4450758983804772,-0.2892846162046241,0.13380703900606444
5.93,0.5259063854513153,0.09619555633023785,0.23410214399049614
5.94,0.3762039156423413,0.21647017502217508,0.5338328931142845
5.95,-0.02715027835579173,0.05493234522175627,0.7651539639382315
5.96,-0.5865542997131327,-0.08376433611634748,0.7168517463761309
5.97,-1.0840081295815722,-0.11112397037983067,0.3828611862132193
5.98,-1.1486580149005257,-0.09825297026276517,-0.12455020184143592
5.99,-0.5794688502608215,-0.19838476816180461,-0.5993573253157989
6.0,0.09956977237611349,-0.298082175414127,-0.8738557682816142
6.01,0.6256707513944296,-0.389280242817706,-0.9220444090658997
6.02,1.1503136665153844,-0.838588706979817,-0.7221879795021332
6.03,1.4111469812475668,-1.43861162755149,-0.2974963204799361
6.04,1.165509030456782,-1.7732316351779094,0.062130635130108885
6.05,0.7606084587051261,-1.9735936124201965,0.107002073951101
6.06,0.18087636967263254,-1.8181449937173033,0.04376947195333047
6.07,-0.2507995013569579,-1.4356838781386336,-0.17453520276945364
6.08,-0.4697184289645337,-0.9133721653685045,-0.4271455082954016
6.09,-0.1545170241363853,-0.4796818249772457,-0.6534651103613306
6.1,0.3085225074190229,-0.14994665300284776,-0.7339829686517625
6.11,0.5125937290096525,0.06404368855540186,-0.7298905237943754
6.12,0.3855947206521783,0.2922788436376656,-0.7211542472798977
6.13,0.11850450006759887,0.7553564692352648,-0.7628105722769704
6.14,-0.20470756404866186,1.3526306524253804,-0.9226380927608371
6.15,-0.6352370758267245,1.8073120626595738,-1.089997252616
6.16,-0.739683808225611,1.783686445649311,-0.8653072390226154
6.17,-0.4595596730467613,1.3609951200334311,-0.31949317374033576
6.18,-0.023284803090956548,0.8382301320727282,0.15786191216638634
6.19,0.3344242002770628,0.2176490990856809,0.294737094888989
6.2,0.496605921716972,-0.40985995109752843,0.15605019157811462
6.21,0.35185418958064846,-0.7702320599829243,-0.17934097870801582
6.22,0.061240572761682294,-0.8091241802553674,-0.3654494847679565
6.23,-0.3032683689867332,-0.42103675561902615,-0.029346213702422453
6.24,-0.5304892242713227,-0.04687503625363765,0.7370215690088588
6.25,-0.5820342736338802,0.06313442581780987,1.2014436977940932
6.26,-0.5094506568030062,-0.0789957812224562,1.0743013557181122
6.27,-0.46891809350753594,-0.399124297244465,0.6032805996186682
6.28,-0.3482635646613059,-0.6950280632412662,0.15051678047814024
6.29,-0.03951929613926726,-0.8234435994020953,-0.15259970692662148
6.3,0.37987921836839267,-0.8215607196112115,-0.08364414644094294
6.31,0.7176545132729011,-0.7882974550145928,0.2998757264199038
6.32,0.9377485473905335,-0.7837195144225648,0.7178494684430866
6.33,1.1241990470110919,-0.8877245086300294,0.9050083390153081
6.34,1.1642262323134407,-1.034976262529726,0.7493921092811054
6.35,0.9138970038822448,-0.8222838820569626,0.45561627796672444
6.36,0.7145916434837277,-0.33236195983313643,0.15738896553259796
6.37,0.6667451409792676,0.041607356312207126,-0.012631222603625583
6.38,0.6575517985925683,0.1318713938481789,0.09574420712723916
6.39,0.5731651354767581,0.05575130839411755,0.3726266504536016
6.4,0.2990404092752149,0.11991974817634363,0.6374534102465084
6.41,-0.030776400496531214,0.2077380044578034,0.8169917372585027
6.42,-0.18504544973049836,0.07965277694239517,0.9633614675453409
6.43,-0.05464862217955816,-0.1645905759056123,0.873205989675459
6.44,0.1832995946119496,-0.15375764758343158,0.479500697147352
6.45,0.3258240471654526,0.20911068200655689,0.07434820934443152
6.46,0.17842599404788026,0.7555557675287092,-0.1833469690348149
6.47,-0.18571099168423297,1.215066998697175,-0.24739047994870603
6.48,-0.5640391712025752,1.2980167633855135,0.0063199335686289415
6.49,-0.7162205586675949,1.1293765607952582,0.4824344880838524
6.5,-0.5877369033299868,0.8126685179690456,0.8697900993108948
6.51,-0.19145645220683546,0.3496267678490192,0.9066560507148843
6.52,0.18752283993921023,0.059644548692541696,0.41189333015978413
6.53,0.7304562797201493,-0.7201840857382955,-0.12080930584053298
6.54,1.6723542720346787,-2.2446243693727963,-0.3603668238473617
6.55,2.0107660899254127,-3.95224597779129,-0.021484738671594814
6.56,0.5069841132255078,-4.445213537944055,0.35719247759074524
6.57,-2.023561932019898,-4.921971357459294,0.5549305018130923
6.58,-4.251308590852404,-6.263263031452468,-0.6486046956653666
6.59,-4.0971872794584,-4.809894063799667,-2.147241859143295
6.6,-2.9239260202373516,-2.3199719466739137,-2.3286562568777036
6.61,-2.0165002785017045,-0.5271993699534074,-2.0541883343220797
6.62,-0.9662892086425673,0.7511412626929636,-1.9420830051694842
6.63,0.4878460671003212,0.5627159883632307,-1.5571754984572144
6.64,1.5309324419196966,0.9005740715089228,-0.607126859270183
6.65,1.8387275352396815,1.8786571881915555,0.16643590498662533
6.66,1.206769660925853,2.088204851064434,0.2007098615654042
6.67,0.20085049769439997,2.7221343817519523,0.5323950108798587
6.68,-0.6228092274849197,3.2623229072621,0.8992195960052537
6.69,-1.332674644294308,3.891834278657547,1.2050036692877375
6.7,-3.710149708773008,1.1844841402459392,1.0733244563744135
6.71,-3.3113723981278653,0.6260442064247196,0.7252877988588199
6.72,-1.6576882948056577,1.7291096458749664,0.9242355071130474
6.73,-0.7072119271609005,2.30716132289806,1.0950858612595369
6.74,-0.411687871081814,2.5324992049570985,1.2442217840908327
6.75,-0.4932404684090063,2.430169941202194,1.0717869979335608
6.76,-0.1147125855002814,1.9853881927565242,0.6639734093675115
6.77,0.2297896774222624,1.6857221246300824,0.6132355315668726
6.78,0.05891753558552104,1.6574478469863136,0.8217511715484914
6.79,-0.32665002811365634,1.4718462980259073,0.8768353109959611
6.8,-0.38241618266876704,1.0438152484150522,0.9939995887959953
6.81,-0.07959365652472225,0.23528379741088826,1.0917462251969428
6.82,0.1930844192184424,-0.7442274295848982,1.238604458163313
6.83,-0.30625083427174377,-1.3396275094990244,1.464628525713089
6.84,-1.2502261497736065,-1.6481634569686288,1.8617211746845277
6.85,-1.6302813435218177,-1.6163324274904916,1.9255905165957354
6.86,-0.6805934784753578,-1.8725031097551255,1.2630291678515748
6.87,0.21534529738143304,-2.393773280370661,0.28240024814890496
6.88,0.49256575462814167,-2.5345546604863434,-0.7896153352748465
6.89,0.5236295280324473,-2.4428881903024884,-1.4887513796146834
6.9,0.5238176737699465,-2.2152214358412685,-2.208329768982653
6.91,0.6939689719748423,-1.4393304311752086,-2.710930576092835
6.92,0.9774052891024777,-0.43345424633892987,-2.1186277141110628
6.93,1.174426140367418,0.33188830248729734,-0.8225796179502567
6.94,1.114263678414133,0.8708412749471289,0.15945514787605844
6.95,0.8309570743909784,1.0167227235322434,0.52101409250039
6.96,0.36250677192236,0.9398653866453522,0.3188817950618912
6.97,-0.17829503076578973,0.9016927782214532,-0.13824630631781595
6.98,-0.6718053532740811,1.102428782055567,-0.33409635257088527
6.99,-0.8597348898555491,1.318819098472867,-0.07772156074988815
7.0,-0.8829848080092594,1.420948827741808,0.23851433965365498
7.01,-1.0059947301122893,1.4386721344071098,0.23091593866650165
7.02,-1.1593857908206462,1.269933664837675,-0.05011973199937292
7.03,-1.0902167536743141,0.9419643753562064,-0.3088644439912153
7.04,-0.693997880910438,0.479480233942136,-0.30116238395962847
7.05,-0.10143521424255567,0.06714153519440737,-0.09196797658207827
7.06,0.456363075624026,-0.2112520176812681,0.17492340209804882
7.07,0.7351979593112974,-0.40751640829254276,0.42857126223406866
7.08,0.5518191731473727,-0.4537935158900851,0.476360634410853
7.09,0.01255707921963699,-0.47767348063212217,0.23268693285058814
7.1,-0.5582016817686775,-0.5329202550197054,-0.14209743488343074
7.11,-0.9377882597454901,-0.644239072692752,-0.27931198930756884
7.12,-1.0902412493374878,-0.8405043786180102,-0.08984461894314824
7.13,-1.0105283853819411,-1.0256022055574605,0.12786853117451535
7.14,-0.7655022923575463,-1.141990026106114,0.18384880448588695
7.15,-0.5412788181747894,-1.0519993212627483,0.013044380706510364
7.16,-0.49880803401383167,-0.6311719361169088,-0.34663606712000006
7.17,-0.49322363014694665,-0.1705560307597229,-0.784204180266442
7.18,-0.26492460465003986,-0.010476465339191455,-1.0772472024618496
7.19,0.15502973808632334,-0.06648875602272461,-1.1494279643256762
7.2,0.6106210443951817,-0.13765744531741825,-1.0221532955928097
7.21,0.9608261844950468,-0.1879107943533736,-0.6131983686894157
7.22,1.0805584593199469,-0.15878511523612424,-0.05216174814318082
7.23,1.0291036572169983,-0.01577009324005653,0.33612026272259027
7.24,0.7859387495147018,0.17595151574450008,0.41896700132706166
7.25,0.32422644561259023,0.41320516186595535,0.23811258895488535
7.26,-0.2152879991236956,0.6244465999025718,-0.05317841736683766
7.27,-0.6121202541381389,0.6854404794358089,-0.1412938681099114
7.28,-0.7634073616270869,0.5684393679543676,0.08738933867705852
7.29,-0.7701356511080043,0.3026706333876066,0.34580955123842266
7.3,-0.6503706193585334,-0.058236975678031815,0.3183730013320856
7.31,-0.490838750660725,-0.403167000340393,0.023430338501496777
7.32,-0.3990591120832076,-0.6505932198999788,-0.36147667442831166
7.33,-0.39959466984903724,-0.5548129322729397,-0.7326493871289493
7.34,-0.4008244939627437,-0.03532852457628092,-0.9966062002595865
7.35,-0.12898885350074402,0.41734327345394556,-1.031536083654528
7.36,0.44546057050921295,0.3951881320219548,-0.7993948973838289
7.37,1.0310569941236563,0.04475181309565777,-0.5356823199174017
7.38,1.5152410806289476,-0.39889970412348547,-0.4957245244751749
7.39,1.7652143261547506,-0.7371835699208341,-0.6575611928519134
7.4,1.6119416736592653,-0.7755749438571475,-0.8077430039762802
7.41,1.197900229738782,-0.5921958436964043,-0.6945085036212694
7.42,0.8591339598564178,-0.42630165595183694,-0.13727025536141169
7.43,0.7622504143741881,-0.4246971890902223,0.5860720098010143
7.44,0.8660928068464251,-0.7417878349493926,1.061259508269402
7.45,1.028329771205255,-1.2915569294223972,1.1324069240044323
7.46,0.9963113491793358,-1.6886048118521688,0.814818098761798
7.47,0.6254611841396824,-1.7522753649228857,0.3574030054597473
7.48,0.09992619696545982,-1.5653915133643452,-0.00902906415225544
7.49,-0.2848861251037899,-1.2670329153098985,-0.18662698293287727
7.5,-0.4643602932678011,-0.9324983572834714,-0.13859825060950068
7.51,-0.45144984946690375,-0.6464606924159731,-0.03666347034510345
7.52,-0.20770239546230282,-0.4844100897602905,-0.08759611683957545
7.53,0.10024580798400136,-0.2686555222191263,-0.27874728234068114
7.54,0.3042102740884477,0.13811108213317663,-0.4028314471718902
7.55,0.42269500272144267,0.5951094237125244,-0.2675270941255375
7.56,0.5259550206025873,0.8508059535143058,0.11903157211667158
7.57,0.7166761776293213,0.808870320556715,0.48239775379807565
7.58,0.8622895155415583,0.6539875731121079,0.5437425919013218
7.59,0.7006036741900638,0.610970491868113,0.37686451440342755
7.6,0.2744547885475485,0.7292427380799417,0.1844313177336765
7.61,-0.19387331406077069,0.8563644625929718,0.03374969732367917
7.62,-0.580289865235309,0.8322436737891935,-0.014699186993349751
7.63,-0.8574724303102382,0.6076074011928501,0.056152699566876914
7.64,-1.0646824741813388,0.31787678007109577,0.06948672466705492
7.65,-1.2322999290831158,0.15462881684582638,-0.17154988677685218
7.66,-1.3004060871219598,0.056585821470230106,-0.5869684383666988
7.67,-1.2224123264269793,-0.116444411974803,-0.846379859864471
7.68,-1.0755794026868741,-0.452441836074226,-0.6856171240848915
7.69,-0.9462307376039311,-0.8547954075382033,-0.19095695145189598
7.7,-0.8687951056906434,-1.061654107319398,0.24024287460512622
7.71,-0.9104202851340244,-1.012973300307952,0.2863368096701431
7.72,-1.0618249148108319,-0.7182403159409015,-0.002320938435194846
7.73,-1.2018044745241006,-0.24405840033574924,-0.2768120687391314
7.74,-1.1823462553294222,0.24309624523084408,-0.346762077990425
7.75,-0.8457983670275336,0.5230763073954411,-0.48300431915299546
7.76,0.3661860144604283,-0.6437451452873956,-1.708398695409216
7.77,1.307393145314496,-2.276834298993595,-2.506834714165952
7.78,0.8577298442895878,-0.5990119376980327,-0.9294477666546301
7.79,0.46634202447847367,2.3159182691084164,0.5712476619952052
7.8,0.33273376175439556,3.030160910132588,1.2820457339145879
7.81,0.2069501922248716,2.6855807412838097,1.5361808937017443
7.82,-0.1947648592690367,1.9087084720973424,0.9794166504612691
7.83,-0.5403113435180104,1.247962681103811,0.05593897659439358
7.84,-0.7220848365873016,0.8042917687206605,-0.42666855616367205
7.85,-0.720115299660295,0.6355777336507475,-0.2812719264763041
7.86,-0.5964650129648744,0.5206583740910294,-0.02822397916885002
7.87,-0.5210438361764338,0.24893450808064826,-0.15404164160544534
7.88,-0.48227486217342064,-0.08763611495288781,-0.5959414861654956
7.89,-0.2686269816538184,-0.24170589739613316,-0.759219317834522
7.9,0.25305764248302476,-0.0914195880997702,-0.39101428320122134
7.91,0.8055051365778371,0.1342425606720929,0.13325340742990308
7.92,1.0765718528827841,0.2824755437539851,0.36147945393036046
7.93,0.968303550063207,0.2529892196168799,0.14853894169581258
7.94,0.5855080001972804,0.022951518898062566,-0.2970851591082576
7.95,0.14728216224735893,-0.24721208724725563,-0.6590700128613639
7.96,-0.28191130699269595,-0.4311354312826746,-0.7610006370637401
7.97,-0.6840128926963992,-0.5149094686549222,-0.5306390957362179
7.98,-0.8924682111040547,-0.5855587692019472,-0.058357958458374076
7.99,-0.806463236390617,-0.7733247298566803,0.39786063912055725
8.0,-0.6128770403324454,-0.930608903552846,0.5421036406124333
8.01,-0.4830053855694687,-0.9052106606476873,0.30945173143206567
8.02,-0.47642304147201014,-0.6325737639415484,-0.027133077132083374
8.03,-0.49626871046432125,-0.14236288953694284,-0.2977097126752047
8.04,-0.3754084410216674,0.2436256401019446,-0.4594264981025459
8.05,-0.0970717768459877,0.45231456692568084,-0.5130116000504091
8.06,0.15602532131112257,0.6308317300713953,-0.49483118118369307
8.07,0.24535392790969765,0.8106866984222739,-0.39115065804681687
8.08,0.22929782287367007,0.8489070278540066,-0.17751629598441845
8.09,0.16005346936277326,0.7570413223653749,0.04495090089029179
8.1,0.11945909611282211,0.4535574363812144,0.1659698459631867
8.11,0.10861634080074739,-0.11764789209932627,0.22606214673579803
8.12,0.09232117988191942,-0.5339892747630279,0.24853543429874136
8.13,0.062491693726528866,-0.7142306415485523,0.1451372580841212
8.14,0.08372908066749267,-0.9126674095616714,-0.1079708630676408
8.15,0.06697094665526929,-1.062795291924378,-0.33531494422406055
8.16,-0.07002994630362251,-1.0692146135709095,-0.3797563909959731
8.17,-0.24263204841320465,-1.0778502947093942,-0.1878788659087199
8.18,-0.3262794894194331,-1.1323572537924664,-0.007850892276966314
8.19,-0.3708437158617429,-1.1165916812766958,-0.03778317076109752
8.2,-0.41360897057874463,-1.0001296645851352,-0.3063271065654658
8.21,-0.45197904189806565,-0.7571307664361782,-0.6946079683221835
8.22,-0.4969120155202629,-0.5139961137183169,-0.979932714179697
8.23,-0.45336610780912406,-0.31332775899039117,-0.9888843146646406
8.24,-0.28799579857042296,-0.04267540010622461,-0.9189288095012468
8.25,-0.0674800932489875,0.227679797436069,-0.8157984830892845
8.26,0.2873803201481412,0.5561894400175321,-0.6353898402942136
8.27,0.6204474291819377,0.8840631816832891,-0.5045263669966282
8.28,0.744359523001005,1.1368031116066069,-0.510845983329334
8.29,0.7467881414231109,1.1308995403824038,-0.5616813509907416
8.3,0.6978322695395719,0.7841165660900087,-0.4847365793199603
8.31,0.4863809580345782,0.3772959457808589,-0.2152450444426629
8.32,0.280893525871917,-0.024061034631712948,0.21838818716319783
8.33,0.24016603987049415,-0.4021095510425084,0.6406862004579787
8.34,0.19478868861710774,-0.5107769271299004,0.7053198451478444
8.35,0.11589176292605659,-0.33134259726738524,0.35669301904211825
8.36,-0.027554999242622565,0.0027763731517816905,-0.016402080496098183
8.37,-0.1899315656775089,0.33507092082012885,-0.24665643901668963
8.38,-0.36363539068791506,0.6143960969762304,-0.41156892345434476
8.39,-0.4461301131246476,0.7581638933087347,-0.5700728767657115
8.4,-0.4574758789780311,0.7856093041637505,-0.6534847939116956
8.41,-0.519254770339563,0.7499122879235806,-0.594725570929597
8.42,-0.5480875224057263,0.5179056896292786,-0.3474788645985695
8.43,-0.5363576604857461,0.17123911264440092,-0.07506976556912788
8.44,-0.4430867506047348,-0.20093469548040818,0.09068397431563924
8.45,-0.2619917325361773,-0.6478095724359164,0.1830112214861801
8.46,-0.11551045792051974,-0.9217751773592512,0.1785297225959234
8.47,-0.10222492459202352,-0.9890879650957629,0.03245935723509225
8.48,-0.22060785679531647,-0.7795730506431785,-0.09815076187671602
8.49,-0.2597289520748087,-0.5700002696817694,-0.020448580538631904
8.5,-0.2705505301810257,-0.5003400429802423,0.3335504501387896
8.51,-0.27280702932697126,-0.580029275123754,0.7244039138581414
8.52,-0.1055916054117673,-0.8615031724384786,0.9082737366766066
8.53,0.019253949548811336,-1.0763277594495584,0.8638923110007662
8.54,-0.04326606263223577,-0.9257368341418042,0.6185448193192418
8.55,-0.028875475580301915,-0.6140474647909754,0.4505780434324561
8.56,0.0655529600311697,-0.26965918140693057,0.41625805954736866
8.57,0.11013696987845235,0.112564189401491,0.27520518191045
8.58,0.217178285429967,0.21777799588518648,0.0108834795321487
8.59,0.3054308436821771,0.12077480492743721,-0.21779090037225204
8.6,0.3294539709136614,0.10384201974718782,-0.42766394081830367
8.61,0.3192758846171686,0.29525121329783166,-0.7630372252444844
8.62,0.3184811723359108,0.3400319133005069,-0.8559324602109671
8.63,0.25179600246287154,0.3800568355341959,-0.6944005398607261
8.64,0.1890029944880396,0.373251166057856,-0.5075113869474399
8.65,0.17259281272645688,0.18504205556361314,-0.3053315923125982
8.66,0.21584966620750462,-0.21793749737944382,-0.05243449960925289
8.67,0.32680787897899544,-0.5960009960980222,0.19667522532463205
8.68,0.28625431792515527,-0.5621339180565256,0.35192279999935683
8.69,0.08809602259794311,-0.3742877119402443,0.2220635012661609
8.7,-0.22585765957610912,-0.23666318880634704,-0.19077007737326754
8.71,-0.46354475783022064,-0.1824224104848848,-0.6535691176236308
8.72,-0.726005969771362,-0.11073527150008937,-0.9494664564187377
8.73,-0.9568720799710467,-0.03999307501509422,-1.0130854913655296
8.74,-1.166830188889196,-0.059208083943065364,-0.9244159991592295
8.75,-1.3461343939862775,-0.06254302875011349,-0.7609349792041218
8.76,-1.4448319517522255,0.017800337729485284,-0.5723817619735988
8.77,-1.4177040043034306,0.051300913252063034,-0.32152889377437044
8.78,-1.2116989832346465,-0.1745732287177351,0.13559847940706582
8.79,-0.8503035378336072,-0.18507384678030084,0.4044136736335612
8.8,-0.3807033339222479,0.09742635780946261,-0.11635938006783234
8.81,0.43328367893295133,-1.314234825551736,-1.4979234273261501
8.82,0.46772157146466875,-5.75794899342789,-1.885775691072155
8.83,-0.9379234810734128,-2.4233159010609446,0.9777717041234367
8.84,-0.10440846624160824,1.6854882406858196,0.1381719657583629
8.85,-0.0764398085698887,1.7281304326310922,0.26367246292248103
8.86,-0.051340390958029856,1.9318752928512146,0.4838975815674773
8.87,-0.32093490194194857,2.6872389665324827,0.5977309520432665
8.88,-0.4825971797086001,2.50551348620797,0.9642941179233716
8.89,0.019524186668166413,1.7610608714822946,0.5992628685958876
8.9,0.3112416232803938,0.8241016951802828,0.32065507294169426
8.91,0.6492689417482161,1.0009591040551764,0.18055428063771045
8.92,0.6228725977025741,1.805853810403775,0.5392516570195875
8.93,0.23071820316727346,2.0025943553462455,0.659435203132368
8.94,-0.4207431046546708,1.6793832962378257,0.5572982794365257
8.95,-0.62384323768207,0.877251067856026,0.9541939337708629
8.96,-0.8807563474009958,-0.16882955728790358,0.9954068739108425
8.97,-0.9414919792375749,-1.4029631364472699,0.45850791507650734
8.98,-1.0310966034007774,-2.4885649753801085,-0.5928698826848114
8.99,-0.6473907285571038,-2.697250422227939,-1.4132534682438338
9.0,-0.11879060225725094,-2.1962527937834087,-1.350588557081493
9.01,0.318829763303763,-1.4416978269754392,-0.6209845609842701
9.02,0.5473388958509582,-0.7746991196661618,0.0018312860809163321
9.03,0.43212701981337204,-0.36898587637471636,0.0950737756456785
9.04,0.038176041720437336,-0.04386474151529611,-0.21592275100303387
9.05,-0.3118258939556063,0.37889753382421393,-0.5649753452584878
9.06,-0.538932837654386,0.6907398565301042,-0.6968297016781786
9.07,-0.5072108758811272,0.9020037799910247,-0.740888935199754
9.08,-0.31015318139992126,1.078387165171331,-0.8873566845637807
9.09,-0.13697337145088598,0.9995512517883534,-0.9576145890847276
9.1,0.188204034786779,0.694280704675482,-0.8648524764142355
9.11,0.6421519508004017,0.4706057472092732,-0.668081568525035
9.12,0.8943215587087298,0.40437937892974013,-0.43487824321346763
9.13,0.9873053593209755,0.39528651684646393,-0.30402151104010156
9.14,0.9090379874088481,0.3037644966016418,-0.22991271910939862
9.15,0.6053737112106687,0.10568294776882231,-0.26012306159215765
9.16,0.1904268013969443,-0.1511073742583896,-0.2634175223248814
9.17,-0.2384697144348024,-0.45830224096242256,-0.12361436058671718
9.18,-0.4796110618070515,-0.6460538818920667,0.003908593259411523
9.19,-0.5268625898402226,-0.7506448774505217,0.11004358782165322
9.2,-0.40937938348882325,-0.9086094754916956,0.13103905664596086
9.21,-0.3320229927672672,-0.9604994019116028,-0.012378413333830432
9.22,-0.3350795789555169,-0.8645580546176473,-0.2999762330635987
9.23,-0.3465699579863792,-0.718521504209743,-0.61764441528373
9.24,-0.35228805241459504,-0.506969353121138,-0.8116879958056225
9.25,-0.35185764901406086,-0.29071926689428074,-0.7611003791907075
9.26,-0.22964148624529485,-0.011154560044678755,-0.5190942639160838
9.27,-0.03506779367643906,0.26357098423058584,-0.25493909588365626
9.28,0.14995893013878614,0.4308935276291901,-0.11947690606513743
9.29,0.3929829861515676,0.4285050022832306,-0.13268875566661245
9.3,0.7161117850406694,0.20629931112033403,-0.26205685033717374
9.31,0.9284741602924027,-0.01492544947204452,-0.4323928386615839
9.32,0.9415506449096632,-0.11386043212785665,-0.4831046839688678
9.33,0.6566191426848327,-0.16941413642182995,-0.42404830631719265
9.34,0.2523415968672119,-0.2959797311664874,-0.32216487638196917
9.35,-0.09687185649171638,-0.4525490678481898,-0.2557530166270874
9.36,-0.2778084647372926,-0.527737838290921,-0.2182883537925928
9.37,-0.3993916789128067,-0.5132910967250389,-0.1375108853151491
9.38,-0.479419799555891,-0.26866883544642706,-0.18674521091394106
9.39,-0.3352344156820593,0.12177280778740646,-0.43340288098180385
9.4,-0.21487567726893417,0.5914750135919926,-0.6762728074445788
9.41,-0.08224066391640315,0.8720872488904937,-0.6233110375000701
9.42,0.1385063269664146,0.8490775666643826,-0.440502720633798
9.43,0.2971690565184468,0.6818060718307632,-0.3354580051173537
9.44,0.48101969421834595,0.30763227788489916,-0.23971711847544705
9.45,0.6353959364097878,-0.17610507595305938,-0.18735239527814845
9.46,0.682959666907828,-0.4952008613348121,-0.25125441051568514
9.47,0.532686678127861,-0.5223011709176709,-0.28780194105325274
9.48,0.30967616721036056,-0.4974184467021263,-0.20446109149050704
9.49,0.09889814051690302,-0.5597561865860838,-0.06978549496001352
9.5,-0.06982080649893417,-0.6075912239822019,0.12823809215038423
9.51,-0.12952455254483702,-0.7164051652449064,0.3726643649617638
9.52,-0.17756118306006224,-0.9540289311459015,0.4937384920536014
9.53,-0.3218408761224915,-1.1266928633767166,0.32341196507655134
9.54,-0.5471883981628434,-0.9625380750458297,-0.08144957343880864
9.55,-0.8462663260527729,-0.5465048803545878,-0.5198585228953593
9.56,-0.937272903593246,-0.2374780333346225,-0.7253630804778705
9.57,-0.7200101337661751,0.06183109156391694,-0.7241865082153557
9.58,-0.36166957244856124,0.509655405926098,-0.6276669127802879
9.59,0.0763931552582553,1.0275809919938117,-0.5768905491850654
9.6,0.6315768062257408,1.236545773190131,-0.41796910501828577
9.61,1.0451775542860924,1.109797349414468,0.04721687058592348
9.62,1.2153678783493778,0.8194799965642051,0.5318895301340814
9.63,1.2232922630528933,0.5075597582307823,0.6585321065603934
9.64,1.0665208028949065,0.24454319644721836,0.48482157809716603
9.65,0.902674919362396,-0.06506454373853802,0.28033618118665604
9.66,0.8956032206401189,-0.45602271296124136,0.2235631443453958
9.67,0.8881080451369174,-0.6527545661982608,0.26460717902526004
9.68,0.6728108348424917,-0.6108853481903009,0.17306878101176265
9.69,0.481879742112648,-0.7565370613187277,0.009659251532287652
9.7,0.3072259570895368,-1.215295691891096,0.05952340600836296
9.71,0.09036453018529149,-1.5839715951233793,0.023211753980574186
9.72,-0.23004310769790828,-1.558336474151205,-0.09926170248716114
9.73,-0.6458367602796882,-1.1807017560256825,-0.25572864935216744
9.74,-1.0113333448688575,-0.6694647057526102,-0.33460375583637314
9.75,-1.2509054832405841,-0.29658397939718206,-0.08140437748221988
9.76,-1.3386671052484258,-0.08452303875871668,0.3670648938024948
9.77,-1.2690114929787262,0.09314297537086133,0.6007410726220388
9.78,-1.2040315429341133,0.3029354468396625,0.4985706143249818
9.79,-1.2583342248923015,0.47518905908008663,0.208678326741356
9.8,-1.3346970743486213,0.7054034544115515,-0.09923096492160369
9.81,-1.273261778655554,0.9220594766235802,-0.37720404375427496
9.82,-1.03449412629555,1.0113152066621562,-0.5339339135789659
9.83,-0.6964440431945604,1.0044620106744944,-0.4734937799790904
9.84,-0.32252788020539935,0.9102507523153566,-0.33454293127412377
9.85,-0.02706897830924239,0.46924609362373765,-0.3211437374747859
9.86,0.0070009958101044665,-2.586434117228983,-1.8798492882471862
9.87,-1.0400329449904289,-4.930219336673946,-1.3061775729331029
9.88,-0.8099210088516923,-1.2941478793503929,-0.14683525150249627
9.89,-0.12035231564895167,1.481206828864955,0.01354307156667223
9.9,0.16905059103057113,2.235788657628638,0.2819416045708542
9.91,0.08017535998628132,2.0691240209992783,0.6671568365445253
9.92,0.08424257276984655,1.6485323414861959,0.682555019823282
9.93,0.18271426121121925,1.1931205938826017,0.4944697409759224
9.94,0.42496970577844717,1.4403078769655995,0.4697239204789669
9.95,0.40945682874412925,1.8238064530997697,0.5371053297421928
9.96,0.14419338464457765,1.7170816758361338,0.7252349426034171
9.97,-0.2590359429826147,1.2307926896076409,0.9131319825041744
9.98,-0.39046225864478523,0.5733278156918484,0.5211052702573334
9.99,-0.5212486455007695,-0.20361687403227058,-0.18282286908987494
10.0,-0.6356191089297033,-0.8397953408639911,-1.1262581609190094
10.01,-0.3173083409250223,-0.8946681870591543,-1.6465238076955393
10.02,0.1846021791254667,-0.6396021015113762,-1.3157267110821496
10.03,0.6441620661987967,-0.5369251696425048,-0.5272588198874844
10.04,0.8633241166310517,-0.5617839621762765,0.006731508494119764
10.05,0.7627242426682177,-0.5617831196517797,-0.06529824179158851
10.06,0.3666995632399344,-0.5223152088308366,-0.4678427414580582
10.07,-0.2250977657973058,-0.3211272451393183,-0.6962088407542165
10.08,-0.7888152047335533,0.060015945068341604,-0.6917485462802186
10.09,-1.1354585887737025,0.3899690310665038,-0.6454033815902259
10.1,-1.1811809364600585,0.555723601759448,-0.5202476689133473
10.11,-0.9703580578071889,0.4245554672249363,-0.19347458545506951
10.12,-0.5835928808878843,0.08418689324671573,0.00713144797667048
10.13,-0.1983246703053128,-0.24213941748813175,-0.15585375041099844
10.14,0.08291837486005876,-0.3370795978142943,-0.37883357694528236
10.15,0.2318735041818916,-0.16506601126073317,-0.46080510528543744
10.16,0.30430476796537015,0.06794176918343998,-0.43283559532813715
10.17,0.32314952350005416,0.19491233215762416,-0.31297716123013625
10.18,0.35450936972506714,0.16355299061643083,-0.09825977039899667
10.19,0.4755772129795004,0.033463678484134694,0.1692022763349766
10.2,0.6722698004070817,-0.11739845375881004,0.3930691158810929
10.21,0.8304666233523338,-0.20978220353087748,0.4734977589140755
10.22,0.8886921240176439,-0.20706721332426611,0.36513463569480425
10.23,0.818871036588736,-0.1568922806803851,0.09538831195593439
10.24,0.5529081866165195,-0.008419942766460691,-0.1703679650926568
10.25,0.1773662319566546,0.14137079465255104,-0.288295755633865
10.26,-0.16188058199140432,0.15085871473390375,-0.2304225403054236
10.27,-0.41753514978718986,0.1418267683212134,-0.09112691790423655
10.28,-0.5729461725205565,0.21294630397152065,-0.020680166235702
10.29,-0.6601160714599301,0.22867420686721973,-0.09856872825432683
10.3,-0.6927774065515633,0.0719870263792366,-0.25050131771177303
10.31,-0.6702570665659574,-0.20217740061980208,-0.3712836900243179
10.32,-0.5823160403912959,-0.5827061489008384,-0.35499653956942123
10.33,-0.45261545004130144,-0.9876405101053064,-0.25460225026012456
10.34,-0.33360999556868426,-1.2447239562589398,-0.2748683447289609
10.35,-0.25717236220124007,-1.3316410968117398,-0.3831457185055503
10.36,-0.3366464254328971,-1.240987901461677,-0.4845331023263019
10.37,-0.5753344725094083,-0.8480991894446889,-0.655753354973885
10.38,-0.7646715583628115,-0.20941342748434644,-0.853550623452506
10.39,-0.7666074241135308,0.4187458786905016,-0.9791027879374895
10.4,-0.5619532664295999,0.8565956339282301,-1.0345634957414793
10.41,-0.14412944174564885,0.9705020176579096,-0.9441408893261597
10.42,0.3050701688701681,0.7242189063539975,-0.5759058547561996
10.43,0.6051159701800854,0.22579021449765288,0.0037078503019895167
10.44,0.7610235385161445,-0.35792675999989,0.5491842494869609
10.45,0.8468418298770469,-0.8990704165628702,0.7887252346339385
10.46,0.8777832642403897,-1.2429184882657887,0.7430930043790415
10.47,0.8148311546901453,-1.1598755976695059,0.603466319801278
10.48,0.5621989096721716,-0.5021021019850382,0.31153753902324266
10.49,0.007607846148794437,0.498692730869536,-0.2060521966328275
10.5,-0.5818184747236722,1.3168084971189833,-0.8605095240532947
10.51,-0.816070951254701,1.5602754798307088,-1.3004037552819876
10.52,-0.6773870472467866,1.2720656119687817,-1.1124006561685196
10.53,-0.41051680438309235,0.7590331068262924,-0.5145892120507779
10.54,-0.132311461584276,0.17512366997933004,-0.010469177890744528
10.55,0.03786612135354146,-0.2192929410005083,0.17392508321341782
10.56,-0.10478248215781728,-0.27420512198651986,0.048788401621486614
10.57,-0.4260366248978669,-0.29062985750478637,-0.1599761174401537
10.58,-0.6940925950689527,-0.3365949808120163,-0.32472614169910957
10.59,-0.8970647620070757,-0.2869121339953134,-0.4175921888959025
10.6,-0.901749831186041,-0.3149205792137875,-0.35365686248881917
10.61,-0.545071662402317,-0.5373735080054272,-0.12597142934318567
10.62,-0.036034429783150725,-0.8115481391576821,0.2029291994195762
10.63,0.3168919879115889,-0.9785128703249927,0.45536709111031676
10.64,0.44267209112644473,-0.9493340563914806,0.45495971314899813
10.65,0.38510810971588455,-0.8435063571923562,0.35516608029712976
10.66,0.2926071981440694,-0.8071074666008443,0.35979867768180834
10.67,0.3176570678378259,-0.8766989277247433,0.4661052718478538
10.68,0.4071184143496029,-1.0490560144447134,0.5268248164234554
10.69,0.48855005894957615,-1.1860810175763532,0.4270525299290977
10.7,0.5962359442270763,-1.078352827145276,0.2189470260436501
10.71,0.7291512907357702,-0.7560231781907569,-0.0023509116438593853
10.72,0.7702794986521727,-0.4616500216262036,-0.13898238285780337
10.73,0.6720952548739777,-0.220845255348524,-0.2191497617499791
10.74,0.5179628543339465,-0.05463193496503439,-0.24821318540173465
10.75,0.3634386009369816,0.029960118596845237,-0.2328361842451816
10.76,0.21290663068110297,0.1197951237384665,-0.19516475268895128
10.77,0.018749485740400376,0.2424253468046588,-0.10598184011095853
10.78,-0.29502539129493716,0.5093192315775752,-0.07265099541881587
10.79,-0.7696952817162734,0.9966252425985053,-0.2606895277275789
10.8,-1.3019362869926392,1.5520912337836121,-0.6876322265652031
10.81,-1.7554789889875981,1.896688311768185,-1.1879621665866122
10.82,-2.0775510536348545,1.9063025797859656,-1.4984528102860597
10.83,-2.229140322871973,1.7550615088067842,-1.4894632940427615
10.84,-2.190122110008922,1.5466606263450295,-1.1801900103272462
10.85,-1.8896933645172023,1.2667590227072398,-0.6756328263470098
10.86,-1.3610335728310659,1.0324553441336122,-0.2547479067713312
10.87,-0.8384702381108926,0.9432452950891282,-0.12595934882052123
10.88,-0.4701020296074663,0.8760607246636427,-0.2516354322117
10.89,0.06315209542745455,-0.20644196279369115,-0.7675645593858402
10.9,0.7187031116021996,-4.768268987881706,-1.1222455499096662
10.91,0.8069164594265738,-6.988131499992514,0.1053306175702476
10.92,0.42160450455465814,-1.7165051864977423,1.085553572573728
10.93,-0.1145107181694815,0.6169648600231817,0.5386034418516815
10.94,-0.3349399438629759,0.6080050928029104,0.6643397099159174
10.95,-0.14347656755788754,0.9254016623846137,0.5222180719027059
10.96,-0.14692545255844078,0.7271835828363222,0.7190190486491697
10.97,0.01644218937978083,0.9387403688125627,0.9985639374397447
10.98,0.6339875632383167,1.6400866222076111,0.8776357269575606
10.99,0.880867578024794,1.8724772184153122,0.609344698932889
11.0,0.6302382664874003,1.5996868457557885,0.3323993380521878
11.01,0.4203503096183787,1.2521794893999543,0.03208082486152523
11.02,0.17027821608638474,1.110891544235452,-0.10373518523243093
11.03,-0.3390466181321398,0.9860688195202816,-0.14892368436624584
11.04,-1.0039825827692497,0.48494569446111846,-0.367567420548918
11.05,-1.513833872994861,-0.2534341182619808,-0.7921960855913096
11.06,-1.4004622947527683,-0.3470193551116063,-1.2809425756981887
11.07,-0.6879682557977403,0.2465531414820221,-1.3613734598924883
11.08,-0.07947388623871864,0.694867988141413,-1.0843430260356053
11.09,0.3120061837580195,0.8526159806411228,-0.8898341335324295
11.1,0.48006843992982745,0.8259714371619948,-0.7713212706558996
11.11,0.6062123485938998,0.6083102319643333,-0.580771004369194
11.12,0.7550109611709929,0.278307927171206,-0.3441919328141648
11.13,0.860628186660367,-0.1327182570981733,-0.1550331819755375
11.14,0.8162122674221284,-0.5112718573696559,-0.034334001834676255
11.15,0.6027363703565082,-0.7526410713966493,-0.018147430265186042
11.16,0.25464569536573817,-0.990812577536237,-0.06904931088135736
11.17,-0.24726835531163607,-1.188073911391776,-0.10985528048739646
11.18,-0.7662285467429275,-1.35112216454746,-0.12944343266367103
11.19,-1.0165604487508502,-1.4780248681135915,-0.053796453528719035
11.2,-0.8302714836372194,-1.5660825018378512,0.26058852976845914
11.21,-0.2088217291461063,-1.7041145939759215,0.6337965070990214
11.22,0.5339693739361373,-1.7795361709139033,0.7633564005156923
11.23,1.0090722344024117,-1.4920473999999437,0.6414549283883245
11.24,1.0884564022885963,-0.7593760672896301,0.33882105800766793
11.25,0.8881444311469493,0.05814486246451395,0.04107007000795799
11.26,0.5236827224085516,0.7638444157094884,-0.08171749575805261
11.27,-0.043497660593810494,1.4602650019690897,-0.16029927471650315
11.28,-0.6671159397278368,1.888428711561255,-0.09706649469085954
11.29,-1.121907196552751,1.9839350095668198,-0.015384149636265918
11.3,-1.314235664020381,1.848180483179704,-0.1248351108738974
11.31,-1.2112869327200806,1.3721595492724106,-0.37584717687753016
11.32,-0.8881991353053031,0.6715054436053588,-0.5830331975746827
11.33,-0.6015965245355707,0.09003201889145104,-0.6297733157109608
11.34,-0.45017161439451814,-0.3644867874793272,-0.5162236909271973
11.35,-0.32718093202526216,-0.7236998969721801,-0.34435405318234563
11.36,-0.2801259331782823,-0.8846973588296336,-0.2537707644405557
11.37,-0.30758512912635383,-0.8122065647236534,-0.24703511364149014
11.38,-0.25694985268168746,-0.7238641375528713,-0.3494680666170758
11.39,-0.07241724009998614,-0.837375362303485,-0.5339225006740644
11.4,0.2071210112816636,-1.2424810758424025,-0.7612399329775811
11.41,0.3738247852168043,-1.7932051656493464,-0.9516989632781253
11.42,0.39772978776321466,-2.284634138054247,-0.8816068083384198
11.43,0.3065540082405912,-2.6011918082709724,-0.1400452449202666
11.44,0.19597932217856417,-2.6492474914210273,1.2905532214697018
11.45,0.0790179695884527,-2.400271197659813,2.335352852045065
11.46,-0.22713277617112745,-1.7066056014528352,2.2871707393794525
11.47,-0.8201016661397126,-0.38478494563897864,1.3229388503032196
11.48,-1.329267586621649,1.5601621091986457,-0.2206582388131583
11.49,-1.2999277675471264,3.6973071051939104,-1.7292368910791072
11.5,-0.9750726890350415,5.457737204684502,-2.6844493416141546
11.51,-0.26175735904358105,6.141714844382364,-3.129186353834735
11.52,0.8827974641445515,4.93212662558634,-2.873698963951898
11.53,1.8880136519846717,2.0420300635522053,-1.9112740906114842
11.54,2.16390552595292,-0.5333946644014188,-0.7660163828837164
11.55,1.8048844318580715,-1.648001355577715,0.1606500487469765
11.56,1.176189748134721,-2.01128438275631,0.891280264803229
11.57,0.6199922611324412,-2.0767616022056914,1.4768800381235618
11.58,0.43795657929848775,-1.69069809603944,1.5916817284921865
11.59,-0.3212233434339929,-1.1219429777382621,1.2170754593123243
11.6,-1.4880531570224216,-0.892879837441338,0.6488805030657073
11.61,-2.391643066095389,-0.7498385274385535,-0.0670796562767467
11.62,-2.8032515953159756,-0.6587134581727128,-0.5658394571684281
11.63,-2.5260610896253493,-0.6360538445517354,-0.757077145733927
11.64,-1.524610905145634,-0.3238322258368488,-0.646321253537178
11.65,-0.5374389892193597,0.25063824270398494,-0.37820903192501326
11.66,0.19882863760903197,0.6650317322962719,-0.3976188474910352
11.67,0.720764272736371,0.7504678658389178,-0.6807971883120119
11.68,1.161544042187243,0.2890490696855456,-0.69709987933322
11.69,1.3923617193690554,-0.40885560861743925,-0.30255219024416813
11.7,1.2187262569457393,-1.1073362937119524,0.42983934970500653
11.71,0.8012301322125215,-1.6981962023956156,1.1264730541582835
11.72,0.26550262740169744,-1.871543170556576,1.291786205352724
11.73,-0.3457001459590613,-1.6114757715283865,0.9763597322786813
11.74,-0.9940605598088285,-1.120363644538009,0.4774603027601817
11.75,-1.4547953748029903,-0.6717347746318821,0.0755578988596996
11.76,-1.548074819114968,-0.4446382213325669,-0.12895568015899347
11.77,-1.3357813622396486,-0.02662987610571093,-0.26445283309234474
11.78,-0.9875286702799643,0.5855801875547867,-0.3639252906800415
11.79,-0.6485562731561951,1.1954407223259549,-0.4254251511291278
11.8,-0.3912576798014622,1.64705161289833,-0.43662648170448265
11.81,-0.02213168865830394,1.3008211864336856,0.059530424388522934
11.82,0.3543894824023528,0.4240115919809467,0.9204883283367475
11.83,0.5042194849166004,-0.07769938022893644,1.3928574910516374
11.84,0.35855100141437135,-0.6362261108953932,0.7340271248588242
11.85,0.022580091302093267,-3.497176000536301,-2.178028536333055
11.86,-2.1679254761688527,-6.323521313212521,-3.1872944336997877
11.87,-2.9911137861207573,-4.521764528854273,-0.9370827646906232
11.88,-1.9229706048205284,-3.182900306736431,-1.6205424856554178
11.89,-1.3267940832658,-2.3769088471768836,-1.7664461655826467
11.9,-0.6624033344372228,-0.7148728756624125,-0.7351496965789558
11.91,0.08770513857477916,0.5921264574419305,0.3320910357330478
11.92,0.057536432001048285,1.2165415465012133,0.6702302047634641
11.93,-0.2246497237556019,1.7354795456820153,0.3453746956437571
11.94,-0.2566682875641335,1.7284167160594892,-0.08057386522808667
11.95,-0.107256384080285,1.6079818517330178,-0.32167575618312905
11.96,-0.010017315408275834,1.9138704097253993,0.2569817630927704
11.97,0.23843474507335463,1.922587575472326,1.0823941533173869
11.98,0.413631504718099,1.626316170683348,1.3222613898592668
11.99,0.4324906542665345,1.651860792436528,1.3447681314709208
12.0,0.4293406752614158,1.948561800804457,1.0764393676272783
12.01,0.2713521359280624,2.1409344193399487,0.7432587464853881
12.02,0.03606667461858839,2.2055010644519846,0.7268513739755696
12.03,-0.2490137765511595,2.077007905434165,1.2204082846609643
12.04,-0.23895749191338828,1.9954227619217737,2.5866279478633905
12.05,0.02443091303563147,1.8792825404385305,3.024366198201151
12.06,-0.2906282378862729,0.9601802184823903,2.511580625355986
12.07,-0.22010501631700036,-0.5824993046516869,0.7765225213923357
12.08,-0.014501577474081326,-1.621111343933052,-1.748526173772079
12.09,-0.2841289624320498,-1.4501189073066845,-3.662855349086634
12.1,-0.44697795337118157,-0.8662832147525192,-4.646310841195587
12.11,-0.43226524401026467,-0.20129925381055563,-4.809422578956196
12.12,-0.07721189598863136,0.46507065918599605,-3.871371513758392
12.13,0.2278599775994501,0.9273263421111292,-2.0596370600268408
12.14,0.30570712154837704,1.0319522266353658,-0.6262337915818029
12.15,0.31525933456179656,0.8563394398759697,0.352540250315806
12.16,0.12785365290584044,0.48440018641707333,0.8684486460980906
12.17,-0.2745657794043437,-0.026898295136600785,1.0355834354996165
12.18,-0.9164056647362868,-0.48931387690071426,0.9222438183535201
12.19,-1.571489996582953,-0.817345066511558,0.7680094095990799
12.2,-2.1087130726628454,-1.0467629979259083,0.6506007747352364
12.21,-2.2033223066130656,-1.2902543607373176,0.34442484275699436
12.22,-1.7435425272065252,-1.5860989201316262,-0.1194565761139345
12.23,-0.9928771348366456,-1.7138733996168836,-0.5028675832631524
12.24,-0.16286368382193595,-1.625702479244456,-0.553007613244478
12.25,0.5486375251604241,-1.4590746564167443,-0.29762649358657156
12.26,0.9579252804708689,-1.155519279871251,-0.19165245468654987
12.27,1.1327863597419512,-0.7523037709418374,-0.22038148222804294
12.28,0.9665436788251587,-0.2295278239347395,-0.19801368388436746
12.29,0.6539176210954936,0.22085605968044475,-0.08579541816559566
12.3,0.4094794239729085,0.5057681745445184,0.04224169395163817
12.31,0.12362675999058007,0.7159556707850135,0.025156990939040225
12.32,-0.04538374428690205,0.8671885340064529,-0.1108345728647
12.33,-0.20757288819440867,1.0544843158461668,-0.3536267140204949
12.34,-0.22555587458751516,1.1489065619673895,-0.6611658849626443
12.35,0.004807458699788311,0.8706714197217152,-0.926686188322498
12.36,0.28276782801133216,0.41869952344376343,-1.1724664333820607
12.37,0.44216047092739447,0.01807212948706443,-1.353872332648241
12.38,0.6013059503255447,-0.46720366296971994,-1.272702391502642
12.39,0.602552702956091,-0.9532688323166084,-0.9334823860734779
12.4,0.3216935783380797,-1.186664630964807,-0.4863929341620734
12.41,0.06460387237585749,-1.3619682168465173,-0.16735600666409925
12.42,-0.17573043679839415,-1.4154393713531228,-0.1117911593651381
12.43,-0.4128457211923349,-1.3556428250300692,-0.20676539282376907
12.44,-0.4699791841702766,-1.4063312109497212,-0.15302159954648378
12.45,-0.45015951378979535,-1.3226779327319955,0.05155961984979031
12.46,-0.3205822842154841,-0.9821442915985211,0.19390360392180395
12.47,0.06583868341168,-0.427356880421638,0.0993710098477799
12.48,0.547696192667589,-0.10050396705111628,0.008369133748403002
12.49,0.8604397811684308,0.042732399304099604,-0.17631806042321757
12.5,1.0025462051300302,0.2531819390609573,-0.44441272431808326
12.51,0.9557876570668614,0.5120873474032207,-0.7223448619363986
12.52,0.8204703981718984,0.7571948155377909,-0.9132850027714289
12.53,0.5722687875603676,0.8546997893817525,-0.9172036890025688
12.54,0.21822033601966445,0.7904425742543748,-0.8680277644338075
12.55,-0.16567341107601427,0.8217524323510998,-0.9056734933206189
12.56,-0.47448973596194477,0.9245233929770216,-0.8923224021175056
12.57,-0.6938199618403412,1.180590510676732,-0.8899324120759478
12.58,-0.7039133209717034,1.365973077892069,-0.9026583557600018
12.59,-0.43032188179440445,1.2044981767815492,-0.9821317934647538
12.6,-0.13802856140728306,1.0508236185951316,-0.9844855369270679
12.61,0.08325621016774339,0.8034630562321412,-0.500122276152565
12.62,0.24137605090432504,0.3464950373837146,0.2853997637612983
12.63,0.3191126532923665,0.043204775455960465,0.8393507640042532
12.64,0.2934858330213344,0.02631606500062213,0.9770821137253433
12.65,0.2726163104097134,0.09971427322080381,0.7231655767955003
12.66,0.2570044944796746,-0.02765322993993051,0.4039824076092238
12.67,0.2959991019970513,-0.4520205641744873,0.24938715628887434
12.68,0.3506082330445963,-0.8798513656238015,0.16613136932660127
12.69,0.3511159362244864,-1.1706563502386251,0.25053607327559135
12.7,0.30868656141036005,-1.3968737721015116,0.5063833443708996
12.71,0.27927607933510434,-1.6756146518657826,0.7996422405556178
12.72,0.22640145543122547,-1.8872825182566924,1.0664761936070741
12.73,0.1605306396078684,-1.9642989459544258,1.2023932980386858
12.74,0.022782322743796674,-1.8271843746766767,1.1081041447517408
12.75,-0.1016831734256642,-1.5589712392484332,0.7903652969016063
12.76,-0.17597327779722435,-1.2263004378106832,0.3611495038932031
12.77,-0.13275843774360307,-0.7446757460974706,-0.0446225426429794
12.78,-0.0339300179134724,-0.0723722392766611,-0.3249596519171697
12.79,0.1285158920921951,0.5126862328166368,-0.41993389179582624
12.8,0.4331227593810805,0.7431990973173429,-0.43498390143947946
12.81,0.6851074553965785,0.735809865619732,-0.4843358163315272
12.82,0.7744318684138644,0.5586633400675012,-0.4395447721094613
12.83,0.7012939324142887,0.285273339272568,-0.29038845913563904
12.84,0.47154021776848704,0.13397697011428783,-0.16037851194195676
12.85,0.10950129554144837,0.14836057166632624,-0.16360140622774338
12.86,-0.2995011237789754,0.31409799471143196,-0.39294170620690366
12.87,-0.7114476683613339,0.5870911304489393,-0.7833803091518928
12.88,-0.979590381603508,0.8104059801065774,-1.1575351466144133
12.89,-1.13449243910905,1.0109695864177983,-1.4289311256253199
12.9,-1.1784260443443575,1.2170649740642876,-1.6076724725131601
12.91,-1.0533706550936852,1.3351813373551382,-1.6178490980782763
12.92,-0.7681069738320876,1.4334674040729725,-1.538961530748382
12.93,-0.2961865837060163,1.4819536978332328,-1.4344099860226347
12.94,0.31456135611130426,1.2478724973976378,-1.334499729524716
12.95,0.8340732848115501,0.7319290605843942,-1.1308599849258263
12.96,1.0910359833731744,0.10881681296979454,-0.8370160094735755
12.97,1.1744857500668278,-0.4332512981840628,-0.5245252098630084
12.98,1.222730411192405,-0.8525199486222352,-0.2565946753585804
12.99,1.185586277067415,-1.2410260502982284,-0.027931658425647276
13.0,0.8699681903136867,-1.544170486289578,0.20095211055348056
13.01,0.1190178415536675,-1.5247144992439507,0.41030984792195313
13.02,-0.42658491843701557,-0.8656460640030512,0.45878450782294006
13.03,-0.5790103102873371,-0.08110624500480104,0.37326194917812516
13.04,-0.7770582236992186,0.24563853158255236,0.37336567482769256
13.05,-0.9579511068950562,0.485562556315101,0.3021146326730013
13.06,-0.8506555016976688,0.6863156395624646,0.21234651413957692
13.07,-0.500480390593183,0.8972976013698162,0.02980383689971557
13.08,0.023508129359619292,1.1478899911425335,-0.25284185333372944
13.09,0.6252526348928864,1.0092538531580408,-0.2533565839214409
13.1,0.9487566117890843,0.7885614387231337,-0.04726450693204142
13.11,0.8786126531383096,0.930799561237257,0.009845632873272099
13.12,0.5817470372335316,1.14803164694027,-0.1025370962632839
13.13,0.14037901671609626,1.2534454623468843,-0.33992876081562867
13.14,-0.41320441406935243,1.4166758156722725,-0.6473371436833373
13.15,-0.9236602859419688,1.6026496666990788,-0.8675778737900277
13.16,-1.2200944895700359,1.4930019787732305,-0.8397383830178613
13.17,-1.3108572051255825,0.8353614547325374,-0.5563306985475679
13.18,-1.3216440844877548,-0.022115324905747358,-0.18079297966533783
13.19,-1.2361569610347434,-0.7238162227454636,0.04315086910739129
13.2,-1.0639739806422803,-1.184593288580144,0.07564291540422807
13.21,-0.8094413077954709,-1.2998639021833247,-0.01692945010379582
13.22,-0.42684724900853,-1.243329784835461,-0.09643571571305878
13.23,0.13657871370669025,-1.357498655246613,-0.08057512883163596
13.24,0.6428644634342323,-1.510679434994583,-0.06718119757403299
13.25,0.9086833110829279,-1.4464638994260783,-0.10679550323789046
13.26,1.0228878351236197,-1.25051685448685,-0.035570808218567486
13.27,1.0377997810697814,-1.0090552088013813,0.22560036527143928
13.28,0.9610934135848898,-0.6419261583085394,0.5509598392210936
13.29,0.7762362485371397,-0.14196073238334003,0.794410350922221
13.3,0.33692295310232406,0.4025339284423745,0.7925253991255015
13.31,-0.37794902528079966,0.9295691684816794,0.4585259240228973
13.32,-1.1095074776059075,1.359809035642836,-0.16491285654058482
13.33,-1.5160330713662415,1.438013886221222,-0.9226718955688689
13.34,-1.5942441815672526,1.1641719031693556,-1.6701767811674813
13.35,-1.5177632364106493,0.8180748387075222,-2.2661361809718525
13.36,-1.2690289735138984,0.45774128724847873,-2.57714774871853
13.37,-0.7517692421268982,0.05278850654681562,-2.6206210326841015
13.38,-0.12130871823054737,-0.291340984779962,-2.5661818104148932
13.39,0.3367902975699618,-0.4687630805350191,-2.5153041821562967
13.4,0.5753205726111716,-0.5758365820636085,-2.4634042050892653
13.41,0.7783261817391869,-0.8364951744394388,-2.3896504807777568
13.42,0.904260134731384,-1.1552590438373516,-2.2443512041064455
13.43,0.7555316669420022,-1.2357199182920708,-1.940223800065377
13.44,0.45923536147493155,-1.0379418285154627,-1.3955702060358706
13.45,0.2718530776298982,-0.7679823946934468,-0.45767184146772777
13.46,0.18934164793498237,-0.6794028937462048,0.7793276211841752
13.47,0.08970226238958229,-0.7603495615643113,1.9097864820791537
13.48,-0.050115650532070094,-0.7207671547719161,2.5728662092921093
13.49,-0.3151352093178304,-0.36373929399094246,2.5918820211408327
13.5,-0.7274898132228355,0.23183944166273354,2.100110942645195
13.51,-1.1017291815387142,0.8097900172829198,1.4141308682543117
13.52,-1.355044762866325,1.1541196038008752,0.7964223820686006
13.53,-1.4785594756458404,1.2453261563743612,0.4276540615876187
13.54,-1.3117018922195633,1.2010339128507723,0.2253734167051177
13.55,-0.8074380160194942,1.111991124798382,-0.05145306101512455
13.56,-0.22491453793066457,1.133278609919342,-0.3821678169628383
13.57,0.1599511172934378,1.4058224490236995,-0.6497676835002724
13.58,0.2555169775962459,1.8620981620649597,-0.8752558874242281
13.59,0.09973602082920545,2.272014354263787,-1.030220268679554
13.6,-0.11495844051732602,2.255660094414019,-1.0217831982399515
13.61,-0.19227596835257973,1.5959276202507942,-0.9089122882548716
13.62,-0.2741152669756167,0.7010947419396515,-0.8668875133376749
13.63,-0.6984096526311446,0.32266059749329185,-0.9983900068307006
13.64,-1.19817550946585,0.181542628816134,-1.1831276631375125
13.65,-1.3709005794259792,-0.225514620791688,-1.2872799051530626
13.66,-1.424987272181682,-0.5857478350611092,-1.2746506623835527
13.67,-1.351063206580385,-0.9145509510889894,-1.1164499423348448
13.68,-0.9991797630284456,-1.2668665476699026,-0.8643365894982109
13.69,-0.34582525491432403,-1.5267535929262595,-0.40752350484030453
13.7,0.6438092326925533,-1.681172380025564,0.24687019570598323
13.71,2.90641503423418,-2.6923471216183232,1.7634186542660288
13.72,3.3081165388364475,-3.575212475317255,2.9694958634946214
13.73,0.6868587175765434,-2.7114714367757897,2.2721420402783634
13.74,-0.10124657788688257,-1.6508034535034875,1.398551239048788
13.75,0.3042377235198182,-1.197859986331011,1.0351443581829345
13.76,0.3266232038075261,-1.0725335545769437,0.9704265315988981
13.77,0.32825659818896147,-0.7252982844363588,0.8872152362155933
13.78,0.16521614764219505,-0.08190062099780339,0.4027286584548693
13.79,-0.11034679231384742,0.40981260478350523,0.06006104020582745
13.8,-0.4331920931787125,0.6612696613652479,-0.040893806095155
13.81,-0.8243567948068996,0.7679540838577273,-0.14497232253670536
13.82,-0.9929071046831537,0.6628669659395986,-0.27009271582254535
13.83,-0.9202393315999224,0.22621234563829207,-0.439542407111565
13.84,-0.928361279214697,-0.3727198133274596,-0.5929697639349509
13.85,-1.0630117411482156,-0.7730266618249941,-0.6039630387725601
13.86,-1.1363442216986455,-0.8551347982006273,-0.5555210503543173
13.87,-1.0989624703722654,-0.7723680453602345,-0.5429885913687146
13.88,-0.859468990618912,-0.6266545540912405,-0.641746300693429
13.89,-0.42389183902071614,-0.43154555208079337,-0.6855702447354689
13.9,-0.15878248504406836,-0.1855111064197889,-0.5953689148682149
13.91,-0.19755751816512454,0.09288190729899745,-0.5065116209082308
13.92,-0.3337006602482704,0.24213642009192765,-0.5485712232529026
13.93,-0.381842757432656,0.2929998414161473,-0.6731653293747101
13.94,-0.23957435920321843,0.3434522374626331,-0.4367483793756055
13.95,-0.06641428872568057,0.2939904577494779,0.18250382279359437
13.96,0.05399735676565126,0.1548120475107305,0.6436188147999982
13.97,-0.0002328351595971972,0.06117269703298727,0.7721838547555567
13.98,-0.21691465134330662,0.17279097066910837,0.5319675165820986
13.99,-0.46002709519132323,0.44507996214109297,0.15642490559337768
14.0,-0.6630497935802386,0.7379926068746637,-0.006143462791114231
14.01,-0.6092859576425647,1.0153341274795997,-0.15238952782577023
14.02,-0.4206874553725664,1.1185840644521243,-0.3584777343566643
14.03,-0.28643138605522267,0.9511041299376561,-0.5302943582569011
14.04,-0.2853732368954091,0.8174963156575623,-0.6548605619793513
14.05,-0.5073884690358258,0.9941457340975369,-0.6168496736633667
14.06,-0.8381267778789911,0.8729429681699757,-0.5792353449263069
14.07,-1.0243700936391424,0.06736816889281481,-0.6090878154249971
14.08,-1.0523079441160992,-0.7884729050167574,-0.621432599587284
14.09,-0.9061426205991268,-1.4621509489093463,-0.29434783873380155
14.1,-0.6633661903837029,-1.9899585335660528,0.06015539358352021
14.11,-0.45612349879930303,-2.1552572067009623,0.11288932203075683
14.12,-0.538696350051934,-1.9792625216906605,-0.2203772315402525
14.13,-0.8638834856451558,-1.948450583764013,-0.4312458197572491
14.14,-1.007147292614578,-1.7436745929791833,-0.23264173414047376
14.15,-0.8146515523493336,-0.947447370497049,-0.10407224624941744
14.16,-0.5141773764902091,0.0647419395930977,-0.29408041488427256
14.17,-0.5965800119303467,0.6369119134186481,-0.42397803477100976
14.18,-0.6022114668003898,0.6802669509356206,-0.41759603268649487
14.19,-0.33577102272152476,0.5325264480657627,-0.37853794494346477
14.2,-0.12226671325376617,0.38306386236901635,-0.267089230004394
14.21,-0.08623525068818523,0.30676355347686973,-0.27323914464941496
14.22,-0.09578458834523189,0.3128702092796535,-0.2726837683357409
14.23,-0.035133874892750015,0.36048789320341307,-0.11825484606387654
14.24,-0.0498976847288182,0.3219252195426932,-0.05452971869355556
14.25,-0.12462361863929003,0.1484893288631685,0.06307597973611405
14.26,-0.11427670999426223,-0.13343620741932233,0.1464103573231363
14.27,-0.03341777132162979,-0.47132059763614864,0.010551295023562559
14.28,-0.0627637305741882,-0.7869440746328705,-0.23327385026152353
14.29,-0.13672947088790632,-0.8447419294909608,-0.39163094873825716
14.3,-0.2391610251627713,-0.5560597247887716,-0.5049058829977435
14.31,-0.31827581153551576,-0.08053720704947157,-0.7012184865329152
14.32,-0.37828218965394544,0.2919336285440338,-0.7432131453273649
14.33,-0.40345106381136003,0.5482004821427482,-0.5500623313008441
14.34,-0.2917042966540852,0.5868345446332298,-0.3803051186913937
14.35,-0.019936534452731546,0.3563330014634294,-0.2921317172198555
14.36,0.25150307466354804,0.1004050003126927,-0.31294651284109903
14.37,0.3917613824426573,0.06344381815865176,-0.3915971423844788
14.38,0.438300052134017,0.3386728574128162,-0.27706140216418423
14.39,0.3078014213474048,0.7416081011277315,0.035209368233007333
14.4,0.15667349064509117,0.9762846485120158,0.21743426008603656
14.41,0.007306167326722954,1.134770394553538,0.42664260010210764
14.42,-0.17876641554555228,1.2096961669986952,0.7706913888183877
14.43,-0.19842948750215372,1.234842463189778,1.0034016112970783
14.44,-0.03697507739452185,1.334599777843321,1.0810160819665042
14.45,0.028504815893832747,1.331077600000534,1.0175660215159932
14.46,-0.06718862967187968,1.1559595959850775,0.9253731927707708
14.47,-0.19264062992123485,0.8082648937917226,0.5248709788334666
14.48,-0.33269453975896207,0.2545425947561714,6.574473285688279e-05
14.49,-0.3787091213027691,-0.3917024586943709,-0.5518927011950613
14.5,-0.3240458990802192,-1.3171053971229834,-1.1601409856316491
14.51,-0.2721044476696463,-2.3921791642973935,-1.788412771745586
14.52,-0.4468508097579736,-3.1904471716744176,-2.3053327711905856
14.53,-1.1584510212528445,-3.9934760061494243,-2.66521001383707
14.54,-1.7027859418596714,-4.654631605767398,-3.0167598855494613
14.55,-1.9211343802951257,-4.825952200905471,-3.2240961210923484
14.56,-1.3251012614780528,-3.93586953260533,-2.845969745565266
14.57,-0.3689716012393666,-2.2591318544900907,-2.280593762766909
14.58,0.06823677630686688,-0.7021973563299946,-2.1846718872233066
14.59,0.31397723730655464,1.0285590609673096,-1.8681449070407936
14.6,0.1791192621059964,2.7307622953562842,-1.1652682254826687
14.61,-0.477495137511226,3.895559351270536,-0.43811544579989764
14.62,-0.8028979279657978,4.623539914753282,0.1577489297042841
14.63,-0.719269459081595,5.053217638277009,0.4822773205772493
14.64,-0.386706683883677,5.1583744121656165,0.9635367907376159
14.65,0.374115364261441,4.635154817602418,1.7609218905247834
14.66,0.39894907666209584,3.5866653347798723,2.796181585600327
14.67,-0.07845746841613546,2.5657026948185373,3.5431769691819746
14.68,-0.7686440760404479,1.8008878188724868,3.039856206251464
14.69,-1.4964620498955907,1.1378661664498435,1.4023257118546866
14.7,-1.792992510018124,0.973571703734306,0.5688068621597797
14.71,-1.8938046615244608,0.9790790189116008,-0.032049603265557856
14.72,-1.5302173456343684,1.0293167315939653,-0.5857966072396904
14.73,-0.9342305322309575,1.2222596932565042,-1.2250540022834386
14.74,-0.019172467525750067,1.4780898771317925,-1.5898977389813913
14.75,1.111935046489018,0.5142420282330143,-1.086877417200768
14.76,2.9120617665726307,-2.654985850711959,-0.48212800941474987
14.77,6.143969688826742,-7.504452990190347,-0.305595076948368
14.78,8.513018389838052,-14.086024486640914,1.7294865992710824
14.79,4.18558302643769,-17.277938260566707,1.3303932078497824
14.8,-4.066815725973607,-13.661105550331776,-0.4129998757100281
14.81,-4.8346665818555925,-8.242311322373029,-1.8179389593071338
14.82,-0.19281832487421974,-1.003392979329146,-3.2706577138300603
14.83,0.8157045015970894,2.495687539373149,-3.7566387210432635
14.84,1.1386456755141787,3.8622007367254065,-3.3896177064886928
14.85,0.767549115787401,3.402511955822446,-3.1989241226812126
14.86,-0.23356547080506995,1.5356104937257387,-2.074257576836219
14.87,-0.7866648269955271,0.9539104796818926,-1.1601171995695228
14.88,-1.2208460148786844,1.2972745601737075,-0.23532490836895611
14.89,-1.2320975126659224,2.7072641086508904,0.5059832493263715
14.9,-0.9501740278434438,4.681581816105911,1.0180166389512164
14.91,-1.038939527729175,6.0696402028017,1.1455816289150236
14.92,-1.4283471686466316,7.132298391080835,1.3071444171334607
14.93,-1.6802027057511244,7.668753869601835,1.603186356376899
14.94,-1.3978379181726859,7.8404624424630365,1.9317004058363776
14.95,-0.9483002349811734,7.735867301443063,1.8667202123187077
14.96,-0.8373660138832231,6.849372237204652,1.019502429449631
14.97,-1.1313141977639531,4.807504720325613,0.018490903104592556
14.98,-0.632458473729513,2.321753764800941,0.16324269575706377
14.99,0.23864102382555913,-0.46257910003206004,0.7900514934003834
15.0,1.2556001154098977,-3.4420720442253696,1.3897762964336522
15.01,1.6401147993831007,-5.598857259141732,1.7629831560922917
15.02,0.23873507218176424,-6.088661134364846,2.137763395529914
15.03,-1.5301943215099616,-5.006389095417024,1.9659180550148896
15.04,-1.0365390550184448,-2.775546813159493,1.219128074419928
15.05,-0.12519239762918416,-1.6101771250169532,0.34259469961756733
15.06,0.23064665507782223,-2.5199071589254216,-0.7626957000320511
15.07,0.47942493867867425,-4.06656805688512,-1.7705398108180348
15.08,0.6886088194958104,-5.1880462492472645,-2.4661736079275056
15.09,0.8352149070242155,-5.339371929521494,-2.762853447694005
15.1,0.711779461791292,-4.639877339814849,-2.9311472290178666
15.11,0.3790701468250471,-3.5427865103275438,-2.635762077375291
15.12,-0.04226270716317618,-2.306103685890282,-1.6127697588549719
15.13,-0.47209107478523893,-1.3537576709594865,-0.6148211107047685
15.14,-0.6848273705624952,-0.42261516361081425,0.06082534138704669
15.15,-0.9573340738597793,0.7687658474645083,0.6153655953289832
15.16,-1.0892286886890983,2.031897005698582,1.01104346814958
15.17,-1.040457519237084,3.083412471361027,1.1837202711497508
15.18,-0.8119093876283483,3.852704247923901,1.1221631994597199
15.19,-0.43939776195924024,4.3880839214209875,0.9552251142637622
15.2,-0.0434509568945476,4.7315794786967835,0.5435007145475292
15.21,-0.0009920580511347701,4.909345718578909,-0.08500031557424892
15.22,-0.279767691516659,4.8747668697364075,-0.34402057622841103
15.23,-0.44262673918197876,4.525191444638777,-0.37842031523554576
15.24,-0.49969801301507455,3.8606122536000984,-0.37952920664786405
15.25,-0.7423161029142981,2.457663389552989,-0.28455216469969735
15.26,-0.731046539661077,0.8099984897781842,-0.3382114110340835
15.27,-0.4295474297499001,-0.5568328412755317,-0.6296308314774894
15.28,-0.1365115206077543,-1.8128205827432184,-0.5698720338959218
15.29,0.06023173599209642,-3.2238246734365896,-0.2683239527101736
15.3,0.26535604189120415,-4.320254906657547,-0.1266453507637029
15.31,0.32114606362450027,-4.884739463234342,0.17517347703977015
15.32,0.1037376832288282,-4.829899103485055,0.7090902451099649
15.33,-0.3957979230838936,-4.191049478618863,1.223450773305088
15.34,-0.7108441231224544,-3.270149354413604,1.326073852468993
15.35,-0.8418287642705361,-2.3360015525855693,0.809229500012511
15.36,-0.6909880309478912,-1.7071746505837984,0.238071822760005
15.37,-0.14638584415377823,-1.3059671577172358,-0.12766546372229431
15.38,0.14396283375018684,-0.909640505112394,-0.6301410568036038
15.39,0.06891530345522666,-0.3588739283162174,-0.8023353391499611
15.4,0.1277716989258074,0.28321069159363077,-0.837643836461784
15.41,0.2067922395215856,0.9505152394881844,-0.8552019133041208
15.42,0.11097604378232026,1.6896197604033876,-1.0531152808547544
15.43,-0.27125146156898755,2.4802346307114633,-1.3413739928468609
15.44,-0.5894628945637426,3.086335744029154,-1.4053128381431759
15.45,-0.622610434568097,3.3632288367945007,-1.4620180855856932
15.46,-0.560518368768979,3.364680173579646,-1.4705754332915884
15.47,-0.48664698709996723,2.938373011625402,-0.994914975797965
15.48,-0.37472705321644556,2.276194278944755,-0.457524796089786
15.49,-0.38315172991797175,1.5800638801457425,-0.5876898314565004
15.5,-0.4498750132688778,1.1512981449958735,-0.8266809591304948
15.51,-0.3635683194385794,0.8043053765400341,-0.8806998370056609
15.52,-0.2787956735419429,0.34527234053981576,-0.9197956846417167
15.53,-0.5840720193355939,-0.35337846231070835,-1.4624069799477901
15.54,-0.8284025703661579,-1.6794393847762683,-1.996561077159937
15.55,-0.7115856239546041,-2.6668662284043854,-2.131520756439348
15.56,-0.5330502539229245,-2.794723889429268,-0.6971507305339703
15.57,-0.7599621775194771,-2.6115199590092635,0.38659925287141317
15.58,-0.8420991805706622,-2.387050444174822,0.3562612681711367
15.59,-0.7871802677509214,-1.8667383479984403,0.3573049670301527
15.6,-0.5332328572526747,-1.1627444659236423,0.7480435586817973
15.61,-0.13624684155759806,-0.6163102229664034,1.060958179047765
15.62,0.2624614268894103,-0.2109503403917693,0.9803688827610558
15.63,0.6433844614759279,0.1044963812766317,0.1265437011846959
15.64,0.737931410953207,0.13433566552501297,-0.9988137363545881
15.65,0.5170655837013508,0.021210822518398807,-1.648893792069993
15.66,0.0343874634317305,-0.17998472306456273,-1.662630887872489
15.67,-0.8120155713726903,-0.647479430770837,-1.401311697767638
15.68,-2.3010955581515926,-1.1631896142305111,-1.1770528671707972
15.69,-1.2346354040730199,-1.343022314553133,-0.8864834181646689
15.7,-0.5547702439739267,-1.3864111424923893,-0.6455230982383995
15.71,-0.31739465723609084,-1.1468080485352825,-0.5333633984537586
15.72,-0.22573563460439036,-0.8721614896706915,-0.2778859873415034
15.73,-0.46509844026870795,-1.033715414207478,0.25167755378437756
15.74,-0.5662721436851739,-0.8362051212982216,0.10494418561878546
15.75,0.42189236719021084,-0.026436170153600957,0.28760336115693097
15.76,1.3172947068292233,0.6460485358641747,0.9198636551033261
15.77,1.8273344323877263,0.7266735296128716,1.4242584201428827
15.78,1.7868928680950644,0.3086181420867287,1.1816048188556705
15.79,1.3494363150094846,-0.31471818828397363,0.5045098537609053
15.8,0.6797982854235989,-0.6909387690659791,0.43991185954763085
15.81,0.25147435508836,-1.0083156186460303,0.3760153825394568
15.82,0.09651656530477384,-1.2708502909855628,0.5201056566390689
15.83,0.18789479840040504,-1.327714116724678,0.6937440502779421
15.84,0.2891729892720306,-1.1587574474337385,0.7734542016811934
15.85,0.4341048644975079,-0.9707758800636187,0.8502417703087733
15.86,0.44851421649332845,-0.8477695567208047,0.6575780948422256
15.87,0.10569285216556314,-0.8028574775444116,0.3342674822339546
15.88,-0.2755119531943526,-0.7569403041246137,-0.058222578348935836
15.89,-0.5461283992510667,-0.5808747573623535,-0.3837206082881908
15.9,-0.7173153453233769,-0.12131319497822159,-0.6284448622317574
15.91,-0.8681064118902708,0.35926716983404167,-0.6586938101404699
15.92,-0.7198135463157681,0.44514755784831195,-0.13589349663339542
15.93,-0.04931527857336504,0.5800312338034651,0.18414260412209324
15.94,0.6795850112645552,0.9788018411663713,-0.19078437651266894
15.95,0.7543629282035952,0.8657445811417797,-0.5873488996295027
15.96,0.6045297881741418,0.5030335985883259,-0.6955057489775358
15.97,0.23234074788122172,0.18358538113939632,-0.5649117001059776
15.98,0.00985229121268919,0.09686115519585105,-0.3323570486077803
15.99,0.06371363922306428,-0.03571806265708658,-0.056128508831142176
16.0,0.16248910786641613,-0.2108976867122093,-0.04672956021348387
16.01,-0.12468328050911386,-0.46781363695712846,-0.2759273141522177
16.02,-0.7796284454834425,-1.0074386788812202,-0.3983705282788292
16.03,-1.1896011807234474,-0.8143940330699365,-0.44678342394182274
16.04,-1.027382504112366,0.3537043606402412,-0.4145216046258754
16.05,-0.38819725723087906,1.7485174896042606,-0.43657733832186246
16.06,-0.2613522158202511,2.536990066452092,-0.2711446219944577
16.07,-1.070418605877144,2.378440715027553,-0.11729444397603879
16.08,-1.5418360114782788,1.941296570600569,-0.03195048301423896
16.09,-1.2539142078285817,1.8122282323720913,0.13632056386229344
16.1,-0.6564325874611386,1.5940118471782692,0.2987319228052903
16.11,-0.19575120798812318,1.065476312312954,0.249357841785016
16.12,-0.14645387923432324,0.5915579637173269,0.1347719953272188
16.13,-0.10056268357854786,0.3959862947990426,0.28129930781174806
16.14,0.16228761809010997,0.20175644763560088,0.4731533932325936
16.15,-0.40562551906386485,0.06545365741997039,0.6500337617587794
16.16,0.43288776144015106,0.413250478192934,0.5760092761205586
16.17,1.2609470155561322,0.08933794433995934,0.13565312514359043
16.18,0.22863390199148168,-0.23193863533173942,0.12075408073543437
16.19,-0.7564390543248625,0.2356941707282518,0.2995029767036658
16.2,-1.952280845884905,0.5858420936429295,0.46328420312462393
16.21,-2.717534150986985,0.01391054657724948,0.7753357215394053
16.22,-3.9252470092490874,-1.4717609487905254,0.6499446931397543
16.23,-4.225101592351894,-2.43204544264635,0.23645469784288317
16.24,-2.1499372306417524,-1.8197333035688297,-0.552086363397744
16.25,0.552799770568335,-0.33337200002990863,-1.1182872707994074
16.26,1.814265363901394,1.2672637074610265,-0.887048567832109
16.27,4.141978025729273,2.185073397759441,-0.1406282935573032
16.28,5.247894258379651,2.7037215490048374,0.459329281139626
16.29,4.026369757271859,2.45126957258015,1.0525357608149242
16.3,2.0701254879099396,1.4327705388112864,1.3579844328628319
16.31,0.3928829095046474,0.596672843111657,1.2331646213661613
16.32,-0.02266189241351864,0.08115734621438497,0.7971392954435238
16.33,0.4355406548303677,-0.2830476394150985,0.4655740785353051
16.34,0.8237005717361184,-0.4776773097490623,0.34183557324334657
16.35,0.41087740759593805,-0.5850290177973317,0.29363204864347364
16.36,-0.08511633922982952,-0.3500208495264093,-0.0038535108473488344
16.37,0.9697981620318181,0.32303566430575703,-0.2389213602337329
16.38,2.311820938554982,0.8512767728931919,0.1456693895780937
16.39,2.4789436716959177,0.7914583561227175,0.3933215779952867
16.4,1.8989500345569554,0.2356904521984035,0.1425819661631974
16.41,1.369896317748751,-0.1292220826187135,0.10215681126588305
16.42,0.9490719512572707,-0.2981261342054276,0.5212337511664606
16.43,0.5294835374496967,-0.5491508323823294,0.5734626775985293
16.44,0.19154798783637839,-0.9573929999228333,0.3368644267476885
16.45,-0.2007355595811202,-1.3415584196262644,0.5771498142471897
16.46,-0.6527287630108112,-1.4810256906161592,0.8509655093909662
16.47,-0.09172992949243311,-1.117819632034182,-0.2259008623192612
16.48,0.7786616161787504,-0.7636833433016441,-1.2318146403827142
16.49,0.5302413836351717,-1.0005091729320141,-0.7316557708358342
16.5,-0.20274258564433473,-1.2618145412173583,0.08045876975518265
16.51,-0.3952566830436894,-1.0886972021153603,0.24782961221134348
16.52,-0.12466160811901353,-0.7422774837803376,0.20295104136223285
16.53,-0.1964644987465069,-0.5728064926488492,0.4207177970934785
16.54,-0.6888408521641001,-0.466935731453531,0.6825411341354385
16.55,-1.197703393873515,-0.2725528654764238,0.7621362978407243
16.56,-1.7137947866283123,-0.04326362303285076,0.6286170403163627
16.57,-1.7753300747085434,0.33530047752276165,0.2856191774037442
16.58,-1.2479105305675458,0.848592235592865,-0.1505490310939677
16.59,-1.2135351560188032,1.1339452353794133,-0.3370493914632992
16.6,-1.8077105710258892,1.2479020751616123,-0.3885222400183058
16.61,-2.4234652430416825,1.2936594960937804,-0.40283033440909477
16.62,-5.743005505144327,0.8067527464939618,0.5965401814574135
16.63,-9.58641635195492,0.37914442582655933,2.0377999378166285
16.64,2.3607705035916875,1.1702485469753459,-2.662705738494477
16.65,11.085657725118956,2.516543992178003,-6.111690951453535
16.66,2.700116671623645,2.258115002017731,-0.8034872685942767
16.67,-1.9175789620154549,1.3014147702402363,2.363821405658686
16.68,-1.1733482497455479,1.0899693421858871,1.2901873686408472
16.69,-0.315315755897714,0.7485894189667105,0.33192199659494803
16.7,-0.10011020121755518,0.10159099013285579,-0.5408980776119189
16.71,-0.05994757998500534,-0.7456883615584292,-1.0478398555328678
16.72,-0.15427512236851068,-1.406046351146871,-1.0142299614417596
16.73,-0.3183507017316464,-1.6911912522455033,-0.7752114518481492
16.74,-0.3597271527068248,-1.6920723746924988,-0.4414528366767788
16.75,-0.21296786143506902,-1.507693215001226,-0.011712682396461461
16.76,-0.037620992930047524,-1.4134618833351422,0.4139142908225911
16.77,-0.12233650280192626,-1.3999453027104467,0.8774538208236787
16.78,-0.20632920719523085,-1.3414035703407574,1.1389097068023761
16.79,-0.1225007086339304,-1.2316283597413944,0.9847563391255517
16.8,-0.03664894588244867,-1.007668326315193,0.7265638293815061
16.81,0.03825055106511517,-0.6652772325391915,0.4406667427761076
16.82,0.14488885744317545,-0.32968060718266917,0.3473482671365347
16.83,0.33127592388627325,-0.05753239822394023,0.412714596745941
16.84,0.5037708243230709,0.04051336035641459,0.5957944170906287
16.85,0.4940731084387867,-0.016042375610727036,0.8741848099552365
16.86,0.34022296568668975,-0.22661530806712019,0.9617667802731457
16.87,0.271657759771817,-0.3854225482994967,0.9067301470736996
16.88,0.4789488972149823,-0.24121615759659126,0.7888096855562245
16.89,0.7563954421377498,0.0956544857551837,0.835369851441927
16.9,0.816688764497162,0.4888145833749264,0.8249411548127973
16.91,0.7357141330225497,0.7585296339637456,0.6018586689559569
16.92,0.6765081802408474,0.727052335810834,0.4778941821609164
16.93,0.9129934264823281,0.4976050691892274,0.3262208456770383
16.94,1.4548868918543738,0.25812292527158043,0.21201776311470516
16.95,1.8848055456371098,0.05316921576753788,0.23373119307353854
16.96,1.9143206653510474,-0.0069229255374924515,0.24584311874926146
16.97,1.775282429403817,-0.07031675706233678,0.377435531457962
16.98,1.5399026790865709,-0.3133866450867604,0.6992261180391288
16.99,1.0925868749239396,-0.5384186449765647,0.9744102753933386
17.0,0.6409997601252658,-0.7174228127706412,1.0495369582844716
17.01,0.545400094907938,-0.6418439254515071,0.8926079979384041
17.02,0.5673317157726339,-0.30774861055041053,0.5786717067062329
17.03,0.4426740857063639,0.14138750742890088,0.16391455798068258
17.04,0.615520184373297,0.6739853521192567,-0.35963783226642576
17.05,0.9867775274723687,0.8658060700708219,-0.9374409565412954
17.06,0.5548081868596914,0.5242010477327389,-0.927251119545612
17.07,-0.12501603265153874,0.24762699997511234,-0.6973015593657184
17.08,-0.32436704274687134,0.36906054763436297,-0.9073852879756361
17.09,-0.2843644149167967,0.7328330865487669,-1.0329433618693962
17.1,-0.26311135398171537,1.157953335839634,-0.8567369835475932
17.11,-0.3141525120243685,1.5137029729490028,-0.5139350146955368
17.12,-0.2619308523927922,1.4739664480921821,-0.17228402559639022
17.13,-0.2574656912966578,1.1671200981776246,-0.02901465135354279
17.14,-0.423930016948162,0.9028641880054065,-0.04468925421896762
17.15,-0.7470721349039243,0.7128435390109504,0.03958404593741194
17.16,-1.0922901038168586,0.47620507541270624,0.08603564852230884
17.17,-1.316866527395893,0.16929525435574963,-0.039597779781918765
17.18,-1.391204889474374,-0.19245572550335158,-0.23669392826484117
17.19,-1.4918893230716817,-0.6905315999220786,-0.3565870893933463
17.2,-1.52214998844408,-1.1437345494014641,-0.17116101757393745
17.21,-1.5013124224166852,-1.1276958240975494,0.05783972020661463
17.22,-1.4724654326365074,-0.8127005881962387,-0.030617917095351648
17.23,-1.2009780708908964,-0.5790681445643384,-0.20502082223825918
17.24,-0.6822851726505519,-0.47470778144517994,-0.2738018482060223
17.25,-0.003982193937159462,-0.2527630590253129,-0.13583489208823124
17.26,0.638584864869805,-0.027868565158313912,-0.05760848355003341
17.27,1.1757617458871912,0.05237277238376574,0.04101598055931417
17.28,1.3339831830894728,0.030366072014875456,0.25475229219315215
17.29,1.1833676382152727,-0.10337905539662015,0.2854602682737588
17.3,1.1008498776184312,-0.2240196616367576,0.10519060376138305
17.31,1.1975205004096374,-0.12380678614291427,0.014739012518325196
17.32,1.25255528616093,-0.0004097247541092703,0.33733344921165703
17.33,1.105206700943921,0.017317739149783525,0.6387780937906945
17.34,0.8940510223815268,0.01957687930029224,0.6564207429869764
17.35,0.6030727092219667,0.1807580017530012,0.7020974878808456
17.36,0.31125409728616626,0.3992042102295052,0.47372951697273924
17.37,0.09692203709493637,0.5630466523369804,0.048301545887331175
17.38,-0.10749803844716689,0.7176089098124523,0.08863996155889013
17.39,-0.30554296163214834,0.746808857569086,0.10134598667415408
17.4,-0.49001669147277,0.7433958131348198,-0.1650553582479233
17.41,-0.49027683091203744,0.7488535725672242,-0.1982569651694319
17.42,-0.4484581122485802,0.7207801748964051,-0.04179493951792758
17.43,-0.4707854212883875,0.5685778061787987,0.0819490498962594
17.44,-0.2911231169166277,0.43063274155494713,-0.06525280888712054
17.45,0.1656028220863372,0.3600663705232041,-0.19137803336984413
17.46,0.43868086849722004,0.3260333734363787,0.032355094022219776
17.47,0.5927588454693341,0.183334765818192,0.11227667629683412
17.48,0.6473130985036852,-0.08116072846486844,0.22016086141312
17.49,0.6883839180326817,-0.3510718276358874,0.267496791532132
17.5,0.7357706384282907,-0.6972773633387095,0.11934208354515045
17.51,0.8969659328999497,-0.9827352761629213,0.025534842418998605
17.52,1.0000358391439783,-1.0736435213038398,0.1205904726339416
17.53,1.1355839876324367,-0.9644724972777649,0.1378085293830098
17.54,1.2066222028112308,-0.8181152723227908,0.06996003447018984
17.55,1.049964580374305,-0.6978474548708256,0.2182196149137164
17.56,0.8827971683609489,-0.5737060015394418,0.42261457314343026
17.57,0.9243484047001318,-0.49727911500993416,0.5085932048397348
17.58,0.9859201389358719,-0.5677241056506542,0.6548383502203912
17.59,0.7506454788527811,-0.6655883491760273,0.766533255090174
17.6,0.38239304707129707,-0.6452627969154184,0.6690461586808477
17.61,0.21777206511189504,-0.655958224996309,0.3915555653848894
17.62,0.12115919522695572,-0.618908662989647,0.21856631427778014
17.63,-0.08471272404839093,-0.5365840949774016,0.04761526933849748
17.64,-0.16314829753202667,-0.5549861671695834,-0.25930198949692507
17.65,-0.10988846529511347,-0.5641646452569232,-0.43738244577213814
17.66,-0.28071457578974396,-0.38172972385779813,-0.47667789725364546
17.67,-0.266168161362262,-0.22945092054377061,-0.48547108082260376
17.68,-0.21367170713140055,-0.2051716165289783,-0.4476965667554969
17.69,-0.5032790192134359,-0.12525162976117882,-0.24913084278024392
17.7,-0.9373135187007421,0.1690803454583003,-0.11059502849751206
17.71,-1.0149621272685505,0.2775004416567425,0.07564042760119495
17.72,-0.7516165821275603,0.06509731322046303,0.16670899950882642
17.73,-0.36050863068042943,0.11050825074386637,0.0671007474903451
17.74,-0.27442783944806426,0.20341101417295698,-0.037545386351597314
17.75,-0.3234290714671412,0.2230684650194911,-0.053578460831820274
17.76,-0.5174381122841463,0.13829370125316442,0.10537812454238764
17.77,-0.7560924599798347,-0.15587437895522127,0.3519226628655244
17.78,-1.0003175298792681,-0.3567738027324771,0.6604673879965091
17.79,-1.1361087766324856,-0.44981844439854995,0.3828896114004129
17.8,-0.8111663421103129,-0.2473357451884934,-0.4913970527373962
17.81,-0.42852158749144337,0.007554068563136743,-1.0268485265947316
17.82,-0.39659507875287514,0.1646863999524243,-1.0711327078642414
17.83,-0.6732209186737653,0.2265900068620607,-0.8147592373725208
17.84,-0.9785515620622642,0.29527592627344157,-0.7314739015508332
17.85,-0.7231060211445645,0.4904417155433006,-1.0039342332062242
17.86,-0.11588228600758686,0.7767565291157704,-1.0143059311596108
17.87,0.030128497301867497,1.114491175337701,-0.46833291243663633
17.88,0.045055324282191486,1.2948777844014068,-0.04948225674304162
17.89,0.07192913525223193,1.1076071319519318,0.2107571649816267
17.9,0.11672117482194679,0.3697579653010117,0.4821020747504487
17.91,-0.06884894246784086,-0.10855155161374223,0.7662373093820519
17.92,-0.18224553082483166,-0.35231839167557427,0.8490651548106068
17.93,0.024510842451363254,-0.3028357043293597,0.639179277747913
17.94,0.16539108875011382,-0.13491390771156225,0.2936705291057152
17.95,0.1549929789190616,-0.1628823658760236,0.43234989431296267
17.96,0.1968459590346109,0.009902946655742673,0.5822710908082136
17.97,0.40647245484199357,0.25765529783189756,0.3195323953834924
17.98,0.6080888342589011,0.3533743919952235,0.045752014981952194
17.99,0.6473717834254278,0.31519804463044043,0.15428586607950004
18.0,0.5397852188230028,0.16795079669109675,0.509867339801877
18.01,0.6566082569087204,-0.003825411223442211,0.46914555126794183
18.02,0.9190929584067167,-0.3313194016551006,0.5288006098688719
18.03,1.0253744766121557,-0.7628743419298257,0.5882920254186186
18.04,1.0091084114758935,-0.9398518260131219,0.552703247250604
18.05,0.8757082345946358,-0.8465846330637851,0.7681860765568136
18.06,0.7515529260947184,-0.7998766586468296,0.8760901283262017
18.07,0.5762289908384169,-0.8195805709782882,0.8158133747273809
18.08,0.36046997980508516,-0.7573445325381493,0.8497875324099179
18.09,0.2635655513811215,-0.6468940515995493,0.8551843866492724
18.1,0.30033404225219906,-0.5466459361638691,0.841309445255284
18.11,0.3484813431661175,-0.43300876481132056,0.770059396547005
18.12,0.31984666633813164,-0.36026528977512096,0.6728540904192155
18.13,0.244454206143665,-0.18250425198409725,0.4319679916866365
18.14,0.16040947927727212,-0.01967565515036702,0.11728545517333719
18.15,0.06464151098690439,0.05947338839495019,-0.032150219608750474
18.16,-0.06895694743897268,0.08982059799527291,-0.2561123632589512
18.17,-0.1805848759439105,0.11777478684475268,-0.42925917470901276
18.18,-0.2770029867416788,-0.17118256964226589,-0.47803812875991336
18.19,-0.17025040235241073,-0.5359803679419469,-0.683438069950831
18.2,-0.0819385309664777,-0.8335659661449392,-0.948204747510878
18.21,-0.36128372145522375,-0.9189056533781843,-1.0439490220680507
18.22,-0.8975095222983869,-0.8184942611820806,-1.241445106749636
18.23,-1.324787103513362,-0.3689458813291612,-1.2805767991485382
18.24,-1.64758208689994,-0.02982883998976209,-1.2832057788798066
18.25,-1.636372723784852,0.079198298847872,-1.1845280480892546
18.26,-0.9536490944143228,0.19134209154315165,-0.7993643091211047
18.27,-0.29951596171681927,0.2312596716593187,-0.406282596955451
18.28,-0.13513844524901447,0.010235651921585756,-0.13325807258403788
18.29,-0.12055403113416138,-0.15354298281197168,-0.09100354358141717
18.3,-0.2705895243593869,0.013072817725718978,0.06066941320344027
18.31,-0.21852965173535527,0.24445248742584375,0.17411598791317326
18.32,0.21120634336857963,0.4033021267134525,-0.013395979382253568
18.33,0.6840558933837231,0.672119707567422,0.07917729063398815
18.34,0.9743250574767526,1.024066593386086,0.2672848309830845
18.35,0.9998933443657338,1.3568932827023934,0.2895876875342802
18.36,0.9466040415186185,1.5464481618585142,-0.034697302580455336
18.37,1.0651747438636687,1.418430298488103,-0.09459394788539542
18.38,1.266232159693548,1.0778608321019651,0.018909515638083692
18.39,1.2780842179089063,0.6565962233247788,-0.2207765805086404
18.4,1.1880613074207362,0.4347256213393636,-0.2258181305766278
18.41,1.1867978821758798,0.4840022704416759,0.08869317758241198
18.42,0.9810218853531357,0.5377588206171433,0.08996692983703845
18.43,0.5976311010027171,0.4527113686955727,0.07661678913861966
18.44,0.24019402023480754,0.3250862667654781,0.07125283033140739
18.45,0.05797852153590665,0.20268662530940773,0.013039105352677816
18.46,-0.050581271200470554,0.054811447368356386,0.035532782797538874
18.47,-0.09710423255375898,0.11680184265636907,0.323788864529675
18.48,0.04832170386850365,-0.11560444232860172,0.18409922863032677
18.49,0.07984987316929643,-0.14641477069229808,-0.25077690968402605
18.5,0.06879020910526572,-0.18426629810636927,-0.10714731856242012
18.51,0.19999473313344443,-0.17100107440791423,0.0023181677927068415
18.52,0.24730656213089772,-0.1870396090861021,0.112847788642357
18.53,0.09867700620167442,-0.19192491747161944,0.21998564195375994
18.54,-0.28017185276586737,-0.14456472695622571,0.18157216867164586
18.55,-0.35715733058411264,-0.061412969087598454,-0.08635300063624844
18.56,-0.19352134102818766,0.15761197254154286,-0.19111466486741616
18.57,-0.009007066322029569,0.29662066761851963,-0.053844584395210386
18.58,0.04600514862991218,0.3016879148957998,0.2924725067021315
18.59,0.014293383921372181,0.23143709250177155,0.30672061431734376
18.6,-0.03558458899920757,0.22405542487497668,0.22649997084927892
18.61,0.030858201829688587,0.21312914849951467,0.1282144065356809
18.62,0.18513437031538518,0.06454273831172791,0.1831196445871027
