seconds_elapsed,z,y,x
0.0,-0.2091726660728454,-0.0180114917457103,0.705698549747467
0.01,-0.2207692417974072,0.12026808727283195,0.5942533684189861
0.02,-0.1773924068557481,0.21819795956120944,0.4318165838160248
0.03,-0.09095771446825071,0.19559607923031117,0.24883312329652038
0.04,0.00011258518003050112,0.08360492156311147,0.08716562075708305
0.05,0.09790033452388366,-0.05395696270488712,-0.043411406144817796
0.06,0.16161942063414914,-0.12276116254142921,-0.15375539053469334
0.07,0.1579365115394733,-0.14672972583588595,-0.23050688820310394
0.08,0.12172704576651003,-0.11488952981548403,-0.2608600881503806
0.09,0.07256037347633494,-0.04024375376753082,-0.23850201244209004
0.1,0.037876264890467616,0.05882365460575804,-0.1645203372113417
0.11,0.03168301872057103,0.14398086298917967,-0.04981445631262687
0.12,0.03335571552088139,0.21987717098731765,0.10590351420093685
0.13,0.04202348153272761,0.23383568435502516,0.25191118944751917
0.14,0.04600304228783103,0.20093561335628232,0.3193646709984707
0.15,0.03926146875687016,0.19578735355316118,0.32030071435049884
0.16,0.026450205181115134,0.22611079194537365,0.2585290430939267
0.17,0.0070043112106826936,0.24477759729207066,0.15984476864274405
0.18,-0.003066997535900664,0.24857256019154544,0.01715704366195745
0.19,-0.00832638780916258,0.24490510410103958,-0.1403611318181093
0.2,-0.01501147997625427,0.23509615758523114,-0.2728283860130977
0.21,-0.025383114518155718,0.21738310637311964,-0.3678497915947124
0.22,-0.018249213382774954,0.19959211659593037,-0.439079688388112
0.23,-0.001135737542881921,0.18350230517649135,-0.48496803760828994
0.24,0.024334129600838063,0.1540613610479244,-0.5043884354824685
0.25,0.07091734737161169,0.11881760104599763,-0.48934705687785957
0.26,0.10012069636585555,0.03295586314406704,-0.4374937152244183
0.27,0.10124260199820488,-0.09737001036139731,-0.37659040183482534
0.28,0.09376386156470577,-0.2308464850314104,-0.3081608159276209
0.29,0.08223840447999665,-0.28977205834476594,-0.20686018082953764
0.3,0.062475703132351276,-0.2699072350070855,-0.09107530431974396
0.31,0.060550055501538955,-0.18171448793912795,0.011285894256514044
0.32,0.05116525100675292,-0.11181122762513274,0.09818777332164356
0.33,0.016783856346118224,-0.08815076704014857,0.20940221413480306
0.34,-0.008733823958543097,-0.09595284309326547,0.3222266785279651
0.35,-0.03701657938944255,-0.09785637301740571,0.39379866517266865
0.36,-0.04218756424097417,-0.05558851711676665,0.3939647669571146
0.37,-0.04283495999909841,-0.013172236459832547,0.32814885017675827
0.38,-0.07636060007677359,-0.010084476118837307,0.20322131096422522
0.39,-0.12235302268580435,-0.01902389112566985,0.06624092775471843
0.4,-0.15205241626145896,0.02551117896233071,-0.008542691927182698
0.41,-0.16054878411160697,0.07618561429150762,-0.038735199447985216
0.42,-0.14050966237014148,0.07045153240933277,-0.030077444413985185
0.43,-0.11094937753444885,0.002164219552687117,0.022865449742158993
0.44,-0.05335873546183061,-0.0842204277231069,0.09459128890512934
0.45,0.01083240207063617,-0.15405064965398346,0.1695661406760686
0.46,0.08380891546794116,-0.1762230696161313,0.21639643580878232
0.47,0.13590229056672337,-0.21569234046430272,0.2235684195629709
0.48,0.15659060694475554,-0.2638855406001631,0.17825849591840146
0.49,0.13723867899711412,-0.28557491992612494,0.12833491185861853
0.5,0.11571474503986531,-0.2641017075814349,0.09934933702993604
0.51,0.11253481485928486,-0.20916790124818638,0.08163532348807732
0.52,0.11202818184731332,-0.15383748671540146,0.06681231546825293
0.53,0.10996667016780333,-0.11701818069126203,0.056777604530185335
0.54,0.10014437310781314,-0.07858353932292074,0.056367609628774656
0.55,0.07946354996763458,-0.041944046035627236,0.05315175957161235
0.56,0.04526252400106635,-0.02648261812548484,0.03513521197265819
0.57,-0.0009377464110841795,-0.02664712264898817,0.011186929830643937
0.58,-0.05154990923789087,-0.03777446508314881,-0.01723584958709327
0.59,-0.08743438607946959,-0.06119435844131366,-0.04512425366389928
0.6,-0.09839202320667194,-0.0722215573698235,-0.074429976267309
0.61,-0.08844967871354886,-0.08967621264812506,-0.0953329705952458
0.62,-0.07514508250932878,-0.12956497329025146,-0.11445862221803024
0.63,-0.07539262755485451,-0.1827198664784772,-0.11086787510585823
0.64,-0.0716717729735955,-0.21084687374624483,-0.08250371071428703
0.65,-0.07298713808065894,-0.21917834915097367,-0.03638428318300082
0.66,-0.07742679233964489,-0.2282391898673957,0.003557998233772141
0.67,-0.08202094084523362,-0.23265867933582657,0.03455828559964054
0.68,-0.08796552505164106,-0.20880240113330462,0.09020670550959432
0.69,-0.07955148837919289,-0.15931758652429434,0.15974809165265588
0.7,-0.0754264249186591,-0.13453658417833828,0.21083767334065917
0.71,-0.07039527359357203,-0.13651781903203708,0.22383538525133065
0.72,-0.05770753219330505,-0.14242981754090084,0.18988074597245305
0.73,-0.05148972104650183,-0.13658213011741793,0.11060794727398174
0.74,-0.05162199703530148,-0.12756028213876036,-0.015271055700127345
0.75,-0.062366109732944215,-0.1268472189160736,-0.17397405270421146
0.76,-0.097583029254644,-0.15744540655731054,-0.3352404807185491
0.77,-0.157286611229831,-0.18799140923199026,-0.4603607688764861
0.78,-0.1853421017960878,-0.1656155435436212,-0.5476034227615807
0.79,-0.18979074802802182,-0.13324021625176433,-0.5770332290607296
0.8,-0.15756566546951115,-0.1351048006731762,-0.5516388007346904
0.81,-0.020447256767880534,-0.20089281041525908,-0.4703803845878688
0.82,0.2007567631410001,-0.3700752888141401,-0.32680172646247657
0.83,0.43952582349693003,-0.6089150806381366,-0.14958301985318015
0.84,0.6474824979051064,-0.8092079476110591,0.014210154447973425
0.85,0.7551628720051026,-0.971618724334891,0.10728990054204965
0.86,0.6910743545860663,-1.129811029075533,0.17950192200342002
0.87,0.5148439474533562,-1.1849020624146824,0.3108569595911984
0.88,0.3509292632380645,-1.0227499362984305,0.4991866915523059
0.89,0.22396507273264768,-0.6941780488151049,0.6576135709506391
0.9,0.0828659432373515,-0.3649166315846716,0.6493617383067491
0.91,-0.13276958469107236,-0.12307040236795584,0.4746783239817809
0.92,-0.34753602342106643,-0.0357920685299238,0.19546404707384826
0.93,-0.41708130809799027,-0.059066982425160404,-0.07113375435783971
0.94,-0.3498589473810843,-0.1932174345655624,-0.2376356482787096
0.95,-0.2151838527237662,-0.4368376454589866,-0.32768705609012383
0.96,-0.0974993203541657,-0.7122279528344753,-0.3423302380629483
0.97,-0.03250028742961763,-0.8583396450772804,-0.2767257482264575
0.98,0.006124517469389546,-0.815303813150765,-0.16564117572665132
0.99,0.03072853986164661,-0.6510323839466204,-0.06845080554630949
1.0,0.03884915954261463,-0.49853447218681435,-0.020821107682130705
1.01,0.01347005041170636,-0.4264473419110354,-0.01725941193120446
1.02,-0.014072792194423004,-0.38869649513619287,-0.029519463017442394
1.03,-0.019339004100106885,-0.3318874264846349,-0.03206809024480272
1.04,0.0040445511031704665,-0.3094684861753782,-0.029690289969849588
1.05,0.04579342144201287,-0.34320079557690775,-0.02923022030597585
1.06,0.1023081370910027,-0.3626224660085839,-0.009106121986382203
1.07,0.1556350683643891,-0.319994672066971,0.02541679777375092
1.08,0.22475690742103466,-0.24270189745044765,0.015245231653496422
1.09,0.3092912234494925,-0.23529809379849329,-0.09311108851045215
1.1,0.34608192225801904,-0.3150858113231722,-0.22123796289714354
1.11,0.3182007765184669,-0.4521580084915874,-0.25830424239785515
1.12,0.2729470606862097,-0.5918866416371891,-0.1560491241354489
1.13,0.20501319776851945,-0.7113594734577113,0.04857896074207109
1.14,0.07114259934607724,-0.829376845051429,0.3199560834124183
1.15,-0.17140989345460583,-0.9316909350227202,0.6598207957973532
1.16,-0.488298488368159,-0.9048103657513179,0.9800598529557298
1.17,-0.8139913460969872,-0.7412858031312307,1.1656828466913765
1.18,-1.0053526390389436,-0.507075632178526,1.1195917257439965
1.19,-0.9284718487465019,-0.2539976192445844,0.8515091239071902
1.2,-0.6278222874953222,-0.10824118931563904,0.42561953684768306
1.21,-0.2622808910335009,-0.1697207779217726,-0.053337569685710476
1.22,0.0427477208062248,-0.3284085431763918,-0.45040369235703603
1.23,0.27454569390676264,-0.40888751422857733,-0.6669729158763271
1.24,0.4479988728146937,-0.47538532367591374,-0.7479380854569099
1.25,0.5621585084680378,-0.6303192130151757,-0.7796884219698764
1.26,0.619531375011368,-0.8240140696165235,-0.7675483224194506
1.27,0.6296544586383662,-0.9518573370390527,-0.6917175448003305
1.28,0.6034605420352843,-0.9402989981725389,-0.5751011556448458
1.29,0.5455503017210794,-0.7908237888998172,-0.43389590838859754
1.3,0.4542085349668767,-0.5489735487372669,-0.2796863027690526
1.31,0.3295240413330819,-0.2862101010495233,-0.14686890081735252
1.32,0.19363022615803732,-0.12414468607886882,-0.07196079577589841
1.33,0.07584267517688097,-0.12801646672398218,-0.05655118608943539
1.34,-0.01435494470439502,-0.22317916367054844,-0.05668079300786706
1.35,-0.07071958323607894,-0.3032895401404722,-0.015438354433081893
1.36,-0.09649579319289162,-0.33168156771550134,0.0749241181159289
1.37,-0.0946221157164415,-0.3385380175365686,0.184395410818105
1.38,-0.06788923173103771,-0.35933948591247,0.2910616787106457
1.39,-0.03153233967459651,-0.39727891904157947,0.3644079943686367
1.4,0.006664915767456969,-0.4320637236582697,0.37499462723175536
1.41,0.04706608800821632,-0.44091163298627534,0.32246001491478543
1.42,0.08625900286771561,-0.4169606612378192,0.23500382402095069
1.43,0.13943497524895201,-0.3913566528032113,0.14332900327505202
1.44,0.2149500324562397,-0.3894683099109208,0.046555706683159184
1.45,0.2840623558118675,-0.4222766029792914,-0.057066817572043266
1.46,0.3307347129043591,-0.47631985803113003,-0.15199082333111122
1.47,0.35100564071441764,-0.5141732404933919,-0.2357846699593349
1.48,0.3336108004956387,-0.5228843064634697,-0.29928040638041054
1.49,0.28088807577879177,-0.5075909469508063,-0.3209542141672893
1.5,0.18292851598613571,-0.4676099185497534,-0.29685627109799967
1.51,0.055145036820150144,-0.40181195581757434,-0.2498619322049958
1.52,-0.05195665643248359,-0.3552550756406848,-0.22149098984780852
1.53,-0.11613998242662066,-0.3527077997183317,-0.237432319020854
1.54,-0.1363463815383606,-0.3591777221897077,-0.2917876964732525
1.55,-0.11836890855262912,-0.36429995487446537,-0.35019974043470176
1.56,-0.0737575823519358,-0.3769304277328423,-0.38864254852858515
1.57,-0.019830829805803488,-0.4050952037268272,-0.4184222072732724
1.58,0.02902147857859885,-0.45139618087265343,-0.4499890592289281
1.59,0.06565654779271919,-0.5111615024709156,-0.47434477106195333
1.6,0.0862233697168233,-0.5800402422219927,-0.4744470362189481
1.61,0.09778458809139667,-0.6513722414020992,-0.4484422173199357
1.62,0.10927761796262034,-0.7027022472126042,-0.40480068535938823
1.63,0.1173901708335291,-0.7245722702565907,-0.3514565090878967
1.64,0.1178717335780145,-0.7356157358769779,-0.302686767482263
1.65,0.11189468239621989,-0.7316822870338437,-0.27975959030725306
1.66,0.10458116093366147,-0.7112292829823529,-0.2813741886190769
1.67,0.10771322449162977,-0.6827138278762583,-0.28634358085496975
1.68,0.12819748548821247,-0.6529731443878868,-0.285783604644595
1.69,0.1533374596586992,-0.6285543875474435,-0.2777722726723701
1.7,0.1650793025333783,-0.6168216160054713,-0.26290124660499326
1.71,0.16249758825414976,-0.627695130998481,-0.2435642317151016
1.72,0.1488589629913825,-0.6391779858853217,-0.22006326333611048
1.73,0.12513331822640752,-0.6159363195878521,-0.18865170707188555
1.74,0.09505272040197707,-0.5874173833640716,-0.15577050325575165
1.75,0.0661458964166589,-0.6002137352615273,-0.1387328982248776
1.76,0.04396524948840527,-0.6408145207270353,-0.14855967713672785
1.77,0.031838658252172386,-0.6659637545510116,-0.17232622028720926
1.78,0.04360176433996463,-0.6621358916045615,-0.1939897965991084
1.79,0.06551962392999355,-0.6383797716765566,-0.1889919743209119
1.8,0.08229431795473408,-0.5804337474060367,-0.16031660280870866
1.81,0.13630254899620386,-0.5224634977179063,-0.15202962755192237
1.82,0.23096002940495414,-0.5382759316484675,-0.1871786477306337
1.83,0.32463778239789803,-0.5979475284570617,-0.25338609256711947
1.84,0.39223551440157545,-0.6010428976441209,-0.30993332422581543
1.85,0.43534015673676263,-0.4758258473954533,-0.3459719586530435
1.86,0.49428114251130195,-0.32033231015376623,-0.3765394077573401
1.87,0.5410116565053456,-0.3317750309686736,-0.38939460038848545
1.88,0.5465013206708587,-0.47196133849768435,-0.41066986974724834
1.89,0.5152809760593565,-0.5945178537142916,-0.431265175433208
1.9,0.46244315033299954,-0.6302998071300658,-0.43058816642156816
1.91,0.39636536299855607,-0.6023223150433835,-0.40636719777348107
1.92,0.318465459334457,-0.5590587370455772,-0.37288400025347357
1.93,0.2352271094752997,-0.524341187380578,-0.3409799181631264
1.94,0.15976835274527973,-0.49198313686699235,-0.29762438176647427
1.95,0.09217196836741287,-0.4712108800881101,-0.23655151098313978
1.96,0.04042965815619243,-0.5022188626671171,-0.17325585736804355
1.97,0.003742628482822807,-0.5555564765483887,-0.09672336342649569
1.98,-0.03236102703516363,-0.5745701372152084,0.017689271081387088
1.99,-0.054970090325221925,-0.5673476998815365,0.17443284905375447
2.0,-0.03877820282796512,-0.6129123410617803,0.3486820373851486
2.01,0.015498715196689659,-0.738238810086012,0.4936621958691008
2.02,0.08045894038932119,-0.8753795743188602,0.5715404321954943
2.03,0.11402524017396262,-0.9256124411797438,0.5751607869236224
2.04,0.06708977793841676,-0.8486821033701861,0.5340689338614805
2.05,-0.043732297988390026,-0.6805389060198269,0.5271110935899923
2.06,-0.06898637502236347,-0.5748444955835433,0.538135827389754
2.07,0.006279554847954983,-0.6420082663654657,0.5244048894849928
2.08,0.11382838999471796,-0.8440491526400471,0.4566519726348045
2.09,0.16428476686471613,-0.9865346420190096,0.3951642962790129
2.1,0.14126928196650254,-0.9343230951295162,0.4059031445341279
2.11,0.11721779253143443,-0.8085521817381431,0.45226682138268404
2.12,0.130094464599344,-0.7624000247253789,0.4933944098683129
2.13,0.1615285769622747,-0.7966635563982349,0.4805651531113061
2.14,0.15417397859298593,-0.942261742077686,0.3948784156290519
2.15,0.08639089331605643,-1.0848970743777664,0.2887434239401589
2.16,0.01786550124879488,-1.011136676757826,0.24707604616550274
2.17,0.021400505425095778,-0.7646711399613855,0.2975363590469433
2.18,0.08801111355432537,-0.6043202904892606,0.3898063191409938
2.19,0.17480919635422654,-0.5545122854566618,0.5129942839736383
2.2,0.26090478301482517,-0.5408625107031997,0.6732748483857275
2.21,0.3460325713267342,-0.5167888841822539,0.7853581797398933
2.22,0.40538086991747313,-0.5423806288204331,0.8438142250969252
2.23,0.44014147343405036,-0.5613431629596227,0.8704976672121908
2.24,0.44423276841704346,-0.5393442587819354,0.8797171502603471
2.25,0.4317281281908954,-0.4923033457825524,0.8533031186057917
2.26,0.39931625998017883,-0.4490176767012203,0.7804869871346538
2.27,0.3727334177760392,-0.43546881108653446,0.6731247427011474
2.28,0.3272588336593173,-0.4632266029124829,0.5478170346731345
2.29,0.2566903223792305,-0.5027207452662876,0.4259043579547474
2.3,0.18101370375526976,-0.5170564364662928,0.3556517700416202
2.31,0.1076911110834465,-0.4911528763681026,0.3256236519373507
2.32,0.05020434127575622,-0.37636662609492494,0.3483451891466294
2.33,-0.023025141853580088,-0.30203702447188874,0.4117745035479742
2.34,-0.09938619148361592,-0.24017994431281758,0.49024577587348817
2.35,-0.16767252507605432,-0.11161084246595225,0.5662442974842442
2.36,-0.20450932812616415,0.025208824784452185,0.6210291553662152
2.37,-0.19931853454354204,0.10938938309762641,0.6286966797614766
2.38,-0.15034874177594068,0.20148587200106988,0.6019684113033716
2.39,-0.06840730832719251,0.21925843094500685,0.545939034841442
2.4,0.0335782695874848,0.17308181062165323,0.48110576876673455
2.41,0.14201868630556688,0.07311754093870357,0.42024636995254855
2.42,0.23071437501161945,-0.0487925722087441,0.37788615378459134
2.43,0.2729247695682438,-0.1622237903927978,0.3584724214803306
2.44,0.2767283318592361,-0.212797891546471,0.3379883662052206
2.45,0.25228813776326675,-0.21406613704682148,0.30023769269674827
2.46,0.19955405334667087,-0.17482002011824296,0.2382364990781257
2.47,0.12796912137881244,-0.11278471736651072,0.17109299878611664
2.48,0.03469079941212996,-0.12526746263270608,0.14168901180848556
2.49,-0.05809612289677172,-0.183784348263252,0.14003711086181567
2.5,-0.11682766806615982,-0.23873225251782682,0.18308606031352534
2.51,-0.1257134981062601,-0.24479024145257336,0.23368948549960253
2.52,-0.1004981524126354,-0.22424930743258956,0.228532755296313
2.53,-0.07986089877685698,-0.1985164587018855,0.15404380768620554
2.54,-0.0735478358228348,-0.17598950121833346,0.07385897327304115
2.55,-0.06663395584315002,-0.15659499755631404,0.025800711418815812
2.56,-0.058315336088828475,-0.12609609681962197,0.01316839592949251
2.57,-0.04413077869996998,-0.03850853444891709,-0.012778469290060782
2.58,-0.0424675594683056,-0.005532895204183912,-0.05666261988807553
2.59,-0.04100508458318435,-0.09964632221322589,-0.0582021583045278
2.6,-0.041963858116788495,-0.24548930572186467,0.013905996174667569
2.61,-0.060076808099044365,-0.33963924001903745,0.07057010155465579
2.62,-0.07425429564718161,-0.3117697238958368,0.11034805330100568
2.63,-0.04173755344021433,-0.3250670535987275,0.17882029561536994
2.64,-0.028590957736540617,-0.36159620060520226,0.26606796391863297
2.65,-0.039030687128742365,-0.3122719661998814,0.30593129130868796
2.66,-0.0070357175266821765,-0.17915825792353055,0.25635940342831065
2.67,0.07499413222953577,-0.10858914926185187,0.07757225749069296
2.68,0.21348822077875393,-0.1439255251392683,-0.14521643618196778
2.69,0.3263406728969393,-0.2760894090704307,-0.30746152952704975
2.7,0.395635957450552,-0.43535305645712197,-0.366982975160656
2.71,0.4441938256895416,-0.5786079888666201,-0.35676765532909077
2.72,0.4390638804366781,-0.6847865599787081,-0.27633163193197463
2.73,0.38241587871010896,-0.7358296344783564,-0.16067211522360583
2.74,0.26564746839262465,-0.7063627158688168,-0.03211719672478413
2.75,0.13493951832144702,-0.6520723590799731,0.05972051359091264
2.76,0.045507878027502044,-0.6831674734740498,0.10364491201748062
2.77,0.009743990464666818,-0.7855874057856704,0.13596146546048704
2.78,0.0033287904203157864,-0.8635792619976952,0.16744165787340834
2.79,0.03207374287583183,-0.8579613371100754,0.19391995600241907
2.8,0.050401829981082336,-0.8117642454601489,0.18507287610037426
2.81,0.0396840666057362,-0.7600230181952564,0.17446497176261924
2.82,0.04013779196778668,-0.7531001365010088,0.1615101655681123
2.83,0.05382282928746114,-0.7921224604071572,0.1536510941776081
2.84,0.06747571719098441,-0.8143983651831772,0.15752253396232385
2.85,0.08909397347954809,-0.81743627055194,0.1685650177025304
2.86,0.1349952477817112,-0.790274809623437,0.16080041356092073
2.87,0.17442848000461583,-0.7795804141907641,0.15452921367906508
2.88,0.20820074671955788,-0.7903356703474423,0.14586473170503356
2.89,0.2620160673245037,-0.8094247494234462,0.14382186692577406
2.9,0.3223213127428324,-0.81460468382539,0.1284309296603539
2.91,0.3775577298021895,-0.810580101500159,0.07989045877273437
2.92,0.4300532068101885,-0.8325450098003128,-0.032050400862097865
2.93,0.444027392350843,-0.9341122362909386,-0.1530859316091236
2.94,0.4500056802145916,-1.0059003461029477,-0.2732892720176279
2.95,0.43611620044880084,-1.0551339288890955,-0.3702911155453068
2.96,0.4302873577082725,-1.0907639537360594,-0.42872794853072804
2.97,0.41691328933645766,-1.0989711263867576,-0.44513591499220856
2.98,0.3931152665161173,-1.091387187313441,-0.4360227950182914
2.99,0.35910845760104765,-1.0527052636830676,-0.4408137425620742
3.0,0.2904095653359589,-1.008403106654472,-0.47250849471642076
3.01,0.24397733073892422,-0.9437177263277324,-0.5029465507861817
3.02,0.20676196927545465,-0.8919972118980299,-0.469072595787696
3.03,0.18633524290287662,-0.7768765363013745,-0.40488759534473007
3.04,0.1812363612279366,-0.6377166253085762,-0.3782455800269756
3.05,0.15197309153564084,-0.5843319348036462,-0.35395485034374047
3.06,0.1195477645919312,-0.5335134331899168,-0.3275682235422017
3.07,0.10636585905943513,-0.5637136898331911,-0.26887531150925287
3.08,0.11705083467962644,-0.6346136688649328,-0.1930906986571045
3.09,0.1385990558558326,-0.632189386924383,-0.1507184501912905
3.1,0.15819470256051474,-0.5828464619985564,-0.11215924233337299
3.11,0.17180196235435938,-0.49798898778585554,-0.07228120859493085
3.12,0.21054012236153358,-0.40333052895920923,-0.040220657667005444
3.13,0.268937032118635,-0.2552707113589685,-0.03709924865712759
3.14,0.35569065586683557,-0.14258112311182847,-0.06247320342348689
3.15,0.4380153869553211,-0.13300713314715712,-0.12145293461792427
3.16,0.4986528620474061,-0.17408925848510876,-0.1819119763691455
3.17,0.5473812180999892,-0.21860894434775008,-0.20029921425262714
3.18,0.5731036373276946,-0.22552193680492047,-0.23963089792699557
3.19,0.5924410625685953,-0.262375399653798,-0.3160329444385684
3.2,0.6008997996019634,-0.3320662593570254,-0.40168773985964096
3.21,0.6086025412550563,-0.38518929369896426,-0.4586153189433004
3.22,0.6218982401316504,-0.3663755364887418,-0.4446501650054896
3.23,0.645682141286326,-0.34099201660793305,-0.37987991201669563
3.24,0.6738360781552964,-0.29854833360339117,-0.33004349178969183
3.25,0.7051292130469831,-0.308500704337814,-0.3363821356835922
3.26,0.7084545918069511,-0.32877464186054267,-0.3820727154894829
3.27,0.710660879458693,-0.30973810707348776,-0.4346397813349327
3.28,0.7259300244624671,-0.2665526170650293,-0.4538213252919691
3.29,0.7435279524881838,-0.24090307084787904,-0.444302028128955
3.3,0.7654768984035494,-0.22351354692144687,-0.43884669228516254
3.31,0.7689001599401287,-0.2205629211629392,-0.46041436238740385
3.32,0.7571106745455588,-0.23894884800351032,-0.49750412864247107
3.33,0.723330117443911,-0.26047050125632765,-0.5174377705439058
3.34,0.680004830125481,-0.2816694933567573,-0.48891458622295975
3.35,0.6530146083182234,-0.3005053614839902,-0.40959527413459873
3.36,0.6413220075668127,-0.30897353618796614,-0.3091971642657434
3.37,0.6341784231882351,-0.2937542051073285,-0.20223408171058332
3.38,0.6127711172051223,-0.29455620244200476,-0.0974978376446524
3.39,0.5791617408732095,-0.3221514577246968,-0.044426623974173664
3.4,0.5442083416173472,-0.3226103473803534,-0.03429825565527048
3.41,0.5337252293005531,-0.28856703899742353,-0.05134451711122442
3.42,0.5381140330412075,-0.2518514484711039,-0.06941500053244284
3.43,0.5409146306259174,-0.2101298077330046,-0.0849051156942078
3.44,0.5635044224254205,-0.1612256380261861,-0.12041880604236817
3.45,0.6009465593598192,-0.17208821721051556,-0.17140387704548535
3.46,0.6257851865778539,-0.23387761308716445,-0.2162399097010846
3.47,0.6122597287223089,-0.2788136385300482,-0.21770087638531152
3.48,0.565344369162008,-0.259225097081429,-0.14943877445556508
3.49,0.4954287617597352,-0.25878290937306253,-0.07319534662859807
3.5,0.40993574236068886,-0.28414593178087655,-0.007898093200704665
3.51,0.33187026714074125,-0.30727666631305883,0.059399079658038874
3.52,0.2889011074358456,-0.32583532040463176,0.15675417159971444
3.53,0.2767845753682593,-0.327545492797626,0.2755975628263201
3.54,0.2863045790974098,-0.3010838611164181,0.4132230949230724
3.55,0.3327535547972996,-0.2745483089931007,0.5569766465924502
3.56,0.40931007730682384,-0.27510218396284186,0.6787201072093587
3.57,0.47324936937322115,-0.28664750488050705,0.7666889467933224
3.58,0.5148482984066656,-0.2903718029893791,0.8192534913007014
3.59,0.5287397115882356,-0.3007836608602991,0.8584038581330556
3.6,0.5279318126394653,-0.3032297887206295,0.8935372703541544
3.61,0.5009918105835858,-0.29647189481572744,0.9459831818900047
3.62,0.45704545346994135,-0.25057912070047894,0.9844785321250463
3.63,0.403441277833472,-0.18153449257246326,0.9943071509657847
3.64,0.33310555692557686,-0.11751162249766528,0.9863472883378476
3.65,0.26187046772156725,-0.06048015786918663,0.9494094344484502
3.66,0.19111833111082163,-0.045913228601419415,0.8899651673463522
3.67,0.11098831428303191,-0.009419194686788302,0.8027610174786102
3.68,0.031092095985188556,0.04784978816011115,0.6883366886714457
3.69,-0.04575771022204922,0.08109122772961173,0.5704825052946495
3.7,-0.11555057669777895,0.09571224998346073,0.47399919933546725
3.71,-0.16938454680473436,0.08881618968579595,0.42189586899521364
3.72,-0.1958807781539926,0.05261289235166133,0.4295263494492611
3.73,-0.17253264416263808,0.0008730626413666612,0.49487025099435755
3.74,-0.10408031134921768,-0.037614070214453114,0.596993625454103
3.75,-0.005862075089118435,-0.060412913380482665,0.7003035236666004
3.76,0.08623050134905623,-0.06678637796394632,0.7689817476004382
3.77,0.14233085060792683,-0.04506802006931882,0.78373481836053
3.78,0.14938040256082555,0.0007314176534526675,0.777933640553837
3.79,0.09973475014022933,0.073814771317381,0.7484911357229562
3.8,0.023063110619032514,0.17364834746460295,0.7194162411087728
3.81,-0.04351007351652187,0.3171038123655872,0.6910233176403796
3.82,-0.05885450988507583,0.44498804685452004,0.650140453262725
3.83,-0.031109637981928936,0.45744689784478604,0.6089944867409781
3.84,0.02216299203873696,0.36991045715538456,0.5435418144770718
3.85,0.06483881765880363,0.22020519837613386,0.46352679976757466
3.86,0.07251425160554473,0.09334026607496763,0.38982146668999124
3.87,0.02684801609822681,0.01903964035385255,0.32985978263808274
3.88,-0.0564215033843866,0.03176828980186994,0.28383541779081095
3.89,-0.12388551745349836,0.24887090209254933,0.32076409219873764
3.9,-0.1822916660629107,0.4637293722080514,0.38322120823986794
3.91,-0.25486135439348945,0.557331767631556,0.41978356687735185
3.92,-0.2935745954519331,0.6123594332110813,0.47544083266586096
3.93,-0.27768137289296163,0.6545365465123559,0.5634394620779103
3.94,-0.20870647068253267,0.7017259273437325,0.6519342219848314
3.95,-0.1151305226919623,0.7408422782555893,0.6951325230919703
3.96,-0.02998213464503362,0.8228224313664516,0.6547816973312941
3.97,0.02162904957110946,0.9219278108378554,0.49663531771977104
3.98,0.025737746275326993,1.024986119156603,0.27137514561478515
3.99,-0.036233244869540666,1.0863714335097938,0.1088033308308996
4.0,-0.15352519898811728,1.0350356932338771,0.07496901368066194
4.01,-0.27952400569892205,0.8763828880291913,0.15114518735865462
4.02,-0.39401148681526466,0.6716703163938161,0.2785701809275602
4.03,-0.4894672686751545,0.4900824530001195,0.3864640406198213
4.04,-0.5602399459008686,0.3919322569558327,0.4221584873697524
4.05,-0.6237058051906729,0.35762636157801997,0.38685521216401336
4.06,-0.7086736738862986,0.38325816289338654,0.30607027026087696
4.07,-0.8112909066617547,0.44151739375059085,0.20576665992900903
4.08,-0.89267839387675,0.49370122469254274,0.12210276366876001
4.09,-0.9574506563366988,0.48983869670151287,0.08941526083264623
4.1,-0.9866769555340558,0.5091747784765847,0.055474083240263226
4.11,-0.9347305582538414,0.5821942869554181,-0.04470140877304218
4.12,-0.8259568519119076,0.6363276243963992,-0.18957097011441548
4.13,-0.7013009124841537,0.5822039267314756,-0.31330805011821
4.14,-0.6083214561918179,0.41855665680297444,-0.334668273899098
4.15,-0.5721628142659262,0.2688869080058854,-0.23354943968516853
4.16,-0.5317130697092615,0.25659160353369925,-0.123284461049781
4.17,-0.49172555294578424,0.30521320242097566,-0.0776126831432739
4.18,-0.48224323257261414,0.3013427839225636,-0.07874770831053202
4.19,-0.5018851151198055,0.23457855465129354,-0.09524067526574811
4.2,-0.5358600807643544,0.16196756707772203,-0.11360191995107564
4.21,-0.551862893211593,0.0893706090078544,-0.13935409137106752
4.22,-0.5269142246624063,-0.02089594454166412,-0.17016697545216972
4.23,-0.4791696018908327,-0.15440615372950525,-0.1754333943552126
4.24,-0.42374803185066034,-0.26522593029835545,-0.16274979668920014
4.25,-0.3639124922834223,-0.2996066612706511,-0.15286035445437365
4.26,-0.3095968471568526,-0.2673013299987957,-0.15494138540158575
4.27,-0.2669762718277265,-0.22857518188999415,-0.17553444211971925
4.28,-0.24076975611370474,-0.18493736636567784,-0.20229998017360998
4.29,-0.21901805079365233,-0.12020536196038913,-0.22117787122740662
4.3,-0.1780456262996006,-0.06428156065737282,-0.23469267527557006
4.31,-0.12210611950992004,-0.05052221867944497,-0.23004586871402538
4.32,-0.06737313088915536,-0.08716209710248118,-0.1927666005689821
4.33,-0.0186414186723426,-0.14317558027367924,-0.1274843601496456
4.34,0.009759930195114046,-0.1939297435651685,-0.052809432522654715
4.35,0.009131233975553122,-0.238203452191894,0.004070416825481072
4.36,-0.009075444670542403,-0.27227358504583327,0.03894350115807188
4.37,-0.02931083329878448,-0.2938224675084182,0.05504591309856688
4.38,-0.05382801649459301,-0.3266981791290972,0.04595652248378622
4.39,-0.09280815269635373,-0.3778648627756847,0.01403783682691712
4.4,-0.14259706339811654,-0.42199354050135796,-0.03777057771578741
4.41,-0.18724842057175645,-0.4395323422203096,-0.10935109133049901
4.42,-0.20934398167316384,-0.43065274238801327,-0.18770006180226326
4.43,-0.19583214787704878,-0.406179792572783,-0.2820884712208483
4.44,-0.1634658557979422,-0.3887573342599468,-0.40482200614609115
4.45,-0.1287480101006816,-0.38148063194555787,-0.5400620700233911
4.46,-0.08645727742257225,-0.3748359440329977,-0.6428701976108142
4.47,-0.03199187389578109,-0.3800712047916717,-0.6952925756767993
4.48,0.018006947017192496,-0.4012949017766813,-0.7400821368165468
4.49,0.041429936586624166,-0.4378972206277475,-0.7934212361380634
4.5,0.04814640559498078,-0.5039162686429772,-0.8385861335625692
4.51,0.05280670326704813,-0.6143798741781881,-0.8706427216587835
4.52,0.04336417873940729,-0.7279201437469843,-0.8830130802466786
4.53,0.009361980746485522,-0.7583985423110621,-0.8898055885826979
4.54,-0.04567021390818642,-0.7026088366381953,-0.9011529428655571
4.55,-0.11841037867275997,-0.6421919525663269,-0.901648775877666
4.56,-0.19090667948632004,-0.592010149714697,-0.8843427508804769
4.57,-0.25368699297015207,-0.5012973666092561,-0.8340087052102165
4.58,-0.2972256182436367,-0.3910715378616563,-0.7402557975585402
4.59,-0.3082095396723221,-0.33721892319901703,-0.6173173277478979
4.6,-0.2789904874416131,-0.33606206525675897,-0.5089898429570966
4.61,-0.20242119409754902,-0.33770165563169297,-0.4556660774034436
4.62,-0.10536789384288857,-0.32401097336585216,-0.4426864714267275
4.63,-0.0216465709034923,-0.28466817488896506,-0.43427275651156244
4.64,0.03817381332892073,-0.22302275719925768,-0.4086931397827019
4.65,0.09018258251013753,-0.15361591073376457,-0.371866544309646
4.66,0.1437643866491161,-0.09384686911990577,-0.33602939656470976
4.67,0.19569245412018962,-0.024679955858971817,-0.3120367713342378
4.68,0.24664745472750768,0.06576108466066342,-0.31025884881998417
4.69,0.29704580799928165,0.13405078934308373,-0.32674211070896514
4.7,0.35509183066176786,0.11707298016253413,-0.3630163240268461
4.71,0.42068766881013786,0.026035264861057297,-0.3951491903987199
4.72,0.48178769515615505,-0.053370772279387274,-0.38235855372316263
4.73,0.5193934822409713,-0.08828726876508958,-0.3218660736933369
4.74,0.5276367454173434,-0.06433764678176143,-0.25879967871696263
4.75,0.5261301138943772,-0.055153477967167075,-0.24298284714899743
4.76,0.5328177256122348,-0.06734162320010689,-0.2842030861122677
4.77,0.5547368972608768,-0.001529216172994865,-0.35928279439343547
4.78,0.6070012974150129,0.06264504858330389,-0.4225570869751801
4.79,0.6544525683455552,0.08125111257736194,-0.42867470441516003
4.8,0.6435666648398048,0.12929201964253897,-0.38666469204425585
4.81,0.5853980188764828,0.16376664606117694,-0.3298287778622952
4.82,0.5224062243199212,0.179250584020327,-0.26907817022075997
4.83,0.4713034837472174,0.20374914055629062,-0.21646217212874827
4.84,0.4284751234149986,0.21730310270465847,-0.18949156911147352
4.85,0.43586624356092196,0.2420163058178614,-0.12361577151974704
4.86,0.5446697494462522,0.24127034778244522,-0.11732772125756984
4.87,0.6171673872932987,0.14212261027036535,-0.18233448313142475
4.88,0.513390266233037,-0.7761583096448105,0.14755759553767667
4.89,0.4231133653707481,-1.611940404974246,0.3751158520922791
4.9,0.33833137782821815,-0.4448180334571419,0.0514526925796203
4.91,0.22182838282413692,0.024883163249322764,0.039021615843363666
4.92,0.17898032297501013,-0.018205822145325207,0.18144047420662934
4.93,0.1947468150159115,-0.08422416353770841,0.3544990375522409
4.94,0.2834833334222621,-0.08544590554228589,0.4908005321528474
4.95,0.39093094551804264,-0.15106104536601858,0.5459976739395467
4.96,0.4495546568604956,-0.20452341187584563,0.5848331377968912
4.97,0.4368078752510343,-0.2159742791886196,0.6079450971298151
4.98,0.3555963958762622,-0.11749977600456629,0.5317354300345154
4.99,0.2448321774807256,0.08985720526268413,0.41288087820391617
5.0,0.16286464285846344,0.2595715102186049,0.3170587192928717
5.01,0.1289740342553029,0.2907334274482194,0.24542258403817477
5.02,0.09948369483488667,0.21993941969140068,0.23509790043366688
5.03,0.08921331121550716,0.08102565102398072,0.24526264425800273
5.04,0.13049158725886423,-0.031529966466814566,0.2371768834167614
5.05,0.16245935200057945,-0.02135340594020351,0.2806311197084174
5.06,0.1646139019103327,0.13002898310971162,0.38752847172246624
5.07,0.1465780576171664,0.3195254085533817,0.5158786956411217
5.08,0.14416378020482923,0.3132027888864444,0.5656065176471705
5.09,0.1837781955452726,0.2138023252962286,0.5285442632789958
5.1,0.28274867443332385,0.3344688729069683,0.5106299962494392
5.11,0.4131018924172368,0.5434898245577036,0.5335141036943029
5.12,0.5016730674564447,0.6019504653506611,0.5035098818797024
5.13,0.5086911964233833,0.3932630878279157,0.39358689537276204
5.14,0.45356451043835727,0.06614152435674754,0.2471493928986674
5.15,0.38640741333184525,-0.3432423028262464,0.11990690087451852
5.16,0.3812040377851061,-0.8717159176760142,-0.00044670608943286227
5.17,0.4885576040433124,-1.6626888160468465,-0.1419802554343007
5.18,0.7098228449118605,-2.4886734212838797,-0.26590981075408754
5.19,1.0353251090346876,-3.078979126550365,-0.4753291866069251
5.2,1.3236349540645638,-3.64687112396104,-0.7545895339601465
5.21,1.4924552476324222,-4.2031035858121415,-0.8421561050216009
5.22,1.4785887442090004,-5.04964691117402,-0.8348160830234217
5.23,1.2657479010094004,-5.499551841530765,-0.6820545560434566
5.24,0.9396588343008357,-4.734177675493006,-0.3342453836144055
5.25,0.5808168599533018,-3.339975038945807,-0.03965049730915398
5.26,0.28745759210675226,-1.9502610283824384,0.10218708869012907
5.27,0.1819570785721869,-0.7815608341026782,0.14653761933966336
5.28,0.12344646962395943,0.2968307614585273,0.11133582073183278
5.29,0.07091744115766192,1.1924883812211629,-0.049310084632540926
5.3,-0.027966179833742732,1.7633218933452288,-0.2304018457682549
5.31,-0.057388399169433016,1.8164686013143263,-0.3179786962583713
5.32,-0.027901462294387364,1.4787134550320045,-0.3405670417435523
5.33,-0.007158105850602737,0.8552287002407917,-0.40060264961912007
5.34,-0.03940221681038459,0.2618797244984161,-0.4454180425391737
5.35,-0.1657311944890412,-0.18740709268278344,-0.39289908389800815
5.36,-0.3441010390410923,-0.5979232521833512,-0.20802814375454157
5.37,-0.49014689711677856,-0.8156350190702866,0.050334921691843816
5.38,-0.5905777994639807,-0.7698516443707485,0.18089661355153358
5.39,-0.6026402415955514,-0.5792037485036283,0.1317507194249146
5.4,-0.54096685760083,-0.34352327154088247,-0.026487373614976203
5.41,-0.4239015677919448,-0.16934620650717658,-0.2647541182623979
5.42,-0.31210925782384263,-0.03494227051214968,-0.45727304294604065
5.43,-0.22028457683906819,-0.029780483844159752,-0.5107610465874315
5.44,-0.15863040055123662,-0.12893680508228214,-0.37868805360426183
5.45,-0.10329191282127859,-0.3743585267140175,-0.049114391608018906
5.46,-0.05607901597936802,-0.43621779833561947,0.12501342038391283
5.47,0.060362797662038566,-0.24196501099393433,0.07087372089524785
5.48,0.19026802703661458,-0.0675036670965828,0.020262905806119235
5.49,0.2046542954025442,0.15614547023773837,-0.0027540175028938373
5.5,0.11064874856436757,0.33236386439980437,0.02504820201574531
5.51,0.009379333541219146,0.46745505885190725,0.031856583102033036
5.52,-0.03447681239588722,0.5894348520724185,0.0737161923261934
5.53,-0.04233950479329036,0.6461729561522082,0.09251925850364894
5.54,-0.046452665915438514,0.513404282244668,0.08029156097848851
5.55,-0.029901928236534505,0.2581130610415796,0.05342377652961274
5.56,-0.008323322712007024,0.11995891069568819,0.010717650253199623
5.57,-0.0209242955513929,0.07950797879370618,-0.038644364666694936
5.58,-0.09264061129744175,0.13049818350874925,-0.06654746892450368
5.59,-0.18525276545777605,0.20207109966334222,-0.06646467837822172
5.6,-0.2376880352504202,0.2516374134048526,-0.06834047933353078
5.61,-0.24460146550331122,0.22431230882266137,-0.06432834826405359
5.62,-0.21910883818117174,0.1175593671054476,-0.0638687164091712
5.63,-0.20764312176015107,0.0013765073946970803,-0.09694860003742108
5.64,-0.22170975199811757,-0.10219636556003937,-0.1710136657921792
5.65,-0.26214545749445084,-0.2139980761213335,-0.27341474836897084
5.66,-0.32770019746174167,-0.3230620902762151,-0.37203155524393694
5.67,-0.4162416330363033,-0.42340625535396637,-0.45135964824995534
5.68,-0.47602715117027267,-0.538448377841428,-0.5227176029413217
5.69,-0.45729605920313143,-0.6107433470572715,-0.5644137414430849
5.7,-0.372092057601809,-0.6378374435290441,-0.6077327542275303
5.71,-0.2444184051042785,-0.5777666059371797,-0.5884601140358806
5.72,-0.10691002151717072,-0.44979306212476095,-0.5362081115659969
5.73,-0.019625155974909242,-0.27225380481714484,-0.4641652640034556
5.74,0.023064541726323093,-0.11813678379328887,-0.3077597108453012
5.75,0.02510951148312623,0.08957773977284597,-0.13822829389656408
5.76,0.03199492194286726,0.30539261148941144,-0.06541708241447484
5.77,0.04259892509297621,0.4407256772039807,-0.09111415833371388
5.78,0.04903958638787075,0.43920610890958584,-0.19815622163319874
5.79,0.05236230833799984,0.37235587800212366,-0.3447842977959953
5.8,0.04135306232565844,0.2730972651496122,-0.47614738517382205
5.81,-0.0023876752712569,0.1529270492625726,-0.5013203786801486
5.82,-0.056147240236897204,-0.018167099010398466,-0.4562525994072322
5.83,-0.09105268801560326,-0.2216504731915493,-0.41186858782513314
5.84,-0.08043730722944675,-0.38054623034359203,-0.3936411167064828
5.85,-0.026053135234665438,-0.515747855901306,-0.4096822925376089
5.86,0.04435908101152208,-0.5711098076009591,-0.41373554371860266
5.87,0.1080694877215648,-0.5490595345204669,-0.3760948942831781
5.88,0.1345447622169798,-0.500859897764573,-0.3041861519436912
5.89,0.11731692112175182,-0.47415638291954676,-0.23942521244943446
5.9,0.055680167387040964,-0.4296816306250178,-0.20770817086294738
5.91,0.005376229287690407,-0.3704212896145203,-0.17815902042780427
5.92,-0.0016019154539594588,-0.3475423334781819,-0.1814030661520881
5.93,0.005113944125929445,-0.30641253048680156,-0.17600988021966868
5.94,-0.006507774536936976,-0.2921099223197387,-0.14535009885794506
5.95,-0.02300629570970131,-0.35465043527763596,-0.13444718569277758
5.96,-0.04540366172868061,-0.42905309259548874,-0.14153037835343846
5.97,-0.05589052495655525,-0.4985279323287594,-0.1785506699482945
5.98,-0.05493095522248971,-0.5745239434816297,-0.2510162653404658
5.99,-0.016051528601412623,-0.6196586152089859,-0.3184235512483704
6.0,0.03473455186381537,-0.5834487960103559,-0.3369938183772153
6.01,0.10651375331849841,-0.5010835917156651,-0.3272046491219116
6.02,0.17852287985680246,-0.42696700268783233,-0.3126193502174942
6.03,0.23770626428165106,-0.3473445602483865,-0.24161710718685545
6.04,0.26298319393156294,-0.2924678757063448,-0.1549121237835401
6.05,0.2660314724667329,-0.21705968209381876,-0.06206875917257143
6.06,0.25334235021715457,-0.17465248642316947,-0.021160746210644347
6.07,0.22295591376572504,-0.17503356474803614,-0.00042229491243142006
6.08,0.1789496881674087,-0.18599368947594178,-0.011804342795591434
6.09,0.13839136958398326,-0.19812419814816362,-0.026730160847922037
6.1,0.11147887173837431,-0.18787434519181498,-0.040914923090896324
6.11,0.09550113423009911,-0.15252899026641195,-0.05559091497452112
6.12,0.08559366015277685,-0.13003872434890867,-0.06040731354240632
6.13,0.09447551106808202,-0.2259592830428478,-0.06519016581653672
6.14,0.12434277387648779,-0.3393426055759648,-0.04901305813415345
6.15,0.2222864997603822,-0.35788938867199516,-0.020675617990370567
6.16,0.33759176700288585,-0.38520733702399035,-0.03513047557314301
6.17,0.42148044496748555,-0.4001735500870766,-0.06981593404938956
6.18,0.46683616461253874,-0.4171652554102435,-0.08865225633782607
6.19,0.45560339678376965,-0.42369223625312585,-0.034893359845439856
6.2,0.39513940371031614,-0.3613307610605764,0.0792002285704252
6.21,0.33220238573273403,-0.2499899339923894,0.20262349076059025
6.22,0.305343553652318,-0.11586345354644263,0.29401901018302207
6.23,0.3183563931447503,-0.028780131365631657,0.3067837588586046
6.24,0.3469465064464029,-0.0045555434437336536,0.2387526447866579
6.25,0.34809616540873306,-0.0056117479979216,0.1646005424668998
6.26,0.29902344569673794,-0.034390444872880406,0.1558318365417847
6.27,0.23043764780504888,-0.09376344983539601,0.18117033937707913
6.28,0.17073849607777525,-0.08110542880566643,0.18428141995466743
6.29,0.14765760030730526,0.023142912590648348,0.13645787387340727
6.3,0.15510151228808092,0.18128017545852876,0.051825839100809026
6.31,0.18158449882688443,0.24738382957199637,-0.03392038841938455
6.32,0.20188611367430953,0.1456234216576411,-0.05547022022881714
6.33,0.20342775933064122,-0.0001386039509025896,0.015672449300597614
6.34,0.18042101161093738,-0.10624172873036185,0.0910387207363224
6.35,0.1582163863685193,-0.22557408437222196,0.1200592153439764
6.36,0.14762253357659147,-0.315286654245827,0.12952394927120334
6.37,0.13919057049467295,-0.32259311837238586,0.16854815772631548
6.38,0.12763595101754638,-0.29827005979979565,0.21498906243620364
6.39,0.09161191119952211,-0.2778493293138819,0.25311774666064873
6.4,0.038890917574547754,-0.237683364882758,0.2844782996756367
6.41,-0.01742994184947299,-0.20400784209846975,0.29096257227498457
6.42,-0.0934600551441338,-0.19886992873646925,0.2921184103934324
6.43,-0.18014769660727661,-0.2399924243953828,0.3040867180937355
6.44,-0.25730074015770804,-0.3027681387243877,0.3282374851756444
6.45,-0.3016476244900435,-0.34708254691666335,0.35915155279768446
6.46,-0.30514190582510264,-0.40077481227121103,0.3717177419465787
6.47,-0.28060232451151407,-0.4627035497705209,0.3523025930159934
6.48,-0.2253159540951921,-0.5464113327560114,0.2816102377347976
6.49,-0.13265886311949748,-0.6947697048524034,0.1424003489853348
6.5,-0.030383759879542074,-0.8490730199968382,0.009455987104225395
6.51,0.05189029513249493,-0.928875408859269,-0.07633221176380267
6.52,0.1082065874158015,-0.9155141165180622,-0.1045912459905655
6.53,0.15373212785193546,-0.8711354887370074,-0.0572087824351367
6.54,0.1890812600463183,-0.8184640169259766,0.11822050975386317
6.55,0.18372170466850923,-0.7008235976810956,0.43583887574415037
6.56,0.1046045276338346,-0.6477388137418808,0.6710820196143898
6.57,-0.032859852293267225,-0.4418082473521807,0.7351258811915463
6.58,-0.18337227507737888,0.19314060402181704,0.5067373591175864
6.59,-0.18009468158864542,0.47309812284441227,0.20519456605012684
6.6,-0.12492020551852871,0.37001262369631327,0.11462431418834826
6.61,-0.09087661831599828,0.30623651246331157,0.1513238069809202
6.62,-0.05621269185905571,0.4493832134982242,0.13462545287429178
6.63,-0.0470401756415581,0.7813900748457876,0.06053777447660168
6.64,-0.06251467113883523,1.1275234524089397,-0.01643331473481357
6.65,-0.07893050086749534,1.4298973482996635,-0.06285766801207926
6.66,-0.058636428769865176,1.5372640766153367,-0.11660299180036485
6.67,-0.018316897554550824,1.4500386265656022,-0.13850755982553237
6.68,0.026463522123634127,1.1289447863839128,-0.1446506132218084
6.69,0.08195845180599881,0.6334622061663618,0.010561783642030956
6.7,0.0377974647558128,0.47426809552396265,-0.0987316986796762
6.71,0.008059337721672924,0.24740472101049268,-0.33542258314296464
6.72,-0.010239135221781577,0.17983881437073068,-0.41916699263692886
6.73,-0.07212126435252197,0.24885725944575807,-0.36521549854812657
6.74,-0.18256576184077264,0.33253082566950104,-0.22395648316236608
6.75,-0.27682864771357124,0.3349442845003531,-0.04735625459545778
6.76,-0.32518154507731095,0.22151752455577822,0.11313782929415378
6.77,-0.3472960180936042,0.09204803516152009,0.23161334099667957
6.78,-0.3896800593616745,-0.05934695543626052,0.2668562454396388
6.79,-0.4286792442240187,-0.21570459521065793,0.2360467252687693
6.8,-0.4574835980037649,-0.4271934651040489,0.1723978482721824
6.81,-0.45499319046393577,-0.5887530719419267,0.09814433960024607
6.82,-0.4340212521362741,-0.6818071833288094,0.04729288929747178
6.83,-0.4143053208693013,-0.7036520870341174,-0.053511328387780104
6.84,-0.4221255376063994,-0.6477818103270546,-0.24991605981954354
6.85,-0.4784022175059734,-0.5296547603357687,-0.4898121131212624
6.86,-0.5217693142944199,-0.5855178039639924,-0.5702692562747457
6.87,-0.5483780436338112,-0.6542145435650899,-0.4843377536897273
6.88,-0.5304538833861586,-0.5350234091035871,-0.3718607580158809
6.89,-0.5089031705500698,-0.2638088583475137,-0.3203380693526668
6.9,-0.473764892534727,0.007776740512649227,-0.3401051732916267
6.91,-0.38068622864561763,0.20526712796841126,-0.34936727555561153
6.92,-0.27357390870041826,0.3418962293601311,-0.27137516374310594
6.93,-0.2274978101897538,0.48876445262138263,-0.15230433351054207
6.94,-0.2590776650531368,0.5942219115695687,-0.06671468236885757
6.95,-0.33156222466749585,0.616175256273569,-0.008181385028707371
6.96,-0.38292019349813,0.5611350077131788,0.02092600278957431
6.97,-0.37621929634370344,0.4360226846202605,0.01519747998364752
6.98,-0.324290722497605,0.24785655797514908,-0.030931698949445273
6.99,-0.26752937721472136,0.09360705412999352,-0.09474460579666198
7.0,-0.2222581372485955,0.025291549802185467,-0.1522371480087261
7.01,-0.19095798477173792,-0.029239085457223594,-0.21169148879352356
7.02,-0.15989083502107448,-0.0882300057438908,-0.2795124983291334
7.03,-0.11397359657339122,-0.10758109973925402,-0.3492148244040576
7.04,-0.05785868272199581,-0.09117297606924718,-0.3940363393453587
7.05,-0.006164635611900505,-0.1246369349229826,-0.4051920156174875
7.06,0.031162592694622255,-0.20084033136018828,-0.3714345464356439
7.07,0.04405010000729795,-0.2722787059138516,-0.29238784728301465
7.08,0.03697110537459629,-0.30313810871199093,-0.19234562251305345
7.09,0.031090416820966166,-0.28393358858336964,-0.12656763454448852
7.1,0.04835872881092613,-0.2556184257907241,-0.11909222440579438
7.11,0.07472027756501291,-0.2156855155530232,-0.15821329759444772
7.12,0.07824104226287913,-0.16881161240208006,-0.21723127814717647
7.13,0.05348680378695052,-0.15686959300044384,-0.27727857317375393
7.14,0.0215072948861412,-0.1905966707764124,-0.31810327814303313
7.15,0.00614437082379144,-0.2557798629027847,-0.3258725771039055
7.16,0.0061590409036979795,-0.31967785664754195,-0.31768472444650253
7.17,0.0177504124655865,-0.3395603749765626,-0.33312483289185646
7.18,0.04148541679955414,-0.27879184866947,-0.36894963789605356
7.19,0.07903568098446971,-0.16792860398190462,-0.3926097994224047
7.2,0.1344535270148323,-0.08218172633490849,-0.38583187309712585
7.21,0.19936709339483397,-0.07539353393401142,-0.34621121807536825
7.22,0.24490910899048488,-0.1058084536054572,-0.27572736187725794
7.23,0.25611821537557977,-0.15556714504499655,-0.18338419068163853
7.24,0.23383299066873164,-0.22916766062213234,-0.08983445442969806
7.25,0.2090826935069915,-0.29039622574757756,-0.019325107528483723
7.26,0.20850295428885124,-0.3107043362030772,0.007303089280845576
7.27,0.24984593028597835,-0.3570378474154161,-0.028566535141201464
7.28,0.2891299548097112,-0.42266516173676855,-0.10701857843135335
7.29,0.28357325654653415,-0.4635185598290098,-0.19622605768389156
7.3,0.2413863545758457,-0.47986552711733366,-0.2678622797897174
7.31,0.18245230576087668,-0.5064060403506362,-0.29215583037478954
7.32,0.12898993365073902,-0.5519035616032023,-0.26623095866602714
7.33,0.0923871852409483,-0.5554722880545525,-0.21617253435210754
7.34,0.07568228539595727,-0.4823729105624696,-0.18185782207960124
7.35,0.0808576828387097,-0.3429534864412799,-0.1737583050056738
7.36,0.0891670652434602,-0.13610388947976043,-0.17875870823504753
7.37,0.0630714516664047,0.06526782014916245,-0.19117591240734352
7.38,0.008379559681236291,0.195401442040977,-0.1823164806403767
7.39,-0.02747947852989506,0.25856982946144585,-0.11464596052555542
7.4,-0.021413203169210363,0.2319686926276631,-0.01092839212926418
7.41,0.0210410670759968,0.10908456095239588,0.08221089551690317
7.42,0.0671967765317936,-0.043450658920792626,0.1455708207538294
7.43,0.08492503770700846,-0.17505285047327973,0.1739945105522279
7.44,0.05871378459247506,-0.30570695235915574,0.1812177894715581
7.45,-0.01346390024721728,-0.410025246770588,0.216348235258061
7.46,-0.09608257350933037,-0.47390439111070204,0.28787066396468325
7.47,-0.15450780291975943,-0.554254379532342,0.34215127782078597
7.48,-0.18966087069892912,-0.6411757757431884,0.3397874791331529
7.49,-0.20205450196570177,-0.6808536892796482,0.29308973788446213
7.5,-0.20946216245016044,-0.6783171706586039,0.2337189447301091
7.51,-0.251801544782988,-0.6578955010626862,0.17888911768065135
7.52,-0.3233390029336065,-0.6150167439943924,0.13646720136814677
7.53,-0.3843713801098648,-0.5519666078520435,0.10000470237243154
7.54,-0.416995767332104,-0.501106674801249,0.06573581906351193
7.55,-0.4353638878689457,-0.47897163605168075,0.04387142506629936
7.56,-0.45839371823570996,-0.48790181119709497,0.04287858173125955
7.57,-0.4996499690569732,-0.5230135546068228,0.06734954765593684
7.58,-0.5424254010432331,-0.5496220642522017,0.11941937194744232
7.59,-0.5518968209313193,-0.5718945895267256,0.17112418837620158
7.6,-0.5272904584089741,-0.6037886594377673,0.1898216824831377
7.61,-0.481315530345813,-0.6345089530347175,0.17407184418630234
7.62,-0.4265733026511141,-0.6545492869555354,0.13909012833380627
7.63,-0.3857231090574995,-0.6269800123225335,0.10137392062627733
7.64,-0.3783484641609376,-0.5503357491093128,0.0647769964954128
7.65,-0.3883918883613692,-0.46611719870889495,0.0269714758517385
7.66,-0.3782130338567807,-0.37026026767674647,-0.0021177879994116427
7.67,-0.3323700594922484,-0.24350312742452884,-0.01354046401562307
7.68,-0.2558354306850726,-0.15408782443400312,-0.03211912399066104
7.69,-0.17973483879610477,-0.13957221489460747,-0.06573876941695718
7.7,-0.16194713113951187,-0.1113661140405183,-0.07452213329005726
7.71,-0.20017486787731145,-0.036386919664823894,-0.03703438995914272
7.72,-0.23814477781419707,0.02177644765409354,0.015934154358752332
7.73,-0.26051958391604296,0.05685917612907333,0.03564561313660973
7.74,-0.2673225834927999,0.11661159284252598,-0.011364612000079186
7.75,-0.2567263539921798,0.19827984308024296,-0.10266114315119321
7.76,-0.15733813204928615,0.3264928206980461,-0.13048188487230816
7.77,0.10378978304470708,0.4337751131333861,-0.06516488222968408
7.78,0.262557663214039,0.36481055779275323,-0.04563755861926694
7.79,0.13451880128872673,0.27376166757950704,-0.08319511829447394
7.8,-0.040140375545617314,0.3337311322779748,-0.06783457443450423
7.81,-0.16689718534785744,0.39007489313782523,-0.0003150706812407171
7.82,-0.2472146241539352,0.35784918630441864,0.06381286007056569
7.83,-0.27411653418714105,0.29184878870001174,0.08398424319909419
7.84,-0.2541706215143848,0.20952229097619096,0.04169520792850886
7.85,-0.22923654251646203,0.1610718442553889,-0.044070292258485216
7.86,-0.23648867843916505,0.15268737816570405,-0.12289937632260207
7.87,-0.2481957975081074,0.11523351253079984,-0.18628949723019927
7.88,-0.21405688421376295,0.02715199653366627,-0.24331166027366136
7.89,-0.13588110202986842,-0.024267533047462275,-0.28865027807091037
7.9,-0.05939128103343928,-0.03350567834946162,-0.3136044951488114
7.91,-0.018887099528093386,-0.05423025446735912,-0.30172245185195357
7.92,-0.018156299449305857,-0.0878155198825241,-0.24437113043124326
7.93,-0.048105140390141424,-0.08622190700139065,-0.1508447400713092
7.94,-0.07209985024890718,-0.05353552397793593,-0.06834300594570711
7.95,-0.06606809923394381,0.012215835195723569,-0.020563741353455043
7.96,-0.027697194219713422,0.07426147450958571,-0.00539272256447149
7.97,0.02700029336996456,0.10175004934710427,-0.02145581935173704
7.98,0.07062983453938296,0.10591957404290685,-0.06813950265109524
7.99,0.08091962151402025,0.11133991245047183,-0.12985446747530188
8.0,0.052047886419024324,0.13188364325226873,-0.17566501179348945
8.01,0.0006026150191746044,0.16902176332648536,-0.19213427506103264
8.02,-0.04172672848944952,0.2054004612755312,-0.20908478031278174
8.03,-0.06741532876186189,0.24559522080861612,-0.23332022221321028
8.04,-0.08086372728271775,0.28760711627728763,-0.24758628711660907
8.05,-0.06978261462636372,0.31063894547312604,-0.24357957698695928
8.06,-0.032497890918135694,0.30891120638615516,-0.22037161568275263
8.07,0.011693708215093617,0.2913964182743988,-0.18873342304627705
8.08,0.04779892419339986,0.2733828924897255,-0.15927439964310877
8.09,0.07258475963164848,0.24574277333467157,-0.13788851992259857
8.1,0.0703035960735783,0.22090072644280537,-0.1222683326750077
8.11,0.05308794537311214,0.18973959432364687,-0.10333499758874057
8.12,0.04056355547278755,0.14906209509646692,-0.08516049988627271
8.13,0.013353943425099808,0.1480153916216827,-0.055308320234658793
8.14,-0.013450413430523942,0.16141258050837318,-0.01816036405720507
8.15,-0.016199787334079004,0.1761218529721805,0.01628599401959267
8.16,-0.0028736054175226653,0.22423181468492567,0.041827573484725086
8.17,0.007844709318294963,0.2793234503976883,0.04438359474237702
8.18,0.0027384710585149946,0.3102418906820217,0.03229100587098827
8.19,-0.019969688336890862,0.3247640261015708,0.02311276937612301
8.2,-0.03779151179236073,0.34194788137902044,-0.005826641412163416
8.21,-0.039965968802912005,0.35193786044627345,-0.0708389929069591
8.22,-0.022544741585691405,0.3459824920193765,-0.16468529570446533
8.23,0.007292064386354248,0.32302685007699494,-0.27305810710066325
8.24,0.04478234187074563,0.29946602958806,-0.3709336912331677
8.25,0.08255792219091491,0.22762198584650528,-0.44191842631846334
8.26,0.11284390446312266,0.09873148669777922,-0.4606034118148633
8.27,0.1309637453375774,-0.0093971677806873,-0.4065777000088315
8.28,0.14561492413887286,-0.08495826544348187,-0.30870170162130206
8.29,0.16631671697109418,-0.13433282242799513,-0.20376409838262807
8.3,0.18669541490412495,-0.1513330743237115,-0.10280699670200473
8.31,0.20532663730624104,-0.16279019692515806,-0.04523416080114736
8.32,0.21085581400922687,-0.18563710966819824,-0.04146458322037357
8.33,0.20537578939361956,-0.17939936002359042,-0.058939851497024985
8.34,0.1899023298560287,-0.199373927631936,-0.07037371002844849
8.35,0.18054285496531522,-0.2823860547944743,-0.05268796018101241
8.36,0.17699139561639468,-0.3419847608021646,-0.007181935193471119
8.37,0.1880258091657973,-0.3208481103105733,0.05227369899678798
8.38,0.20603092732181774,-0.2768228430948539,0.09729011052904418
8.39,0.2297981089811125,-0.2592014687214935,0.12340457523509958
8.4,0.27767433235970157,-0.22782329199642265,0.14795639235594843
8.41,0.33172999315379015,-0.19230938302970488,0.17218482892138642
8.42,0.3638628079285226,-0.16162826765742358,0.19823708504253526
8.43,0.37261698008534716,-0.13393950122271742,0.20940993693731413
8.44,0.37492429103042196,-0.10965437897265583,0.2042718441279065
8.45,0.34776997052414466,-0.07357945108532211,0.2107845441854032
8.46,0.3102219747335235,-0.046802513374346516,0.23415174935620803
8.47,0.2927944302696682,-0.04873294369916123,0.262468707940049
8.48,0.3008003504350351,-0.08753465925097954,0.28119255492783535
8.49,0.30944994912484713,-0.08230388595846659,0.3017216755273715
8.5,0.3179034673222626,-0.04065728299173062,0.2957930680147531
8.51,0.28046281275781765,-0.037394622852416425,0.24891935245686447
8.52,0.20203539535870438,-0.037709061632949264,0.2238939353010278
8.53,0.1083236209566052,-0.02638956135036147,0.2221121078538185
8.54,0.015433795816786541,-0.032267571762219976,0.2130776686304513
8.55,-0.08145531157511883,-0.03337291974861488,0.19900131512223485
8.56,-0.17186337047494743,0.019385551043644762,0.18335842659278223
8.57,-0.24922895459618372,0.06898831260443027,0.15229751494130941
8.58,-0.315833235646349,0.1059349836037569,0.13358315965517922
8.59,-0.3392915127667243,0.11176298107869768,0.12386605146719828
8.6,-0.32775941256015495,0.060411693439663926,0.1235658644179469
8.61,-0.2875950946425061,-0.024106096523262264,0.13177941076076602
8.62,-0.23110636946262078,-0.07895070262952525,0.14846624986274654
8.63,-0.2018378314097844,-0.12969202935116955,0.14276459106712613
8.64,-0.20057982329197527,-0.12292803540584869,0.11864192468197092
8.65,-0.22272785801018738,-0.08180840678227977,0.08318010035174944
8.66,-0.2437194465706828,-0.021571903845546237,0.042138847966774
8.67,-0.26015943037887096,0.0025220816338936574,0.018542389990251283
8.68,-0.2985961189024895,0.03266717523788881,0.033359123557744265
8.69,-0.357101983427346,0.09345715417088958,0.07508207269358103
8.7,-0.39441936386762766,0.12126304768587752,0.10405994865725962
8.71,-0.385607042316341,0.12268872165148882,0.10780808356922202
8.72,-0.32665864764333113,0.08939893058884643,0.06429514448639645
8.73,-0.2430108070943533,0.06523330601766013,-0.027192727260648798
8.74,-0.164181138209344,0.08087768751082212,-0.13298103953180834
8.75,-0.0939337718425526,0.11261356079798732,-0.2423691625656843
8.76,-0.03844362069106657,0.14337155410571698,-0.3456411837823623
8.77,-0.00987192365322923,0.11182247936091348,-0.4085055165028524
8.78,-0.0034358673210404343,0.010852372705581852,-0.4393562910658086
8.79,-0.021308557978768693,-0.08787045473482391,-0.4326196174371455
8.8,-0.04521404721565378,-0.12133655226460056,-0.3577258580038211
8.81,0.029917212746201585,-0.11339885354120464,-0.24655279213528664
8.82,0.40572196246788683,0.01115815129348589,-0.09911071244587029
8.83,0.3615220893406539,-0.18362319447988548,-0.24301422073113527
8.84,0.23984170759687293,-0.2521766700702391,-0.2918234213081492
8.85,0.15312722587325,-0.11861810790157552,-0.2761607769781153
8.86,0.0877635903763222,-0.07879723406020848,-0.24139396895462922
8.87,0.031867256314912766,-0.08226725546054435,-0.20343613896096935
8.88,0.005584147275226221,0.12023251144048124,-0.10021434705189955
8.89,-0.04374266304905724,0.09433315984141274,0.05219585080264365
8.9,-0.058857265317660404,0.06458409824721882,0.11306180839324301
8.91,-0.06354982657190261,0.06982072113155978,0.168561949536192
8.92,-0.11820324462650877,0.08175287077691906,0.2262282572210567
8.93,-0.1906963742113449,0.16226640675656387,0.27292331264687875
8.94,-0.2389131928907136,0.23630941326504515,0.25224829510531777
8.95,-0.30033860773173066,0.2859196827608056,0.2037260266525576
8.96,-0.39225045442378476,0.193146419874253,0.1517589966380613
8.97,-0.42604295000979014,0.027999265179827433,0.08912314787101129
8.98,-0.35906230305534825,-0.11171402162876191,-0.011545489030121687
8.99,-0.22012093599472496,-0.1299391930285823,-0.12308562925769814
9.0,-0.08723771756710831,-0.07494792134498837,-0.20718090551178664
9.01,-0.031195866190941966,-0.002112096340128987,-0.2681179618136352
9.02,-0.06237385855970669,0.13140892999014328,-0.26684651857551367
9.03,-0.12166784904679184,0.23691202759748015,-0.22117415560689796
9.04,-0.17707745008210093,0.2519282924605365,-0.17651673256516384
9.05,-0.20158195909071358,0.2649973653168415,-0.15083854720148707
9.06,-0.19527072246544316,0.29643690344094814,-0.17270625646266743
9.07,-0.18349085367726456,0.3012909329459648,-0.22910454451602946
9.08,-0.16003899364097507,0.3638906379833226,-0.2687638002157554
9.09,-0.12098276869962545,0.39525758428343366,-0.3003202607131531
9.1,-0.08108468809196366,0.34016992425757286,-0.3156613699354816
9.11,-0.03551972385869881,0.27781956694864296,-0.2912895044071567
9.12,0.0019239719066887428,0.20300105202191346,-0.2406165500797552
9.13,0.03276215897963042,0.10740508457526453,-0.17325403009654478
9.14,0.05715062362702316,0.06103357773005251,-0.08348030271589618
9.15,0.06381268189893223,0.058155565498861465,0.012295775666712886
9.16,0.06204936341602181,0.07009208069210994,0.0651682867283847
9.17,0.05900590820386462,0.07715619180501224,0.06525311388486697
9.18,0.04958350197974846,0.09235418121180457,0.024776746739130814
9.19,0.04307934397159875,0.10824347591269666,-0.031618558389603924
9.2,0.028130944426829136,0.11877739970060186,-0.07001261941210052
9.21,0.02726215419665111,0.11648189698399616,-0.09182043843318004
9.22,0.025076648225405573,0.06664506268408256,-0.11509386281405798
9.23,0.030302825174806074,0.02076956236493157,-0.13930558331266304
9.24,0.044605817456688755,0.004384633552026485,-0.1757523165278929
9.25,0.07766647996801387,0.0006859697327207629,-0.2184378100790119
9.26,0.10899952043072048,0.012277308222382812,-0.2544122929670899
9.27,0.13286707908465548,0.015336109098186288,-0.2688966404392319
9.28,0.1667681790841953,-0.020269082933478424,-0.26906355090683187
9.29,0.19534192449427862,-0.0685894027640111,-0.24119824391311434
9.3,0.22529057078566825,-0.11152970132032237,-0.18612103325698853
9.31,0.25458634969040644,-0.1711264398369162,-0.11916031368835366
9.32,0.2827372447864359,-0.16626597695337006,-0.052833936488035055
9.33,0.29637125921315893,-0.09326738700759653,-0.009637046686023172
9.34,0.3038126045261671,-0.05149159523287506,-5.299916517356158e-05
9.35,0.3130789224055915,-0.10383419388538014,0.001581868938655771
9.36,0.32593432122053856,-0.19596445120340925,0.008977451569211968
9.37,0.3120549150787591,-0.26661278001219224,0.024567438202043695
9.38,0.27211821398772285,-0.3201094880716024,0.02136102118176798
9.39,0.23494491635978745,-0.30762145641833927,0.016097844122613888
9.4,0.22859902165798276,-0.3125748568447791,0.015405404299938339
9.41,0.2221456615503362,-0.30515466675965697,0.015202203670554899
9.42,0.21509575315439383,-0.21080913376201152,0.025298011550577322
9.43,0.235050321663824,-0.1099930297214055,0.02478986796291358
9.44,0.27367386673136973,-0.10890669895543495,0.018960822924867463
9.45,0.2864135746009296,-0.11388575743948486,0.04438008775951251
9.46,0.29073270762160436,-0.09780803904284165,0.1055180377147175
9.47,0.28851766415300273,-0.09057303563744884,0.17404613506548042
9.48,0.28093410936354407,-0.04532628851782833,0.22856240885995086
9.49,0.2684072824055455,-0.010665034229523094,0.2577426336174069
9.5,0.25563294007288556,-0.0022307045129516417,0.2638893028885962
9.51,0.2142887544064472,-0.0002488102538391841,0.26314093294816854
9.52,0.1350576761594519,0.010374156803840276,0.27914286564143426
9.53,0.04666673590146847,-0.0439116689950359,0.2887302165291141
9.54,-0.01584126115637652,-0.11602788197036777,0.2931887159818634
9.55,-0.06527649089235209,-0.18622382945626206,0.26854356557003256
9.56,-0.12059984378373524,-0.26172251084892884,0.2114329950401133
9.57,-0.1702183383774352,-0.2665530183858012,0.15334138071678555
9.58,-0.20372339224659602,-0.22251258207972588,0.08679859204216116
9.59,-0.21747881412674266,-0.17303232374262956,0.010570137493072366
9.6,-0.19600120191955733,-0.08493336828898025,-0.030175575808249987
9.61,-0.15532182818339665,-0.027213475000868598,-0.011861463257016749
9.62,-0.1391346215820374,-0.0981569617277273,0.033381120163540445
9.63,-0.1417525549786721,-0.2315698403677475,0.08623014386770897
9.64,-0.12869204886784585,-0.3416803754874125,0.11189995965251426
9.65,-0.09664761883050753,-0.40480452378334375,0.09546880756322029
9.66,-0.048471362570813144,-0.42453519568809894,0.048224974282506564
9.67,0.00851891975311763,-0.40543984513523734,-0.0031105179376619456
9.68,0.0348939843109125,-0.3781773719500143,-0.02445728699750821
9.69,0.021440601078870115,-0.35123929382022756,0.0019857844628646793
9.7,-0.010473918634667349,-0.33233957424838456,0.06626231123032028
9.71,-0.05954298332653114,-0.3390342288338221,0.1585555226132844
9.72,-0.12640732581451816,-0.39074562248231237,0.2556196245195636
9.73,-0.20300170171467782,-0.41016348531855445,0.3256779297945018
9.74,-0.2650654331826424,-0.3598809024866265,0.33074707657182983
9.75,-0.291864203134001,-0.23088792636892028,0.2677429766119249
9.76,-0.3195785371944484,-0.058510274772943065,0.17701580836936892
9.77,-0.34067256085656783,0.07494118376840762,0.10133431484457862
9.78,-0.35080675611079165,0.10882178450926763,0.05077213927536475
9.79,-0.33608819151798447,0.04820570171784614,0.008607477405518217
9.8,-0.30198167015130434,-0.05871401685220725,-0.048798974550728604
9.81,-0.2525705668913245,-0.1315867644817763,-0.12731177302806118
9.82,-0.18589200376187873,-0.1181441694577828,-0.19891998130180635
9.83,-0.11250244310548355,-0.06959300344788215,-0.23726097357317885
9.84,-0.06342256062203687,-0.017392928532496583,-0.2203405646852751
9.85,-0.04517997715040831,0.06534396271606376,-0.16021225302125347
9.86,0.08681111857935041,0.19446661890471129,-0.07878820226196506
9.87,0.4194633670473396,0.1603625802759007,-0.1290299882606175
9.88,0.4201064741209665,0.005004368661696129,-0.16452693728101697
9.89,0.22729481822969214,-0.06413678000107415,-0.05627242510706259
9.9,0.05900293055681964,-0.08173081175179192,0.08526156612419554
9.91,-0.04152651398755641,0.06697120142966785,0.17433527174173116
9.92,-0.12366239640965557,0.24841876485099743,0.21075665704675609
9.93,-0.1711019576549388,0.3095995551188849,0.20795383257745362
9.94,-0.2029981306056095,0.3369160655055671,0.1892488325233138
9.95,-0.26851179175539136,0.39363577668363586,0.13996508346206285
9.96,-0.3428026172145465,0.4153482647711719,0.057998747156239816
9.97,-0.42129814607671406,0.3683971614196741,-0.03778378849789346
9.98,-0.46676799942728503,0.27712225403446594,-0.09196506914173169
9.99,-0.45893567999083373,0.14789658002661044,-0.11978405180990567
10.0,-0.37171057912193917,0.039039684051088604,-0.19040132535996546
10.01,-0.2262756440227647,0.009226404455207443,-0.2759289804081472
10.02,-0.09359665619862699,0.030459615454565717,-0.3406333007100578
10.03,-0.02598589243239664,0.08796943883902394,-0.3641172206337405
10.04,-0.023070555600097714,0.15303204770992995,-0.33345128597426466
10.05,-0.042171336594509064,0.16706548659619375,-0.2576500020804362
10.06,-0.032982209576891325,0.11442591220789639,-0.15376191291423902
10.07,0.005355517534649507,0.0626149122426955,-0.07139984651438919
10.08,0.04233286821323199,0.02715925867657401,-0.04237301881046678
10.09,0.05752725696919981,-0.0044475200512244925,-0.06112687241600549
10.1,0.07138247791142471,0.012940044744157192,-0.11010014395001647
10.11,0.07594423811755444,0.09362747300621099,-0.18006545468311436
10.12,0.04660318996330398,0.16947925643358042,-0.2421647050234321
10.13,0.0024654604845936066,0.19791004572932355,-0.26768081324902937
10.14,-0.01786492931115205,0.2110233830662599,-0.2640443252062723
10.15,-0.014777378988394669,0.21423139133394198,-0.24279057186354017
10.16,0.0036419797611688754,0.2033208020630446,-0.21892120593138623
10.17,0.04842510851476092,0.18293298405687752,-0.19645214787975804
10.18,0.09310369828755688,0.15891327350244686,-0.18448343264360653
10.19,0.11191124469785053,0.14238808232149316,-0.18888126600831368
10.2,0.11017732193546473,0.14641573959305376,-0.1936591892317707
10.21,0.09526766475182491,0.17682119288472672,-0.18899224253774913
10.22,0.07111357615053028,0.21017224234245543,-0.16069174670350048
10.23,0.05655537555054387,0.20070013325570826,-0.11589558058513014
10.24,0.05599586364425244,0.14847889615970916,-0.0638258288336987
10.25,0.06425074455290668,0.11896856349191799,-0.005079948552033844
10.26,0.08640676859864775,0.11583048905124801,0.04190069749016682
10.27,0.11710737159749278,0.08867563287380135,0.05807500703074228
10.28,0.1461014184773442,0.05433865023794146,0.04948715275606208
10.29,0.17669370762730707,0.05821411466925082,0.029166305151691226
10.3,0.21440276220732574,0.09531311722262924,0.005653231227132423
10.31,0.24353433163340765,0.14294605542616098,-0.0149382340661655
10.32,0.246864632740192,0.20806382514543434,-0.03130966170485294
10.33,0.2250217408868685,0.26620306341414773,-0.043777468827482714
10.34,0.19518212249917866,0.2704968511579654,-0.05730634086619762
10.35,0.17422024141042797,0.1974409097850146,-0.06348502977318372
10.36,0.15799300499149502,0.08499739970460624,-0.06143756585055483
10.37,0.15673047970898568,-0.035240701545188935,-0.06976850757832659
10.38,0.18140474266053785,-0.15278362424134906,-0.10014075906349994
10.39,0.21370735307453412,-0.24704305634535345,-0.13470207880935484
10.4,0.24262177241659166,-0.2754970988609654,-0.14710833015614858
10.41,0.26740814384789724,-0.1920877515233704,-0.13145233459966352
10.42,0.2772272494242768,0.014119351791281388,-0.09943848610131412
10.43,0.2630393536367302,0.26969759095859236,-0.07061364350309932
10.44,0.22551917453609618,0.4535636778671976,-0.05691980878903101
10.45,0.16527311941948364,0.48494826738584557,-0.03262224586832568
10.46,0.1020292435287403,0.31841330195790496,0.017602281427472697
10.47,0.06095368076262737,-0.030152677219907352,0.07122548687523754
10.48,0.048243846957322804,-0.3353198980464445,0.12690477748577292
10.49,0.06965861520661873,-0.3920811160100156,0.17032212650127887
10.5,0.12296739071645842,-0.2787683171597409,0.16762996444626937
10.51,0.19090717095340778,-0.1262238942107789,0.12819381534658758
10.52,0.2449799601684047,0.03554995715470196,0.08872545453567232
10.53,0.2548235043888422,0.15622353122408153,0.054060620517624114
10.54,0.22417765359471378,0.18549202960249542,0.029359378250771756
10.55,0.17737086415363867,0.161323263263282,0.0546674435855088
10.56,0.12441014163250626,0.09477152403970042,0.14198222293488705
10.57,0.06786206165680343,-0.01754440951810521,0.2527438365951929
10.58,0.02648234878152323,-0.09274577432059358,0.34193746157603633
10.59,-0.0003155304367622437,-0.11153095704395603,0.3623678058221978
10.6,-0.0343937872093902,-0.097648940356943,0.3124032347172501
10.61,-0.06974023720225253,-0.029070411269908992,0.24877336873076733
10.62,-0.09455505811646223,0.03656106578681435,0.20723365537774466
10.63,-0.1246993736328943,0.05263396262461182,0.1939958497658531
10.64,-0.15238616226080134,0.06590301138192728,0.19623980899008786
10.65,-0.1533941939126518,0.10159400240796192,0.17910099269505897
10.66,-0.13905927070434812,0.13213379399576516,0.11879308628996296
10.67,-0.13396301676085895,0.12159077092318694,0.030268062893286492
10.68,-0.15686811352492677,0.09030175010370846,-0.04502560736603201
10.69,-0.19945614620626803,0.04913511244353421,-0.08677022788271667
10.7,-0.23074874280323332,-0.029470219412298517,-0.09902467808811828
10.71,-0.2366894579428875,-0.13258334434887684,-0.07669558274130676
10.72,-0.23010969999438854,-0.21853798337691205,-0.040474382509132545
10.73,-0.22128929128496644,-0.2522402052289494,-0.019783723674031157
10.74,-0.21713163923326662,-0.24767974712020807,-0.015470779977565522
10.75,-0.2177358991053435,-0.22818234746604943,-0.01579483387141293
10.76,-0.2165589713269181,-0.19594819915376654,-0.009612103913324654
10.77,-0.21778346833876286,-0.1714893142952825,-0.005647623934660948
10.78,-0.23174671139329883,-0.14117766550668626,-0.00346481077656912
10.79,-0.25821276246405994,-0.09069423657588785,-0.00025366111636922184
10.8,-0.2755798268385182,-0.05001712102685761,-0.002017921153927013
10.81,-0.2611734064230375,-0.0177509529115918,0.0010790034639614138
10.82,-0.220864077364638,0.016567495263731573,0.005307206934796185
10.83,-0.1747126633370529,0.07011143215664574,-0.019952466133590897
10.84,-0.1318835604146273,0.14867342166137484,-0.09540902114842927
10.85,-0.09878588544703665,0.21095875231830757,-0.20463141013917963
10.86,-0.08138195918593212,0.2465884787306132,-0.2892395151605577
10.87,-0.07476563914905358,0.2616288242650229,-0.3066009627538536
10.88,-0.06110932124811492,0.21634162144717292,-0.27350527271470065
10.89,-0.01671843829653063,0.11675788829079202,-0.22419417186626656
10.9,0.22511039075477943,0.043381012649233844,-0.16431272996212065
10.91,0.509583505818057,-0.18427323354139413,-0.14905027119272404
10.92,0.46067741992385136,-0.5332018371706871,-0.2034480604775465
10.93,0.356598046410776,-0.5047004160792465,-0.21397956202450752
10.94,0.24713311351964043,-0.3517307631260623,-0.17446064117930063
10.95,0.15534261262332502,-0.25612204814699596,-0.11048193720681128
10.96,0.055030826110075204,-0.13053256127370805,-0.038903847552376046
10.97,-0.047400871453359146,0.04458165458916037,0.05740221711176146
10.98,-0.12378778454305259,0.19858965127916095,0.17582806689030103
10.99,-0.18663362990998242,0.35358009021896564,0.24008370901107176
11.0,-0.24332078289471643,0.5418031948125126,0.20069455591733593
11.01,-0.2672624224249573,0.6309479742332077,0.12094725705054715
11.02,-0.2713561279812296,0.6211112438436104,0.04894562221329839
11.03,-0.26526065631695056,0.4983082272175708,-0.02837485006950332
11.04,-0.24223574937687337,0.2373653981058789,-0.11667308851841696
11.05,-0.1966494574599117,-0.08811370332849995,-0.23464723002081775
11.06,-0.13123165894501626,-0.2972452245127245,-0.34933237103776
11.07,-0.08224211183106583,-0.2849314767922172,-0.3780375041445614
11.08,-0.08849038508164438,-0.1432631533183527,-0.3310207710364392
11.09,-0.11967576989195786,0.026318950861648514,-0.24459802122471075
11.1,-0.1491886530490604,0.17583720700902503,-0.15954394458203552
11.11,-0.1779223892419357,0.3022171942504943,-0.0875194373022073
11.12,-0.1980276954362889,0.4056895302526332,-0.012671397040642967
11.13,-0.1903415144806787,0.4488293899055335,0.05624604608184632
11.14,-0.1598965271644948,0.4053771738093862,0.09858111760198641
11.15,-0.10998883142419985,0.30252357220102644,0.11372556584745655
11.16,-0.04141254965889245,0.17252013664210317,0.09590855619759972
11.17,0.0409244810027116,0.038260673375137215,0.04127558840869834
11.18,0.11568904279689934,-0.08005887516642192,-0.06429277538647836
11.19,0.1681118848537204,-0.16471777992647554,-0.19173045183192358
11.2,0.18270805099720414,-0.23140683899627065,-0.3013761436791045
11.21,0.15376367025891763,-0.2680031752943753,-0.3487910494942254
11.22,0.07977369251378777,-0.22604294548493897,-0.29798281824303385
11.23,-0.014278833498282205,-0.11605996280311354,-0.17950228485663566
11.24,-0.10098600900660144,-0.03839596813668868,-0.05534441279888959
11.25,-0.1436979971950786,-0.07412922345159838,0.038568257185239145
11.26,-0.14257303092628423,-0.15360824525653008,0.12445866422162188
11.27,-0.09492424697421674,-0.16168040679558654,0.20375076939082348
11.28,-0.0203673296675889,-0.13492995339751174,0.2171479017231535
11.29,0.044578902931180456,-0.10602435738364512,0.1462699077236578
11.3,0.09239929440679721,-0.07371365814827016,0.022336527380657733
11.31,0.13157242784026907,0.0007541207522684385,-0.09731776596722061
11.32,0.1686154765979532,0.12104523351025955,-0.16692597467683126
11.33,0.19322153461582786,0.2243746347715374,-0.17844511309502983
11.34,0.19210937367630102,0.23878611625656063,-0.15983193432364626
11.35,0.17887887924362328,0.15212851430378496,-0.11147359812917498
11.36,0.17748958576528512,-0.011502064621396376,-0.03930005354849574
11.37,0.20797643951507772,-0.20043239224301346,0.034466334996292584
11.38,0.2721265502635019,-0.3299483485825794,0.0886526305086235
11.39,0.334746167231595,-0.3485691244149167,0.13670496508824898
11.4,0.36792440945423877,-0.20200662993945082,0.19624669258285077
11.41,0.3923560232456848,0.1646773924412268,0.2328842517653472
11.42,0.4493594209908951,0.6137430386888356,0.20128857772099637
11.43,0.5047548471380159,0.7880804421345764,0.05883787644149811
11.44,0.4667687148740809,0.5153211511835557,-0.1653836885181238
11.45,0.3071279560382851,0.20140917640325018,-0.2792021115647064
11.46,0.0996959532197746,-0.1783009835453843,-0.2433293292276013
11.47,-0.11187128732638481,-0.8313342968989812,-0.17047173857311915
11.48,-0.2089416729053609,-1.5785333965450365,-0.1606526268617758
11.49,-0.16051730081152102,-2.0303643081060168,-0.19898542245310266
11.5,-0.07323174951863422,-2.0088133051181836,-0.2597111542441764
11.51,0.02311442111534279,-1.5355676584468174,-0.28692880337662013
11.52,0.1372095283941564,-0.592405051029379,-0.19901145366247855
11.53,0.2555045541730439,0.7168193283929067,0.02063364775733987
11.54,0.32227236936911513,1.8500799613374657,0.25963450014413364
11.55,0.3331880646552721,2.3623073268242987,0.39007743033284076
11.56,0.2885809308686529,2.127935061740287,0.3675838110271262
11.57,0.18106602068778016,1.237861725396912,0.2507979812248117
11.58,0.04126538655560386,0.2527271018732719,0.29455920016953097
11.59,-0.06991890217131311,-0.19784510107212921,0.5615516692393222
11.6,-0.1434921588224264,-0.38523057281775036,0.7155555824218766
11.61,-0.19942692193009076,-0.4247521455828504,0.6197935916020988
11.62,-0.20905009961495782,-0.36481121829617497,0.31908613561955956
11.63,-0.17653661896205625,-0.2587501300809837,-0.030318553651589964
11.64,-0.11773515388900085,-0.1693112749793133,-0.25496582820268004
11.65,-0.05779098143851393,-0.10938417228258264,-0.2929126038518189
11.66,-0.008430794178568913,-0.0993566389258057,-0.23418706342721138
11.67,0.07509566012841183,-0.12819013098380147,-0.18238283772982866
11.68,0.19588014733656312,-0.146610904823821,-0.16053496372208487
11.69,0.3006289189184384,-0.01294868560419461,-0.09798988459797926
11.7,0.35702836108356933,0.18675888939807367,-0.007591812442411592
11.71,0.3361987668742192,0.2825191166158995,0.06979323194012471
11.72,0.25461767544305547,0.2506243048684384,0.1295746151550462
11.73,0.14979571588060264,0.1469014612606981,0.17809633538226288
11.74,0.0633650813959638,0.022644180553202744,0.20280645116626933
11.75,0.009030142316101945,-0.0687611227698931,0.1893139116309232
11.76,-0.03485677635968917,-0.10254308902374866,0.13265823132685714
11.77,-0.04984210838126886,-0.08965612372749063,0.04935833073679149
11.78,-0.04764304021630847,-0.043104525778440386,-0.01976733766637975
11.79,-0.04344116710920505,0.025968109078127778,-0.04491832146013432
11.8,-0.011516546416099,0.0770894633756479,-0.04352882866476935
11.81,0.046105018738158664,0.12107488154732683,-0.04931030287884024
11.82,0.11505684179138248,0.15222251150009222,-0.07086276507302168
11.83,0.14755190941412893,0.2325530510274608,-0.056664161850184434
11.84,0.08599344302162248,0.4226090212740229,0.05386989477985255
11.85,0.16954465373324987,0.6410564595960435,0.2166881179766801
11.86,0.7626055515962867,0.6844406533968062,0.1808866896176592
11.87,1.0147193051165682,0.530441498893314,-0.12492160795114543
11.88,0.8767624331994497,0.5709081382440573,-0.2596220225277081
11.89,0.6971650133458528,0.5017555019306131,-0.2289467806093182
11.9,0.5386094216587489,0.2618434539012811,-0.10110386413263511
11.91,0.4618794734341171,-0.01698694656456125,0.04281469526490105
11.92,0.3838711866389505,-0.13833650934997663,0.12215580521530543
11.93,0.2845389533263897,0.06270559920968019,0.16795081799540412
11.94,0.21232617985399907,0.40376057252349107,0.1986517381883473
11.95,0.15621907269435822,0.49380855740010676,0.19759050271622278
11.96,0.059303710789454435,0.42066279482648006,0.14823192801028393
11.97,-0.07667433510298394,0.36574213630059216,0.045764873262891186
11.98,-0.18868442555604828,0.42249020431029977,-0.04426329978964478
11.99,-0.3056318323496732,0.5030322369236568,-0.10798386556361073
12.0,-0.39506068370654673,0.5024190067998376,-0.14419560029763354
12.01,-0.4670982929415407,0.48758675538067836,-0.1870189420210729
12.02,-0.542741325633654,0.4855395118976573,-0.23617773711083812
12.03,-0.6474077114962521,0.5017318159450618,-0.31549783968357314
12.04,-0.8585619920519951,0.48560169850101864,-0.3948481482115363
12.05,-1.1367660455336157,0.3177203548644673,-0.40110261865464675
12.06,-1.3842798618171386,0.030681371275363627,-0.35636474513688915
12.07,-1.5252208413513944,-0.2811253981877916,-0.3069783666415639
12.08,-1.4221698524627722,-0.39399514642273314,-0.22018614079211069
12.09,-1.165998243012737,-0.4431288056015699,-0.14472945339895835
12.1,-0.8410505082677154,-0.46409676448511117,-0.124693528452264
12.11,-0.45311409461383445,-0.48658178181367057,-0.13386916619196226
12.12,-0.1239698691411465,-0.46130195429891935,-0.13425538305608806
12.13,0.05585464827426218,-0.31480547266378833,-0.07569919851696646
12.14,0.14678752252940946,-0.15261382790908157,0.010214942264273611
12.15,0.18032060590505417,-0.015012347919591645,0.09456739062797366
12.16,0.18430921398878247,0.1278878616669527,0.16579467774647666
12.17,0.16037007136474477,0.2514921668709926,0.21032480508050147
12.18,0.13167573631042778,0.2822497323722782,0.2183128722273999
12.19,0.11349388746709388,0.21543133261903713,0.16051994410114914
12.2,0.08076683476046097,0.0994431176492174,0.04498304308202428
12.21,0.038149683204739555,-0.007677663118052985,-0.11264392687475397
12.22,0.019532102530274688,-0.00678014502874592,-0.2640523111532074
12.23,0.058877500832469176,0.05400609771562655,-0.36961495212442497
12.24,0.12707285139670982,0.06992623167143,-0.3973174092637563
12.25,0.14055319930467275,0.08628058873659708,-0.35248262873240865
12.26,0.0798889317934123,0.09878639886958497,-0.2495354103939679
12.27,0.005263922443270535,0.1127491874931021,-0.11851115526364457
12.28,-0.061683205898278345,0.13165606902142774,-0.00714564733803464
12.29,-0.10783369634084744,0.1528045741223619,0.04662956245236998
12.3,-0.141372047119959,0.2031135494232073,0.06013601190345767
12.31,-0.16353611465657036,0.24976391592937844,0.03197814303308187
12.32,-0.17613813694498762,0.270964827877945,-0.0123693359202314
12.33,-0.1798018136161087,0.22960219204188964,-0.06514863598944293
12.34,-0.15700756903461074,0.18494141191392682,-0.11861798364608814
12.35,-0.13265909433967585,0.1809022069891117,-0.15057236090934206
12.36,-0.10500967039271818,0.24315037860731584,-0.1372501447300816
12.37,-0.04930823045671841,0.3196579909425534,-0.1006248553341606
12.38,0.01889081469529212,0.34370808656495117,-0.06300743495493878
12.39,0.07510338997467363,0.3183027275903067,-0.01943465279395568
12.4,0.11132493561339717,0.22964469957909941,0.00664503849962711
12.41,0.10705122814509017,0.09767220130382939,0.016768096065302718
12.42,0.09935162860425543,-0.017520573406456335,0.019864344932769114
12.43,0.09871060931096048,-0.09660176300701573,-0.006239001236616932
12.44,0.10626581968715314,-0.12959575063574486,-0.06494840259208565
12.45,0.10220081374828807,-0.1333794980461723,-0.15078238774351851
12.46,0.07465762647127532,-0.18089504829765626,-0.26460724068237673
12.47,0.052236351888526295,-0.3131726715214597,-0.35015654705676824
12.48,0.037589604591387014,-0.43207041953861175,-0.3546495946136201
12.49,0.007598878953226198,-0.4582933298006038,-0.2896245853470875
12.5,-0.009169016079453713,-0.4258324557528965,-0.19919261052295037
12.51,-0.0006215852318680916,-0.39588407165859946,-0.11641610277019608
12.52,0.018875290856012573,-0.3635019063514479,-0.05342808426059538
12.53,0.04126725784871064,-0.297822850480663,-0.0038531388788794318
12.54,0.04306144251411855,-0.23915628124996444,0.03744033707167238
12.55,0.04251058660565434,-0.23969913342573135,0.07657918406300612
12.56,0.025668874816614777,-0.2655450549275213,0.1155040809640642
12.57,0.018458739165564626,-0.256207739491727,0.1569843010004356
12.58,0.0036457545865600364,-0.22341482143168417,0.19217268363473627
12.59,-0.020488045394015525,-0.13432979678597862,0.235060840973466
12.6,-0.006890392213339868,-0.029492460457844042,0.26346136896275474
12.61,0.03204323234091798,0.05288729202952755,0.24584636517011835
12.62,0.04345281914232436,0.07868657121207705,0.21147685098421742
12.63,0.023766507060448104,-0.0025013680368575686,0.20553605832537533
12.64,-0.021014832238772627,-0.17990374921043975,0.23119146554636377
12.65,-0.029756467990092475,-0.33413823455653874,0.2793511541624946
12.66,0.01804495056253597,-0.37962893570370887,0.3076220245149678
12.67,0.06110563151957869,-0.32156656082782964,0.2994557491509443
12.68,0.0751833782333873,-0.20231438195235477,0.26088800321172356
12.69,0.07070951783399594,-0.10237353518421884,0.2113332351353467
12.7,0.04363182020850063,0.010643254715321198,0.1628454906196376
12.71,-0.002521692108876267,0.10869768558245031,0.13995230047898
12.72,-0.05352371662839525,0.14879987913407974,0.13951244266570614
12.73,-0.10327252190973091,0.12384998657100249,0.1434557616580126
12.74,-0.16237006057301062,0.05510420405096789,0.13241726100219917
12.75,-0.22964189060862644,-0.05146573319383314,0.11680665350628357
12.76,-0.29332933725557747,-0.1664308198174265,0.08304109748302277
12.77,-0.3266463921602321,-0.24104821315318234,0.032741222771754175
12.78,-0.315268017621779,-0.2665754526138449,-0.04143533917780729
12.79,-0.2863277657683151,-0.26626459750622006,-0.1177662109859104
12.8,-0.2628844002713466,-0.2073278546681557,-0.15284892103360886
12.81,-0.23102345127929408,-0.11388851856533702,-0.1392042123144606
12.82,-0.20196094310297477,-0.04402482662004856,-0.09617084143298296
12.83,-0.19452439573192234,-0.01562806895320189,-0.04164089292544878
12.84,-0.21378115384570243,0.000536108086812066,0.0027944804862094887
12.85,-0.2605081169433864,0.02115191003357827,0.026674645889104204
12.86,-0.31719644900654254,0.07189253109335406,0.04021916627625203
12.87,-0.35850967926647326,0.13568507560174098,0.04255186345857466
12.88,-0.3831909207506403,0.19590129999765984,0.03838596503140446
12.89,-0.38200674058094836,0.24297172622619348,0.023175867364469204
12.9,-0.34881907423811526,0.25979894406024673,-0.019343504570269728
12.91,-0.3009863177555261,0.2502449899161273,-0.08340867515549172
12.92,-0.24452227599453774,0.26572237106963414,-0.16031600868320375
12.93,-0.1802299115801938,0.31600340039628466,-0.22036446928324427
12.94,-0.11097971444158465,0.37385411124405815,-0.23959920222999345
12.95,-0.03701125924383078,0.42736650939577076,-0.2326042189082795
12.96,0.04102077570763847,0.4236979556409994,-0.2201311248595268
12.97,0.10100048933445427,0.3094294889060676,-0.20255820306925632
12.98,0.1375533132136709,0.1414748936333622,-0.14143515123895672
12.99,0.15592538080724075,-0.0011721169947318194,-0.01299870851220372
13.0,0.14819153805831387,-0.07338295278009649,0.15749217448563085
13.01,0.10963847792323551,-0.14446407218652246,0.2716181383879268
13.02,0.04754076931112111,-0.22637056972101283,0.28513306075029377
13.03,-0.0022594132005671255,-0.1928354786548783,0.27536274776839953
13.04,-0.03856095369264448,-0.03963199399499084,0.25323705954634845
13.05,-0.05815969063748197,0.12268096904350981,0.1891107570408828
13.06,-0.05545081100070871,0.18932314359358554,0.10151465268756002
13.07,-0.05978035642148349,0.15427614510828772,0.028692823622080515
13.08,-0.04552775482713506,0.06574855368024245,-0.013755930373507709
13.09,-0.025514593529666948,0.023302220221473526,0.0032190286606058453
13.1,-0.021114084978630387,0.0017611767560967314,0.07436261699033245
13.11,-0.01677043976307341,-0.0794435584522602,0.13663858643760257
13.12,-0.027927676552433084,-0.20713374919930463,0.1648670484496593
13.13,-0.04383313972595775,-0.31946475743478087,0.1884527110697374
13.14,-0.036528528960042224,-0.37713420839621986,0.21577359964586465
13.15,0.02034358853339987,-0.3805074899145012,0.23566574085540268
13.16,0.10356335508147686,-0.3167185152573409,0.2416668142841918
13.17,0.17531007831446763,-0.17208012088933936,0.23963331568690463
13.18,0.20538060599348626,0.00250231916764101,0.2147873795160047
13.19,0.1739942992718291,0.1450880541052136,0.18655855728185375
13.2,0.1361744128061589,0.21802479695890556,0.15501591138254603
13.21,0.1435279847496742,0.18557646009379988,0.1041787438615305
13.22,0.19711585248679236,0.06225580329550241,0.04279514507016396
13.23,0.24969523353346304,-0.02744269048120571,0.013589525417157449
13.24,0.2679419543609979,0.018325582870923812,0.041264738441650864
13.25,0.2759644451779747,0.18096471911159503,0.08958024955728645
13.26,0.2853187315074437,0.38211351684125805,0.12797962902185087
13.27,0.2735535304215738,0.5596440733087955,0.15367867076048566
13.28,0.2365477686091573,0.6651005450290269,0.16693243630864477
13.29,0.1757440160898002,0.6576811906035177,0.17059218465650944
13.3,0.09968338641430938,0.5092271327559186,0.1590979181522883
13.31,0.022801492601633198,0.23411047570623272,0.11837267758481967
13.32,-0.029594361746371634,-0.10004844590590228,0.04128966418434443
13.33,-0.039694396185860674,-0.40288097481787455,-0.0476233948661252
13.34,-0.003304020979532867,-0.5797040963207019,-0.11504688900611083
13.35,0.08252663755357538,-0.5899247037710307,-0.15645423876911255
13.36,0.1983289525611719,-0.4346203763115871,-0.18143154953979396
13.37,0.3038505545552926,-0.11495483998346723,-0.19010449130920803
13.38,0.3746291833448823,0.3071180097925132,-0.17174122617700385
13.39,0.4156388785778394,0.6957096348214004,-0.1266901548394918
13.4,0.4420040263131702,0.9189354658028087,-0.06003954090520056
13.41,0.4547775460900956,0.943671885716219,0.04303315327718761
13.42,0.44607344800603116,0.8475691000030788,0.1866193104328988
13.43,0.40881921851747305,0.7197181873563046,0.3243169081908583
13.44,0.391697905294678,0.6135323150588278,0.3978031360010834
13.45,0.4188160373500489,0.5746440421071478,0.3892720222995391
13.46,0.40686415490450223,0.5742483413644422,0.30867224731126136
13.47,0.2854697185982024,0.4926313412176646,0.19070424459280894
13.48,0.07454639962667309,0.26387420711782505,0.08132284730022069
13.49,-0.13755625282251194,-0.028310905129336747,-0.006399868113453141
13.5,-0.2568713421190877,-0.25765918351995104,-0.10226973378340727
13.51,-0.2623971397031944,-0.3497657012037538,-0.224647184066125
13.52,-0.19420642486809622,-0.30001322483623577,-0.3664777958801882
13.53,-0.10773996885629429,-0.15030300273048555,-0.5287925915577124
13.54,-0.047867568623375004,0.0027505267848427504,-0.687281003680285
13.55,-0.028530913894566284,0.04873198440197202,-0.7876132531820949
13.56,-0.017965123155587015,-0.013942781126716595,-0.80565214765117
13.57,0.007640675372528554,-0.10348838249185803,-0.7486745336767263
13.58,0.05112266678134509,-0.14948559683783824,-0.6425032424207483
13.59,0.11450432963468149,-0.13250618477501203,-0.523627313179039
13.6,0.17587227456953522,-0.06224219831391102,-0.4146413438095927
13.61,0.21481339919188233,0.06692862860403823,-0.30823871879432135
13.62,0.24338661434078257,0.28054082480952414,-0.18602401074658664
13.63,0.27236062948204626,0.6536932509389146,-0.022501135065528984
13.64,0.2919168558286993,1.0543714718278259,0.12938802498977764
13.65,0.31658983529368284,1.1801774061350399,0.18939945424301569
13.66,0.35261557292279455,1.0823207575556444,0.15959412924114677
13.67,0.38238293431451453,0.9804572957698399,0.07155384911602558
13.68,0.4143218175562925,0.9176854406125882,-0.036095952297031345
13.69,0.4447107183043784,0.9413452427619143,-0.10734008382507285
13.7,0.45062394904297054,1.128641614136745,-0.10746344068713616
13.71,0.3544028594004251,1.443554986580512,0.14221117913946513
13.72,0.11710794486450901,1.6716423525243147,0.6184092161081151
13.73,-0.05288597147279977,1.5942587120524163,0.8053187648965583
13.74,-0.04877625045478869,1.2670177552216015,0.6369760430390606
13.75,0.006292553405287506,0.9037076002026887,0.4188222986443299
13.76,0.027104738979274855,0.6920106975930773,0.2072724044275882
13.77,-0.013451543040325474,0.7640246926874431,0.07312524895588646
13.78,-0.050675513408415446,1.0077312761565371,0.073534408233713
13.79,-0.051909835810125045,1.1143953517690466,0.13332075373267058
13.8,-0.03847494006667412,1.0032128121153379,0.15547556958183167
13.81,-0.028669827243014645,0.8873992929516883,0.13742176051747526
13.82,-0.01731035845878939,0.8842484816685425,0.11716146132165253
13.83,-0.004133781856581836,0.9133931239306696,0.10842113146229085
13.84,0.01655916991840912,0.9314593217783983,0.1226063551856561
13.85,0.05925249461414366,0.9242247845918653,0.14408665148808247
13.86,0.11014371183190058,0.8646621306051093,0.15134698841052488
13.87,0.14389517295025045,0.7020235336673017,0.1283602647007538
13.88,0.1575818090347326,0.43967585515067925,0.07725870219738686
13.89,0.15768755231968537,0.16425303048048737,0.026061493497564727
13.9,0.1456431670713391,-0.01826771540897985,0.002432203592832438
13.91,0.11630163018101998,-0.05353338802198855,0.02775761856229646
13.92,0.06162839950814048,-0.03584026179967252,0.08091610011593837
13.93,-0.0014243009615705915,-0.08946651899639874,0.10064956660899131
13.94,-0.053212990805509355,-0.15771770058089735,0.08482986206642389
13.95,-0.11870853437687297,-0.14139472633885516,0.07178262057910827
13.96,-0.19743742282769697,-0.07320963524000394,0.07659886352528927
13.97,-0.2637191474987377,-0.0013004305390180684,0.08428089178486503
13.98,-0.2894090636649109,0.06410164371629226,0.07676987196588422
13.99,-0.2650515309794714,0.07921384892145694,0.023747163899260442
14.0,-0.23351313489707423,0.06738648129317572,-0.07327329417786611
14.01,-0.21745007975807562,0.024338412143106596,-0.1764929242389346
14.02,-0.19216808642203298,-0.02422945611059628,-0.25039232183085397
14.03,-0.14184224509274285,-0.05415298248468111,-0.27565178970128495
14.04,-0.05588187956941318,-0.059301287898977005,-0.26372131304427254
14.05,0.05089260573332542,-0.02819307846719769,-0.2587259025376628
14.06,0.13615640846144128,0.0038380949743740526,-0.2996557395543772
14.07,0.19930710864553192,0.013756972236409022,-0.3665827879027805
14.08,0.27924278942247593,-0.04004080484603715,-0.42575956035332096
14.09,0.3539068021432219,-0.12912130257658916,-0.45609987639629496
14.1,0.39372656212364476,-0.22582279970818947,-0.4406096327259968
14.11,0.3940303223326631,-0.26245217510262003,-0.3666880009223627
14.12,0.34136410637045494,-0.18925848413924598,-0.2451725269194846
14.13,0.251266743432527,-0.09811469082990296,-0.13004926783571666
14.14,0.1855130038679844,-0.15751079817953165,-0.06589192608357339
14.15,0.12169652407799357,-0.2540476993962831,-0.028648902272522106
14.16,0.07730356772557666,-0.22549981103166736,0.01670548516663821
14.17,0.05517208925298562,-0.15622628231541538,0.06338333770993353
14.18,0.01905172638101245,-0.11325964047209108,0.07566156617155616
14.19,-0.012005160642238605,-0.07020077883277633,0.08277894247141653
14.2,-0.01107871921287109,-0.05184923387381303,0.10161222746292246
14.21,0.02592352879193464,-0.055212877509494634,0.10884943127839619
14.22,0.07099384098904503,-0.06650873011957009,0.08073718573918959
14.23,0.09856309522995405,-0.07682894292753377,0.03331225906817624
14.24,0.11992706024943144,-0.08065769335728129,-0.010501609684462416
14.25,0.14546469753749103,-0.08235718339794004,-0.032110428697078225
14.26,0.1691006208070916,-0.0815947889358865,-0.017114171608500157
14.27,0.1951653830342963,-0.07357973580085381,0.03860665282444471
14.28,0.22577968745554083,-0.08059143713455179,0.10434383994302515
14.29,0.2506562290469836,-0.11573370217446217,0.14866196408835175
14.3,0.2633132084317561,-0.13863549327702598,0.16648914191805247
14.31,0.25857700000964634,-0.12841540386333566,0.15390988170802397
14.32,0.23927383449003256,-0.13394838962516176,0.10413223207796805
14.33,0.20801329399847995,-0.14137073488751334,0.039897495940192686
14.34,0.16470314990182514,-0.10836061209162878,-0.03234421565086092
14.35,0.12247070940743075,-0.04896493831910909,-0.08028474297836255
14.36,0.09219113009854864,0.017362788604002474,-0.0805045422095437
14.37,0.06724782701777651,0.0440050487897585,-0.04237091587940016
14.38,0.03280071467555248,0.01852663511617969,0.017439381423516045
14.39,-0.00916592383845347,0.004396000794884503,0.07172282022514788
14.4,-0.05424232927524446,0.01195525748346875,0.07966715769022217
14.41,-0.08526771914661554,-0.00977887609555868,0.05312554416539787
14.42,-0.12361411590920005,-0.022350579897060532,0.0005207406469395445
14.43,-0.1538821370693144,0.02549784632311954,-0.0645123411764417
14.44,-0.15951940144039398,0.11805309856724246,-0.11064142555995723
14.45,-0.13172516240801407,0.20425094580951947,-0.13455205129320955
14.46,-0.08976446358397035,0.20796075945049025,-0.15084214131100238
14.47,-0.039996248355408284,0.18053030333654912,-0.17931300203506959
14.48,0.016777084035734944,0.1697270083934609,-0.23819477873055583
14.49,0.09550427946204547,0.19309797543383647,-0.31945098951895207
14.5,0.21703233955661946,0.1926613742837691,-0.37811384963425765
14.51,0.3690068840823752,0.16266729878168112,-0.40343793956428464
14.52,0.5404192095864726,0.12050044030689022,-0.3737312075517203
14.53,0.6960238975447126,0.04038117540188884,-0.34909186858508984
14.54,0.8228269385542945,-0.07738932496778995,-0.3668934829276518
14.55,0.8822474597161425,-0.2460244632751681,-0.38004434954634325
14.56,0.779480126201621,-0.5088491552683696,-0.31377212505857116
14.57,0.4595569841089025,-0.6933503500243421,-0.09242125281780282
14.58,0.05328537920988453,-0.7412702603748634,0.1657642738917594
14.59,-0.323823174707029,-0.6918721176062623,0.4313382934520196
14.6,-0.6519416976730169,-0.5285425865488362,0.6653536861439473
14.61,-0.9140301915615796,-0.4790075569706776,0.7595903513779518
14.62,-1.081692992830129,-0.4388840221375035,0.6950553521446627
14.63,-1.1146082207401036,-0.2291571389354994,0.5115508550151938
14.64,-0.9684002591339104,0.04620159416174745,0.17677895778301106
14.65,-0.6444001917368603,0.28914482041784106,-0.22125525883703373
14.66,-0.31471891471518737,0.31133371772143675,-0.44561661597306845
14.67,-0.10849427499901781,0.3328322983959932,-0.5528045749342243
14.68,-0.051173366410883665,0.34937553437525753,-0.5779194436248513
14.69,0.04587432928704411,0.2560286257425995,-0.5766008869322946
14.7,0.16081188972238655,0.07207834521236706,-0.5292344069768173
14.71,0.21222740544289734,-0.10288593315874449,-0.4469789887724859
14.72,0.2131682197884793,-0.21206192683855427,-0.32640962155726516
14.73,0.20812985008825335,-0.2593507420233579,-0.13544286794712052
14.74,0.1996186845358543,-0.3551713007594353,0.11870545528426
14.75,0.1230907274068605,-0.43778029626662873,0.4387197761381644
14.76,-0.052751659274073555,-0.2738141103456955,0.8110171469450507
14.77,-0.1522444425960784,0.05995654053144134,1.401496551353446
14.78,-0.3615246401765584,0.690405633370814,2.3129083658670244
14.79,-0.555025127395556,1.3235156624723352,2.9778850926145863
14.8,-0.5915527543227618,0.810492344343043,2.4893016849703256
14.81,-0.32617227131041204,-0.35322188234173013,1.2289830149925953
14.82,0.13970851814787616,-0.7809243077039223,0.2629606273071434
14.83,0.5203739045556667,-0.6285943583076253,-0.4458409343370635
14.84,0.7339288023428181,-0.28490347818708567,-0.9931204455624638
14.85,0.8785830105144423,0.023269886612861966,-1.3276094403111796
14.86,0.8624190810870191,0.048248864320548285,-1.511022760089818
14.87,0.7287179224914221,-0.1161895417705205,-1.521362049537395
14.88,0.47815032446237427,-0.20076705177692683,-1.43091184971673
14.89,0.1625720374085317,-0.19633788596865176,-1.2424888597424253
14.9,-0.11431800159116107,-0.10398211818570123,-0.9488819021308589
14.91,-0.2606827278467879,0.1059176131267237,-0.6344459736303621
14.92,-0.32520421530815213,0.29166785797485995,-0.39914122963148047
14.93,-0.35152210606450673,0.37277132552353126,-0.2816277336715803
14.94,-0.3901063450751247,0.32819486542739723,-0.21721246928460625
14.95,-0.45126083894053093,0.19352722681707193,-0.13833088044141745
14.96,-0.46953024847141117,0.09809495817869487,-0.05195062525631185
14.97,-0.35664341929291005,0.12115163127992783,-0.03651672955083742
14.98,-0.2498550718131587,0.24692198541355037,-0.045801619576309634
14.99,-0.20349813834066716,0.3577281807914762,0.03468980446716195
15.0,-0.2314594115247168,0.4233832468928947,0.26097171758147
15.01,-0.3128709170073931,0.37056121058397223,0.6349849893658238
15.02,-0.42787158861356817,0.24823301442349804,0.9381968699058446
15.03,-0.49601280871118164,0.07442584089795796,0.9648477969894834
15.04,-0.4291542876069956,-0.10415293158083654,0.8577546596396592
15.05,-0.2662442081619583,-0.02189406608451574,0.7823149774560858
15.06,-0.10760014985976084,0.12993501256935147,0.6286029996543538
15.07,0.04136278562656447,0.2325707253795252,0.35216878390121154
15.08,0.15469547920255014,0.2205098818045647,0.008259063910412074
15.09,0.2012025779952173,0.13934902335317456,-0.30992284446726914
15.1,0.1994971626256762,0.06389744128091379,-0.5731688942400962
15.11,0.17377321544375282,0.016345084630858563,-0.7559263125477272
15.12,0.08783139313556886,-0.017774205454160703,-0.8438523653673478
15.13,-0.05298820566310079,-0.029409977234433712,-0.8444491641976625
15.14,-0.16220245080416726,-0.046642938725872,-0.7577377487273386
15.15,-0.21450350311410205,-0.023383924003181757,-0.6056286173415055
15.16,-0.2469797015567218,0.05765528563762813,-0.44099106948181105
15.17,-0.2751386125820532,0.17523137153928567,-0.2883432092707747
15.18,-0.3000986656157461,0.2526341727875109,-0.166524569444955
15.19,-0.3132340315949171,0.3075312989799908,-0.0674307921047921
15.2,-0.2963451513888496,0.35451108821406574,0.026337980890071735
15.21,-0.2160047446471184,0.3815303962138823,0.09174074280366236
15.22,-0.09907749187360355,0.39308664530845633,0.09083445541889708
15.23,0.012977019074290132,0.3619877741108831,0.027516771774877245
15.24,0.11376117725590187,0.25480146676190546,-0.0709544108954531
15.25,0.17634984983413932,0.15094989661479152,-0.19769193752755262
15.26,0.21126185868826344,0.15995056274038533,-0.34216725734240755
15.27,0.22794797874588202,0.21417150712202793,-0.44155142080286275
15.28,0.23777215597588627,0.2143025880707409,-0.46895511891908076
15.29,0.20065927271319953,0.2627817783128338,-0.4332285752744827
15.3,0.14585763164093252,0.3338511964273495,-0.34958254689656243
15.31,0.0595304453760216,0.3438013008888482,-0.22053367449558786
15.32,-0.07706713852924912,0.3262492320700677,-0.06601056941637443
15.33,-0.22753156273728473,0.29046464921851656,0.08749460323929871
15.34,-0.32804294820224833,0.2989184023507442,0.20619666002196846
15.35,-0.36528065335228843,0.36309526633686245,0.2943551386790453
15.36,-0.31258318495789034,0.3819835355785563,0.3192141947418167
15.37,-0.20609055856342473,0.4159353284665907,0.30566050946181766
15.38,-0.07890955909029787,0.42575521150230894,0.2756881547658983
15.39,0.010722898398048557,0.4009487269089769,0.19183732905713038
15.4,0.019799526825079843,0.35227012827758153,0.058852509719841725
15.41,-0.019341081598080272,0.3042517903411345,-0.07145605379961688
15.42,-0.06896189026486271,0.22580411630840871,-0.17505724699695266
15.43,-0.07645167890701801,0.12243572867454663,-0.2771605184021886
15.44,-0.06556658472461482,0.13502906039655493,-0.4193704973339668
15.45,-0.04915294780926658,0.31859156391910326,-0.5599815188367961
15.46,0.0013603045278701286,0.48914208949185706,-0.6648813164564404
15.47,0.03855738761349326,0.6244499662262603,-0.7404326497812244
15.48,-0.004076961998295985,0.6994293957169021,-0.7767308720432472
15.49,-0.05424823018248614,0.637744062066572,-0.7574999894202105
15.5,-0.05759343837361954,0.6081372311655983,-0.724649825503134
15.51,-0.04329007571994397,0.6009405241147172,-0.6682654336009649
15.52,-0.005186989180997723,0.5650693693172497,-0.5974134054069059
15.53,0.08220927550050398,0.7757270045901573,-0.43616947092238667
15.54,0.11172469048034739,1.1645961882148177,-0.20401131057919947
15.55,-0.01794964831531869,1.348163518138078,0.13942870028059443
15.56,-0.1815582840336504,1.130841014144186,0.5833553968024955
15.57,-0.3135215972222916,0.6425697966727243,1.0358378083445126
15.58,-0.29186325434343424,0.23819506593371753,1.3092025925769282
15.59,-0.1569347859623031,0.001867749299570326,1.40350044357019
15.6,0.003984367154961069,0.005146864735424432,1.3437132695688025
15.61,0.1295831331356056,0.04615620279450739,1.1883784995663373
15.62,0.1509920869560999,0.07348700300692407,0.9796571640377079
15.63,0.1258238030174032,0.03819229641268198,0.7508676059867938
15.64,0.12967119082726306,-0.04366412456553275,0.5273466906159988
15.65,0.1491858923415439,-0.07643431236508899,0.3595497967069106
15.66,0.15762804286815135,-0.03307472355496244,0.2917025071417057
15.67,0.1307168401000879,0.0010443581875539674,0.3080391985241076
15.68,0.08642519365274484,-0.40083877545889274,0.3075239414316796
15.69,0.04258240835013739,-0.8556869581146396,0.4535852866994625
15.7,-0.00048453309886148745,-0.8396773779228452,0.7337895859417405
15.71,-0.038220566837922354,-0.8944434534025129,0.9824073808490613
15.72,-0.06848214076096676,-1.1263249705794498,1.1615179067285
15.73,-0.1516211281540267,-1.0555583759125458,1.2292822396353384
15.74,-0.21487610400165597,-0.9118503389772107,1.1323072863117345
15.75,-0.21971819136985793,-0.6983849721974835,0.9745686468877789
15.76,-0.22090337513202069,-0.48600078327608676,0.7925760624849476
15.77,-0.24921256416915893,-0.3804269392469187,0.6302897219461405
15.78,-0.24638524312558308,-0.19113223624040784,0.5435545073087343
15.79,-0.21725588225819809,-0.05694384063226144,0.5002688398899923
15.8,-0.20904064498645072,-0.049451732865475155,0.4452975068537439
15.81,-0.2036810511785165,-0.05090707387887232,0.36507133337117587
15.82,-0.19842044453143795,-0.08153224114700346,0.29886235255388155
15.83,-0.16940343855347498,-0.11635774255889492,0.2533745499064314
15.84,-0.08434839028884702,-0.13862231769295708,0.21609007087716128
15.85,0.0025358788800403714,-0.1322426485119822,0.16880368533252735
15.86,0.08520014606815868,-0.06711217136367686,0.13195938308144894
15.87,0.15830992794332924,0.03290590662463125,0.10729746215752248
15.88,0.19660177954335836,0.15584542887485714,0.10861432669639506
15.89,0.20122559886044603,0.2561102450031552,0.11494761905736475
15.9,0.1699763735107621,0.3652684059199215,0.077008323895688
15.91,0.10382023786208976,0.48141176448968903,0.02673492369682408
15.92,0.012758461102138137,0.5651000797522256,0.014846776897124369
15.93,-0.09354596113346453,0.6270474406036445,0.04399023258416449
15.94,-0.16202424234620919,0.6629768381914435,0.09148379892536632
15.95,-0.18028493768644488,0.6950492063481151,0.09368763365570831
15.96,-0.1717895146003849,0.7408870382804316,0.04671283803490726
15.97,-0.13672634067211517,0.790954643539841,-0.031030221572863143
15.98,-0.0944370580962135,0.7991815940059048,-0.088975296291615
15.99,-0.052130247453277156,0.7585677503263087,-0.13444315693753428
16.0,-0.009844254711185127,0.6889691725213832,-0.17694006852278546
16.01,0.04150412501696953,0.6015790181130473,-0.24103281728337195
16.02,0.09298744300027073,0.5414137743734094,-0.3551461534204109
16.03,0.13224949706265998,0.5350030239473383,-0.5161059556440531
16.04,0.15997636623880024,0.5600466075916946,-0.6503471498753505
16.05,0.16108225219686859,0.5715896961621987,-0.6880291802501111
16.06,0.12033866974599954,0.5208610263731251,-0.6164181346976966
16.07,0.04593915622372639,0.40502155144605795,-0.4945441307041382
16.08,-0.020708738134147274,0.2760208694560875,-0.4291373654560123
16.09,-0.08566412148724138,0.2125666332666532,-0.42407827736667053
16.1,-0.14456938074633088,0.18358629117651612,-0.4190806384052552
16.11,-0.18385784757004175,0.1764087775076362,-0.4041948126857835
16.12,-0.19034484781434638,0.15709724072260914,-0.4014483523537077
16.13,-0.18717519750759495,0.10715461672780847,-0.4219552793503627
16.14,-0.19276198385498447,0.09906533937976794,-0.40106866972175403
16.15,-0.22359955910348406,0.1873908257198538,-0.4107252778943381
16.16,-0.26426883267645646,0.16712954229533916,-0.3885771812657566
16.17,-0.25348481326435834,-0.033613891333388275,-0.2294098007543315
16.18,-0.22656666222338784,-0.014499966154449253,-0.12849288400195932
16.19,-0.2092682924152031,0.003108715213610202,-0.15902504504870674
16.2,-0.20242838519764123,0.0002552098762243276,-0.31071577209982354
16.21,-0.238356497991411,0.07415533223373023,-0.5904476611406333
16.22,-0.3223031771212965,0.3095083993026581,-0.9487226692248523
16.23,-0.42266357018864925,0.6708384149213957,-1.3551355155591902
16.24,-0.4413801498345857,0.942528487267066,-1.634698061421435
16.25,-0.31425556025523094,1.1167167318956337,-1.6528934145571432
16.26,-0.1275523250520376,1.3209029404754185,-1.589909974061404
16.27,0.013017713935808467,1.280516077226314,-1.4080512469115014
16.28,0.1217541804745577,0.9803183674884396,-0.9804272955344291
16.29,0.17543772954246398,0.7941145608460903,-0.5690311321418446
16.3,0.17592725876633916,0.679065311620778,-0.3203342104722377
16.31,0.14798948611022616,0.5913111800535034,-0.2529375953205218
16.32,0.1271427163450184,0.5491123486035174,-0.2808535098746642
16.33,0.12416000034016493,0.5323760942821109,-0.3024494710658844
16.34,0.12263433374686612,0.5499610855785613,-0.2990556456033502
16.35,0.11826719999812196,0.5976896402563043,-0.3185720041623463
16.36,0.12511473528425102,0.6900057379170028,-0.42436971188156464
16.37,0.17884918082347573,0.7410713983505687,-0.49287781240597933
16.38,0.23316147374850843,0.6992663833793167,-0.41553048226925593
16.39,0.2613238946033042,0.6382332280149512,-0.26440671087762696
16.4,0.30093644294500577,0.5945717556326731,-0.1330368347064731
16.41,0.3403715333417562,0.5403697976144842,-0.03199527511526032
16.42,0.3362280452885273,0.4886853793978863,0.039103415249121615
16.43,0.2980197528872378,0.44736112389690624,0.06269563601728124
16.44,0.2691017254238459,0.3979920885727332,0.06647915959993579
16.45,0.23071834465448868,0.34811539861408325,0.050841230489046756
16.46,0.14762225912242072,0.3131031122234685,-0.014802934757551406
16.47,0.09114718671436632,0.3058183070211907,-0.07865444568512607
16.48,0.12351311346344943,0.32980827293913906,-0.0473987564253805
16.49,0.17995852299205004,0.3691104033303907,0.018053586803768364
16.5,0.19866975759456224,0.4024219711138099,0.030728980155341853
16.51,0.2112758250599994,0.4294313380246569,0.00205724840893602
16.52,0.2394049819112844,0.4597287328936626,-0.020056402363395207
16.53,0.2541697253492253,0.4898453975024054,-0.02777212223055986
16.54,0.24044648610932595,0.5182155013084349,-0.047908149397737125
16.55,0.21133925709728812,0.5318998006560156,-0.09331579035311269
16.56,0.18906817718954672,0.5244436298702084,-0.17603952566286446
16.57,0.18441624120575753,0.5017207483839822,-0.27982194593552984
16.58,0.20122934175232945,0.5022253832743037,-0.34302907172344976
16.59,0.21537655584748727,0.5153309528790652,-0.38292362603582397
16.6,0.20785106863396544,0.5057428636756226,-0.46125363411969883
16.61,0.18580677308716412,0.4976098333836354,-0.6021567102722194
16.62,0.12712542672222124,0.49191280671288073,-0.8972236072122145
16.63,-0.09130339340166653,0.4217405766753026,-1.8515058447078503
16.64,-0.1160784342978896,0.5503341986700659,-2.03765618260706
16.65,0.28403687213671824,0.6058874940806588,-1.0204787027569329
16.66,0.4867978074955725,0.3959170516193942,-0.4700572573786351
16.67,0.36493976166190084,0.2801915855288932,-0.43894791609469735
16.68,0.24031427104195643,0.1848332774511185,-0.4415083370423692
16.69,0.14724599063709526,0.055075810377529386,-0.37409009670315263
16.7,0.10794473503798979,-0.03960172072700151,-0.3067403186222005
16.71,0.1231797041394125,-0.07199444833178135,-0.26459390362332363
16.72,0.14893607201352696,-0.09747697932914992,-0.23580062988989148
16.73,0.15515251115982723,-0.12746397785135832,-0.22237211654964578
16.74,0.14992588757489786,-0.1440211416581638,-0.23828592387438707
16.75,0.1312525789455568,-0.17113259243250306,-0.2837911703552566
16.76,0.1035087142888889,-0.2090814187131052,-0.33427970315334365
16.77,0.07281288469300805,-0.24629640780255083,-0.36428483029597986
16.78,0.03492021541814042,-0.2588517094589008,-0.37648719495225097
16.79,0.00291896424168538,-0.2523328929359952,-0.3769540928448347
16.8,-0.019082291493316424,-0.2456469118431234,-0.36755548918818126
16.81,-0.024110415889183008,-0.2326674570869857,-0.34667107597847735
16.82,-0.02100800148207588,-0.22356551620077336,-0.3252758078229262
16.83,-0.02636731784436874,-0.21237339621395743,-0.32220642543852995
16.84,-0.0555530518676071,-0.19338502614554665,-0.32958945862445566
16.85,-0.11780969560081242,-0.19089261980906158,-0.3348463244733475
16.86,-0.19066604174411944,-0.21786217805111044,-0.3441990393141252
16.87,-0.2529816574366514,-0.24955939637263946,-0.3713459424640889
16.88,-0.28933580084279853,-0.2622562316876307,-0.40361972510848376
16.89,-0.3122797645252278,-0.27001257284465946,-0.4227339543954264
16.9,-0.3298990972452153,-0.2880346207074541,-0.4163753290557805
16.91,-0.32229404592644295,-0.304171139004893,-0.3863785146531348
16.92,-0.29666975204026663,-0.28418087875165243,-0.36072974308576333
16.93,-0.2533955971772287,-0.22795985156411422,-0.357022351604364
16.94,-0.2078875434990736,-0.13466393311508473,-0.347285612886038
16.95,-0.18092914496655652,-0.049980575696443555,-0.2995361196932289
16.96,-0.16590726832568228,-0.010993435910610127,-0.2278204946125535
16.97,-0.15582443909936963,0.013957865560231578,-0.15798522418785965
16.98,-0.15125300375442607,0.0302009977142413,-0.09415064207925444
16.99,-0.15579688349972512,0.04611948978285607,-0.05190476161555492
17.0,-0.17451980425022987,0.05569653232695122,-0.041222603266646986
17.01,-0.2109491512402755,0.06286733542275848,-0.04318971339038816
17.02,-0.25398296595256337,0.06701294517108003,-0.029288719817579863
17.03,-0.29996817252222113,0.07666151337429089,-0.006677842266569831
17.04,-0.33588467810417233,0.08427243340511274,0.024463401987158892
17.05,-0.3282762351734092,0.05251805757843582,0.10656038572793246
17.06,-0.2938673228579559,-0.005311530781935344,0.2079233132753618
17.07,-0.2751436187373443,-0.05265272968555098,0.2516962741816531
17.08,-0.26432269111892287,-0.0762053228316476,0.25370446878991004
17.09,-0.2518770693064672,-0.09123978122555879,0.23956487231996085
17.1,-0.25259171896145544,-0.09909457502499046,0.22724845710469543
17.11,-0.2742440660405362,-0.10015182190730344,0.21122095870093122
17.12,-0.28617055897104304,-0.09829184235240332,0.1791380038428224
17.13,-0.2856965760474607,-0.11585238715445609,0.13933130469632635
17.14,-0.2689355646421657,-0.1666673882096515,0.09550051300386274
17.15,-0.25241295305434497,-0.23180061477727165,0.05606373136265837
17.16,-0.2530538525322844,-0.296059991921435,0.015867816500949105
17.17,-0.2676802808036818,-0.3370878419391903,-0.03063179014825713
17.18,-0.287136570959723,-0.3377843518691654,-0.08644380129286633
17.19,-0.28898633463848084,-0.3155323919833442,-0.17162667778522997
17.2,-0.2759241012543669,-0.27542849072467107,-0.2765116345555927
17.21,-0.2683654828030392,-0.2261806489828344,-0.3779173827248308
17.22,-0.2598583232563381,-0.20363598927510032,-0.48855339400364506
17.23,-0.24989938477505075,-0.1782565801713547,-0.6010441888259291
17.24,-0.22528752821874543,-0.15254719380095746,-0.6839439958562414
17.25,-0.19611716633149798,-0.1357829408553006,-0.6906527495013558
17.26,-0.1724433663572729,-0.11681773301047046,-0.6247049301736566
17.27,-0.15093459995202352,-0.099784117480297,-0.5188455783376268
17.28,-0.13950841003616446,-0.07520789546292239,-0.4307581379385333
17.29,-0.12763301753822956,-0.041058637977179714,-0.35757335527706025
17.3,-0.09637125112455645,-0.0013747017457068442,-0.2813237748962874
17.31,-0.05373035074666134,0.029381162415803685,-0.18963328238919921
17.32,-0.043836555980426094,0.047669811602825005,-0.09334075396818678
17.33,-0.06279150910874083,0.05446658145429213,-0.01191177450479287
17.34,-0.08530155469139498,0.06524793453460152,0.04161941402312547
17.35,-0.12591738210880588,0.0628964851613904,0.0658109463752237
17.36,-0.16713279252584437,0.04231192497745826,0.05755591254220924
17.37,-0.18383656156905515,0.010703907668577657,0.04255841209535677
17.38,-0.2154471078024249,-0.009231186518200797,0.010250365223785316
17.39,-0.25225517995724417,-0.015291338864811627,-0.03204750178111558
17.4,-0.2616677451788142,-0.03192461050679678,-0.08390379819567914
17.41,-0.258881634187345,-0.039917750306149566,-0.1193300018792492
17.42,-0.2556932882288156,-0.03604424817952446,-0.13522988819137008
17.43,-0.24741837564384803,-0.03218366619903575,-0.1382741977118404
17.44,-0.20838249539253925,-0.028482744291477204,-0.1352357967779749
17.45,-0.14909587208049005,-0.01628976447146582,-0.10025380249080734
17.46,-0.10396315986031752,0.009265585273682023,-0.05861657958904852
17.47,-0.07418651458038278,0.056981162154047235,-0.03615401260911739
17.48,-0.05468501448722026,0.12231190623244963,-0.025127003825671172
17.49,-0.032896178423722354,0.17272042546781569,-0.013435769275865699
17.5,0.007122291387437379,0.20742802146414718,0.0036600526316700635
17.51,0.052523588494943436,0.2424639254964314,0.033094607593654936
17.52,0.08282938311418525,0.26967343575963126,0.07213915156405593
17.53,0.09995340155475506,0.3004153687031898,0.11638658276835026
17.54,0.12151992269887212,0.3179265248222885,0.1725186743807573
17.55,0.13896759230906752,0.3124584308975006,0.2276221963654756
17.56,0.13759918653308395,0.32557879820735924,0.2650525244617503
17.57,0.12223115787735209,0.3297314978694543,0.2897528839707394
17.58,0.10718698382001056,0.3096054892707518,0.3246800232555673
17.59,0.09504803470947315,0.2651564252428905,0.35932257455954575
17.6,0.09436335347174171,0.21876432034620757,0.37563208046410534
17.61,0.10641898171269458,0.20166107605840355,0.3799080389990736
17.62,0.11947161098704216,0.19904305628267083,0.38328866490239993
17.63,0.12814619172605718,0.1863623076615841,0.37791838254130605
17.64,0.1469331253537972,0.17733463434780553,0.3758912898702525
17.65,0.17276504411871837,0.17559099036976367,0.3894337518729846
17.66,0.20539856916790447,0.17044927910983282,0.39991370257875514
17.67,0.2528720098340808,0.1755493233312376,0.4042292280076164
17.68,0.31056663245381855,0.17552599888233827,0.43137742742004875
17.69,0.3686920678409663,0.15043596774411783,0.4479745558040901
17.7,0.41739573165046734,0.11526475477511064,0.4020257182322392
17.71,0.4565424145972268,0.10695686637303722,0.3274752563702995
17.72,0.44341464073962933,0.135187333876489,0.24631156537560736
17.73,0.43587108896424603,0.15065378659723025,0.1860146536626271
17.74,0.4481034650455847,0.12378879063266116,0.14295557378441445
17.75,0.4660779505615605,0.09537419570064669,0.11527801616068364
17.76,0.46889926880128574,0.075423581886104,0.08918721261797967
17.77,0.41749450994434784,0.05037049828197143,0.06861886407141134
17.78,0.3174355634224658,0.01595464834416158,0.050297269458058555
17.79,0.20287224043299734,0.0064566022699184215,-0.012993902856180805
17.8,0.1614180220255438,0.01825005386270825,-0.12744136168829232
17.81,0.16050701306366494,0.016280976228696384,-0.20531015702103309
17.82,0.16601918807740842,0.005539083886549388,-0.22707945995992737
17.83,0.16029692767704806,-0.000817901180567607,-0.23173943366683825
17.84,0.15835962631397538,0.004048718375531845,-0.26400888886173873
17.85,0.17569512688675798,0.02054494278166226,-0.3299736021398833
17.86,0.22432281155628475,0.009310465277179344,-0.36838426479371783
17.87,0.2685035287843694,-0.04321962064468031,-0.3799140387924196
17.88,0.2978719990585641,-0.09077377476265318,-0.3826091308470387
17.89,0.3247920249004825,-0.1534446042632201,-0.36436741622460583
17.9,0.33131209989870053,-0.20382831697625511,-0.32613676007625414
17.91,0.32249260014143355,-0.2424814896228341,-0.3037215980146541
17.92,0.2841907036313256,-0.2608092723507425,-0.31262954150996214
17.93,0.241367606634294,-0.26925754179331324,-0.3320531590937226
17.94,0.22279612333876897,-0.24712499176945296,-0.34236768435962034
17.95,0.20555480003234716,-0.23604575734907862,-0.359380470015932
17.96,0.1458889385618274,-0.2312931481176651,-0.38284073911457767
17.97,0.09452530978097862,-0.22187312660602745,-0.4000754893977787
17.98,0.04975296258689418,-0.2236582894782501,-0.3838095079490371
17.99,0.007928382518183787,-0.24749660220172032,-0.3409870634521118
18.0,-0.05613213566944943,-0.2937852695206151,-0.29512898244878916
18.01,-0.10427904534402008,-0.3318469429780612,-0.26308791558081335
18.02,-0.14611288013865703,-0.36076698666912965,-0.22179852397225827
18.03,-0.1834781812111648,-0.3869903734347037,-0.15940606796780488
18.04,-0.21001969016173727,-0.41615121135027694,-0.08749139861804851
18.05,-0.25558655344883346,-0.430577295034498,-0.030299035649292063
18.06,-0.3159987659541307,-0.4217529844914059,0.01271030725596397
18.07,-0.3592656768315344,-0.4094236780248552,0.06458233780745329
18.08,-0.38492253203222193,-0.4068580099387175,0.09608599852900097
18.09,-0.4079258974305645,-0.38551026463495336,0.10703890831591041
18.1,-0.43348902650140597,-0.3274619799598541,0.10617160285571318
18.11,-0.4482034440065997,-0.2609822836465662,0.11314755789969923
18.12,-0.4542370337586102,-0.20529470213827106,0.13765677342258678
18.13,-0.4375298334278972,-0.16863829533081867,0.16628268938283314
18.14,-0.4030117187972153,-0.13340020308024964,0.19459503671434594
18.15,-0.37509397504804187,-0.08676468005097933,0.19267744095478373
18.16,-0.40994025821239616,-0.07881819308350162,0.17526617477754997
