time,seconds_elapsed,z,y,x
1789316387486468000,0.047468017578125,0.19352765381336212,-0.00236249016597867,-0.30019471049308777
1789316387496501000,0.0575009765625,0.09789913147687912,0.20463703572750092,0.02580789476633072
1789316387506534100,0.0675341796875,-0.00908830389380455,0.4328124225139618,0.34888023138046265
1789316387516567000,0.077567138671875,-0.049431998282670975,0.599605143070221,0.5099431276321411
1789316387526600000,0.087599853515625,-0.05728672444820404,0.780953586101532,0.4906642436981201
1789316387536634000,0.097634033203125,-0.04291843995451927,0.9019772410392761,0.366117000579834
1789316387546667000,0.1076669921875,-0.005519134923815727,0.8407551646232605,0.22426453232765198
1789316387556700200,0.1177001953125,0.0440572053194046,0.64951092004776,0.10699462890625
1789316387566733000,0.127733154296875,0.09803521633148193,0.5476604104042053,0.07074767351150513
1789316387576766000,0.137765869140625,0.10353997349739075,0.6681389212608337,0.14252439141273499
1789316387586799000,0.147799072265625,0.10596238821744919,0.8098675608634949,0.25606241822242737
1789316387596832000,0.15783203125,0.12419571727514267,0.838177502155304,0.34465140104293823
1789316387606865200,0.167865234375,0.1341913640499115,0.7035160660743713,0.39786508679389954
1789316387616899000,0.177899169921875,0.14040131866931915,0.47923290729522705,0.42767438292503357
1789316387626932200,0.18793212890625,0.14612099528312683,0.36796870827674866,0.4550785720348358
1789316387636965000,0.197965087890625,0.16368161141872406,0.42807623744010925,0.5420305132865906
1789316387646998300,0.207998291015625,0.16879861056804657,0.6796104907989502,0.7336268424987793
1789316387657031200,0.21803125,0.12870444357395172,1.1191591024398804,0.9794344902038574
1789316387667064000,0.22806396484375,0.09070486575365067,1.5661866664886475,1.1747381687164307
1789316387677097000,0.238096923828125,0.12172962725162506,1.5540434122085571,1.2079190015792847
1789316387687130000,0.248130126953125,0.21344409883022308,1.3460172414779663,1.047849178314209
1789316387697163000,0.2581630859375,0.308092325925827,0.8404324054718018,0.8783624768257141
1789316387707197200,0.268197265625,0.3863021731376648,0.43409472703933716,0.9142597317695618
1789316387717230000,0.27822998046875,0.4245702028274536,0.7985371351242065,1.0535385608673096
1789316387727263200,0.28826318359375,0.38978904485702515,1.6718288660049438,1.1447685956954956
1789316387737296100,0.298296142578125,0.30852213501930237,2.6088356971740723,1.139504075050354
1789316387747329300,0.308329345703125,0.2150108367204666,3.416980504989624,1.061676025390625
1789316387757362200,0.318362060546875,0.12071096897125244,3.952348232269287,0.9750418663024902
1789316387767395000,0.32839501953125,0.12550359964370728,3.579159736633301,0.6146820783615112
1789316387777428200,0.33842822265625,0.20539788901805878,2.918964385986328,0.027277959510684013
1789316387787462100,0.348462158203125,0.2731202244758606,2.599472999572754,-0.49114522337913513
1789316387797495000,0.3584951171875,0.35805293917655945,2.7012815475463867,-0.7130619287490845
1789316387807528000,0.36852783203125,0.4577457308769226,2.858510971069336,-0.6625718474388123
1789316387817561000,0.37856103515625,0.5927445292472839,2.645594835281372,-0.7080671787261963
1789316387827594000,0.388593994140625,0.4891853928565979,2.1960108280181885,-0.91094571352005
1789316387837627100,0.398627197265625,0.35162514448165894,1.4343085289001465,-1.125110149383545
1789316387847660000,0.408659912109375,0.33268049359321594,0.6922658085823059,-1.1733975410461426
1789316387857693200,0.418693115234375,0.30525073409080505,0.3522808253765106,-0.8631893396377563
1789316387867727000,0.42872705078125,0.9813500642776489,-1.5757354497909546,0.6468285322189331
1789316387877760300,0.43876025390625,1.8150172233581543,-0.6909680366516113,1.7001482248306274
1789316387887793200,0.448793212890625,2.0556929111480713,0.30365654826164246,2.2084784507751465
1789316387897826300,0.458826416015625,1.972109079360962,1.210803747177124,2.357055187225342
1789316387907859200,0.468859130859375,1.6487984657287598,1.7526010274887085,2.3622775077819824
1789316387917892000,0.47889208984375,1.3442939519882202,1.3893269300460815,2.2595016956329346
1789316387927925000,0.488925048828125,1.3041832447052002,0.16522224247455597,2.2990050315856934
1789316387937958100,0.498958251953125,1.3493938446044922,-0.5274757742881775,2.3304851055145264
1789316387947992000,0.508991943359375,1.3778982162475586,-0.6511146426200867,1.8093758821487427
1789316387958025200,0.519025146484375,1.4974168539047241,-1.0701994895935059,0.7196369767189026
1789316387968058000,0.52905810546875,1.7435880899429321,-1.482318639755249,-0.6521527767181396
1789316387978091300,0.53909130859375,1.933544397354126,-1.4248145818710327,-2.0900352001190186
1789316387988124200,0.549124267578125,1.6729775667190552,-1.0283724069595337,-3.034884214401245
1789316387998157000,0.559156982421875,1.2469295263290405,-1.1692616939544678,-3.0343964099884033
1789316388008190200,0.569190185546875,0.6355644464492798,-1.8530727624893188,-2.2724063396453857
1789316388018223000,0.57922314453125,0.008129831403493881,-1.8600389957427979,-1.0824527740478516
1789316388028256300,0.58925634765625,-0.11448290199041367,-1.6630032062530518,-0.11417477577924728
1789316388038290000,0.5992900390625,0.07948070764541626,-1.0469906330108643,0.5120073556900024
1789316388048323000,0.609322998046875,0.10494346171617508,-0.7564938068389893,0.8728150725364685
1789316388058356000,0.61935595703125,0.05341954901814461,-0.9200760722160339,0.9202691316604614
1789316388068389000,0.62938916015625,0.12580373883247375,-1.1630746126174927,0.7319170832633972
1789316388078422000,0.639422119140625,0.3091906011104584,-1.3054200410842896,0.441805362701416
1789316388088455200,0.649455078125,0.6330211162567139,-1.3427537679672241,0.0956607460975647
1789316388098488000,0.659488037109375,0.9371466636657715,-1.4045757055282593,-0.29525241255760193
1789316388108521200,0.669521240234375,1.1330317258834839,-1.4447216987609863,-0.647583544254303
1789316388118555100,0.67955517578125,1.218714714050293,-1.2954018115997314,-0.7463205456733704
1789316388128588300,0.68958837890625,1.1396974325180054,-1.0179808139801025,-0.5110307931900024
1789316388138621200,0.69962109375,0.9959010481834412,-0.7084445357322693,-0.1012997254729271
1789316388148654300,0.709654296875,0.9525109529495239,-0.4214039742946625,0.23034878075122833
1789316388158687200,0.719687255859375,0.8638015985488892,-0.23846717178821564,0.33049482107162476
1789316388168720100,0.72972021484375,0.7223672866821289,-0.23538322746753693,0.2520298361778259
1789316388178753000,0.7397529296875,0.502844512462616,-0.3155108094215393,0.05217026174068451
1789316388188786000,0.749785888671875,0.2614119052886963,-0.2906011939048767,-0.21555225551128387
1789316388198820000,0.759820068359375,0.08550424873828888,-0.111665278673172,-0.4681514799594879
1789316388208853200,0.769853271484375,-0.03020796924829483,0.11817937344312668,-0.6749305129051208
1789316388218886100,0.77988623046875,-0.06394702196121216,0.305519163608551,-0.826520562171936
1789316388228919000,0.7899189453125,0.05874400585889816,0.4698500633239746,-0.9170944094657898
1789316388238952200,0.7999521484375,0.2920944392681122,0.6737637519836426,-0.9662225246429443
1789316388248985000,0.809985107421875,0.4633820354938507,0.7440288662910461,-1.0327826738357544
1789316388259018200,0.820018310546875,0.46376872062683105,0.6758636832237244,-1.070392370223999
1789316388269051100,0.830051025390625,0.33150336146354675,0.3980073034763336,-1.0233606100082397
1789316388279085000,0.8400849609375,0.1585555523633957,0.133482426404953,-0.8861293196678162
1789316388289118000,0.850117919921875,0.04224545881152153,0.04265238717198372,-0.725278377532959
1789316388299151000,0.860151123046875,-0.011608452536165714,0.07224010676145554,-0.5939831733703613
1789316388309184000,0.87018408203125,-0.011003382503986359,0.20383568108081818,-0.5428768396377563
1789316388319217200,0.880217041015625,-0.04019908607006073,0.22078324854373932,-0.5300675630569458
1789316388329250000,0.89025,-0.0986006110906601,0.24229119718074799,-0.478231817483902
1789316388339283200,0.900283203125,-0.08270233869552612,0.28317710757255554,-0.412024587392807
1789316388349316000,0.910316162109375,-0.1458490788936615,0.061097707599401474,-0.42481306195259094
1789316388359349000,0.920348876953125,-0.25699183344841003,-0.34234482049942017,-0.5723998546600342
1789316388369383200,0.930383056640625,-0.33386319875717163,-0.8467208743095398,-0.7583388686180115
1789316388379416300,0.940416259765625,-0.3837953209877014,-1.1296974420547485,-0.8491214513778687
1789316388389449200,0.95044921875,-0.444754034280777,-1.1797164678573608,-0.7490947246551514
1789316388399482000,0.960482177734375,-0.5134401321411133,-1.2263470888137817,-0.45424047112464905
1789316388409515300,0.970515380859375,-0.4643421173095703,-1.4133358001708984,0.07084381580352783
1789316388419548200,0.980548095703125,-0.23188996315002441,-1.5470430850982666,0.7582134008407593
1789316388429581000,0.9905810546875,0.03236806020140648,-1.5951075553894043,1.4086604118347168
1789316388439614000,1.000614013671875,0.16152578592300415,-1.528497338294983,1.8398035764694214
1789316388449648000,1.010648193359375,0.06043191999197006,-1.4519593715667725,1.8634066581726074
1789316388459681000,1.020680908203125,-0.2095140814781189,-1.2909324169158936,1.4922040700912476
1789316388469714200,1.030714111328125,-0.37179034948349,-1.0073484182357788,1.011512279510498
1789316388479747000,1.0407470703125,-0.2704181671142578,-0.978943407535553,0.7115098237991333
1789316388489780200,1.0507802734375,-0.08982895314693451,-1.0296518802642822,0.593112587928772
1789316388499813000,1.060813232421875,0.05570480599999428,-1.016226887702942,0.5666333436965942
1789316388509846300,1.07084619140625,0.1988992542028427,-0.9103699326515198,0.5343166589736938
1789316388519879200,1.080879150390625,0.3740524351596832,-0.7376314401626587,0.43399325013160706
1789316388529913000,1.0909130859375,0.5046994090080261,-0.5110001564025879,0.32757866382598877
1789316388539945700,1.10094580078125,0.5075945258140564,-0.35157427191734314,0.28887706995010376
1789316388549979000,1.110978759765625,0.5641821622848511,-0.37946078181266785,0.2684599459171295
1789316388560011800,1.12101171875,0.7165141701698303,-0.5732187628746033,0.24400174617767334
1789316388570045000,1.131044921875,0.9417153000831604,-0.7896096706390381,0.275444895029068
1789316388580077800,1.141077880859375,1.1598737239837646,-0.8844088912010193,0.3781222701072693
1789316388590110700,1.15111083984375,1.4246500730514526,-0.6724945306777954,0.46655359864234924
1789316388600144000,1.161143798828125,1.7229477167129517,-0.43433520197868347,0.5116779208183289
1789316388610178000,1.171177978515625,1.8734939098358154,-0.16978983581066132,0.5780431032180786
1789316388620211000,1.1812109375,1.9251445531845093,0.2944372296333313,0.6581200957298279
1789316388630243800,1.191243896484375,1.833480715751648,0.7775378227233887,0.6353199481964111
1789316388640277000,1.201277099609375,1.4348057508468628,1.2216700315475464,0.4753691852092743
1789316388650310000,1.211309814453125,0.7158622145652771,1.6014472246170044,0.17839157581329346
1789316388660343000,1.221343017578125,-0.1606442779302597,1.8737729787826538,-0.22348421812057495
1789316388670376000,1.2313759765625,-0.8091042637825012,2.045732259750366,-0.5321967601776123
1789316388680408800,1.241408935546875,-1.0261425971984863,2.184372901916504,-0.5833603739738464
1789316388690442800,1.25144287109375,-0.8134849071502686,2.1878862380981445,-0.3379567265510559
1789316388700476000,1.261475830078125,-0.41234761476516724,2.1144583225250244,-0.00956527516245842
1789316388710508800,1.2715087890625,-0.14774419367313385,1.9496411085128784,0.14297792315483093
1789316388720542000,1.2815419921875,-0.13397298753261566,1.4660552740097046,0.050146523863077164
1789316388730574800,1.291574951171875,0.11631036549806595,0.4947551488876343,-0.2906787097454071
1789316388740608000,1.30160791015625,0.9024685621261597,-0.8986037969589233,-0.6972874999046326
1789316388750641000,1.311640869140625,1.6935174465179443,-1.0371390581130981,-0.7991259694099426
1789316388760673800,1.321673828125,1.580064058303833,0.04784262180328369,-0.4728120267391205
1789316388770708000,1.3317080078125,0.7217744588851929,0.9713618755340576,-0.42129209637641907
1789316388780740900,1.341740966796875,-0.07455173134803772,1.7012557983398438,-1.9571863412857056
1789316388790773800,1.351773681640625,-0.006461894139647484,1.044257640838623,-1.224484920501709
1789316388800806700,1.361806640625,0.11565282940864563,0.9480538964271545,-0.7794079184532166
1789316388810839800,1.37183984375,0.05251860246062279,0.9118125438690186,-0.6525306701660156
1789316388820872700,1.381872802734375,-0.05374711751937866,1.0849545001983643,-0.8308282494544983
1789316388830905900,1.39190576171875,0.1251448690891266,1.4770910739898682,-0.7877966165542603
1789316388840938800,1.401938720703125,0.5671718120574951,1.3261468410491943,-0.49911659955978394
1789316388850973000,1.411972900390625,0.9038398265838623,1.0468065738677979,-0.5081290006637573
1789316388861005800,1.422005859375,0.7613484859466553,0.7965102195739746,-0.6045264005661011
1789316388871039000,1.4320390625,0.4095323979854584,0.6506240963935852,-0.7128241062164307
1789316388881071900,1.44207177734375,0.2276454120874405,0.5701598525047302,-0.6628562808036804
1789316388891105000,1.45210498046875,-0.11065354198217392,0.8054147362709045,-0.4353402853012085
1789316388901138000,1.462137939453125,-0.295397013425827,1.0844762325286865,-0.5507323741912842
1789316388911171000,1.472171142578125,-0.5076256394386292,1.0620638132095337,-0.4644792675971985
1789316388921204000,1.482203857421875,-0.26330673694610596,0.5009909272193909,-0.7370692491531372
1789316388931236900,1.49223681640625,0.1258804351091385,-0.21879999339580536,-0.9071786403656006
1789316388941270800,1.502270751953125,0.3731083273887634,-0.7291489839553833,-0.9585329294204712
1789316388951304000,1.512303955078125,0.3130601644515991,-1.1890335083007812,0.1431339830160141
1789316388961336800,1.5223369140625,0.19781693816184998,-0.06217442452907562,0.2525041401386261
1789316388971370000,1.532369873046875,0.29288408160209656,0.7153143882751465,-0.119743712246418
1789316388981403000,1.54240283203125,0.42129024863243103,1.2365096807479858,-0.04463963955640793
1789316388991435800,1.552435791015625,0.41480332612991333,1.1632634401321411,0.22372044622898102
1789316389001469000,1.562468994140625,0.12664715945720673,0.863277792930603,0.5263892412185669
1789316389011501800,1.572501708984375,-0.3476538360118866,0.9696990251541138,0.8294806480407715
1789316389021536000,1.582535888671875,-0.6567938327789307,1.218104600906372,1.1008189916610718
1789316389031568600,1.592568603515625,-0.6206446290016174,1.4171404838562012,1.2838321924209595
1789316389041601800,1.602601806640625,-0.6111605763435364,1.3329081535339355,1.087148666381836
1789316389051634700,1.612634765625,-0.7406629323959351,0.8656956553459167,0.7828423380851746
1789316389061667800,1.622667724609375,-0.8080483675003052,0.45854732394218445,0.4021093547344208
1789316389071700700,1.63270068359375,-0.714452862739563,0.16763374209403992,0.22338728606700897
1789316389081734000,1.64273388671875,-0.4749699831008911,-0.17443598806858063,0.15867193043231964
1789316389091766800,1.652766845703125,-0.32318684458732605,-0.33482006192207336,0.05591945722699165
1789316389101801000,1.662801025390625,-0.23894493281841278,-0.24625344574451447,-0.04904104396700859
1789316389111833900,1.672833740234375,-0.13003362715244293,-0.055091746151447296,0.01588069647550583
1789316389121867000,1.682866943359375,-0.02647474966943264,0.1803596466779709,0.16962125897407532
1789316389131900000,1.69289990234375,-0.023304790258407593,0.36922144889831543,0.21959041059017181
1789316389141933000,1.70293310546875,0.1317542940378189,0.3526342213153839,0.2692098915576935
1789316389151966000,1.712966064453125,0.2380780726671219,0.2725124955177307,0.3885599970817566
1789316389161999000,1.7229990234375,0.15650971233844757,0.2572435140609741,0.3793550431728363
1789316389172032000,1.733031982421875,0.036249082535505295,0.04773423448204994,0.47569382190704346
1789316389182066000,1.74306591796875,-0.1209634393453598,-0.09473343193531036,0.39422106742858887
1789316389192098800,1.753098876953125,-0.175474613904953,0.07306861877441406,0.12632597982883453
1789316389202132000,1.763132080078125,-0.15240418910980225,0.08953707665205002,0.00037444045301526785
1789316389212164900,1.773164794921875,-0.2109822779893875,0.05218251049518585,-0.009014533832669258
1789316389222197800,1.78319775390625,-0.4482526183128357,-0.00031372037483379245,0.07640396058559418
1789316389232231000,1.79323095703125,-0.6256476640701294,0.012535765767097473,0.23887276649475098
1789316389242263800,1.803263916015625,-0.5822109580039978,-0.11655910313129425,0.474719375371933
1789316389252297000,1.813296875,-0.4295004904270172,0.0014759238110855222,0.34905120730400085
1789316389262329900,1.823329833984375,-0.05808380991220474,0.17666397988796234,0.1759265512228012
1789316389272363800,1.83336376953125,0.23993989825248718,0.15047286450862885,0.1534806340932846
1789316389282396700,1.843396728515625,0.19586192071437836,0.21936270594596863,0.17284421622753143
1789316389292429800,1.853429931640625,-0.0907197818160057,0.44531381130218506,0.29024460911750793
1789316389302462700,1.863462646484375,-0.25977805256843567,0.6570452451705933,0.3989385962486267
1789316389312495900,1.873495849609375,-0.2146041840314865,0.82980877161026,0.40743276476860046
1789316389322528800,1.88352880859375,-0.1330414116382599,1.1310186386108398,0.33642327785491943
1789316389332562000,1.89356201171875,0.0868840292096138,1.1188472509384155,-0.08531516045331955
1789316389342595800,1.903595947265625,0.3030402958393097,0.9402740001678467,-0.2853984534740448
1789316389352629000,1.91362890625,0.46755096316337585,0.6571786403656006,-0.47537291049957275
1789316389362662000,1.923661865234375,0.5253082513809204,0.3734108805656433,-0.4441225826740265
1789316389372695000,1.933695068359375,0.7387563586235046,0.2780933976173401,-0.5001203417778015
1789316389382728000,1.94372802734375,1.0915099382400513,0.1679125726222992,-0.374330997467041
1789316389392761000,1.953760986328125,1.276605486869812,0.14594203233718872,-0.30839112401008606
1789316389402794000,1.9637939453125,1.1740585565567017,0.16063228249549866,-0.29546627402305603
1789316389412827000,1.973826904296875,0.9480195641517639,0.1608879566192627,-0.35950329899787903
1789316389422860000,1.983860107421875,0.856261134147644,0.2596683204174042,-0.19899165630340576
1789316389432894000,1.99389404296875,0.774894654750824,0.4429430663585663,-0.20374593138694763
1789316389442926800,2.0039267578125,0.5930084586143494,0.5083497762680054,-0.37567561864852905
1789316389452959700,2.013959716796875,0.48481062054634094,0.6224851608276367,-0.3118995726108551
1789316389462993000,2.023992919921875,0.4465385973453522,0.6467316150665283,-0.2062240093946457
1789316389473025800,2.03402587890625,0.46424517035484314,0.6319212317466736,-0.19739775359630585
1789316389483059000,2.044058837890625,0.5063138008117676,0.4752730429172516,-0.24417352676391602
1789316389493091800,2.054091796875,0.5955102443695068,0.2894677519798279,-0.32145047187805176
1789316389503125000,2.064125,0.8681265711784363,0.11068204045295715,-0.3389626145362854
1789316389513159000,2.074158935546875,0.7031970024108887,0.26265692710876465,-0.2760707437992096
1789316389523191800,2.08419189453125,0.5529236197471619,0.44692957401275635,-0.2972995936870575
1789316389533225200,2.09422509765625,0.49272048473358154,0.45262765884399414,-0.2097202092409134
1789316389543258000,2.104258056640625,0.3522469997406006,0.4917537569999695,-0.10472507774829865
1789316389553291300,2.114291259765625,0.27334338426589966,0.36762675642967224,-0.014193316921591759
1789316389563324200,2.12432421875,0.21475277841091156,0.2912544906139374,-0.02660524472594261
1789316389573357300,2.134357421875,0.17622989416122437,0.10482920706272125,-0.2786628007888794
1789316389583390200,2.14439013671875,0.2709300220012665,-0.06168839707970619,-0.30094626545906067
1789316389593424400,2.15442431640625,0.22137659788131714,-0.2153264284133911,-0.29302361607551575
1789316389603457300,2.164457275390625,0.03924380987882614,-0.20403940975666046,0.004849083721637726
1789316389613490400,2.174490478515625,-0.0997961014509201,-0.04205983504652977,0.15615923702716827
1789316389623523300,2.1845234375,-0.3826930522918701,-0.0160032007843256,0.2854437232017517
1789316389633556500,2.194556396484375,-0.5534442663192749,0.06139438599348068,0.28190305829048157
1789316389643589400,2.20458935546875,-0.3919731080532074,0.06918519735336304,0.14988990128040314
1789316389653622300,2.214622314453125,-0.1731075942516327,0.19704675674438477,0.13042138516902924
1789316389663655200,2.2246552734375,-0.18981388211250305,0.16868142783641815,-0.0955401062965393
1789316389673689300,2.234689453125,-0.32251787185668945,0.22291643917560577,0.005042695440351963
1789316389683722200,2.24472216796875,-0.6035380959510803,0.2274235635995865,0.00535481795668602
1789316389693755100,2.254755126953125,-0.6798304319381714,0.304767370223999,0.0703553855419159
1789316389703788300,2.264788330078125,-0.5616872906684875,0.2375481128692627,-0.011235876940190792
1789316389713821200,2.2748212890625,-0.2837675213813782,0.026980750262737274,-0.18445906043052673
1789316389723854300,2.284854248046875,-0.1290152370929718,0.11356198042631149,-0.4255768656730652
1789316389733887200,2.29488720703125,-0.14415983855724335,0.2326343059539795,-0.5645241141319275
1789316389743920400,2.30492041015625,-0.3025827705860138,0.31014561653137207,-0.448230504989624
1789316389753954000,2.3149541015625,-0.4537099599838257,0.47342267632484436,0.09320797771215439
1789316389763987200,2.3249873046875,-0.44382962584495544,0.5651289224624634,0.7061622142791748
1789316389774020000,2.33502001953125,-0.31807249784469604,0.32131943106651306,0.806565523147583
1789316389784053200,2.34505322265625,-0.2144947201013565,0.004195277579128742,0.7315748929977417
1789316389794086100,2.355086181640625,-0.1769409477710724,-0.4796220064163208,0.5852709412574768
1789316389804119300,2.365119384765625,-0.3997889459133148,-0.7520785331726074,0.35031062364578247
1789316389814152200,2.375152099609375,-0.7820737361907959,-1.0555012226104736,0.10486436635255814
1789316389824185000,2.38518505859375,-1.0781376361846924,-1.1106539964675903,-0.02659272775053978
1789316389834219300,2.39521923828125,-1.1630959510803223,-0.9395616054534912,0.18957020342350006
1789316389844252400,2.40525244140625,-1.1507811546325684,-0.7753345966339111,0.6127214431762695
1789316389854285300,2.415285400390625,-1.1096524000167847,-0.3638083040714264,0.9546058177947998
1789316389864318500,2.425318359375,-0.9684566855430603,-0.008418518118560314,1.1990941762924194
1789316389874351400,2.435351318359375,-0.6424111723899841,0.3143600523471832,1.2109601497650146
1789316389884384300,2.44538427734375,-0.36215609312057495,0.5465933084487915,1.057607889175415
1789316389894417400,2.45541748046875,-0.20505967736244202,0.07435864955186844,0.8230153322219849
1789316389904450300,2.4654501953125,-0.41682305932044983,-0.6088292598724365,0.10104884952306747
1789316389914484200,2.475484130859375,-0.8406504988670349,-0.8808596730232239,-0.5078962445259094
1789316389924517000,2.48551708984375,-1.1309984922409058,-1.0111292600631714,-0.7163882255554199
1789316389934550300,2.49555029296875,-1.2740362882614136,-0.6427006721496582,-0.651237428188324
1789316389944583200,2.505583251953125,-1.4275504350662231,0.19861508905887604,-0.7796041965484619
1789316389954616300,2.5156162109375,-1.6018959283828735,1.4165925979614258,-0.8737245798110962
1789316389964649200,2.525649169921875,-2.1735777854919434,2.206071615219116,-1.3013778924942017
1789316389974682400,2.535682373046875,-2.550966262817383,2.5279014110565186,-2.0415432453155518
1789316389984715300,2.54571533203125,-2.3292863368988037,2.644679546356201,-2.342855215072632
1789316389994748400,2.55574853515625,-2.2311384677886963,2.764322280883789,-2.476576089859009
1789316390004782000,2.565781982421875,-1.3192293643951416,3.1014089584350586,-1.8990058898925781
1789316390014815200,2.575815185546875,-1.1191505193710327,2.411713123321533,-1.4090888500213623
1789316390024848100,2.58584814453125,-0.8854203820228577,2.3642654418945312,-1.3731210231781006
1789316390034881300,2.59588134765625,-0.7659310102462769,1.6443355083465576,-2.5348663330078125
1789316390044914200,2.6059140625,-0.26628708839416504,0.7214846611022949,-3.749526023864746
1789316390054947000,2.615947021484375,0.7114514708518982,-0.29071465134620667,-4.218365669250488
1789316390064980200,2.625980224609375,1.6698464155197144,-0.1607457399368286,-0.4036816954612732
1789316390075013000,2.63601318359375,2.4564852714538574,-1.631753921508789,0.6090753078460693
1789316390085047300,2.64604736328125,3.1180949211120605,-1.7691203355789185,0.6518201231956482
1789316390095080200,2.656080078125,3.4391491413116455,-1.587003469467163,0.6708289384841919
1789316390105113300,2.66611328125,3.2707457542419434,-1.5311537981033325,0.8384576439857483
1789316390115146200,2.676146240234375,3.145817279815674,-1.8188992738723755,0.7891122102737427
1789316390125179400,2.686179443359375,2.575061082839966,-1.9072164297103882,0.584666907787323
1789316390135212300,2.69621240234375,1.4054089784622192,-1.0079190731048584,0.3748311400413513
1789316390145245400,2.706245361328125,0.017305487766861916,0.10549340397119522,0.5887966752052307
1789316390155278000,2.716278076171875,-1.0940535068511963,0.9436602592468262,0.9201014041900635
1789316390165312300,2.726312255859375,-1.7307591438293457,1.244877576828003,1.0303325653076172
1789316390175345200,2.73634521484375,-2.2752881050109863,1.5029150247573853,1.07496178150177
1789316390185378300,2.74637841796875,-2.4679107666015625,1.8392088413238525,0.6580090522766113
1789316390195411200,2.7564111328125,-2.0467426776885986,2.0195982456207275,0.2654449939727783
1789316390205444400,2.7664443359375,-1.1209723949432373,1.7421855926513672,0.2381579726934433
1789316390215477200,2.776477294921875,-0.09530414640903473,1.1406813859939575,0.2553819715976715
1789316390225510400,2.786510498046875,0.8408374190330505,0.8564872741699219,0.1942989081144333
1789316390235543300,2.796543212890625,1.407886266708374,0.386288046836853,-0.3156264126300812
1789316390245577200,2.8065771484375,1.7442578077316284,-0.03693271800875664,-0.9045820832252502
1789316390255610000,2.816610107421875,1.855147123336792,-0.7564245462417603,-1.2546337842941284
1789316390265643300,2.826643310546875,1.8229748010635376,-1.374796748161316,-1.233497142791748
1789316390275676200,2.83667626953125,1.6569554805755615,-1.6329717636108398,-1.096846580505371
1789316390285709000,2.846708984375,1.0899410247802734,-1.4798160791397095,-0.7580035328865051
1789316390295742200,2.8567421875,0.1437033712863922,-0.48262524604797363,1.106797218322754
1789316390305775000,2.866775146484375,-0.6354557871818542,-0.6198230385780334,0.4686998426914215
1789316390315808300,2.876808349609375,-1.1471734046936035,0.6960576176643372,0.28259679675102234
1789316390325842200,2.88684228515625,-1.1759063005447388,1.0959882736206055,0.5999271273612976
1789316390335875300,2.896875244140625,-0.9723411202430725,1.4086204767227173,0.7783737778663635
1789316390345908200,2.906908203125,-1.0750131607055664,1.7660406827926636,0.8591805100440979
1789316390355941400,2.91694140625,-1.1196049451828003,1.740621566772461,0.9864715933799744
1789316390365974300,2.926974365234375,-1.0613692998886108,1.2903704643249512,1.030706763267517
1789316390376007400,2.93700732421875,-0.8615536689758301,0.8269554376602173,0.765553891658783
1789316390386040300,2.947040283203125,-0.643987774848938,0.31747329235076904,0.3586982488632202
1789316390396073200,2.9570732421875,-0.4227656424045563,-0.22567307949066162,-0.028027640655636787
1789316390406107100,2.967107177734375,-0.014139787293970585,-0.645260214805603,-0.23267558217048645
1789316390416140300,2.977140380859375,0.316540390253067,-0.9157063364982605,-0.259602814912796
1789316390426173200,2.987173095703125,0.5366559624671936,-1.0131804943084717,-0.1669122874736786
1789316390436206300,2.997206298828125,0.4673336446285248,-0.9589396119117737,-0.012397280894219875
1789316390446239200,3.0072392578125,0.2961493730545044,-0.7488060593605042,-0.028861476108431816
1789316390456272400,3.0172724609375,0.14493428170681,-0.5366296172142029,0.10766121745109558
1789316390466305300,3.02730517578125,-0.07349179685115814,-0.2687654197216034,0.20963099598884583
1789316390476338200,3.037338134765625,-0.27198490500450134,0.008405202999711037,0.3209577798843384
1789316390486371300,3.047371337890625,-0.3162114918231964,-0.07920879870653152,0.5571889281272888
1789316390496405200,3.0574052734375,-0.2538972496986389,-0.45950767397880554,0.9822672605514526
1789316390506438100,3.067438232421875,-0.29566892981529236,-0.6636543869972229,1.5408248901367188
1789316390516471000,3.077470947265625,-0.41069963574409485,-0.8718094825744629,1.926510214805603
1789316390526504200,3.087504150390625,-0.399776428937912,-1.210343599319458,1.9112284183502197
1789316390536536600,3.09753662109375,-0.14973384141921997,-1.6367708444595337,1.4407060146331787
1789316390546569500,3.107569580078125,0.07006297260522842,-1.7973783016204834,0.7513485550880432
1789316390556602400,3.117602294921875,0.3504940867424011,-1.9049724340438843,0.10526463389396667
1789316390566635500,3.127635498046875,0.5697692036628723,-1.8994019031524658,-0.2603445053100586
1789316390576669400,3.13766943359375,0.7276179194450378,-1.7803388833999634,-0.24469949305057526
1789316390586702600,3.14770263671875,0.6883461475372314,-1.812713623046875,0.09140448272228241
1789316390596735500,3.157735595703125,0.35157161951065063,-2.2315635681152344,0.570323646068573
1789316390606768600,3.1677685546875,-0.2737303376197815,-2.7735280990600586,1.1023361682891846
1789316390616801500,3.177801513671875,-1.0531803369522095,-3.1742820739746094,1.4468823671340942
1789316390626834400,3.18783447265625,-1.645214319229126,-3.143653392791748,1.609483003616333
1789316390636867600,3.19786767578125,-1.7188893556594849,-2.4537413120269775,1.69392991065979
1789316390646901500,3.207901611328125,-1.340122938156128,-1.910895586013794,1.8075885772705078
1789316390656934400,3.217934326171875,-0.774218738079071,-1.7106218338012695,1.8882416486740112
1789316390666967300,3.22796728515625,-0.20804961025714874,-1.9443360567092896,1.7855310440063477
1789316390677000400,3.23800048828125,0.3365844190120697,-2.291710376739502,1.4681884050369263
1789316390687033300,3.248033447265625,0.8369465470314026,-2.615142583847046,1.0487784147262573
1789316390697066500,3.25806640625,1.2118333578109741,-2.7699763774871826,0.6805199384689331
1789316390707099400,3.268099365234375,1.3361142873764038,-2.682589530944824,0.45775026082992554
1789316390717132500,3.278132568359375,1.089970350265503,-2.391544818878174,0.4415569007396698
1789316390727165400,3.28816552734375,0.5650210380554199,-1.9666831493377686,0.5623821020126343
1789316390737199600,3.29819970703125,-0.13226670026779175,-1.4734561443328857,0.7160611748695374
1789316390747232500,3.308232421875,-0.835931122303009,-0.8186042904853821,0.8477259874343872
1789316390757265700,3.318265625,-1.3898757696151733,-0.05381316319108009,0.9818949699401855
1789316390767298600,3.328298583984375,-1.6996909379959106,0.6754713654518127,1.0220777988433838
1789316390777331700,3.338331787109375,-1.8134009838104248,1.2784302234649658,0.8736169934272766
1789316390787364600,3.348364501953125,-1.7458422183990479,1.779388189315796,0.558138370513916
1789316390797397500,3.3583974609375,-1.515136480331421,2.165051221847534,0.1691456139087677
1789316390807430400,3.368430419921875,-1.208117127418518,2.5157158374786377,-0.267671138048172
1789316390817464600,3.378464599609375,-0.7643048763275146,2.714052677154541,-0.7011791467666626
1789316390827497500,3.38849755859375,-0.3122577667236328,2.801752805709839,-1.033504843711853
1789316390837530600,3.398530517578125,-0.03181412070989609,2.749423027038574,-1.2192572355270386
1789316390847563500,3.4085634765625,0.05656793713569641,2.4346230030059814,-1.3379102945327759
1789316390857596400,3.418596435546875,0.08350421488285065,2.1509385108947754,-1.4407190084457397
1789316390867629600,3.428629638671875,0.15388357639312744,2.026869773864746,-1.4961897134780884
1789316390877662500,3.438662353515625,0.2789354920387268,2.077280282974243,-1.4703506231307983
1789316390887695600,3.448695556640625,0.42410093545913696,2.2113826274871826,-1.3376836776733398
1789316390897729300,3.458729248046875,0.5071390867233276,2.2875101566314697,-1.1305155754089355
1789316390907762400,3.468762451171875,0.38923776149749756,2.2222418785095215,-0.9495953321456909
1789316390917795300,3.47879541015625,0.08607443422079086,2.1183180809020996,-0.8873844146728516
1789316390927828500,3.488828369140625,-0.2041483372449875,1.9752628803253174,-0.9475303292274475
1789316390937861400,3.498861328125,-0.35928624868392944,1.830047845840454,-1.042319416999817
1789316390947894500,3.50889453125,-0.30379876494407654,1.6309733390808105,-1.1034544706344604
1789316390957927400,3.518927490234375,-0.03464239835739136,1.3526074886322021,-1.0555020570755005
1789316390967960600,3.528960693359375,0.3697282373905182,1.1318306922912598,-0.8797606229782104
1789316390977993500,3.538993408203125,0.7301122546195984,1.0293858051300049,-0.628218948841095
1789316390988027600,3.549027587890625,0.9240111708641052,0.9901797771453857,-0.42173898220062256
1789316390998060500,3.559060546875,0.9206050038337708,0.9172139763832092,-0.3414390981197357
1789316391008093700,3.56909375,0.7772576808929443,0.843332052230835,-0.36254170536994934
1789316391018126600,3.579126708984375,0.6344075798988342,0.7563191056251526,-0.4603841304779053
1789316391028159700,3.58915966796875,0.5464798808097839,0.5588478446006775,-0.5670927166938782
1789316391038192400,3.5991923828125,0.5409221053123474,0.3019247055053711,-0.6374401450157166
1789316391048225300,3.609225341796875,0.6408289670944214,0.07300975918769836,-0.6748418211936951
1789316391058259500,3.619259521484375,0.7792451977729797,-0.04020600765943527,-0.6590186357498169
1789316391068292600,3.629292724609375,0.8552606105804443,-0.0831846371293068,-0.5758886337280273
1789316391078325500,3.639325439453125,0.8391357064247131,-0.10142302513122559,-0.4519070088863373
1789316391088358400,3.6493583984375,0.739102303981781,-0.07258738577365875,-0.31219518184661865
1789316391098391600,3.6593916015625,0.6101214289665222,-0.04669773206114769,-0.1592932492494583
1789316391108424400,3.669424560546875,0.45433661341667175,-0.029945649206638336,-0.00267674308270216
1789316391118457600,3.67945751953125,0.3071780502796173,-0.059486497193574905,0.10988229513168335
1789316391128490500,3.689490478515625,0.1587347835302353,-0.09614171087741852,0.1272737979888916
1789316391138523600,3.699523681640625,0.07563803344964981,-0.07446517795324326,0.032964076846838
1789316391148557300,3.709557373046875,0.11075714230537415,0.10897282510995865,-0.0862768292427063
1789316391158590500,3.719590576171875,0.21058999001979828,0.28835031390190125,-0.14242585003376007
1789316391168623400,3.729623291015625,0.2629203200340271,0.3767866790294647,-0.08901109546422958
1789316391178656500,3.739656494140625,0.21895897388458252,0.503670334815979,0.03544986993074417
1789316391188689400,3.749689453125,0.11053769290447235,0.6398763656616211,0.17895962297916412
1789316391198722600,3.75972265625,-0.045462291687726974,0.6422146558761597,0.26278290152549744
1789316391208755500,3.76975537109375,-0.22044715285301208,0.46591416001319885,0.22291935980319977
1789316391218788400,3.779788330078125,-0.3326312005519867,0.30009695887565613,0.07467184215784073
1789316391228822500,3.789822509765625,-0.31665465235710144,0.1924767643213272,-0.10634507983922958
1789316391238855700,3.799855712890625,-0.23467962443828583,0.0663747638463974,-0.2346963882446289
1789316391248888600,3.809888671875,-0.14955247938632965,-0.1453859508037567,-0.29963570833206177
1789316391258921500,3.81992138671875,-0.10290587693452835,-0.4094836413860321,-0.2994016110897064
1789316391268954600,3.82995458984375,-0.11517612636089325,-0.5879849791526794,-0.25448793172836304
1789316391278987500,3.839987548828125,-0.19367492198944092,-0.6700204610824585,-0.17312091588974
1789316391289020400,3.8500205078125,-0.2965832054615021,-0.48052534461021423,-0.08223255723714828
1789316391299053300,3.86005322265625,-0.43426889181137085,-0.24742071330547333,-0.002560895634815097
1789316391309087500,3.87008740234375,-0.5659688711166382,0.14115871489048004,0.04103265330195427
1789316391319120400,3.880120361328125,-0.6764585971832275,0.6675348877906799,0.12935718894004822
1789316391329153500,3.890153564453125,-0.7809083461761475,1.1118582487106323,0.24095162749290466
1789316391339186400,3.9001865234375,-0.8093340992927551,1.4842177629470825,0.2253367155790329
1789316391349219600,3.910219482421875,-0.8231098651885986,1.8411880731582642,0.039975378662347794
1789316391359252500,3.92025244140625,-0.8244369029998779,2.1255784034729004,-0.24142833054065704
1789316391369285600,3.93028564453125,-0.8038791418075562,2.278475761413574,-0.526600182056427
1789316391379318500,3.940318603515625,-0.7353203296661377,2.3224034309387207,-0.786024808883667
1789316391389352400,3.9503525390625,-0.5972838997840881,2.335399627685547,-0.9468408226966858
1789316391399385300,3.96038525390625,-0.47416597604751587,2.3178560733795166,-0.9723784327507019
1789316391409418500,3.97041845703125,-0.4548191726207733,2.185178518295288,-0.9553616046905518
1789316391419451400,3.980451416015625,-0.5291746258735657,1.9330698251724243,-0.9210662245750427
1789316391429484500,3.990484619140625,-0.5801909565925598,1.6033436059951782,-0.8894566297531128
1789316391439517400,4.000517333984375,-0.5054588913917542,1.3416723012924194,-0.8848301768302917
1789316391449550300,4.01055029296875,-0.2946130037307739,1.0651075839996338,-0.8834011554718018
1789316391459583500,4.02058349609375,0.009021191857755184,0.6888798475265503,-0.8044682741165161
1789316391469617700,4.03061767578125,0.33266744017601013,0.3176219165325165,-0.6811617612838745
1789316391479650600,4.040650634765625,0.62508624792099,-0.0013590110465884209,-0.553278923034668
1789316391489683500,4.050683349609375,0.8242656588554382,-0.3217910826206207,-0.4515205919742584
1789316391499716600,4.060716552734375,0.8639177083969116,-0.6294940710067749,-0.4328608810901642
1789316391509749500,4.07074951171875,0.7794750332832336,-0.6562460064888,-0.5681334733963013
1789316391519782700,4.08078271484375,0.7301998734474182,-0.5773680210113525,-0.8008831143379211
1789316391529815600,4.090815673828125,0.6916335821151733,-0.4767923951148987,-0.9903510212898254
1789316391539849000,4.100848876953125,0.6087879538536072,-0.4434778392314911,-1.093854308128357
1789316391549883100,4.110883056640625,0.5274091958999634,-0.6386196613311768,-1.160561442375183
1789316391559916000,4.120916015625,0.580026388168335,-1.294024109840393,-1.2267407178878784
1789316391569949200,4.13094921875,0.7992290258407593,-2.1740520000457764,-1.2611439228057861
1789316391579982000,4.140982177734375,1.1174354553222656,-2.878467082977295,-1.2409696578979492
1789316391590015000,4.151014892578125,1.4029239416122437,-3.178494691848755,-1.1146247386932373
1789316391600048000,4.161048095703125,1.5366569757461548,-3.100234270095825,-0.8873194456100464
1789316391610081000,4.1710810546875,1.491516351699829,-2.8993656635284424,-0.6056992411613464
1789316391620114200,4.1811142578125,1.3177152872085571,-2.912493944168091,-0.34248119592666626
1789316391630147800,4.19114794921875,1.1110724210739136,-3.1158435344696045,-0.16654370725154877
1789316391640181000,4.201180908203125,0.8835774660110474,-3.1731598377227783,-0.2125018835067749
1789316391650214000,4.2112138671875,0.7415353655815125,-3.0903172492980957,-0.4333154857158661
1789316391660247000,4.2212470703125,0.7011831402778625,-2.7471907138824463,-0.5903700590133667
1789316391670280000,4.231280029296875,0.7079755663871765,-2.2231829166412354,-0.5437809824943542
1789316391680313000,4.24131298828125,0.7124581933021545,-1.6676656007766724,-0.40750786662101746
1789316391690346000,4.251345947265625,0.6927978992462158,-1.2767691612243652,-0.2978511154651642
1789316391700379100,4.261379150390625,0.7069334387779236,-1.081531047821045,-0.26151683926582336
1789316391710413000,4.2714130859375,0.7553440928459167,-1.0731908082962036,-0.29982826113700867
1789316391720446200,4.2814462890625,0.9088287353515625,-1.4206278324127197,-0.383035272359848
1789316391730479000,4.29147900390625,1.1034510135650635,-1.928460955619812,-0.40316370129585266
1789316391740512300,4.30151220703125,1.2631529569625854,-2.329920530319214,-0.2877518832683563
1789316391750545200,4.311545166015625,1.3474655151367188,-2.3470938205718994,-0.020486099645495415
1789316391760578000,4.321578125,1.3692842721939087,-2.0057196617126465,0.2737455368041992
1789316391770611000,4.33161083984375,1.294181227684021,-1.4174573421478271,0.4948028028011322
1789316391780643800,4.341643798828125,1.1082617044448853,-0.8759677410125732,0.5908883213996887
1789316391790678000,4.351677978515625,0.9034004211425781,-0.539527952671051,0.48146650195121765
1789316391800711200,4.361711181640625,0.8005214333534241,-0.5283131003379822,0.19844917953014374
1789316391810744000,4.371744140625,0.8223260641098022,-0.8573431968688965,-0.1112828478217125
1789316391820777000,4.38177685546875,0.9210249781608582,-1.2885832786560059,-0.3793363869190216
1789316391830810000,4.39181005859375,1.0461453199386597,-1.5386215448379517,-0.5462241768836975
1789316391840843000,4.401843017578125,1.1213996410369873,-1.5429936647415161,-0.5390429496765137
1789316391850876200,4.411876220703125,1.111490249633789,-1.2708109617233276,-0.30825236439704895
1789316391860909000,4.421908935546875,0.9567142724990845,-0.8340370655059814,0.08960791677236557
1789316391870943000,4.43194287109375,0.6696659922599792,-0.34365564584732056,0.48221272230148315
1789316391880976000,4.441975830078125,0.35214313864707947,-0.000391218374716118,0.639140784740448
1789316391891009000,4.452009033203125,0.13617567718029022,0.1913156360387802,0.4757595956325531
1789316391901042000,4.4620419921875,0.08667764067649841,0.20660030841827393,0.16565313935279846
1789316391911075000,4.472074951171875,0.25720810890197754,0.19770215451717377,-0.08434630930423737
1789316391921108000,4.48210791015625,0.564723551273346,0.013039901852607727,-0.1538313776254654
1789316391931141000,4.49214111328125,0.8504634499549866,-0.1504182666540146,-0.03284849226474762
1789316391941174000,4.502174072265625,0.8837420344352722,-0.11203199625015259,0.09781284630298615
1789316391951208200,4.512208251953125,0.6935374736785889,0.07033941149711609,0.09470520168542862
1789316391961241000,4.522240966796875,0.38833150267601013,0.3612394332885742,0.02696317434310913
1789316391971274200,4.532274169921875,0.08939459174871445,0.6662738919258118,0.02365499548614025
1789316391981307100,4.54230712890625,-0.072532519698143,0.7886738181114197,0.09696169942617416
1789316391991340300,4.55234033203125,-0.08696099370718002,0.7807456254959106,0.20070460438728333
1789316392001373000,4.562373046875,0.01846795715391636,0.6008552312850952,0.25829413533210754
1789316392011405800,4.57240576171875,0.1488794982433319,0.49101072549819946,0.21895098686218262
1789316392021439000,4.58243896484375,0.18942825496196747,0.5743229389190674,0.15591582655906677
1789316392031473200,4.59247314453125,0.10482388734817505,0.8077157139778137,0.1570090502500534
1789316392041506000,4.602506103515625,-0.009396697394549847,1.1103932857513428,0.2803320586681366
1789316392051539000,4.6125390625,-0.11517905443906784,1.3349699974060059,0.5215244293212891
1789316392061572000,4.622572021484375,-0.24940210580825806,1.6036114692687988,0.7446163892745972
1789316392071605000,4.63260498046875,-0.44847846031188965,2.0042359828948975,0.8125994205474854
1789316392081638100,4.64263818359375,-0.6233162879943848,2.538498878479004,0.7640422582626343
1789316392091671000,4.652671142578125,-0.803670346736908,3.0436019897460938,0.723254382610321
1789316392101704200,4.6627041015625,-1.0131088495254517,3.375617027282715,0.7249494791030884
1789316392111737900,4.67273779296875,-1.2086268663406372,3.6245782375335693,0.6973990797996521
1789316392121771000,4.68277099609375,-1.3546557426452637,3.8414463996887207,0.5281253457069397
1789316392131804000,4.692803955078125,-1.474610447883606,3.9979043006896973,0.20739713311195374
1789316392141837000,4.702837158203125,-1.60403311252594,4.059983253479004,-0.04848284646868706
1789316392151870000,4.712869873046875,-1.759878396987915,4.231332778930664,-0.15153811872005463
1789316392161903000,4.722903076171875,-1.9373700618743896,4.618112087249756,-0.08741213381290436
1789316392171936000,4.73293603515625,-2.209716320037842,5.013935089111328,0.0820424035191536
1789316392181969000,4.742968994140625,-2.5250802040100098,5.294527530670166,0.2253550887107849
1789316392192003000,4.753003173828125,-2.970078706741333,5.73699426651001,0.24475115537643433
1789316392202036200,4.7630361328125,-2.864156484603882,5.940467357635498,0.1716441959142685
1789316392212069000,4.773069091796875,-2.266014814376831,6.187997341156006,-0.0006828344776295125
1789316392222102000,4.78310205078125,-1.5609148740768433,6.20322322845459,-0.27297401428222656
1789316392232135200,4.79313525390625,-0.9148672223091125,5.696649551391602,-0.680150032043457
1789316392242168000,4.80316796875,-0.30249276757240295,4.857713222503662,-1.2303580045700073
1789316392252201000,4.813200927734375,0.30062136054039,4.228244781494141,-1.8320611715316772
1789316392262233900,4.82323388671875,0.915357232093811,4.29184103012085,-2.408799171447754
1789316392272268000,4.83326806640625,1.4317816495895386,4.463061332702637,-2.819511890411377
1789316392282301000,4.843301025390625,1.8744145631790161,4.621107578277588,-3.0732665061950684
1789316392292334000,4.853333984375,2.215127468109131,4.8866496086120605,-3.3099589347839355
1789316392302367000,4.863366943359375,2.3161282539367676,4.9240899085998535,-3.534083127975464
1789316392312400100,4.873400146484375,2.173964500427246,5.098615646362305,-3.6869280338287354
1789316392322433000,4.88343310546875,1.8703683614730835,5.35398006439209,-3.789691686630249
1789316392332466200,4.893466064453125,1.4001164436340332,5.701056957244873,-3.8514597415924072
1789316392342499000,4.9034990234375,0.6722372770309448,6.083522796630859,-3.831132173538208
1789316392352533000,4.913532958984375,-0.09128570556640625,6.432278633117676,-3.814913272857666
1789316392362566000,4.92356591796875,-0.5026940107345581,6.354516506195068,-3.9594435691833496
1789316392372599000,4.93359912109375,-0.6072441339492798,6.321425437927246,-4.027356147766113
1789316392382632000,4.9436318359375,-0.6450958847999573,6.432829856872559,-3.89809250831604
1789316392392665000,4.9536650390625,-0.6435576677322388,6.162097930908203,-3.6560251712799072
1789316392402698000,4.963697998046875,-0.532444179058075,5.702526569366455,-3.4147772789001465
1789316392412731000,4.97373095703125,-0.448675274848938,4.989934921264648,-3.267444372177124
1789316392422764000,4.983763916015625,-0.4622539281845093,4.1476945877075195,-3.322693347930908
1789316392432798200,4.993798095703125,-0.513155460357666,3.4416890144348145,-3.920870065689087
1789316392442831000,5.0038310546875,-0.8931192755699158,2.5052127838134766,-4.545227527618408
1789316392452864000,5.013864013671875,-1.4133813381195068,2.135624647140503,-5.11504602432251
1789316392462897200,5.023897216796875,-1.8238162994384766,2.400285243988037,-5.525102138519287
1789316392472930000,5.033929931640625,-1.9704363346099854,2.9683380126953125,-5.730116844177246
1789316392482963200,5.043963134765625,-1.9418500661849976,3.6512997150421143,-5.788462162017822
1789316392492996000,5.05399609375,-1.9341766834259033,2.9765634536743164,-5.342472553253174
1789316392503029000,5.064029052734375,-1.7896373271942139,2.0488500595092773,-4.200589179992676
1789316392513062000,5.074061767578125,-1.3893189430236816,2.0564093589782715,-3.098374366760254
1789316392523096000,5.084095947265625,-1.2817379236221313,1.8920079469680786,-2.7293965816497803
1789316392533129000,5.09412890625,-1.3406651020050049,1.5049076080322266,-2.8737871646881104
1789316392543161900,5.104161865234375,-1.3762580156326294,1.4976017475128174,-2.8693552017211914
1789316392553194800,5.11419482421875,-1.505326747894287,1.463940143585205,-2.7520651817321777
1789316392563227600,5.1242275390625,-1.7685993909835815,1.3807542324066162,-2.892134428024292
1789316392573260800,5.1342607421875,-2.041922092437744,1.4217729568481445,-3.257070541381836
1789316392583293700,5.144293701171875,-2.1928653717041016,1.5062721967697144,-3.579421043395996
1789316392593326800,5.154326904296875,-2.1556222438812256,1.5875585079193115,-3.695200204849243
1789316392603360800,5.16436083984375,-2.0428125858306885,1.515551209449768,-3.6404225826263428
1789316392613393700,5.1743935546875,-1.9178352355957031,1.4101557731628418,-3.4800233840942383
1789316392623426600,5.184426513671875,-1.844976782798767,1.2449697256088257,-3.2379283905029297
1789316392633459700,5.194459716796875,-1.9295645952224731,0.9559158086776733,-2.938570737838745
1789316392643492600,5.20449267578125,-2.1601693630218506,0.9365447759628296,-2.59608793258667
1789316392653525800,5.21452587890625,-2.349921703338623,0.8495161533355713,-2.3326306343078613
1789316392663558700,5.22455859375,-2.2870593070983887,0.6574801206588745,-2.1447274684906006
1789316392673591800,5.234591796875,-2.227813482284546,0.6201007962226868,-1.9710161685943604
1789316392683625700,5.244625732421875,-2.0948920249938965,0.6467697024345398,-1.8961983919143677
1789316392693659000,5.254658935546875,-1.7565702199935913,0.6783990263938904,-1.8000292778015137
1789316392703691800,5.26469189453125,-1.735299825668335,0.6481159329414368,-1.6905725002288818
1789316392713725000,5.274724853515625,-1.9649486541748047,0.4786675274372101,-1.637792944908142
1789316392723757800,5.2847578125,-1.9880188703536987,0.1322443187236786,-1.5121550559997559
1789316392733790700,5.294790771484375,-1.7330797910690308,-0.1337636560201645,-1.3714853525161743
1789316392743824000,5.304823974609375,-1.3808207511901855,-0.1255776286125183,-1.2299708127975464
1789316392753856800,5.314856689453125,-1.1753416061401367,0.0828874260187149,-1.1217907667160034
1789316392763890700,5.324890625,-1.0042284727096558,0.11507438868284225,-1.0466371774673462
1789316392773923600,5.334923583984375,-0.8314926624298096,0.050759848207235336,-0.8943608403205872
1789316392783956700,5.344956787109375,-0.8919179439544678,-0.014955513179302216,-0.6651442050933838
1789316392793989600,5.35498974609375,-1.0297026634216309,-0.14775536954402924,-0.3410167098045349
1789316392804022800,5.365022705078125,-1.2346500158309937,-0.42805466055870056,-0.05885426327586174
1789316392814055700,5.3750556640625,-1.3943767547607422,-0.8803763389587402,0.11027856916189194
1789316392824088800,5.3850888671875,-1.4954347610473633,-1.244726538658142,0.20940008759498596
1789316392834121700,5.395121826171875,-1.5823323726654053,-1.5855432748794556,0.273502379655838
1789316392844156000,5.405156005859375,-1.6532951593399048,-1.5861622095108032,0.320427268743515
1789316392854188800,5.415188720703125,-1.9587671756744385,-1.3509308099746704,0.38593146204948425
1789316392864221700,5.4252216796875,-2.0797176361083984,-0.8823587894439697,0.42747411131858826
1789316392874254600,5.435254638671875,-2.3864634037017822,-0.9661322236061096,0.31227347254753113
1789316392884287700,5.445287841796875,-3.1298840045928955,-1.4913957118988037,0.11673007905483246
1789316392894320600,5.455320556640625,-2.4542360305786133,-1.8732671737670898,-0.03771249204874039
1789316392904353800,5.465353759765625,-2.7410054206848145,-2.4494004249572754,0.1390598863363266
1789316392914386700,5.47538671875,-2.97287917137146,-2.393981456756592,-0.14914873242378235
1789316392924420900,5.4854208984375,-2.9908740520477295,-1.5591793060302734,-0.15674221515655518
1789316392934453800,5.495453857421875,-2.3496057987213135,-1.8535540103912354,-0.15825621783733368
1789316392944487000,5.50548681640625,-1.2500391006469727,-1.1983615159988403,-0.32739678025245667
1789316392954519800,5.515519775390625,-0.4971458613872528,-0.19842307269573212,-0.26242122054100037
1789316392964552700,5.525552734375,0.40032345056533813,-0.2800968885421753,-0.4295252561569214
1789316392974585900,5.5355859375,0.9484353065490723,-0.21484147012233734,-0.8023654222488403
1789316392984618800,5.54561865234375,0.4294014275074005,0.28975459933280945,-0.46121394634246826
1789316392994652000,5.55565185546875,-0.4235680401325226,-0.214457169175148,0.004472246393561363
1789316393004685600,5.565685546875,-1.11769437789917,-1.0910166501998901,0.04602315276861191
1789316393014718700,5.57571875,-1.513081669807434,-1.969616413116455,0.058818574994802475
1789316393024751600,5.585751708984375,-1.696526288986206,-2.2264418601989746,0.08220405876636505
1789316393034784800,5.59578466796875,-1.7698193788528442,-1.9338974952697754,0.18632593750953674
1789316393044817700,5.605817626953125,-1.7474195957183838,-1.4318264722824097,0.4361022114753723
1789316393054850800,5.615850830078125,-1.6450966596603394,-0.9487500786781311,0.6757936477661133
1789316393064883700,5.6258837890625,-1.6550276279449463,-0.5456481575965881,0.8427016735076904
1789316393074916900,5.635916748046875,-1.8741703033447266,-0.3748537600040436,0.8874728679656982
1789316393084949800,5.64594970703125,-2.1692798137664795,-0.4034457206726074,0.6644048690795898
1789316393094984000,5.65598388671875,-2.454360246658325,-0.6072441339492798,0.32934755086898804
1789316393105016800,5.666016845703125,-2.478609800338745,-0.23763465881347656,0.04615551233291626
1789316393115049700,5.6760498046875,-2.3189682960510254,0.26991909742355347,0.13495275378227234
1789316393125082600,5.68608251953125,-2.131307363510132,0.489848792552948,0.2741546034812927
1789316393135115800,5.69611572265625,-1.9646631479263306,0.528245210647583,0.2777477204799652
1789316393145148700,5.706148681640625,-1.7671480178833008,0.40495893359184265,0.3734161853790283
1789316393155181600,5.716181640625,-1.5754810571670532,0.6190003752708435,0.7911324501037598
1789316393165214700,5.726214599609375,-1.5965945720672607,0.41750481724739075,0.8049069046974182
1789316393175249000,5.736248779296875,-1.605150580406189,-0.17996923625469208,0.493133008480072
1789316393185281800,5.74628173828125,-1.808313250541687,-0.5459386706352234,0.4098050892353058
1789316393195314700,5.756314697265625,-1.8774303197860718,-0.46501296758651733,0.5169224739074707
1789316393205347800,5.766347900390625,-1.7516028881072998,-0.22531966865062714,0.5383571982383728
1789316393215380700,5.776380615234375,-1.74361252784729,0.28252145648002625,0.43930280208587646
1789316393225414000,5.786413818359375,-1.6566896438598633,0.2972884178161621,0.11202587187290192
1789316393235446800,5.79644677734375,-1.444437026977539,0.06321439146995544,-0.10422733426094055
1789316393245480000,5.80647998046875,-1.2702831029891968,-0.23621173202991486,-0.3173380196094513
1789316393255513600,5.816513671875,-1.166939616203308,-0.11914823204278946,-0.3803313672542572
1789316393265546800,5.826546630859375,-1.0425362586975098,-0.013857758603990078,-0.17038078606128693
1789316393275579600,5.83657958984375,-0.9006052017211914,-0.0222131609916687,-0.046242330223321915
1789316393285612800,5.84661279296875,-0.7570855617523193,-0.07807349413633347,0.05188583582639694
1789316393295645700,5.856645751953125,-0.7082527875900269,-0.24161741137504578,0.2115521878004074
1789316393305678800,5.866678955078125,-0.6813098192214966,-0.2921690046787262,0.3810397684574127
1789316393315711700,5.876711669921875,-0.6140245199203491,-0.34345242381095886,0.42768794298171997
1789316393325745000,5.886744873046875,-0.5976671576499939,-0.4628922939300537,0.529215395450592
1789316393335778800,5.89677880859375,-0.692630410194397,-0.2907780408859253,0.4019556939601898
1789316393345812000,5.90681201171875,-0.7147026658058167,0.0631648525595665,-0.02659832127392292
1789316393355844900,5.916844970703125,-0.5675966143608093,0.057378869503736496,-0.15746019780635834
1789316393365877800,5.926877685546875,-0.6450426578521729,-0.025472071021795273,-0.12967516481876373
1789316393375910700,5.93691064453125,-0.6911129355430603,-0.18213677406311035,0.039200399070978165
1789316393385943600,5.946943603515625,-0.8076328635215759,-0.6860217452049255,0.47105488181114197
1789316393395976700,5.956976806640625,-1.196984052658081,-1.0979480743408203,1.019977331161499
1789316393406009600,5.967009521484375,-1.3844672441482544,-1.2251806259155273,1.4230399131774902
1789316393416043800,5.977043701171875,-1.363520860671997,-0.6604162454605103,1.0275580883026123
1789316393426076700,5.98707666015625,-0.9233325719833374,-0.3183335065841675,0.26145797967910767
1789316393436109800,5.99710986328125,-0.5110819339752197,-0.23818247020244598,-0.4147529900074005
1789316393446142700,6.007142822265625,-0.35254180431365967,0.07645189762115479,-0.7390974760055542
1789316393456175900,6.01717578125,-0.16500093042850494,0.5636167526245117,-0.7458443641662598
1789316393466208800,6.027208740234375,0.13521960377693176,1.1027121543884277,-0.9693024754524231
1789316393476242000,6.037241943359375,0.40369075536727905,1.0989584922790527,-1.3924124240875244
1789316393486274800,6.04727490234375,0.35881727933883667,1.4093106985092163,-1.8985837697982788
1789316393496308700,6.057308837890625,0.01967809721827507,2.0094072818756104,-2.236069917678833
1789316393506341600,6.067341552734375,-0.41850778460502625,1.9773478507995605,-2.3794608116149902
1789316393516374800,6.077374755859375,-0.6613609194755554,1.6580784320831299,-2.203648090362549
1789316393526407700,6.08740771484375,-0.6734042167663574,0.9926610589027405,-1.6584960222244263
1789316393536441300,6.09744140625,-0.5937371253967285,0.797002375125885,-0.7293692231178284
1789316393546474200,6.10747412109375,-0.8048733472824097,0.7242152094841003,0.0756598711013794
1789316393556507400,6.11750732421875,-0.8533417582511902,1.0165961980819702,0.8027982115745544
1789316393566540300,6.127540283203125,-0.7252669334411621,0.5203598141670227,1.0243638753890991
1789316393576573200,6.1375732421875,-0.6093754768371582,0.005818474106490612,1.1284422874450684
1789316393586607000,6.147607177734375,-0.7254237532615662,-0.07273545861244202,1.2675511837005615
1789316393596640300,6.15764013671875,-0.9624147415161133,-0.13260199129581451,1.4035892486572266
1789316393606673200,6.167673095703125,-1.1890292167663574,-0.24071167409420013,1.7130050659179688
1789316393616706000,6.1777060546875,-1.3629837036132812,-0.33166688680648804,1.9319571256637573
1789316393626739200,6.1877392578125,-1.4923579692840576,-0.3723282814025879,1.8562443256378174
1789316393636772000,6.197772216796875,-1.5018569231033325,-0.6844843029975891,1.6562989950180054
1789316393646805200,6.20780517578125,-1.376820683479309,-1.2789716720581055,1.4984177350997925
1789316393656839400,6.21783935546875,-0.9402870535850525,-3.0193443298339844,0.820922315120697
1789316393666872300,6.227872314453125,-0.9892095923423767,-5.571681976318359,-0.16140061616897583
1789316393676905200,6.2379052734375,-0.9826576709747314,-5.820339679718018,-0.7408059239387512
1789316393686938400,6.2479384765625,-0.25528421998023987,-6.078479766845703,-1.1195439100265503
1789316393696971300,6.25797119140625,1.363306999206543,-5.844180107116699,-0.9022411704063416
1789316393707004400,6.26800439453125,2.359590530395508,-5.1519951820373535,-0.2960132956504822
1789316393717037300,6.278037353515625,2.483916759490967,-3.7025654315948486,0.10135884582996368
1789316393727070200,6.2880703125,2.031599760055542,-2.8851890563964844,0.1737627387046814
1789316393737103000,6.29810302734375,1.1962021589279175,-1.5522103309631348,-0.11591914296150208
1789316393747137300,6.30813720703125,0.7558628916740417,-0.668418824672699,0.058220431208610535
1789316393757170200,6.318170166015625,0.7560541033744812,-0.43694910407066345,0.21369284391403198
1789316393767203300,6.328203369140625,0.8203446865081787,-0.5637749433517456,0.21250666677951813
1789316393777236200,6.338236328125,0.794987142086029,-0.5971001386642456,0.29816192388534546
1789316393787269400,6.348269287109375,0.5499861836433411,-0.5586185455322266,-0.03440937399864197
1789316393797302300,6.35830224609375,0.08999034017324448,-0.5286137461662292,-0.30031508207321167
1789316393807335200,6.368335205078125,-0.32637277245521545,-0.3104497492313385,-0.3401421308517456
1789316393817368300,6.378368408203125,-0.43140465021133423,-0.34263724088668823,-0.5182021260261536
1789316393827402200,6.38840234375,-0.22823183238506317,-0.4448634684085846,-0.5576890707015991
1789316393837435100,6.39843505859375,-0.04488039016723633,-0.38158944249153137,-0.0253362488001585
1789316393847468000,6.408468017578125,-0.011064369231462479,-0.5492175817489624,0.35070422291755676
1789316393857501200,6.418501220703125,0.06458006054162979,-1.0445493459701538,0.35048532485961914
1789316393867534000,6.4285341796875,0.06817452609539032,-1.372868537902832,0.48840057849884033
1789316393877567200,6.438567138671875,0.0743328183889389,-1.011362075805664,0.8715540766716003
1789316393887600000,6.44860009765625,0.13803483545780182,-0.36214035749435425,1.0569475889205933
1789316393897633300,6.45863330078125,0.33454737067222595,-0.13592560589313507,0.979329526424408
1789316393907667200,6.468667236328125,0.6428971886634827,0.19854238629341125,0.950110137462616
1789316393917700400,6.478700439453125,0.6825687289237976,0.5679140090942383,0.7659477591514587
1789316393927733200,6.488733154296875,0.5011028051376343,0.5953171849250793,0.6550779938697815
1789316393937766400,6.498766357421875,0.37334081530570984,0.4498060345649719,0.72923344373703
1789316393947799300,6.50879931640625,0.32561591267585754,0.46965405344963074,0.912379801273346
1789316393957832400,6.51883251953125,0.33450475335121155,0.6446399688720703,0.871944785118103
1789316393967865300,6.528865234375,0.42021751403808594,0.6221951246261597,0.7970820069313049
1789316393977898200,6.538898193359375,0.4381682872772217,0.5390909314155579,0.9116868376731873
1789316393987932200,6.54893212890625,0.41574448347091675,0.536777675151825,1.1142231225967407
1789316393997965300,6.55896533203125,0.32179322838783264,0.525868833065033,1.190490484237671
1789316394007998200,6.568998291015625,0.3174261748790741,0.2093217968940735,1.1392089128494263
1789316394018031400,6.57903125,0.3746825158596039,-0.10870064795017242,0.8776172995567322
1789316394028064300,6.589064208984375,0.36763712763786316,-0.47183865308761597,0.6030731201171875
1789316394038097200,6.59909716796875,0.2598526179790497,-0.5255479216575623,0.6186683177947998
1789316394048130300,6.60913037109375,0.2087862342596054,-0.07019932568073273,0.6069501042366028
1789316394058163200,6.6191630859375,0.16940633952617645,0.31238266825675964,0.5283658504486084
1789316394068197400,6.629197265625,0.22524164617061615,0.5738848447799683,0.420545369386673
1789316394078230000,6.63922998046875,0.338320255279541,0.7247704863548279,0.34936171770095825
1789316394088263200,6.64926318359375,0.34981659054756165,0.9720010757446289,-0.015305719338357449
1789316394098296000,6.659296142578125,0.3508903682231903,0.9806166291236877,-0.7912350296974182
1789316394108329200,6.6693291015625,0.62911456823349,1.008980631828308,-0.908041775226593
1789316394118362000,6.679362060546875,0.7256818413734436,0.9431478381156921,-0.5327821373939514
1789316394128395300,6.689395263671875,0.8548323512077332,1.2458075284957886,-0.2846274673938751
1789316394138428200,6.69942822265625,1.1583988666534424,1.4034640789031982,-0.13408057391643524
1789316394148462300,6.70946240234375,1.6602097749710083,2.1847407817840576,0.10747080296278
1789316394158495200,6.7194951171875,2.1422369480133057,3.3989012241363525,0.03696494176983833
1789316394168528400,6.7295283203125,2.298322916030884,4.003673553466797,0.009642506949603558
1789316394178561300,6.739561279296875,1.2504457235336304,4.025922775268555,0.2242743819952011
1789316394188594400,6.749594482421875,-0.2427641749382019,3.722867727279663,0.6752625703811646
1789316394198627300,6.75962744140625,-0.79679274559021,3.6658096313476562,0.9617231488227844
1789316394208660500,6.769660400390625,-0.7979605793952942,3.331702709197998,1.0674344301223755
1789316394218693400,6.779693359375,-0.6832622289657593,2.8064935207366943,0.8320093154907227
1789316394228727300,6.789727294921875,-0.5819891095161438,1.9315446615219116,0.3927725851535797
1789316394238760200,6.79976025390625,-0.46745559573173523,1.8074901103973389,-0.1149502843618393
1789316394248793300,6.80979345703125,-0.3280673623085022,2.283445119857788,-0.23704956471920013
1789316394258826200,6.819826171875,0.0525209978222847,1.8145474195480347,0.15916435420513153
1789316394268859100,6.829859130859375,0.3786351978778839,1.3960574865341187,0.4655844569206238
1789316394278892300,6.839892333984375,0.4438386857509613,1.1619670391082764,0.28409722447395325
1789316394288925200,6.84992529296875,0.6651625633239746,0.8095825910568237,-0.07956619560718536
1789316394298958300,6.859958251953125,0.7858367562294006,0.6391951441764832,-0.29189762473106384
1789316394308992300,6.8699921875,0.7519861459732056,0.5751397013664246,-0.2206878960132599
1789316394319025200,6.880025146484375,0.5944761633872986,0.4363666772842407,-0.19093000888824463
1789316394329058000,6.89005810546875,0.24952886998653412,0.21167708933353424,-0.2663603127002716
1789316394339091200,6.90009130859375,-0.09681176394224167,0.1148538812994957,-0.3476802110671997
1789316394349124000,6.9101240234375,-0.3376379609107971,0.05534953996539116,-0.32243478298187256
1789316394359157200,6.9201572265625,-0.3905413746833801,-0.0020791299175471067,-0.26123106479644775
1789316394369190100,6.930190185546875,-0.21586865186691284,-0.01528707705438137,-0.17209453880786896
1789316394379223300,6.940223388671875,-0.14575746655464172,-0.08795621991157532,-0.09207107126712799
1789316394389257200,6.95025732421875,-0.15644580125808716,-0.1578703224658966,0.032289762049913406
1789316394399290400,6.960290283203125,-0.269808828830719,-0.3178810179233551,0.17220905423164368
1789316394409323300,6.9703232421875,-0.38366296887397766,-0.43326354026794434,0.18132585287094116
1789316394419356400,6.9803564453125,-0.5022479295730591,-0.27825477719306946,0.08309142291545868
1789316394429389300,6.990389404296875,-0.5826125741004944,0.008097607642412186,-0.038058701902627945
1789316394439422500,7.00042236328125,-0.5301373600959778,0.12784184515476227,-0.16103442013263702
1789316394449455400,7.010455322265625,-0.34841683506965637,0.6461606621742249,-0.2548152506351471
1789316394459488300,7.02048828125,-0.11760439723730087,1.3980969190597534,-0.1366041898727417
1789316394469522200,7.030522216796875,0.24763429164886475,1.6861578226089478,0.1441904604434967
1789316394479555300,7.040555419921875,0.4777660369873047,2.000561237335205,0.18414214253425598
1789316394489588200,7.050588134765625,0.5336508750915527,1.5833795070648193,0.13725878298282623
1789316394499621000,7.06062109375,0.46805429458618164,1.1778980493545532,0.016569655388593674
1789316394509654300,7.070654296875,0.39000022411346436,0.8338391780853271,-0.09289185702800751
1789316394519687200,7.080687255859375,0.30000296235084534,0.5286489129066467,-0.09868422895669937
1789316394529720300,7.09072021484375,0.21441508829593658,0.45277759432792664,-0.058692608028650284
1789316394539752700,7.100752685546875,0.11856739223003387,0.44973012804985046,0.05880206450819969
1789316394549787000,7.110786865234375,-0.028479311615228653,0.5127248167991638,0.25114619731903076
1789316394559819800,7.12081982421875,-0.13922393321990967,0.26776647567749023,0.3603009283542633
1789316394569853000,7.13085302734375,-0.29103076457977295,-0.14301654696464539,0.4099467694759369
1789316394579885800,7.1408857421875,-0.5215939283370972,-0.5520589351654053,0.4448416531085968
1789316394589919000,7.1509189453125,-0.6643223166465759,-0.6875293850898743,0.415168434381485
1789316394599952000,7.160951904296875,-0.5141631960868835,-0.5442116260528564,0.24659647047519684
1789316394609984800,7.17098486328125,-0.10420576483011246,-0.09814920276403427,0.019246932119131088
1789316394620017700,7.181017578125,0.13033883273601532,0.48232030868530273,-0.080723337829113
1789316394630051800,7.1910517578125,0.25635695457458496,0.6977940201759338,-0.2395460158586502
1789316394640084700,7.201084716796875,0.2714354991912842,0.49026691913604736,-0.5935645699501038
1789316394650118000,7.211117919921875,0.28140291571617126,0.356294721364975,-0.7542988061904907
1789316394660150800,7.22115087890625,0.2169213891029358,0.41917890310287476,-0.796189546585083
1789316394670184000,7.231183837890625,0.0910143256187439,0.5067529678344727,-0.7608155608177185
1789316394680216800,7.241216796875,0.03358032926917076,0.50419020652771,-0.7170369625091553
1789316394690249700,7.251249755859375,-0.012469719164073467,0.328567773103714,-0.6396198868751526
1789316394700283000,7.261282958984375,-0.028897162526845932,0.17271025478839874,-0.5096882581710815
1789316394710315800,7.271315673828125,0.04483405128121376,0.16367095708847046,-0.39909467101097107
1789316394720349700,7.281349609375,0.059602078050374985,0.21575945615768433,-0.31832924485206604
1789316394730382600,7.291382568359375,0.044978126883506775,0.23533742129802704,-0.3729077875614166
1789316394740415700,7.301415771484375,-0.0078584561124444,0.3067639172077179,-0.4345647692680359
1789316394750448600,7.31144873046875,-0.021411549299955368,0.3111003637313843,-0.4438256323337555
1789316394760481800,7.321481689453125,0.04140789434313774,0.28731539845466614,-0.4045541286468506
1789316394770514700,7.3315146484375,0.12428013980388641,0.19218941032886505,-0.3297901451587677
1789316394780547800,7.3415478515625,0.15602901577949524,0.07141559571027756,-0.23787567019462585
1789316394790580700,7.351580810546875,0.11996661871671677,0.03141651302576065,-0.0913914293050766
1789316394800615000,7.361614990234375,0.023779364302754402,0.003430151380598545,0.029760291799902916
1789316394810647800,7.371647705078125,-0.10478846728801727,-0.08237530291080475,0.10986258834600449
1789316394820681000,7.381680908203125,-0.15883386135101318,-0.19210605323314667,0.14100691676139832
1789316394830713900,7.3917138671875,-0.15618374943733215,-0.29912304878234863,0.1581323742866516
1789316394840746800,7.401746826171875,-0.13463157415390015,-0.39657238125801086,0.16698738932609558
1789316394850779600,7.411779541015625,-0.12615340948104858,-0.5715223550796509,0.1700526922941208
1789316394860812800,7.421812744140625,-0.1700849086046219,-0.8641542196273804,0.146817147731781
1789316394870845700,7.431845703125,-0.22803263366222382,-0.9628925323486328,0.22876287996768951
1789316394880879900,7.4418798828125,-0.2787477374076843,-0.7870160341262817,0.46176230907440186
1789316394890912800,7.451912841796875,-0.3702579438686371,-0.6317217946052551,0.7025259137153625
1789316394900946000,7.46194580078125,-0.5774020552635193,-0.5960727334022522,0.7931905388832092
1789316394910978800,7.471978759765625,-0.6834270358085632,-0.7263563871383667,0.7777924537658691
1789316394921011700,7.48201171875,-0.8350567817687988,-0.912446141242981,0.794692873954773
1789316394931044900,7.492044921875,-1.1233881711959839,-0.8679710626602173,0.8302348852157593
1789316394941077800,7.502077880859375,-1.4458125829696655,-0.955791175365448,0.799765408039093
1789316394951111000,7.51211083984375,-1.7938283681869507,-1.091376781463623,0.6162536144256592
1789316394961144600,7.52214453125,-2.0827975273132324,-1.0071628093719482,0.42253580689430237
1789316394971177700,7.532177734375,-2.2495479583740234,-0.657885730266571,0.2960604131221771
1789316394981210600,7.542210693359375,-2.3593363761901855,0.3071780502796173,0.340893417596817
1789316394991243800,7.552243896484375,-2.4352970123291016,1.6184618473052979,0.5822597146034241
1789316395001276700,7.562276611328125,-2.3535258769989014,2.4331326484680176,0.9452064633369446
1789316395011309800,7.572309814453125,-2.2070534229278564,2.4926114082336426,1.2168300151824951
1789316395021342700,7.5823427734375,-1.9603440761566162,2.281071424484253,1.52073073387146
1789316395031376000,7.5923759765625,-1.7502171993255615,0.551557719707489,1.0407809019088745
1789316395041409800,7.602409912109375,-1.621977686882019,-0.03200480341911316,0.5149354934692383
1789316395051443000,7.61244287109375,-1.577868103981018,0.7441514134407043,0.42673295736312866
1789316395061475800,7.622475830078125,-1.5665488243103027,0.5155626535415649,0.2604624927043915
1789316395071509000,7.632509033203125,-1.6399415731430054,0.9018898606300354,0.17818358540534973
1789316395081542000,7.6425419921875,-1.8206892013549805,1.3117743730545044,0.002389654517173767
1789316395091574800,7.65257470703125,-2.0064802169799805,2.028517246246338,0.1680276244878769
1789316395101607700,7.662607666015625,-2.094543218612671,1.8094350099563599,0.5701111555099487
1789316395111640600,7.672640625,-2.0909790992736816,1.4064345359802246,0.6571584343910217
1789316395121674800,7.6826748046875,-2.0938382148742676,0.9057748913764954,0.687480628490448
1789316395131708000,7.6927080078125,-2.0797383785247803,0.28953033685684204,0.6009622812271118
1789316395141740800,7.70274072265625,-2.1154592037200928,-0.35431787371635437,0.46914592385292053
1789316395151773700,7.712773681640625,-2.118483066558838,-0.8241093158721924,0.42030060291290283
1789316395161806800,7.722806884765625,-2.0616610050201416,-1.1233022212982178,0.42754361033439636
1789316395171839700,7.73283984375,-1.9375356435775757,-1.1329907178878784,0.3631438612937927
1789316395181873000,7.742872802734375,-1.732782006263733,-1.244261384010315,0.3119158148765564
1789316395191905800,7.75290576171875,-1.5079231262207031,-1.3319368362426758,0.1230660080909729
1789316395201939700,7.762939697265625,-1.2183562517166138,-1.2018036842346191,-0.06475768983364105
1789316395211972600,7.77297265625,-0.9745569229125977,-1.0574376583099365,-0.25004899501800537
1789316395222005800,7.783005859375,-0.9078726768493652,-0.9623090028762817,-0.3375402092933655
1789316395232038700,7.79303857421875,-0.9656318426132202,-1.0030348300933838,-0.23220820724964142
1789316395242071800,7.80307177734375,-1.153102993965149,-1.031254529953003,0.1672489047050476
1789316395252104700,7.813104736328125,-1.3383198976516724,-0.6914855241775513,0.7916610836982727
1789316395262137900,7.823137939453125,-1.6532403230667114,-0.3280327320098877,1.3842592239379883
1789316395272170800,7.833170654296875,-1.441460371017456,0.3768620491027832,1.7434601783752441
1789316395282205000,7.843204833984375,-1.280661940574646,0.18774646520614624,2.42956805229187
1789316395292237800,7.85323779296875,-0.73231440782547,0.8303360939025879,2.923675537109375
1789316395302271000,7.86327099609375,-0.28179946541786194,1.1454743146896362,3.539555549621582
1789316395312303900,7.873303955078125,0.03593216836452484,1.9727141857147217,3.246581792831421
1789316395322337000,7.8833369140625,-0.38721829652786255,3.2459919452667236,1.343328595161438
1789316395332370000,7.893369873046875,-0.44167834520339966,0.9377131462097168,0.31202420592308044
1789316395342402800,7.90340283203125,-0.12231498956680298,-0.8208554983139038,-0.26552489399909973
1789316395352435700,7.913435791015625,0.03200054168701172,-1.1457339525222778,-0.45046544075012207
1789316395362470000,7.923469970703125,0.04385294020175934,-0.6783284544944763,-0.28965020179748535
1789316395372502800,7.933502685546875,0.060441773384809494,0.09281249344348907,0.06325460225343704
1789316395382535700,7.94353564453125,0.03686533868312836,1.0543782711029053,0.3658810555934906
1789316395392568800,7.95356884765625,0.05288105830550194,1.7179466485977173,0.5000649690628052
1789316395402601700,7.963601806640625,0.2780585289001465,1.8050559759140015,0.7606493830680847
1789316395412635000,7.973634765625,0.5276326537132263,1.6538081169128418,0.9201056361198425
1789316395422667800,7.983667724609375,0.6779252290725708,1.37882661819458,0.7236250638961792
1789316395432701000,7.993700927734375,0.7228759527206421,1.0814436674118042,0.3550150692462921
1789316395442734600,8.003734619140625,0.8076757788658142,1.3405189514160156,0.19825875759124756
1789316395452767700,8.013767822265624,0.9976028203964233,1.4053798913955688,0.4374556243419647
1789316395462800600,8.023800537109375,1.0133857727050781,0.8811792731285095,0.8437144756317139
1789316395472833800,8.033833740234375,0.687248945236206,0.5230951905250549,0.9792328476905823
1789316395482866700,8.04386669921875,0.2685784697532654,0.018094846978783607,0.8865476846694946
1789316395492899800,8.05389990234375,0.11824169009923935,-0.3907776176929474,0.7273196578025818
1789316395502932700,8.0639326171875,0.24108292162418365,-0.3807279169559479,0.4895912706851959
1789316395512965600,8.073965576171876,0.6128500699996948,-0.764954686164856,0.19660919904708862
1789316395522999800,8.083999755859375,1.0497517585754395,-1.0483168363571167,0.1523708999156952
1789316395533033000,8.094032958984375,1.3638074398040771,-1.005486011505127,0.1940869241952896
1789316395543065600,8.104065673828124,1.4098883867263794,-0.9676049947738647,0.08241923898458481
1789316395553098500,8.114098388671875,1.2868266105651855,-0.8987135291099548,-0.04951588809490204
1789316395563131600,8.124131591796875,1.2342894077301025,-0.9364798069000244,0.005358013790100813
1789316395573164500,8.13416455078125,1.3054869174957275,-1.1938292980194092,0.2335384488105774
1789316395583197700,8.14419775390625,1.2685723304748535,-1.1885267496109009,0.3878273665904999
1789316395593230600,8.154230712890625,0.9229530692100525,-1.1911134719848633,0.3418404161930084
1789316395603264500,8.164264404296874,0.4904322922229767,-1.1301230192184448,0.3186994194984436
1789316395613297400,8.17429736328125,0.18051891028881073,-0.715865969657898,0.3079751431941986
1789316395623330600,8.18433056640625,0.040286168456077576,-0.2702983319759369,0.32013511657714844
1789316395633363500,8.194363525390624,-0.027941087260842323,-0.04085874930024147,0.42830872535705566
1789316395643396600,8.204396728515626,0.06015761196613312,0.10809238255023956,0.47722434997558594
1789316395653429500,8.214429443359375,0.13479402661323547,0.018453042954206467,0.47693726420402527
1789316395663462400,8.22446240234375,0.14136432111263275,-0.2880759835243225,0.4470504820346832
1789316395673495600,8.23449560546875,0.106481172144413,-0.6767731308937073,0.4429393410682678
1789316395683529700,8.24452978515625,0.10897841304540634,-0.7483048439025879,0.393797367811203
1789316395693562600,8.254562744140625,0.20686662197113037,-0.5712661743164062,0.44415879249572754
1789316395703595500,8.264595458984376,0.28551483154296875,-0.2829057276248932,0.6432314515113831
1789316395713628400,8.27462841796875,0.3453129231929779,-0.12111496925354004,0.6312496066093445
1789316395723661300,8.284661376953125,0.2818585932254791,-0.13237854838371277,0.6550747752189636
1789316395733694500,8.294694580078126,0.23963309824466705,-0.23880672454833984,0.7531097531318665
1789316395743727400,8.304727294921875,0.22112919390201569,-0.45372381806373596,0.7972071170806885
1789316395753760500,8.314760498046875,0.23206359148025513,-0.6443166732788086,0.8372291326522827
1789316395763794400,8.32479443359375,0.23478055000305176,-0.7339951395988464,0.8573253154754639
1789316395773827600,8.33482763671875,0.23148569464683533,-0.8141818642616272,0.8305930495262146
1789316395783860500,8.344860595703125,0.22201842069625854,-0.8903019428253174,0.8632431626319885
1789316395793893600,8.3548935546875,0.23210753500461578,-0.8507252335548401,0.8511620163917542
1789316395803926500,8.364926513671875,0.1980273276567459,-0.8310543298721313,0.8009589910507202
1789316395813959700,8.374959716796875,0.2380860596895218,-0.8400834798812866,0.7712706327438354
1789316395823992600,8.38499267578125,0.18600767850875854,-0.9356169700622559,0.775562584400177
1789316395834025500,8.395025390625,0.03792154788970947,-1.0260443687438965,0.8070523142814636
1789316395844059400,8.405059326171875,-0.2324545532464981,-1.0639163255691528,0.9079318046569824
1789316395854092500,8.415092529296874,-0.31728821992874146,-0.9637436866760254,1.1953060626983643
1789316395864125400,8.42512548828125,-0.38124269247055054,-0.8412014842033386,1.3713641166687012
1789316395874158600,8.43515869140625,-0.6224198937416077,-1.0554208755493164,1.2349517345428467
1789316395884191500,8.44519140625,-0.4776928126811981,-0.5434824824333191,1.2875230312347412
1789316395894224400,8.455224365234375,-0.47033074498176575,-0.23982271552085876,1.0986897945404053
1789316395904257500,8.465257568359375,-0.564494788646698,-0.28929704427719116,0.6171399354934692
1789316395914290400,8.47529052734375,-0.551557183265686,-0.12614408135414124,0.22233107686042786
1789316395924324600,8.48532470703125,-0.29977259039878845,0.4264061748981476,0.21835656464099884
1789316395934357500,8.495357421875,-0.08799643069505692,0.4363946318626404,0.14653590321540833
1789316395944390700,8.505390625,0.12827834486961365,0.3926090598106384,0.11424507945775986
1789316395954423600,8.515423583984376,0.2617834210395813,0.4190220236778259,0.020852817222476006
1789316395964456400,8.52545654296875,0.3163611590862274,0.36674976348876953,-0.022298647090792656
1789316395974489300,8.5354892578125,0.22975783050060272,0.23242925107479095,0.02111274190247059
1789316395984522500,8.5455224609375,0.1591571569442749,0.08376200497150421,0.1292266994714737
1789316395994555400,8.555555419921875,0.09950155764818192,-0.020308466628193855,0.2025350034236908
1789316396004589600,8.565589599609375,0.039326101541519165,0.051470912992954254,0.25176697969436646
1789316396014622500,8.57562255859375,-0.04109550639986992,0.2557681202888489,0.30364590883255005
1789316396024655600,8.585655517578125,-0.13109223544597626,0.459102064371109,0.2876107394695282
1789316396034688500,8.5956884765625,-0.19411061704158783,0.5927954316139221,0.21755975484848022
1789316396044721700,8.6057216796875,-0.33016857504844666,0.6895448565483093,0.04425081983208656
1789316396054754600,8.615754638671875,-0.4735558331012726,0.7256000638008118,-0.08912614732980728
1789316396064787500,8.625787353515625,-0.590046763420105,0.7345866560935974,-0.13232289254665375
1789316396074820600,8.635820556640626,-0.6301702260971069,0.782512366771698,-0.034681547433137894
1789316396084854500,8.6458544921875,-0.6363146901130676,0.6850500106811523,0.14247272908687592
1789316396094887400,8.655887451171875,-0.663485586643219,0.6417350172996521,0.320424348115921
1789316396104920300,8.66592041015625,-0.724531352519989,0.5315512418746948,0.41300302743911743
1789316396114953500,8.675953369140625,-0.7908957004547119,0.29795339703559875,0.40623804926872253
1789316396124986400,8.685986328125,-0.8061308860778809,0.07432589679956436,0.3582015633583069
1789316396135019500,8.69601953125,-0.7513073086738586,0.07897524535655975,0.32837042212486267
1789316396145052400,8.706052490234375,-0.6700825095176697,0.13955390453338623,0.29991427063941956
1789316396155085600,8.71608544921875,-0.5857771635055542,0.2962481677532196,0.2767309248447418
1789316396165119500,8.726119384765624,-0.47972533106803894,0.4873390197753906,0.24085761606693268
1789316396175152600,8.736152587890626,-0.35256046056747437,0.5318609476089478,0.19732213020324707
1789316396185185500,8.746185546875,-0.2371598184108734,0.4767998456954956,0.16260088980197906
1789316396195218700,8.75621875,-0.08056514710187912,0.27486059069633484,0.16876132786273956
1789316396205251300,8.766251220703126,0.01691213808953762,0.19080084562301636,0.13202008605003357
1789316396215284500,8.776284423828125,0.0875847116112709,0.1879217028617859,0.08595485240221024
1789316396225317400,8.7863173828125,0.23054079711437225,0.24573706090450287,0.017544638365507126
1789316396235350500,8.7963505859375,0.3589400351047516,0.2548812925815582,-0.07046245038509369
1789316396245384400,8.806384521484375,0.5032937526702881,0.3530363440513611,-0.0874563455581665
1789316396255417600,8.81641748046875,0.6087434887886047,0.5007137060165405,-0.0682229995727539
1789316396265450500,8.826450439453126,0.6250374913215637,0.6446836590766907,0.014572551473975182
1789316396275483600,8.836483642578125,0.732823371887207,0.84856116771698,0.11281922459602356
1789316396285516500,8.8465166015625,0.8013997673988342,0.93112713098526,0.1297188401222229
1789316396295549400,8.856549560546876,0.8606106042861938,0.8673550486564636,0.07629983127117157
1789316396305582600,8.86658251953125,0.8778260946273804,1.0302345752716064,-0.006402505561709404
1789316396315615500,8.876615478515625,0.8536640405654907,1.3409918546676636,-0.01575366221368313
1789316396325649400,8.8866494140625,0.8536565899848938,1.4740196466445923,-0.05627525597810745
1789316396335682300,8.896682373046875,0.830931544303894,1.6594172716140747,-0.0934085100889206
1789316396345715500,8.906715576171875,0.49067676067352295,1.3214261531829834,-0.26179593801498413
1789316396355748400,8.916748291015624,0.24504543840885162,1.1057727336883545,-0.4036313593387604
1789316396365781500,8.926781494140625,0.05681747570633888,1.1228736639022827,-0.5258345007896423
1789316396375814400,8.936814453125,-0.07142811268568039,1.128460168838501,-0.6199511289596558
1789316396385847600,8.94684765625,-0.03211665898561478,1.1223183870315552,-0.6270838975906372
1789316396395880400,8.95688037109375,0.07609955966472626,1.216551423072815,-0.6983468532562256
1789316396405914600,8.96691455078125,0.10358631610870361,1.1639717817306519,-0.7726999521255493
1789316396415947500,8.976947509765624,-0.039142075926065445,0.9406031966209412,-0.9698060750961304
1789316396425980700,8.986980712890626,-0.34043827652931213,0.7952316403388977,-1.2067432403564453
1789316396436013600,8.997013671875,-0.7259697318077087,0.4237089157104492,-1.2224295139312744
1789316396446046500,9.00704638671875,-1.0100126266479492,-0.4214199483394623,-1.0167664289474487
1789316396456079400,9.017079345703126,-1.1121493577957153,-1.2061301469802856,-0.9771084785461426
1789316396466112500,9.027112548828125,-1.3009017705917358,-1.7437303066253662,-1.206855058670044
1789316396476145400,9.0371455078125,-1.5106083154678345,-2.2658491134643555,-1.3897067308425903
1789316396486179600,9.0471796875,-1.6869943141937256,-2.1073191165924072,-1.2340590953826904
1789316396496212500,9.05721240234375,-1.7208609580993652,-1.6457358598709106,-1.0816454887390137
1789316396506245600,9.06724560546875,-1.6220659017562866,-1.0446081161499023,-0.9426407814025879
1789316396516278500,9.077278564453126,-1.4808030128479004,-0.6879682540893555,-1.0198389291763306
1789316396526311400,9.0873115234375,-1.25039803981781,-0.845947265625,-1.2671751976013184
1789316396536344600,9.097344482421875,-0.7978833317756653,-1.0039454698562622,-1.334806203842163
1789316396546377500,9.10737744140625,-0.4741097688674927,-1.2019224166870117,-1.234413743019104
1789316396556410600,9.11741064453125,-0.1444820761680603,-2.219416379928589,-1.432118535041809
1789316396566444300,9.1274443359375,0.04237142577767372,-2.5433695316314697,-1.5804598331451416
1789316396576477400,9.1374775390625,0.12730549275875092,-1.8662221431732178,-1.4176983833312988
1789316396586510300,9.14751025390625,0.12390010803937912,-1.4461270570755005,-1.3817555904388428
1789316396596543500,9.15754345703125,0.09466472268104553,-0.4049171209335327,-1.2555052042007446
1789316396606576400,9.167576416015624,0.10799171030521393,0.17357125878334045,-0.6999463438987732
1789316396616609500,9.177609619140625,-0.008760468102991581,-1.3495787382125854,-1.593040943145752
1789316396626642400,9.187642333984375,-0.0719468966126442,-1.6309566497802734,-1.8927717208862305
1789316396636675600,9.197675537109374,0.035768914967775345,-0.7678945064544678,-1.805468201637268
1789316396646709500,9.20770947265625,0.19560359418392181,-0.08772052824497223,-1.6094691753387451
1789316396656742700,9.21774267578125,0.4630909562110901,0.18072184920310974,-1.4593861103057861
1789316396666775600,9.227775634765624,0.7437295317649841,0.3275195360183716,-1.4737237691879272
1789316396676808700,9.23780859375,0.8517143130302429,0.40442097187042236,-1.5516955852508545
1789316396686841600,9.247841552734375,0.8550124168395996,0.544683039188385,-1.6363539695739746
1789316396696874500,9.25787451171875,0.7166872620582581,0.3519982397556305,-1.8119854927062988
1789316396706907400,9.267907470703125,0.4672177731990814,0.3440111577510834,-2.2167201042175293
1789316396716940300,9.277940185546875,0.2838578224182129,0.7069970965385437,-2.3801167011260986
1789316396726974500,9.287974365234374,0.20690231025218964,1.9942139387130737,-2.159658670425415
1789316396737007600,9.298007568359376,-0.02924790047109127,2.5204365253448486,-1.6847507953643799
1789316396747040500,9.30804052734375,-0.4769819974899292,2.483625650405884,-1.5661756992340088
1789316396757073400,9.318073486328124,-0.8943477869033813,1.026685357093811,-1.573316216468811
1789316396767106600,9.3281064453125,-1.3380179405212402,0.6477260589599609,-2.3048222064971924
1789316396777139500,9.338139404296875,-1.7093054056167603,1.3448313474655151,-2.700317144393921
1789316396787172600,9.348172607421875,-1.264370322227478,2.2375712394714355,-2.9287805557250977
1789316396797205500,9.35820556640625,-0.9603060483932495,3.4422390460968018,-2.5194332599639893
1789316396807239400,9.368239501953125,-0.6464895606040955,4.885830879211426,-3.0717225074768066
1789316396817272300,9.378272216796875,0.14227698743343353,1.328467607498169,-3.8577842712402344
1789316396827305500,9.388305419921876,-0.11125674843788147,-4.141557216644287,-0.9117358326911926
1789316396837338400,9.39833837890625,0.44695618748664856,-1.4712777137756348,0.7576575875282288
1789316396847371500,9.40837158203125,1.1526371240615845,-2.365593910217285,1.2024286985397339
1789316396857404400,9.418404296875,2.2474920749664307,-4.445400714874268,1.8724470138549805
1789316396867437600,9.4284375,2.348208427429199,-6.645415782928467,1.7408859729766846
1789316396877471500,9.438471435546875,2.016118288040161,-8.168599128723145,0.8646024465560913
1789316396887504600,9.448504638671874,0.7084290981292725,-7.5468292236328125,0.9072638750076294
1789316396897537500,9.45853759765625,-0.08478918671607971,-5.034407615661621,1.957973837852478
1789316396907570700,9.46857080078125,-0.4660148322582245,-4.323459148406982,2.529738187789917
1789316396917603600,9.478603515625,-0.7534924149513245,-3.547011613845825,2.4376494884490967
1789316396927636500,9.488636474609375,-0.962363600730896,-2.1679182052612305,2.2930123805999756
1789316396937669600,9.498669677734375,-1.0877444744110107,-1.2132834196090698,2.0823352336883545
1789316396947702500,9.50870263671875,-1.1264750957489014,-0.7993651032447815,1.8340474367141724
1789316396957735400,9.5187353515625,-1.187778115272522,-0.49979835748672485,1.5018550157546997
1789316396967769300,9.528769287109375,-1.3297765254974365,-0.09705464541912079,1.1110551357269287
1789316396977802500,9.538802490234374,-1.5155154466629028,0.4207876920700073,0.90131676197052
1789316396987835400,9.54883544921875,-1.562341332435608,0.9626549482345581,0.6638386845588684
1789316396997868500,9.55886865234375,-1.1760423183441162,1.9032448530197144,0.6069785952568054
1789316397007901400,9.5689013671875,-1.0594252347946167,2.401901960372925,0.4239480793476105
1789316397017934600,9.5789345703125,-0.622164785861969,2.25696063041687,-0.16998158395290375
1789316397027967500,9.588967529296875,-0.07706975191831589,2.3307998180389404,-0.5812420845031738
1789316397038000600,9.599000732421874,0.19141577184200287,2.3930089473724365,-0.8538584113121033
1789316397048034300,9.609034423828126,0.282504677772522,2.21061635017395,-0.6166285872459412
1789316397058067500,9.6190673828125,0.37368571758270264,2.5043396949768066,-0.26950764656066895
1789316397068100400,9.629100341796875,0.395255446434021,2.876338005065918,-0.23166225850582123
1789316397078133500,9.639133544921876,0.4921590983867645,2.9611246585845947,-0.1624022275209427
1789316397088166400,9.64916650390625,0.620686411857605,2.697831392288208,-0.08902787417173386
1789316397098199600,9.659199462890625,0.8286013007164001,2.2666943073272705,0.06198640540242195
1789316397108232400,9.669232421875,1.013916254043579,1.9738537073135376,0.26798272132873535
1789316397118265300,9.679265380859375,1.1311957836151123,1.8430289030075073,0.43942052125930786
1789316397128299500,9.689299560546875,1.068153977394104,1.5582895278930664,0.5341326594352722
1789316397138332700,9.699332763671874,0.8229542970657349,0.9993325471878052,0.5669627785682678
1789316397148365600,9.709365478515625,0.4691685438156128,0.5096158385276794,0.5764502882957458
1789316397158398500,9.7193984375,0.13847744464874268,0.2849039137363434,0.5536674857139587
1789316397168431600,9.729431640625,-0.11001119017601013,0.035475701093673706,0.6021739840507507
1789316397178464500,9.739464599609375,-0.21530619263648987,-0.2839970886707306,0.6306000351905823
1789316397188497700,9.74949755859375,-0.25538331270217896,-0.9947183728218079,0.5705529451370239
1789316397198531300,9.75953125,-0.35866042971611023,-1.9375500679016113,0.4147937297821045
1789316397208564500,9.769564453125,-0.3694920241832733,-2.9663941860198975,0.25827521085739136
1789316397218597400,9.779597412109375,-0.34140366315841675,-3.9068727493286133,0.13650405406951904
1789316397228630500,9.789630615234374,-0.42375606298446655,-4.646334171295166,0.08267410844564438
1789316397238663400,9.799663330078126,-0.50171959400177,-4.909026622772217,-0.012141085229814053
1789316397248696600,9.809696533203125,-0.42958518862724304,-4.741872310638428,0.10634375363588333
1789316397258729500,9.8197294921875,-0.21019718050956726,-3.351477861404419,0.3533836305141449
1789316397268762600,9.8297626953125,0.11837191879749298,-1.0665403604507446,0.4614807963371277
1789316397278796500,9.839796630859375,0.469486802816391,0.6512246131896973,0.5797821283340454
1789316397288829400,9.849829345703125,0.5753684639930725,0.8739559650421143,0.6244279146194458
1789316397298862300,9.8598623046875,0.468141108751297,0.46750566363334656,0.49029088020324707
1789316397308895500,9.8698955078125,0.26672518253326416,-0.05337347462773323,0.2794228494167328
1789316397318928400,9.879928466796875,0.03350922465324402,-0.5143120884895325,0.1090196967124939
1789316397328961500,9.88996142578125,-0.18197353184223175,-0.6287313103675842,0.05453434959053993
1789316397338994400,9.899994384765625,-0.30123841762542725,-0.4619385898113251,0.08292923867702484
1789316397349027300,9.91002734375,-0.29504576325416565,-0.20532305538654327,0.11261948943138123
1789316397359061500,9.9200615234375,-0.23174427449703217,-0.09100740402936935,0.10118333995342255
1789316397369094700,9.9300947265625,-0.16801829636096954,-0.13003815710544586,0.059601809829473495
1789316397379127600,9.94012744140625,-0.10976218432188034,-0.24250584840774536,-0.02960582822561264
1789316397389160400,9.950160400390626,-0.056718938052654266,-0.3509500324726105,-0.0992078110575676
1789316397399193600,9.960193603515625,-0.014311295002698898,-0.37072986364364624,-0.10429604351520538
1789316397409226500,9.9702265625,0.03485039249062538,-0.3293677866458893,-0.019532687962055206
1789316397419259600,9.980259765625,0.0988280400633812,-0.30040937662124634,0.10471682250499725
1789316397429292500,9.99029248046875,0.16148875653743744,-0.2675986886024475,0.21131624281406403
1789316397439326500,10.000326416015625,0.1870332658290863,-0.21662259101867676,0.3214012086391449
1789316397449359400,10.010359375,0.14941266179084778,-0.18862077593803406,0.46077507734298706
1789316397459392500,10.020392578125,0.06612975150346756,-0.20654252171516418,0.6223333477973938
1789316397469425400,10.03042529296875,-0.02641802467405796,-0.18034633994102478,0.7211992144584656
1789316397479458600,10.04045849609375,-0.13870808482170105,-0.12438107281923294,0.7533835172653198
1789316397489491500,10.050491455078125,-0.20917266607284546,-0.018011491745710373,0.705698549747467
1789316397499524600,10.060524658203125,-0.220807746052742,0.12072721868753433,0.5938833355903625
1789316397509557500,10.0705576171875,-0.17710420489311218,0.21884499490261078,0.43074074387550354
1789316397519591700,10.080591796875,-0.09008754789829254,0.19536124169826508,0.24699567258358002
1789316397529624600,10.09062451171875,0.0013249226612970233,0.08210285753011703,0.08501742035150528
1789316397539657500,10.100657470703124,0.09952525794506073,-0.05624622851610184,-0.045572277158498764
1789316397549690600,10.110690673828126,0.16287733614444733,-0.12410863488912582,-0.1559469848871231
1789316397559723500,10.1207236328125,0.157819464802742,-0.14726561307907104,-0.2322731912136078
1789316397569756400,10.13075634765625,0.12074825912714005,-0.11401152610778809,-0.26163533329963684
1789316397579789600,10.14078955078125,0.07108482718467712,-0.0379849337041378,-0.23779365420341492
1789316397589822500,10.150822509765625,0.036743100732564926,0.062127020210027695,-0.16202005743980408
1789316397599856600,10.160856689453125,0.031491879373788834,0.14707280695438385,-0.045576006174087524
1789316397609889800,10.170889892578124,0.033432792872190475,0.22288793325424194,0.11216782033443451
1789316397619922700,10.180922607421875,0.04240924119949341,0.2343272864818573,0.2581862807273865
1789316397629955600,10.19095556640625,0.046177349984645844,0.19931603968143463,0.322331964969635
1789316397639988700,10.20098876953125,0.038900792598724365,0.19560332596302032,0.3201947808265686
1789316397650021600,10.211021728515625,0.02575543150305748,0.22781318426132202,0.2550879418849945
1789316397660054800,10.2210546875,0.005889047868549824,0.24578659236431122,0.15417997539043427
1789316397670087700,10.231087646484376,-0.003632818115875125,0.2487485706806183,0.008500277064740658
1789316397680121600,10.24112158203125,-0.008640892803668976,0.2446475625038147,-0.15033598244190216
1789316397690154500,10.251154541015625,-0.01546231284737587,0.23442022502422333,-0.28149691224098206
1789316397700187600,10.261187744140624,-0.02612294629216194,0.21611258387565613,-0.37428945302963257
1789316397710220500,10.271220458984375,-0.01763225719332695,0.1982976347208023,-0.4441564083099365
1789316397720253700,10.281253662109375,0.0002205097407568246,0.18228591978549957,-0.4883233308792114
1789316397730286600,10.29128662109375,0.02640976943075657,0.15163186192512512,-0.505771279335022
1789316397740319700,10.30131982421875,0.07492271065711975,0.11586455255746841,-0.487868994474411
1789316397750352600,10.3113525390625,0.10248642414808273,0.025171931833028793,-0.4327642023563385
1789316397760386800,10.32138671875,0.10112075507640839,-0.10937442630529404,-0.37108752131462097
1789316397770419700,10.331419677734376,0.09301383048295975,-0.24323049187660217,-0.3017454743385315
1789316397780452600,10.34145263671875,0.08109671622514725,-0.29470327496528625,-0.19680680334568024
1789316397790485500,10.351485595703124,0.06042765825986862,-0.26718002557754517,-0.07944635301828384
1789316397800518400,10.361518310546876,0.060564011335372925,-0.17196963727474213,0.021631259471178055
1789316397810551600,10.371551513671875,0.05005491152405739,-0.10470430552959442,0.10723191499710083
1789316397820584400,10.38158447265625,0.012716061435639858,-0.0861268937587738,0.2218937873840332
1789316397830617600,10.39161767578125,-0.011446000076830387,-0.09719526022672653,0.3349130153656006
1789316397840651500,10.401651611328125,-0.04035967215895653,-0.09794280678033829,0.40149736404418945
1789316397850684700,10.4116845703125,-0.04243427515029907,-0.04987195134162903,0.39294809103012085
1789316397860717600,10.421717529296876,-0.04289074242115021,-0.00806298665702343,0.3191276490688324
1789316397870750700,10.431750732421875,-0.08116436004638672,-0.010374610312283039,0.18658585846424103
1789316397880783600,10.44178369140625,-0.12844239175319672,-0.020302608609199524,0.04844902455806732
1789316397890816800,10.451816650390626,-0.15564551949501038,0.03248337283730507,-0.01721600443124771
1789316397900849700,10.461849609375,-0.16131645441055298,0.08302777260541916,-0.04210431128740311
1789316397910882800,10.4718828125,-0.13715972006320953,0.06842672824859619,-0.028141090646386147
1789316397920916500,10.48191650390625,-0.10661059617996216,-0.008804677054286003,0.031308919191360474
1789316397930949600,10.49194970703125,-0.04430275037884712,-0.09704559296369553,0.10535305738449097
1789316397940982500,10.501982421875,0.02045627310872078,-0.16400091350078583,0.18077456951141357
1789316397951015700,10.512015625,0.09515687823295593,-0.17841234803199768,0.22277715802192688
1789316397961048600,10.522048583984375,0.1433877944946289,-0.2225411981344223,0.22371378540992737
1789316397971081700,10.532081787109375,0.15907754004001617,-0.271673321723938,0.1696963608264923
1789316397981114600,10.542114501953124,0.13302382826805115,-0.288257896900177,0.12035224586725235
1789316397991147500,10.5521474609375,0.11229298263788223,-0.25932636857032776,0.09519735723733902
1789316398001181700,10.562181640625,0.11258380115032196,-0.19900764524936676,0.07888815551996231
1789316398011214800,10.57221484375,0.11191295087337494,-0.14446955919265747,0.06430788338184357
1789316398021247700,10.582247802734376,0.10955365747213364,-0.11119282990694046,0.05517963320016861
1789316398031280600,10.59228076171875,0.09810206294059753,-0.071505606174469,0.05662546306848526
1789316398041313500,10.6023134765625,0.07532750815153122,-0.03538408875465393,0.052380915731191635
1789316398051346400,10.612346435546876,0.03844299539923668,-0.024463530629873276,0.03122343309223652
1789316398061379600,10.622379638671875,-0.010067014954984188,-0.027153324335813522,0.006542054936289787
1789316398071412500,10.63241259765625,-0.06137441098690033,-0.040289897471666336,-0.02286723256111145
1789316398081446700,10.64244677734375,-0.09374167025089264,-0.06625385582447052,-0.050511110574007034
1789316398091479600,10.6524794921875,-0.09954123944044113,-0.0736963227391243,-0.0803409144282341
1789316398101512700,10.6625126953125,-0.08565152436494827,-0.09370758384466171,-0.09911513328552246
1789316398111545600,10.672545654296876,-0.07244011014699936,-0.13879676163196564,-0.1184089332818985
1789316398121578800,10.682578857421875,-0.07616826891899109,-0.1942586898803711,-0.10888680070638657
1789316398131611600,10.692611572265625,-0.07046697288751602,-0.21529154479503632,-0.07543457299470901
1789316398141644800,10.702644775390626,-0.07367581874132156,-0.2202404886484146,-0.025713086128234863
1789316398151677700,10.712677734375,-0.07847190648317337,-0.23046782612800598,0.011713647283613682
1789316398161711600,10.722711669921875,-0.0830293744802475,-0.2332811951637268,0.04104943200945854
1789316398171744500,10.73274462890625,-0.08939512819051743,-0.20171287655830383,0.10444358736276627
1789316398181777700,10.742777587890625,-0.07664657384157181,-0.1468064934015274,0.1760687679052353
1789316398191810600,10.752810546875,-0.07505960017442703,-0.13084776699543,0.22129057347774506
1789316398201843700,10.76284375,-0.0689668133854866,-0.1382542848587036,0.22461473941802979
1789316398211876600,10.772876708984375,-0.05419585853815079,-0.14373213052749634,0.17904751002788544
1789316398221909500,10.782909423828125,-0.050630420446395874,-0.1343117356300354,0.08887580782175064
1789316398231942700,10.792942626953124,-0.05194256082177162,-0.1253776252269745,-0.04894037917256355
1789316398241976800,10.802976806640626,-0.06579792499542236,-0.12733106315135956,-0.2151397317647934
1789316398252009700,10.813009765625,-0.10823486000299454,-0.16753733158111572,-0.37548866868019104
1789316398262042600,10.823042724609374,-0.17401334643363953,-0.19496628642082214,-0.48930230736732483
1789316398272075800,10.83307568359375,-0.1892724484205246,-0.15543273091316223,-0.5678301453590393
1789316398282108700,10.843108642578125,-0.18997366726398468,-0.12540799379348755,-0.5802811980247498
1789316398292141600,10.8531416015625,-0.14593243598937988,-0.13858558237552643,-0.5413572788238525
1789316398302174500,10.863174560546875,0.025361815467476845,-0.2236384153366089,-0.4444698691368103
1789316398312207600,10.87320751953125,0.26586416363716125,-0.42443332076072693,-0.2831227779388428
1789316398322241500,10.883241455078124,0.505090594291687,-0.6785649061203003,-0.09916599839925766
1789316398332274700,10.893274658203126,0.7021453380584717,-0.8593605160713196,0.057734135538339615
1789316398342307600,10.9033076171875,0.7758515477180481,-1.0154244899749756,0.12662771344184875
1789316398352340700,10.9133408203125,0.6574487090110779,-1.1751807928085327,0.20047371089458466
1789316398362373600,10.92337353515625,0.4573667645454407,-1.188820242881775,0.3553471863269806
1789316398372406800,10.93340673828125,0.3073357045650482,-0.9547325968742371,0.5580989718437195
1789316398382439700,10.943439697265624,0.18927112221717834,-0.5857505798339844,0.6990256905555725
1789316398392472800,10.953472900390626,0.037878405302762985,-0.2715492248535156,0.628364086151123
1789316398402506500,10.963506591796875,-0.2060791254043579,-0.05928462743759155,0.40865567326545715
1789316398412539600,10.97353955078125,-0.40926581621170044,-0.025540247559547424,0.10243023186922073
1789316398422572500,10.983572509765626,-0.4205451011657715,-0.07392589002847672,-0.14805658161640167
1789316398432605700,10.993605712890625,-0.31804269552230835,-0.24691125750541687,-0.27795571088790894
1789316398442638600,11.003638671875,-0.16817089915275574,-0.5236459374427795,-0.3504174053668976
1789316398452671500,11.01367138671875,-0.06470523029565811,-0.7997366189956665,-0.3385775089263916
1789316398462704600,11.02370458984375,-0.01732759177684784,-0.8859492540359497,-0.24758556485176086
1789316398472737500,11.033737548828125,0.01734144054353237,-0.7815147638320923,-0.12644794583320618
1789316398482771700,11.043771728515624,0.03723045811057091,-0.5876590013504028,-0.040282443165779114
1789316398492804600,11.0538046875,0.03964727744460106,-0.45459067821502686,-0.011225489899516106
1789316398502837800,11.063837646484375,0.00037044569035060704,-0.41236385703086853,-0.02027890644967556
1789316398512870700,11.07387060546875,-0.021407820284366608,-0.3766769766807556,-0.034212298691272736
1789316398522903800,11.08390380859375,-0.018272746354341507,-0.30880311131477356,-0.030962975695729256
1789316398532936400,11.0939365234375,0.0157155804336071,-0.3098164498806,-0.029024727642536163
1789316398542969300,11.10396923828125,0.06175151467323303,-0.3609131872653961,-0.029339246451854706
1789316398553002200,11.114002197265625,0.1241387277841568,-0.3635425269603729,0.001784850494004786
1789316398563036400,11.124036376953125,0.17284074425697327,-0.2962055504322052,0.03832634910941124
1789316398573069300,11.1340693359375,0.25353267788887024,-0.21304622292518616,0.0024519723374396563
1789316398583102500,11.1441025390625,0.34064361453056335,-0.24781006574630737,-0.14684510231018066
1789316398593135400,11.15413525390625,0.3491835594177246,-0.3534552752971649,-0.2636665403842926
1789316398603168500,11.16416845703125,0.3002775311470032,-0.5092566013336182,-0.25520220398902893
1789316398613201400,11.174201416015626,0.25691115856170654,-0.6403690576553345,-0.09787196666002274
1789316398623234300,11.184234375,0.17413105070590973,-0.7536026835441589,0.13572533428668976
1789316398633267500,11.194267333984374,0.008993495255708694,-0.8751032948493958,0.43113142251968384
1789316398643301400,11.20430126953125,-0.281835675239563,-0.966328501701355,0.7998026609420776
1789316398653334300,11.214334228515625,-0.6164674758911133,-0.8666208386421204,1.0919607877731323
1789316398663367200,11.2243671875,-0.9383248686790466,-0.6623923182487488,1.2120879888534546
1789316398673400300,11.234400390625,-1.048134446144104,-0.40794166922569275,1.0605541467666626
1789316398683433200,11.24443310546875,-0.8510357737541199,-0.15437732636928558,0.7162318825721741
1789316398693466400,11.25446630859375,-0.48137301206588745,-0.07797149568796158,0.2349501997232437
1789316398703499300,11.264499267578126,-0.11654499173164368,-0.2307506501674652,-0.24510109424591064
1789316398713532400,11.274532470703125,0.1501716524362564,-0.39426714181900024,-0.5888558030128479
1789316398723566300,11.28456640625,0.35959678888320923,-0.41888540983200073,-0.7203919887542725
1789316398733599500,11.294599609375,0.5092927813529968,-0.5145597457885742,-0.7670372724533081
1789316398743632400,11.30463232421875,0.5993132591247559,-0.7116765379905701,-0.7885798215866089
1789316398753665500,11.31466552734375,0.6339348554611206,-0.9040438532829285,-0.7525653839111328
1789316398763698400,11.324698486328124,0.6265634894371033,-0.9863845109939575,-0.6477779746055603
1789316398773731600,11.334731689453125,0.5865500569343567,-0.9065661430358887,-0.521904468536377
1789316398783764500,11.344764404296875,0.5151341557502747,-0.704958975315094,-0.36860573291778564
1789316398793797400,11.35479736328125,0.40840134024620056,-0.43169522285461426,-0.21283183991909027
1789316398803831300,11.364831298828125,0.26940643787384033,-0.17532627284526825,-0.0965941846370697
1789316398813864400,11.374864501953125,0.13508538901805878,-0.08460170030593872,-0.052928995341062546
1789316398823897300,11.3848974609375,0.029454560950398445,-0.1620110124349594,-0.05938742682337761
1789316398833930500,11.394930419921875,-0.04911880940198898,-0.27171751856803894,-0.05453301593661308
1789316398843963400,11.40496337890625,-0.08808991312980652,-0.32867828011512756,0.01599973998963833
1789316398853996300,11.414996337890624,-0.1033458262681961,-0.3341289758682251,0.12294216454029083
1789316398864029400,11.425029541015626,-0.08741772919893265,-0.34217917919158936,0.2351459413766861
1789316398874062300,11.435062255859375,-0.051546815782785416,-0.3737000823020935,0.3378547430038452
1789316398884096500,11.445096435546875,-0.01455630548298359,-0.4172782003879547,0.3869301378726959
1789316398894129200,11.455129150390626,0.02490721456706524,-0.44477373361587524,0.36473456025123596
1789316398904162300,11.465162353515625,0.06636783480644226,-0.437547504901886,0.2856362760066986
1789316398914195200,11.4751953125,0.10381641238927841,-0.3987891972064972,0.19031189382076263
1789316398924228400,11.485228271484376,0.17129185795783997,-0.38470906019210815,0.10130798071622849
1789316398934261200,11.49526123046875,0.2545153796672821,-0.3937813937664032,-0.003063700394704938
1789316398944294400,11.50529443359375,0.3111957013607025,-0.44844409823417664,-0.10665853321552277
1789316398954327300,11.515327392578126,0.3489161729812622,-0.502258837223053,-0.19417347013950348
1789316398964361500,11.525361572265625,0.3529761731624603,-0.525409460067749,-0.2750273048877716
1789316398974394400,11.535394287109375,0.31510254740715027,-0.520470917224884,-0.3224600553512573
1789316398984427500,11.545427490234376,0.24775519967079163,-0.4951181411743164,-0.3194959759712219
1789316398994460400,11.55546044921875,0.11931760609149933,-0.4406175911426544,-0.27464115619659424
1789316399004493600,11.56549365234375,-0.00866006687283516,-0.36322852969169617,-0.2252245992422104
1789316399014526500,11.5755263671875,-0.09557472914457321,-0.3472224175930023,-0.21772965788841248
1789316399024559400,11.585559326171875,-0.1371309608221054,-0.35830673575401306,-0.25754284858703613
1789316399034592500,11.595592529296875,-0.13553492724895477,-0.3600785434246063,-0.3272055685520172
1789316399044625400,11.60562548828125,-0.10037906467914581,-0.36872395873069763,-0.37429744005203247
1789316399054659300,11.615659423828125,-0.04548386111855507,-0.3856462240219116,-0.40387797355651855
1789316399064692200,11.625692138671875,0.007779359817504883,-0.4260280132293701,-0.43407607078552246
1789316399074725400,11.635725341796874,0.05218703672289848,-0.47906139492988586,-0.46734294295310974
1789316399084758300,11.64575830078125,0.08054117858409882,-0.5466340780258179,-0.48208221793174744
1789316399094791400,11.65579150390625,0.09258612245321274,-0.6174474954605103,-0.4658973813056946
1789316399104824300,11.66582421875,0.1036829873919487,-0.6898646950721741,-0.4286368489265442
1789316399114857500,11.675857421875,0.1157098188996315,-0.7174617052078247,-0.37739601731300354
1789316399124891400,11.685891357421875,0.11934823542833328,-0.7328580021858215,-0.3212299644947052
1789316399134924300,11.69592431640625,0.11612793803215027,-0.7388727068901062,-0.2807866632938385
1789316399144957200,11.705957275390626,0.10682844370603561,-0.7230769991874695,-0.27853041887283325
1789316399154990300,11.715990234375,0.1018557921051979,-0.6968610882759094,-0.284822940826416
1789316399165023200,11.726023193359374,0.11491166800260544,-0.6653276681900024,-0.2882123589515686
1789316399175056400,11.736056396484376,0.1447441428899765,-0.6375863552093506,-0.2827587425708771
1789316399185089300,11.74608935546875,0.16418388485908508,-0.6171543002128601,-0.2714783847332001
1789316399195122400,11.756122314453124,0.1662246584892273,-0.6163960695266724,-0.25192996859550476
1789316399205156400,11.76615625,0.15766526758670807,-0.6423448920249939,-0.23271766304969788
1789316399215189500,11.776189453125,0.13728435337543488,-0.6350155472755432,-0.2034308910369873
1789316399225222400,11.786222412109375,0.10894618928432465,-0.5905197262763977,-0.1689634621143341
1789316399235255600,11.796255615234376,0.07629343867301941,-0.5832285284996033,-0.13795706629753113
1789316399245288400,11.806288330078125,0.052258677780628204,-0.6234585046768188,-0.13979464769363403
1789316399255321300,11.8163212890625,0.032462067902088165,-0.6648877263069153,-0.1607169806957245
1789316399265354500,11.8263544921875,0.030962176620960236,-0.6674765944480896,-0.18864820897579193
1789316399275387400,11.836387451171875,0.06161569431424141,-0.6545243263244629,-0.20160262286663055
1789316399285421300,11.84642138671875,0.0711604654788971,-0.6150522828102112,-0.17077067494392395
1789316399295454200,11.8564541015625,0.09860540181398392,-0.5297176241874695,-0.1450013965368271
1789316399305487400,11.8664873046875,0.19228635728359222,-0.5116904377937317,-0.16246721148490906
1789316399315520300,11.876520263671875,0.2891886532306671,-0.57830411195755,-0.22438517212867737
1789316399325553400,11.886553466796874,0.3787507712841034,-0.627933144569397,-0.2976559102535248
1789316399335586300,11.89658642578125,0.41310635209083557,-0.5594238638877869,-0.32893553376197815
1789316399345619500,11.906619384765625,0.4702303409576416,-0.34464046359062195,-0.37270620465278625
1789316399355652400,11.91665234375,0.5325486063957214,-0.28165537118911743,-0.38263845443725586
1789316399365686500,11.9266865234375,0.5546682476997375,-0.41265174746513367,-0.40029680728912354
1789316399375719400,11.936719482421875,0.5331334471702576,-0.5690410733222961,-0.4276488125324249
1789316399385752300,11.94675244140625,0.48564818501472473,-0.6368060111999512,-0.43726786971092224
1789316399395785200,11.95678515625,0.4233832359313965,-0.6193482279777527,-0.41934454441070557
1789316399405818400,11.966818359375,0.35024401545524597,-0.5732579231262207,-0.38421398401260376
1789316399415851300,11.976851318359374,0.2634417712688446,-0.5344732403755188,-0.3532664477825165
1789316399425884400,11.986884521484376,0.1856745183467865,-0.5065465569496155,-0.31940144300460815
1789316399435917300,11.996917236328125,0.11361631006002426,-0.4660382866859436,-0.25882837176322937
1789316399445951500,12.006951416015625,0.053413957357406616,-0.48055970668792725,-0.1962888240814209
1789316399455984400,12.016984375,0.01661466248333454,-0.5419447422027588,-0.13101021945476532
1789316399466017500,12.027017578125,-0.02021019719541073,-0.5808857679367065,-0.03292093053460121
1789316399476050400,12.037050537109375,-0.05530320107936859,-0.5626454949378967,0.11324719339609146
1789316399486083300,12.047083251953126,-0.0543319471180439,-0.5763557553291321,0.2916467487812042
1789316399496116500,12.057116455078125,-0.00854421965777874,-0.6839724779129028,0.4595494866371155
1789316399506149400,12.0671494140625,0.06292890012264252,-0.8452915549278259,0.5609573125839233
1789316399516182500,12.0771826171875,0.11555615812540054,-0.9356193542480469,0.5927290916442871
1789316399526215400,12.08721533203125,0.11091426759958267,-0.9052774310112,0.539460301399231
1789316399536249300,12.097249267578125,-0.023309050127863884,-0.7319402694702148,0.5229479074478149
1789316399546282500,12.107282470703124,-0.08651039004325867,-0.5728747248649597,0.5358312129974365
1789316399556315400,12.1173154296875,-0.03172117844223976,-0.5790332555770874,0.5430366396903992
1789316399566348500,12.1273486328125,0.08832480013370514,-0.7779740691184998,0.4841781258583069
1789316399576381400,12.13738134765625,0.16973896324634552,-0.9889031052589417,0.39630740880966187
1789316399586414600,12.14741455078125,0.15214373171329498,-0.9812624454498291,0.3926197290420532
1789316399596447500,12.157447509765625,0.11668507009744644,-0.8282058238983154,0.435933381319046
1789316399606481700,12.167481689453124,0.1184411570429802,-0.7634187936782837,0.48977556824684143
1789316399616514600,12.1775146484375,0.1572870910167694,-0.760022759437561,0.5018388628959656
1789316399626547500,12.18754736328125,0.1715821474790573,-0.8835130333900452,0.4301401972770691
1789316399636580400,12.197580322265624,0.11225809901952744,-1.0837185382843018,0.3099741041660309
1789316399646613500,12.207613525390625,0.02310691773891449,-1.0877803564071655,0.23680268228054047
1789316399656646400,12.217646484375,0.004834436345845461,-0.8205872774124146,0.2726173996925354
1789316399666679600,12.227679443359374,0.0632556676864624,-0.6233956813812256,0.36049559712409973
1789316399676712400,12.23771240234375,0.15158046782016754,-0.5553367137908936,0.4650731384754181
1789316399686745300,12.247745361328125,0.23544101417064667,-0.5523603558540344,0.6380784511566162
1789316399696779500,12.257779541015625,0.3284851908683777,-0.5103474259376526,0.7666854858398438
1789316399706812700,12.267812744140626,0.3934048116207123,-0.5341787338256836,0.8357684016227722
1789316399716845600,12.277845458984375,0.4382593631744385,-0.5648977160453796,0.865902841091156
1789316399726878500,12.28787841796875,0.4453958570957184,-0.551419734954834,0.8833252787590027
1789316399736911600,12.29791162109375,0.44092997908592224,-0.5050538778305054,0.8694712519645691
1789316399746944500,12.307944580078125,0.4051440358161926,-0.4554671347141266,0.8065934777259827
1789316399756977700,12.317977783203125,0.38218599557876587,-0.4300600290298462,0.7037491202354431
1789316399767010600,12.328010498046876,0.34445831179618835,-0.45164787769317627,0.5815193057060242
1789316399777044500,12.33804443359375,0.2748970687389374,-0.49847665429115295,0.44521448016166687
1789316399787077400,12.348077392578125,0.2002481371164322,-0.5158777236938477,0.3660416305065155
1789316399797110500,12.358110595703126,0.12030696868896484,-0.520776629447937,0.32285982370376587
1789316399807143400,12.368143310546875,0.06714494526386261,-0.3959449529647827,0.3345063328742981
1789316399817176600,12.378176513671875,-0.005239236634224653,-0.3122902512550354,0.3936372995376587
1789316399827209500,12.38820947265625,-0.08232337236404419,-0.2678527534008026,0.4722439646720886
1789316399837242600,12.39824267578125,-0.1573435515165329,-0.146183580160141,0.5513926148414612
1789316399847276500,12.408276611328125,-0.2034308910369873,0.008078166283667088,0.6176600456237793
1789316399857309700,12.418309814453124,-0.20831619203090668,0.08567974716424942,0.6329220533370972
1789316399867342600,12.428342529296875,-0.1669386476278305,0.194713294506073,0.6134908199310303
1789316399877375500,12.43837548828125,-0.08948327600955963,0.22633327543735504,0.5596947073936462
1789316399887408400,12.448408447265624,0.010449444875121117,0.1927875578403473,0.4944715201854706
1789316399897441300,12.458441162109375,0.12184840440750122,0.0978756994009018,0.43009597063064575
1789316399907474400,12.468474365234375,0.22055260837078094,-0.02327948994934559,0.3818964958190918
1789316399917507300,12.47850732421875,0.27109700441360474,-0.15018098056316376,0.3619491457939148
1789316399927540500,12.48854052734375,0.2803395092487335,-0.21107815206050873,0.3443683087825775
1789316399937574400,12.498574462890625,0.261766642332077,-0.21992304921150208,0.31155523657798767
1789316399947607600,12.508607666015624,0.21215780079364777,-0.18926899135112762,0.25232118368148804
