seconds_elapsed,z,y,x
0.0,2.2160611152648926,2.230454444885254,0.8891128301620483
0.01,1.9860256706710775,1.7706111503083275,0.40946568183774024
0.02,1.9634845533319933,0.2745360476940334,-1.0494625602001215
0.03,2.1799382232142936,-1.455610318348144,-1.9034179905387687
0.04,2.534995060636561,-1.4656652942350106,-2.1022200397285196
0.05,3.003675942941594,0.17978637327031907,-2.6544894703972615
0.06,3.266146531628665,1.2584171741600396,-2.1853667463343656
0.07,3.0473655103632553,1.0295064570310728,0.03246540709377242
0.08,2.529070620713622,0.2597206823078371,2.671039572555931
0.09,1.9296202309419541,-0.31705531282521104,4.049560380404258
0.1,1.4007049357074552,0.3124530422091915,4.047279280295358
0.11,1.076642232349838,1.8264512993789714,3.018118362276673
0.12,1.0674741986326008,3.401000811038586,0.4921746274359118
0.13,1.182741529533564,2.202239998796142,-1.8988079022994235
0.14,1.381137144691915,-0.17080064577627455,-2.5124210974092063
0.15,1.8019994206236603,-2.338173493808469,-1.8710329796076566
0.16,2.222911404916855,-2.1516893671591992,-1.3741794091638553
0.17,2.3041133622540055,1.0892378332323196,-1.2574612822276163
0.18,1.9068541987328476,4.548078352884556,-0.9663690149224704
0.19,1.3862239695853797,3.6849203499608874,-1.2718039429928854
0.2,0.895880524244629,-0.03517026257002565,-1.329142398736428
0.21,0.5182813645058493,-3.5522094753854754,0.5614955930772502
0.22,0.2324978545145015,-4.02950747125454,2.1457675598553774
0.23,0.2998353657233635,-0.46052858709472244,1.8710535057226092
0.24,0.7555865327757667,6.260792427273227,0.5652687481538591
0.25,1.232973658751983,4.302563878505923,-0.05177465720393235
0.26,1.0347134838891634,1.0345433378798652,-0.6973905131386648
0.27,0.5207926370888357,-1.3747011514583565,-0.49631141319993866
0.28,0.21520751221350476,-2.621476654909483,-0.3007124143079381
0.29,0.4094808249082126,-2.3923141546577735,-0.7202045641001282
0.3,0.8058948179529882,-0.1185894808118756,-1.2214420824445928
0.31,1.008063961501152,2.534255451835146,-1.1037214194174363
0.32,0.8089468551882303,4.1831890817962805,-0.3765690145722246
0.33,0.5527971728309636,3.3009602153735647,0.3197149528037983
0.34,0.2912347945080758,0.32073491743256394,0.5863690436286666
0.35,0.03344667663104749,-1.927757525795253,0.8530542621974907
0.36,0.06714443567909065,-3.659390809781486,1.90690044666567
0.37,0.3229377764106133,-3.010416069312461,2.5815025981854993
0.38,0.8400052874964808,2.8063670022989435,0.92075637563312
0.39,1.1747912731147985,6.23668226563028,-1.0129941942337863
0.4,0.9543586924296414,4.728543118259374,-2.2936050022129026
0.41,0.46818894633791125,1.5186136381011257,-2.883872118974903
0.42,0.14434930245242847,-1.6826775929389874,-2.0124639378055313
0.43,0.1163828800799097,-2.955025702173297,-0.1895132100349777
0.44,0.43385667997294886,-2.701497670656886,2.228332932442257
0.45,0.606921987736864,-0.9083639028572233,4.486112746404829
0.46,0.562332982536204,1.7099114207680466,4.785159717393391
0.47,0.3832872551767607,3.645074574310645,2.8153266764511224
0.48,-0.018948937660278144,3.083450306540067,0.3361595185297442
0.49,-0.3774265234186716,0.9971242219672285,-2.0801432795586328
0.5,-0.3932031404526774,-0.21188287231254366,-4.412843124540635
0.51,0.003548151440225966,-0.17395229456681116,-5.080192591998803
0.52,0.7183234266227396,0.8363377233968127,-3.2293502734752573
0.53,1.296323440283639,4.3943275614106625,-0.1324593251617875
0.54,1.6495540703700244,1.5575802388286448,1.4158718554110632
0.55,1.0892482616159485,-1.1752099007111496,2.8951083353029086
0.56,0.1941330803352488,-2.5633251916362645,3.6348257623314177
0.57,-0.6524798116433796,-1.8727425378600366,3.023407715701118
0.58,-1.0010730515482573,0.7349000195503405,1.3232627711668954
0.59,-1.035026472763988,1.7120234966860608,0.6540836968147357
0.6,-0.9388561006706112,1.6460225977594052,0.8152909019160055
0.61,-0.724909143576304,1.8728297075625848,0.02745386046254043
0.62,-0.5954818738575112,2.646350093919073,-1.4764565928851952
0.63,-0.5582923233530868,2.1084383515133442,-2.244375875864879
0.64,-0.380582542678676,-0.38262772203654954,-2.0335132905139504
0.65,-0.147705838612827,-2.8952884259408305,-0.9450976390079793
0.66,-0.07748761487311015,-2.9060758298293328,0.37123468695323425
0.67,-0.3206137472889986,-0.1414542284764744,1.1937242273458961
0.68,-0.7645469094510752,2.4897032596550197,1.1892693792345472
0.69,-1.3461744993834908,3.0995585248114326,0.3636148798550685
0.7,-1.970214738026924,1.7142173537029293,-0.1757253161961291
0.71,-2.208131967507399,-0.5809860276636934,-0.394017038350331
0.72,-1.984984034458719,-2.2562945706533744,-0.4838749033771436
0.73,-1.6701475205316212,-2.520557355560478,0.2700143924860928
0.74,-1.4342336728455454,-1.4447090810600958,1.4715830712858047
0.75,-1.3384148230548463,0.4300544200400324,2.115271663288364
0.76,-1.3780685709788527,1.984526221714423,1.4020248919803484
0.77,-1.6495672918056157,4.237297074122387,-0.8700320388394895
0.78,-2.059936628187918,1.3806202842009534,-2.414512875753705
0.79,-2.1784335863237687,-1.756908595299659,-2.731762825609838
0.8,-1.6306955694908212,-4.253056078922157,-1.9038008793823635
0.81,-1.0215971492302682,-3.384518122081637,0.46072841925013513
0.82,-0.7774712144236482,1.9488926383236955,2.476316554808998
0.83,-0.6126558032102866,4.340630073082295,3.233636294447732
0.84,-0.8217370928640697,2.4463296428389003,3.121585326366561
0.85,-1.3865624393084954,-0.5017863231468902,2.217681544421643
0.86,-1.9381070875577215,-1.470060254552837,0.36530944643668667
0.87,-1.555446776713007,-1.067510001319296,-3.54797253699673
0.88,-0.333672965048165,-2.3241553545498985,-4.302989105384496
0.89,0.4868415984790904,-1.7711584527016722,-2.7143650272666364
0.9,0.38167254841445225,0.8570643671237623,0.5564265989702917
0.91,-0.25718511712892744,2.9793939122061905,3.4793477475316164
0.92,-1.0968698909468988,2.5029042053093526,3.881127488671096
0.93,-1.835297894464985,-1.277610250273332,1.8902539237247427
0.94,-2.240943758780754,-2.7970506106503423,-0.22538507467104577
0.95,-1.8842773932247492,-1.9712183913367156,-1.4897915825035213
0.96,-1.2462097979381974,-1.522184247944396,-0.9210188719649868
0.97,-0.6896656422988768,0.06512006705635871,1.0669116844754503
0.98,-0.00910477404732703,2.570337524783577,1.2413746045888705
0.99,0.6114000865075113,5.314945151302225,-0.9084888135603285
1.0,0.5339543335547724,0.04732184783498741,-1.356758671362973
1.01,-0.2912822659917673,-2.2813164029901873,-1.467825411168952
1.02,-1.0004368995939794,-3.050694574024126,-1.2072480434338488
1.03,-1.4779181624730855,-1.9490400916169632,0.3426516522868489
1.04,-1.527496331780748,0.1408855516315236,1.6066023513231398
1.05,-1.3937186319624866,2.043866103669703,1.6390337712811034
1.06,-1.4227113663001125,2.2595107377382564,1.451273124161106
1.07,-1.547222997324175,0.7127248272868578,1.1788407231180726
1.08,-1.5999664714022883,-1.1959281376753452,0.38582885180615406
1.09,-1.4213825999264953,-2.3943926115854532,-0.7351830951782375
1.1,-0.9950669133162328,-2.326317445532908,-1.5935858166587875
1.11,-0.4671057945505679,-1.6134338896105909,-1.8671571107607867
1.12,-0.03241951192710405,-1.0787319887015607,-1.72533382058397
1.13,-0.020669594146221222,-0.40444162720463234,-1.1075259111011375
1.14,-0.4776819872968196,0.3613637744907138,-0.10669930015377806
1.15,-1.207424567137953,0.7778952330405443,1.0806451560551191
1.16,-1.89660651967018,0.7880259138286114,1.791107125962758
1.17,-2.2722552152019646,0.42824292160206795,1.8180745383952022
1.18,-2.138559750123276,-0.5724070618640794,1.3917369758222315
1.19,-1.5816259487922912,-1.6922170334660132,1.0138897044176542
1.2,-0.9029374274164726,-1.7917497286269781,0.8119314235939206
1.21,-0.23956816426122912,-0.7137345651677851,0.23173658288499843
1.22,0.21438550960346034,0.43233914415062324,-0.6224703969356128
1.23,0.27855434493888087,0.8460246266875496,-1.5478541822911072
1.24,0.028459263862393752,0.3274383742801967,-2.4202511833892273
1.25,-0.3770017342149721,-1.2663716167353098,-1.8688648040367586
1.26,-0.7373691202083796,-2.4502429143741127,-0.5273221246106126
1.27,-0.8003104131703462,-2.31722296599047,0.4320673650330382
1.28,-0.5121089282627919,-1.4021884050299314,1.33406735414457
1.29,-0.08580880360022722,-0.12468708216019371,1.702472660843881
1.3,0.21123709081904524,0.6194689460557399,1.4945096850762087
1.31,0.17101773449695515,0.6095946734432278,1.2603126164785736
1.32,-0.12840012363229406,0.36092576558266803,0.7209211385164433
1.33,-0.37696386420024636,-0.15591658567036895,-0.380278443997443
1.34,-0.4886249821075684,-0.7694737540302606,-0.8799559604354463
1.35,-0.4857040340659951,-0.6280771713359119,-0.7544872362573537
1.36,-0.3685255601086902,0.20193432834806893,-0.5857386304591417
1.37,-0.11803686273531867,0.5006878097622732,-0.2739833303235436
1.38,0.12061987135114079,0.04399763831793384,0.013181995331536486
1.39,0.21914291082327375,-0.41080119320163266,-0.26254216727838897
1.4,0.23052322197110142,-0.8469469597015701,-0.6062380174274532
1.41,0.16144303904760404,-1.2756996098725506,-0.14077053240157444
1.42,0.05880588959948203,-1.5690116029452323,0.8165885827006526
1.43,-0.01625994974944264,-1.972894177412412,1.9667413494273671
1.44,-0.10259684123051029,-1.4779152273449083,2.278341504810294
1.45,-0.18303869792442337,0.16438199133140374,1.4930276137040435
1.46,0.10970527544933757,3.3956190295817277,-1.6991147726737201
1.47,0.36824725591374663,-1.4044729352961365,-3.146276714735883
1.48,0.04611754372864408,-1.2417435482976533,-2.177218521579147
1.49,-0.13639945837652387,-0.5611671341758986,-0.30124865539077844
1.5,-0.2986933729827448,-0.12894234249966852,1.6254821187782997
1.51,-0.3422864661281321,-0.2794280318480142,2.451379436821626
1.52,-0.1276734572052033,0.12494879204390691,1.692731149552276
1.53,-0.2271126871160991,-1.0201138939650218,0.4700986979946077
1.54,-0.5581473332105554,-1.3148183553489863,0.4399350356368767
1.55,-0.7544738485897319,-1.0140269753865137,1.592197611934467
1.56,-0.7417784810375468,-0.5609119571886828,2.0939893262077467
1.57,-0.15511516432636718,2.4557079849710495,-0.9758140776999822
1.58,-0.06693359603963608,1.0489237710001587,-2.4923950045219687
1.59,-0.48478314163368136,-0.5942496292871231,-1.9088864747332877
1.6,-0.8183027680475738,-2.1655878076884356,-1.1128851913758446
1.61,-0.8495136282594687,-3.102919463224909,-0.36834793677627314
1.62,-0.5981452507049705,-2.235170918311696,0.8895142555501807
1.63,-0.4352865629141092,-1.2890203288423994,1.4807281985829357
1.64,-0.4952035507975955,-0.4685872915954194,2.2487189717089153
1.65,-0.4598447520657864,0.34636217278266573,1.8809366960042804
1.66,-0.3542999726813646,1.8559139904118536,0.5296625970493405
1.67,-0.27657636257864326,1.4899914791950775,-1.2467567261438408
1.68,-0.4005626325760484,-0.16671791509631584,-2.8479130655764093
1.69,-0.35853962794441585,-1.7480206071560922,-2.159664174481155
1.7,0.009158743080843053,-3.4534892084835493,0.6061021258516397
1.71,0.5460372770873094,-2.9360162878056877,1.9779553809046733
1.72,1.0670898124030745,-0.6259241319724408,2.1972527506937123
1.73,1.3490478743559806,1.1961504392634525,2.5748856249114094
1.74,1.3462943660852238,2.0429991876198503,1.716573185573301
1.75,1.1247135278409126,1.9320638278132625,-0.7574734364338046
1.76,0.7612128231017787,0.22880349601449332,-2.1774433670193
1.77,0.5727010728641055,-1.1689013668256072,-1.8409334667533612
1.78,0.6706260834020203,-1.8893608285390404,-0.7857594917140381
1.79,1.1430613361262336,-1.3830558191012174,-0.05788444834054481
1.8,1.7545900091840125,-0.0989798205638825,0.7822740820311236
1.81,2.0336425969790155,1.342438826932267,1.5065306888698193
1.82,1.8916552169658098,2.1308904571740466,0.926946163920089
1.83,1.5478275608431196,0.7041627087320812,0.376881482772466
1.84,1.38643178660865,-2.1958631670060895,-0.8868117690674205
1.85,1.6044563350556862,-0.6403306932384566,-2.925731831864246
1.86,2.036603470291977,-0.44121175999462514,-1.716973867784926
1.87,2.2688917127184993,-1.340593229501238,0.5499441605078708
1.88,2.3636780014540464,-0.4823436679353636,2.48956726387277
1.89,2.311560814788653,1.8882693693984964,3.6485487329693456
1.9,2.059163247511582,4.045611260527624,3.316997567785405
1.91,1.5996863507719385,3.67828461699261,1.1584536650733195
1.92,1.0698171659447813,0.9412229081161217,-0.8742519551704476
1.93,0.7783491121861754,-1.2137317808819337,-1.7807009500629276
1.94,1.150054599379315,-1.6519754441522594,-4.1789794822935855
1.95,2.415787798663288,-0.6249882464944092,-5.352758856470442
1.96,3.0516139369781414,-0.9514212247521097,-2.3244086637653476
1.97,3.1063154514592815,-0.4215042815040229,1.2028973101549936
1.98,2.833281934744755,0.3077278440349066,3.2844866936966333
1.99,2.1277728084680905,1.7923589506355593,3.5483618813410165
2.0,1.1625382235181683,5.419643025875193,1.2714892126375226
2.01,0.13222498333340826,0.586384611033243,-0.6474911584104107
2.02,-0.5097441725528412,-0.7468488189646045,-0.8619176301479968
2.03,-0.24222129870576703,-2.5412303439510744,0.38039165328984004
2.04,0.5050484740584091,-2.623724630584365,1.7796880586892478
2.05,1.6478942905593672,-0.2142457233520644,1.4980985951182901
2.06,2.584095828303401,4.648989749347861,-0.4285151518976593
2.07,2.6805771644756398,6.938103957979432,-2.61216602411607
2.08,2.1737083682289815,-1.0624499318916214,-4.5815842549841745
2.09,1.205311789934362,-1.326605301074919,-3.028659990441226
2.1,0.6540274210329763,-2.46313613777094,0.5385909479509237
2.11,0.36997984695665276,-3.3509550852417243,3.566258815010728
2.12,0.10916697559755356,0.5255440028749844,4.690048767419941
2.13,0.09694705067994328,12.34985770499528,2.045926040736524
2.14,0.2038525336716614,3.0795738236416903,-1.035294292481923
2.15,-0.1626012812459281,-1.6863476765023029,-1.3926286710785083
2.16,0.2697426160344048,-4.784012964790991,-0.52972153217482
2.17,0.91288932494464,-5.888492385479131,0.6943877239898938
2.18,1.4796655921497452,-1.4585920696623786,1.064400795806382
2.19,1.9505466496351327,12.063018144080175,-0.2494535110231564
2.2,2.084346978508917,4.227494511738926,-1.2460572007201134
2.21,0.6954423224502377,0.7973493597993045,-1.6762109406952344
2.22,-0.36666766584636806,-0.43823489047260633,-0.24018128859756233
2.23,-0.904567331870759,-1.6018940254029157,1.4536589573150183
2.24,-0.86597067213781,-2.1423335883539556,1.0859253694470037
2.25,0.037302641737384394,0.2037142589947329,-0.6573869703860644
2.26,0.8777945550751539,3.9248338976526296,-0.44286072619700273
2.27,1.3461069679188038,0.32374082706346446,0.8116269282048745
2.28,1.0236081645969786,-2.071938372001861,2.0001474966185753
2.29,0.3330589671055492,-2.398583436754421,2.318615131498738
2.3,-0.17446703366384578,-0.9300526591018612,0.8707780477026967
2.31,-0.2917634199373681,4.544992862885659,-2.01960649851698
2.32,-0.42033133019789637,5.223124690752423,-3.2067884035708625
2.33,-0.5868046264660005,0.2660763762836947,-2.0349661811837545
2.34,-0.7613050971564022,-1.6666168697745525,-0.09001620158422576
2.35,-0.6264878501192594,-3.4657796415229405,1.6193252503427116
2.36,-0.5635909369894301,-1.6244327060712884,2.154300976558361
2.37,-0.1828936929669904,6.5376385555341505,0.23325694061603677
2.38,0.07736469527643336,6.408643001984853,-1.1105176350769306
2.39,-0.3511401449035015,0.33834048033820563,-1.13062092479503
2.4,-1.0346856676029668,-4.0181799762769,0.12317062196187155
2.41,-1.7128846494862187,-4.703164317510764,1.4543874746110204
2.42,-2.0101021706701103,-2.5344182880642196,1.7322664538392731
2.43,-1.7310924297178922,1.0017843771357897,0.5994546879177945
2.44,-1.4352275879636085,3.2204020784759333,-1.1124819368265837
2.45,-1.7455979437771167,3.3384798546893264,-1.4214227669042183
2.46,-2.3348630563030732,1.9071535007601712,-0.7559634458105734
2.47,-2.6981675294176513,-1.046151356816968,-0.8761004603198904
2.48,-2.669971172169212,-4.157176347475977,-0.22986996020988354
2.49,-2.7609412640316005,-4.347080376561686,1.7606219352399615
2.5,-2.987080619004911,-1.664355117498548,2.8947382183200774
2.51,-2.8202948232682306,-0.1093409133560585,2.8675993532088153
2.52,-2.607920232067496,-0.23302027134587697,2.590135828898198
2.53,-2.425494256477675,-0.2916035963522899,1.525240822326723
2.54,-2.073364525693452,0.5968705953935928,-0.694968689625915
2.55,-1.632592537342294,1.5971511279682677,-3.075590488947632
2.56,-1.2972755733617511,0.7494042550102711,-5.051843209811345
2.57,-1.314482079847766,-0.1555644391537943,-5.203630497917499
2.58,-1.735289278650093,-0.27841940632563655,-2.4858101731826077
2.59,-2.0451692287281498,-0.8159937468191577,1.3717743995644212
2.6,-2.1388107829745397,-1.973236783357922,3.8060767199531997
2.61,-2.113672233128831,-1.1719082815563724,4.087326291753318
2.62,-1.8953124920585127,4.007569519561753,2.3848204323378193
2.63,-1.669290451404639,-0.8114914960280355,1.1036363220730925
2.64,-1.5646223341319079,-3.395609007941327,0.9851482014531057
2.65,-1.2760507205794678,-3.528609714572927,1.2937960067947745
2.66,-0.9648082477545693,-0.6548201643385424,1.045653410508503
2.67,-0.21248969524353814,3.2708130907953743,-1.58996024356491
2.68,0.4081502594109153,-0.939086927761186,-3.448544864799467
2.69,0.08438561288107725,-0.6306000911913133,-3.2993558444745394
2.7,-0.43785240812102594,1.1608422196700867,-1.8887209923065134
2.71,-0.8271440844867824,1.8370464440277496,0.09231071165726915
2.72,-0.6195272271036425,-0.8029428390115279,1.2518523607467216
2.73,-0.2189046685402498,-3.3553142834071754,1.6539022887511987
2.74,-0.1191041878128122,-1.2252717784681646,2.294044632228533
2.75,0.1330175893165728,-0.024420567831508862,2.932348228113679
2.76,0.4647403411918039,0.04469469840633187,2.887168796868098
2.77,0.5056592483536223,0.9373446454404396,2.3496331308909157
2.78,0.40127110886530043,2.1288590050440885,0.44306052837284443
2.79,0.32994224578306064,1.2890965896811735,-1.4389009024992179
2.8,0.3386578712345219,-1.2116774790118854,-1.9360260534139806
2.81,0.440310252628671,-2.1378806925102687,-2.6521870913749366
2.82,0.6522297551761403,0.00576445362729988,-4.065268499509091
2.83,0.8534776893191349,1.3395104702335316,-3.023828980284244
2.84,0.9394549396633044,0.268026119608341,-1.3206584835224031
2.85,0.8900160711234519,-0.9519617230318699,1.126543108981641
2.86,0.7783125787769563,-1.6856226053511933,3.7496415109097962
2.87,0.7915722888876248,-1.4755060542062803,4.601382761885764
2.88,0.8451201098326654,-0.6000276863043527,3.5205194461793052
2.89,0.6990021622787665,-0.5374962412331296,1.5510640398947158
2.9,0.2295385758686397,-0.2829536685492926,0.2500206062517707
2.91,-0.32100244977613085,1.1736741448460923,-0.5119469477270518
2.92,-0.3628568721845568,2.011518039540617,-2.104415102219715
2.93,0.1930230275005256,1.2397783598605239,-3.709403700736188
2.94,0.8628314572574867,0.05517262905905312,-3.5942940120910074
2.95,1.2677891896672677,-0.05470754425639457,-2.0723568723945287
2.96,1.4937654907755251,-0.15255394993270666,-0.14034591606365
2.97,1.5167173531956186,-0.7103184238332843,1.600892734772208
2.98,1.2309422932382843,-0.6415554494073806,2.1695204316063106
2.99,0.7502732923493982,0.22307284443604167,1.608055757056768
3.0,0.40868856887831195,1.271880816235101,0.16715725961811406
3.01,0.38126908150786987,1.29207109622402,-1.4504005692184558
3.02,0.5149224084966367,0.09857583445495084,-1.9331735370912262
3.03,0.6606202178847017,-0.8599596434840275,-0.6369281532868458
3.04,0.7873068514010679,-1.2481137392826056,1.4505874835374841
3.05,0.9815839082777997,-0.10777102640819511,1.9604548064506602
3.06,1.066814005740424,3.4769026801034406,0.5276599859648485
3.07,0.8585229790446269,1.9099110135946107,-1.1041786059713228
3.08,0.06159147297693087,0.19692443826962489,-1.5423616060806737
3.09,-0.4854090789466559,-1.5179879190121663,-0.7871345813173872
3.1,-0.6152359750082801,-2.4989537123040186,0.539712420218765
3.11,-0.3148225548985877,-1.5828532457230637,0.7422354930047144
3.12,0.3135061104455326,1.411210779056229,-0.3341999487987339
3.13,0.6344664703887792,1.242906782903466,-0.30637224007696
3.14,0.5071791645876167,-0.5579154719737897,0.46388306794795753
3.15,-0.05769136917030975,-1.2503918502270062,1.2229360410603767
3.16,-0.6822797633620151,-0.8299157693272654,1.2522331972063654
3.17,-1.0517709981028527,-0.38444542521453456,0.2281791215128579
3.18,-1.352532378986771,0.27555932807365846,-0.43729046632614
3.19,-1.7577939887428444,1.161570944014843,-0.3860997374852475
3.2,-1.975348492504694,1.073094747408651,-1.0663520810698897
3.21,-1.9083980742934687,-0.866034888700353,-0.9719555587314038
3.22,-1.7783657303977303,-2.6402393499051153,0.11879403842257248
3.23,-1.630017924843472,-2.4046671058148417,0.08893055272711049
3.24,-1.2508142187017992,-0.8592512471736976,-0.3529013144260152
3.25,-1.014193057617885,2.086409088519046,-0.12833555471028704
3.26,-1.0021999520784206,1.1309389227754514,-0.9995682574621135
3.27,-1.6290163001191038,-1.9962664605385796,0.19081413845529357
3.28,-2.468569824182983,-3.167230645251557,2.7085680453269534
3.29,-3.0792046136670868,-2.542956521867235,3.471579911144745
3.3,-2.9516015078887596,-1.529108271756931,1.9959434521920427
3.31,-2.139212312202909,1.1595746062295584,-0.4992307748998815
3.32,-1.2343657080442352,-0.9059193219252891,-1.7296319075782542
3.33,-0.6469636872966182,-0.9747106149912819,-2.0939303097598674
3.34,-0.44452831097995826,0.4173872894116964,-0.6834934168990823
3.35,-0.3623876084136749,0.4005735779987708,1.3144534077761165
3.36,-0.11363324034271949,-1.5558254737420267,1.2121376761644953
3.37,0.11070236260226268,-2.371688023906413,-1.4182991136688663
3.38,-0.014165433880200749,-0.12344286294319165,-2.0052641876117976
3.39,-0.26054359804335875,-0.6737586782603813,-0.5571022731634501
3.4,-0.4774476106996509,-0.6922985659030777,0.8473873898370607
3.41,-0.45157097722811235,0.6932867955490568,0.48258207662835967
3.42,-0.16059205778200125,1.1355115288388706,0.3834435370812146
3.43,0.1669844824494009,-0.11770927974525124,1.395986895399748
3.44,0.5596716324053389,-0.8563796181624012,0.041161829051333435
3.45,0.9327493255105528,-1.735929068320996,-0.8436802163987162
3.46,1.011714547579858,-2.0669174505275216,1.3084528314709443
3.47,1.1846765555493028,-1.3705432389749908,1.8305278029065921
3.48,1.5400117466825745,0.12162692761873956,0.09249911595478735
3.49,1.4788010939118024,1.5599427390609923,0.11317396836563055
3.5,1.2558482793627654,2.057786315937957,0.244788495076216
3.51,1.242085635134992,1.1539482883571197,-1.424143301941487
3.52,1.229256726808857,-0.5056442563935993,-1.4592004915389738
3.53,1.3274794616672343,-1.287589017124992,-0.38901685717792717
3.54,1.6191770752437795,-0.7230181305951473,-0.5807107357147908
3.55,1.8326121117178453,-0.20395133689278083,0.37684910711849817
3.56,1.8468094667614374,0.6185429321989694,1.626247733880906
3.57,1.840584508767465,1.2555465539591948,1.3601126703453283
3.58,1.7659120193857745,0.7883874892040851,0.5754680152938698
3.59,1.4970419690972228,0.3457157808017412,-0.8153806926858188
3.6,1.1529684048089828,-0.1882875093020786,-1.2864534567380685
3.61,0.9561313274437571,-1.4013234567502957,0.02811288234296082
3.62,0.9807606105710089,-1.5634778570368768,0.9778639583633075
3.63,1.2563942786853632,0.17262936842986346,0.4270660705773095
3.64,1.580019729291638,2.4709807724803117,-0.5561100078045002
3.65,1.8039119611427705,2.0876160728579514,-1.3705486962103932
3.66,1.7377564180199114,0.13895549208661398,-1.3273063246055519
3.67,1.4710172059129623,-1.5563398069847216,-0.2872784250243723
3.68,1.1753474022510202,-1.5281657397652806,0.5797805186358557
3.69,0.9683267536190489,-0.11954730260315044,1.2354403343298253
3.7,0.8939212518861114,1.6126592554392754,1.2087923623836452
3.71,0.9379249709831745,2.615105043351975,0.06872815298655564
3.72,0.9736062909229737,1.6876929416550193,-0.8532707056268699
3.73,0.9647210047525491,-0.4394771088160862,-0.8325923353620972
3.74,1.006325121024166,-2.1394487526026875,-0.21075885567193395
3.75,1.1374840417944385,-2.1558963789657146,0.42102214944978433
3.76,1.2664487785073928,0.11554676913703295,0.33316166019423465
3.77,1.290825710138902,3.0083783636760684,-0.2652020536437069
3.78,1.1673509748374318,3.6128109097482115,-0.9147578132062608
3.79,0.9621746973836124,1.8357026138210126,-1.4010704261735973
3.8,0.8160023727128172,-1.1606261876889026,-0.4442622085131783
3.81,0.8418424722518218,-3.27353510854066,1.0348823746650404
3.82,1.0584749709192363,-2.4634288977150267,1.3289115981056638
3.83,1.2644508025225305,1.7049394469250179,0.8313599977936469
3.84,1.420247815868799,5.235945317415295,-0.10680585229976831
3.85,1.4182587493765502,3.671883719365867,-1.2049102358247124
3.86,1.1803907217146428,0.46662851156957935,-1.6328951785049852
3.87,0.9506175545118296,-2.0008132175959608,-0.41345375617868974
3.88,0.9462304353882772,-2.3245050647345638,0.9744622956322612
3.89,1.2317260818252866,-0.45377337815254043,1.1271499744393114
3.9,1.4496663670647387,2.5321294350560524,0.8998229933489296
3.91,1.3960852867263889,4.498599527915089,0.4531993819458967
3.92,1.2718941838598619,3.657961749800324,-0.5102160975468167
3.93,1.169504241702593,0.6669356741197366,-0.8070382781068716
3.94,1.1532915924383718,-1.8145737659367271,-0.12722142272796885
3.95,1.21149704489007,-1.7968204253881517,0.4084226956485395
3.96,1.2819654786628092,-0.14328067883804474,1.0617533551730796
3.97,1.129615884138562,1.7330300919716157,1.9748033361901796
3.98,0.7132732873633592,3.0687662444155492,1.8783514570736917
3.99,0.21586244341830196,3.213856210657611,0.4235476424149753
4.0,-0.06869688997541444,1.7359441436094565,-1.2297142614942342
4.01,0.06214136148075665,-0.8355949689193486,-1.7918598367083565
4.02,0.41757425674953424,-1.7038685718610054,-1.7875180001542452
4.03,0.7171856071060985,-0.48025508362133174,-0.9188961480975004
4.04,0.8539768351395345,1.4629186301696744,0.7098299085867353
4.05,0.9257586241898553,3.2308619211535428,0.9773327774539882
4.06,0.6765419534337099,4.105124733274144,0.274595499576043
4.07,0.0026254955874798207,2.442809432224585,0.22895144646574958
4.08,-0.6156717120370672,-0.631826710173812,0.40969489069667026
4.09,-0.7586507776373569,-3.78886191917341,0.6874532151186056
4.1,-0.6481898419059727,-3.4579625663301994,0.7864986968161435
4.11,-0.5775466785408152,0.6512544328537306,0.5098374306951888
4.12,-0.7339534645763303,3.2229047002139497,0.39899762527839927
4.13,-1.320021018549686,2.465817617604128,0.5011486704370425
4.14,-2.3390338276191303,0.40361170916393185,0.6498897169759543
4.15,-3.3155396936926325,-1.5618478468636598,0.5505622634393078
4.16,-3.6825837318352774,-2.83959424949098,0.1950445042189541
4.17,-3.5565627981066794,-2.3648636307890785,-0.05904297614435269
4.18,-3.3073202482113917,-0.24546469162134246,-0.208367615041964
4.19,-2.776441873495917,1.2911627736183842,-0.2294773115621359
4.2,-2.299053653889738,1.4837256426429473,0.009294206275087048
4.21,-2.171525560643206,-1.0888138396901776,-0.0898284770782523
4.22,-2.7178997237723563,-3.14100225744756,1.1874655642871341
4.23,-3.6644444649453027,-2.8521502453051206,3.1719363524827475
4.24,-4.280907642430395,-1.8732420936249083,3.189455278275457
4.25,-4.1849616680795565,-1.5728284051542303,1.4378742281008883
4.26,-3.4630800107680546,1.3112973741803917,-0.9736621811116907
4.27,-2.139854233215928,4.829437725692801,-3.284376898323665
4.28,-0.6578394276425241,0.4507012606657731,-4.030618266900907
4.29,0.15789456107997893,-0.5008290004212698,-3.4321389682524837
4.3,0.4916844380911204,0.8269225066517762,-1.1054414886170036
4.31,0.3283213360107501,1.9325408911899529,1.7893088676821436
4.32,-0.030700342306258406,-0.22712267100332664,3.2103610674377245
4.33,-0.6007287834398979,-3.799292553477296,2.4350394549671868
4.34,-1.2423585415439422,-2.2999493284951393,1.0467304907643933
4.35,-1.3685331894170139,-0.7169946892867137,0.9460724479062411
4.36,-0.9173402884395805,0.023421411314212805,0.6868721973887982
4.37,-0.15444616141250594,1.3284622348823945,-0.5411050412023529
4.38,0.1952862847161455,2.519161755441099,-0.5647784696071866
4.39,0.3888874971264222,2.038048641550773,-1.1400966610140302
4.4,0.4880828514282064,-0.5021065125624076,-1.8469110519527783
4.41,0.3576812233622669,-2.875749773174943,-1.581519690183346
4.42,0.038147303015663464,-2.6514255804635134,-0.9001408273425116
4.43,-0.4421032147630364,-1.0079851256517094,1.188588101267975
4.44,-0.5646263112881641,1.0831371276816832,1.005073021908735
4.45,-0.25733214623801853,1.4462751611098603,-0.2433215152806478
4.46,-0.2587130821102815,-0.7473074576189822,1.8391731665832398
4.47,-0.5049886472294952,-1.1107185983900616,2.090292602328035
4.48,-0.408066890223765,-0.6739948242319951,-0.36524306239294874
4.49,-0.39731195424001553,-0.9619000447491767,-0.047280054870464217
4.5,-0.4267375876400738,-0.6592776890246005,0.856922554157425
4.51,-0.26675261549094004,0.7659808302356401,-0.9103190811966778
4.52,-0.3097260100374395,1.1331975646576682,-1.4057310423482832
4.53,-0.6405898403701199,0.3889070892900002,0.3192342730567959
4.54,-0.8958292398103024,-0.7574666752741979,0.9824683369283816
4.55,-0.9296379906973663,-2.009758048991182,0.5004268799434536
4.56,-0.7904482990003413,-2.1231531594874977,-0.07570372714344577
4.57,-0.480372051542118,-0.91293122348817,-0.8336718684342322
4.58,-0.17454413898023022,0.27806688757133424,-1.3707573007437273
4.59,-0.07806607948314455,0.7402739889371084,-1.3846468174139146
4.6,-0.25368640801579406,0.19952293276388464,-0.16412938863925985
4.61,-0.38311647998563597,-1.0529262017860708,0.48818498849293573
4.62,-0.37635152294257085,-1.812811113509938,-0.05266091000084638
4.63,-0.5604954588955035,-1.589420680453049,1.3010547311499943
4.64,-0.7817049159481315,-0.18624350905518552,1.9133892162822324
4.65,-0.6802021378749777,0.8189986468133247,0.29658653706410765
4.66,-0.6859305073551847,0.1372869616028095,0.3620960892841304
4.67,-0.6330221094866305,-1.0879888166549747,0.10737476262513088
4.68,-0.2953804565576106,-1.8760774646823297,-1.609130640737752
4.69,0.12107363801274054,-1.0145306368983742,-1.7216941986821448
4.7,0.6640249573397398,1.6364945351808016,-1.8713826330431804
4.71,0.9509221019246686,-0.1324115365547082,-1.6812452191889704
4.72,0.514545441555815,-0.9159357840017245,1.5091792788151028
4.73,-0.05544139451002632,-0.6861130782143243,3.5165840458577655
4.74,-0.4221680372819255,-0.5705492186337291,3.6320870556253926
4.75,-0.7129323723663539,-0.5601887651441285,2.9987945608769326
4.76,-0.6533510203499812,-0.7169851951042067,0.2345007793948381
4.77,-0.4744913097356796,-0.657617843566597,-1.9888656685740271
4.78,-0.2752165087252187,-1.0213364469052517,-1.8169410270523836
4.79,0.23281518392532868,-1.0749428265229306,-1.7187795516089894
4.8,0.8890957488476977,-0.6593156333996114,-1.0947445091810104
4.81,1.6663848387826041,0.6412585431175095,-0.7486948351056832
4.82,2.1748604204684465,1.5668892261952165,-1.554268001266526
4.83,1.685859668048774,0.059416947683637,-0.24022403407986592
4.84,0.6161883820528106,0.03467986990494373,1.0514958304054063
4.85,0.058636590285806346,-0.70051570125084,0.9320919313340287
4.86,0.040465616814014935,-1.7347299729509946,1.1919861954123923
4.87,0.4130555218155438,-0.8878264957722627,0.7467318307900387
4.88,1.0764855716026605,0.4357689881213215,0.39913115458302717
4.89,1.5813783989423307,1.4619611190345752,0.5318562709306565
4.9,2.108947812321344,1.7821312382710426,-0.5211494822221477
4.91,2.3139474597768785,0.9259905620286566,-0.7464601517277004
4.92,2.1489958088258336,0.21455101559736897,-0.96282795634609
4.93,2.0015050094346454,-0.31887059501385095,-1.4443183334796472
4.94,1.825582507318582,-1.0715313880059494,0.32991258167034665
4.95,1.6213850327504333,0.09789822968859298,0.6547062333055088
4.96,1.7958601999480905,1.1703042972504292,-0.42957659350056737
4.97,1.9546613089852383,0.708265297494875,0.5289968187009372
4.98,2.055047968996221,0.8279391314360555,0.15552688868026043
4.99,2.174399139407268,0.775837063696135,-0.3682325012821776
5.0,1.9922182359823994,0.36332119259186824,1.2187571081017865
5.01,1.8488459770713357,0.7709964929033343,0.6672303512764456
5.02,1.779494240900428,0.9443114040341007,-0.5803397793243423
5.03,1.4867343192533387,0.04148139838129601,0.2365802344616055
5.04,1.1900426006745968,0.18521613649455906,-0.40149824133738754
5.05,0.9075274591875536,0.8807739817413065,-0.8268816812695081
5.06,0.660162456356759,0.6427379702748413,0.1657153566876537
5.07,0.5491806564021292,0.4820801973750818,-0.32341690600904643
5.08,0.38238904259867645,0.1796731824496626,-0.03552968568606342
5.09,0.21914813708996575,-0.042229834727477794,0.8303078900021231
5.1,0.1956707232191198,0.44225037842621173,0.181646109064116
5.11,0.10238288027961812,0.4777094849405982,0.6090374298931366
5.12,-0.028902784415283687,0.24691628543186153,0.859434648240818
5.13,-0.26247314019641804,0.7265489744718382,0.1530883192088606
5.14,-0.46306973105606386,0.5149163976159696,0.1762227988454093
5.15,-0.3711444517370526,-0.0718196753297208,-0.9714402578581585
5.16,-0.2505612857326766,-0.5121910853795933,-1.16969434813687
5.17,-0.21907343433248214,-0.030604606995840458,-0.20560768631541962
5.18,-0.27455754638911734,2.372069670494021,-1.3550428725413066
5.19,-0.5012092945854507,1.8400502433434758,-0.6147552153543568
5.2,-0.7580979019785676,-1.2966549499430633,1.3236505732863064
5.21,-1.1919612522548533,-2.291661085963905,0.9140461225318122
5.22,-1.5397667661563779,-1.722116856861518,1.4609442679372668
5.23,-1.5069521173813911,0.31563085624823184,1.9462406896075837
5.24,-1.1796633223350157,3.4251257449522994,0.4336840343850005
5.25,-0.9729367671502782,2.2547770814623207,-0.3066128554577914
5.26,-0.93731401906694,-0.33846184544587304,-0.8315346199851594
5.27,-1.0882871774842402,-1.416975094381783,-1.5929617977614452
5.28,-1.0712336371317315,-1.8724103668021115,-1.1987663619900997
5.29,-0.7718878057311765,-2.0439160081150027,-0.9029461742597514
5.3,-0.6974190055734385,-0.18339811427627514,-0.8842143680453542
5.31,-0.8498486002169787,1.9722210684057997,0.34581140720637116
5.32,-0.8005238376229271,1.9183870900400741,1.2181447782038177
5.33,-0.7527934783733684,0.9021750197208757,0.9750605293393914
5.34,-0.8191149932059448,-0.12834513112123966,1.0766591543066562
5.35,-0.7294860351568259,-0.8020640754526591,0.5999931060339347
5.36,-0.4192925102992872,-1.2016690498192508,0.3206067216306055
5.37,0.12784864479201224,-0.7895633953460963,-0.43020064851030737
5.38,0.6221355107338095,0.7793350210596084,-1.68265704925182
5.39,0.5784101222311865,1.490689128474961,-0.7394632302600543
5.4,0.24406679285731825,1.5298122075786993,-0.3159561164799111
5.41,-0.10400144186583457,0.8907829370446553,-1.042107487448592
5.42,-0.4754294150563381,-0.5520676063482606,0.3725808776692427
5.43,-0.6629020211110379,-1.034642148122687,0.9580723900373163
5.44,-0.5639137643467484,-0.31481221521934377,0.01634732442353082
5.45,-0.38342524490318414,-0.13395654703297938,1.0699871231276892
5.46,-0.11164952717386264,0.00016769795636828493,1.3314471998814321
5.47,0.007610848920119258,0.5118345070534425,0.5980131425900417
5.48,-0.24371610041456682,0.6827441715550562,0.7321339056067127
5.49,-0.5466712908278948,0.28222508443844174,-0.04451865600148009
5.5,-0.9656913212911975,-0.4980659166047633,-0.49749542811756076
5.51,-1.304459264394848,-1.1931130372730239,-0.5234048695033731
5.52,-1.387474453225599,-1.313213893182355,-0.9710750077236923
5.53,-1.3706230968029551,-0.9925711405850427,-0.31365073306005664
5.54,-1.1947990400094974,-0.3094212185787763,-0.05879403383021461
5.55,-1.0053014154717588,-0.010443318045130608,-0.014497409995103284
5.56,-1.0613550345598017,-0.17869351147163795,0.8985864942263339
5.57,-1.0967990625468151,-0.20965461209899042,0.23077904324075346
5.58,-1.2543154764464282,-0.4628055283475932,-0.23019038539320064
5.59,-1.5502108292535168,-0.8648290210092683,0.049945843387356643
5.6,-1.7493123975009088,-1.215120934368355,-0.6546175681643481
5.61,-1.9757964815715487,-1.452818335558605,-0.0600750162738201
5.62,-2.021061539731497,-0.7854259265212273,0.21915499858575457
5.63,-1.7168915940100091,-0.10438359736053118,-0.8378382698526149
5.64,-1.5503523165222866,0.017275012188500027,-0.24002493773659211
5.65,-1.4592601747846181,0.2420955329125057,0.04024428209293989
5.66,-1.2595538894068634,-0.2921520423056306,-0.7752111685396008
5.67,-1.2941616810007215,-1.3718414247611066,-0.20071730675194352
5.68,-1.5490484027301576,-1.5219773789367255,-0.09632257203968332
5.69,-1.7135782396602552,-2.0381160584272564,0.18829909182580942
5.7,-1.7919759950771559,-2.3669303398834107,1.8435844596447966
5.71,-1.5886117143453686,-0.7757172815725641,1.4089244273189203
5.72,-1.2115567346829346,1.0214444966822693,0.4950542705196127
5.73,-0.8890765571185468,1.3045553274079318,1.1390431198564337
5.74,-0.3290083476243505,0.3945806477482486,0.03317467078559267
5.75,0.15236420964923353,-1.028032773458612,-0.936157263609624
5.76,0.18903642338495075,-1.6032862496981093,0.044798165314059425
5.77,0.25499872847710736,-1.4705795105876052,-0.679997622242092
5.78,0.46932871439959284,-2.0890651287768036,-1.0417253880389201
5.79,0.38632215712264095,-1.7164380568063977,0.21675237298363006
5.8,0.20652198666775495,0.1470583243608948,0.1449992095534946
5.81,-0.0022977295977749906,0.9124753662808813,1.214877709365729
5.82,-0.024670702538283865,0.651043562714716,1.6328137525436934
5.83,0.5049745303014419,-0.6441837434247977,-0.19070842056953324
5.84,0.9580610978671906,-1.4824838316054738,0.26970455778990043
5.85,1.3413453349720132,-0.642474010308745,0.7487116118664251
5.86,1.871724913911475,-0.31724400191249913,0.9542752704994651
5.87,2.1063536205153377,0.4138171674182562,1.8379334004707588
5.88,2.293606297252351,2.433526107251305,0.22440472217936142
5.89,2.282302079993487,2.496731246294252,-1.0793354195032019
5.9,1.8757863890846567,-0.08803645192618548,-0.4934848916547035
5.91,1.578174051429468,-1.5284719535481113,-1.6626933407808846
5.92,1.5481503128099747,-1.9557247102684874,-0.7356643319580599
5.93,1.7143330690754768,-0.9560737260273994,1.3232747839064374
5.94,2.2259570550983487,0.6337210423654139,1.3242534469737597
5.95,2.5301753813288195,0.97329333432799,2.4570728843108793
5.96,2.586716993025383,1.1025127624294877,2.5494505045025053
5.97,2.4770381548849243,1.8535982314202037,0.23466443440968593
5.98,2.0841684807522216,1.4816698487009472,-1.0627790969821518
5.99,1.7841885234845152,0.4020032051288321,-2.46930740451222
6.0,1.6864533540898663,-0.11806753395819765,-3.199886533868145
6.01,1.7330952985158223,-0.36686477765752923,-1.205602118604504
6.02,2.052114570200539,0.23132072496475542,-0.07163858643211006
6.03,2.5243954609814825,0.9405249813260923,0.38783962865288485
6.04,2.78527309357896,0.9414022191802068,1.6098989398838184
6.05,2.789301760385687,1.2969200841932271,0.9327833142431676
6.06,2.5372108546976113,1.33644668917518,-0.3074488722353134
6.07,2.0767256053681664,0.7021800629626563,-0.43018566744087294
6.08,1.6208182329920051,0.5276372080366438,-0.9035046594227722
6.09,1.3295365022406556,0.3340999002851293,-0.5868600263382249
6.1,1.2972780016663763,0.5974916269909988,0.3176385993941235
6.11,1.6727917532143333,2.2711175983163137,-0.03916080438888513
6.12,2.2866951208812134,2.2321714614234858,-0.4339798835428593
6.13,2.543971264644233,-0.4211592506551096,-0.038730872746600455
6.14,2.2515636852127527,-1.400550707395623,0.9372338204853573
6.15,1.6327642078054014,-0.9447569627140897,2.3978331690424945
6.16,0.9536219478855841,1.7899042573212138,2.452423752632488
6.17,0.5303202217433458,4.61203133876731,0.5250480267973413
6.18,0.11505413096262741,3.22943991317787,-1.2446744380128048
6.19,-0.4671381552094057,0.6012379507295826,-2.3167710023302535
6.2,-0.8871967014017751,-0.6478150422577484,-2.1603603006471044
6.21,-0.6245581142124819,-2.1641381961835844,-1.067031554845352
6.22,0.14638161997502927,-2.714635313614615,-0.7994333614975279
6.23,0.5604151733189104,-0.8232951018498026,0.030085467117844912
6.24,0.3970292190219661,1.4068204975860026,2.0140491363865896
6.25,0.07222202000419609,2.7725851911492407,2.0473461351991573
6.26,-0.4251348731997227,3.3234363761331895,0.607971483682418
6.27,-1.1848720743030272,2.3075026139100565,0.056535854923288255
6.28,-1.8399430066511127,-0.41689291620666996,-0.48890556433061594
6.29,-2.1996257800236747,-3.140568075966863,-0.5180939766330365
6.3,-2.284607733255547,-4.482054167002377,1.1414314513911892
6.31,-1.9642804420662876,-0.5568908983323165,1.381493124995429
6.32,-1.1040676212519513,5.473634614172344,-0.490115069716856
6.33,-0.4918659987006421,4.594026527439887,-1.1805874275069352
6.34,-0.6130170895903077,0.05294470799398025,-0.9454938434637743
6.35,-1.128682577954426,-2.721257798730224,-0.6066561548954988
6.36,-1.6753155216681535,-2.6789583847727623,-0.3261166239783534
6.37,-1.9208164244852532,-0.5095682211967297,-0.39010229545710295
6.38,-1.706364819600781,0.8664837877844084,-0.1748137948364109
6.39,-1.583586505754907,0.979532589316483,-0.001698681108737205
6.4,-1.656755903686288,1.1739609912076172,0.10933501500071167
6.41,-1.7800166946752236,0.3786348214119453,1.1495981468915335
6.42,-1.8375898308299203,-0.8628573075544249,1.6671936233830424
6.43,-1.8061679722145392,-1.083114503730824,0.5946640620126642
6.44,-1.7221972200395708,-0.24971399094976726,0.06393622397014341
6.45,-1.2043305586876605,-0.062393142193998705,-0.5688869323366262
6.46,-0.27066311760746925,-0.9866993591114396,-1.945432871305647
6.47,0.25317143682844473,-1.5750689419109518,-1.1680622536420988
6.48,0.16024297874326987,0.16625641078908834,-0.2532696652644848
6.49,-0.19168909123831773,2.2642963657452575,-0.7941272651376011
6.5,-0.8600733685465881,2.295380943130685,0.5554276349353955
6.51,-1.618502085224126,1.2285018308010445,1.7548593746945063
6.52,-2.0492246826109173,-0.21962769318455513,0.39862007746997885
6.53,-2.021267242552212,-2.182028935059486,0.4342319422098039
6.54,-1.656757259319398,-2.666158178534963,1.4771733445068223
6.55,-0.838501573516907,-1.4179802642972952,0.6624766051201324
6.56,0.05850824382290289,-0.05712439810095313,-0.3872226663830867
6.57,0.4104564073861187,1.1157420262308064,-0.8713128658766854
6.58,0.08331950287840438,1.6811556419736124,-1.3836848284814474
6.59,-0.6892645571657686,0.6633933654293707,-1.3244942964844137
6.6,-1.6125171316810554,-0.9016481828119359,-0.19149569063893643
6.61,-2.243880813490384,-1.8233750553273476,1.2478777778634604
6.62,-2.1156080140968223,-2.107388685426056,1.5763901619217584
6.63,-1.4288637233680814,-1.289475117889969,1.0599719149841043
6.64,-0.8980960503602567,0.6809000863358519,1.0793700340798753
6.65,-0.6978023127465914,1.9976557348941215,1.1729032370522525
6.66,-0.633743467563325,1.1189588645848427,0.3215374697299949
6.67,-0.6460725792497354,-1.450936912783182,-0.7162608267047376
6.68,-0.7599856932446349,-3.293426851235436,-1.130254353549651
6.69,-0.9417742469451483,-2.634726765890453,-1.2783494842231529
6.7,-1.0208942734559074,-0.5162065204031426,-1.0083810559328181
6.71,-0.8457596886255853,0.734255901186383,-0.20888666049715282
6.72,-0.6344882731751039,0.5263819009404272,1.1066158599595137
6.73,-0.5201452841248292,-0.11864272971090817,1.5564212685715395
6.74,-0.29636134136621256,-1.278798943010853,0.8648565485425231
6.75,-0.26270803896168954,-1.8194450795613335,1.4685891997660103
6.76,-0.36995475004338835,0.28721068771204494,1.6922763112134198
6.77,-0.1808111418348131,2.8727815201766735,-0.792894945427304
6.78,-0.018473519380178473,1.7028376149769011,-2.103650551684576
6.79,-0.3488161057195011,-0.9507451331822797,-0.964312621429786
6.8,-0.8217703882711556,-1.8553904536320998,-0.5250944985247508
6.81,-0.9165123640493722,-2.2986146592854775,-0.37089509018560757
6.82,-0.527519824284217,-1.191731711822172,-0.046786763845206546
6.83,0.1001359210799553,0.4019104728619285,-0.05631554482422064
6.84,0.13319761464831784,0.6414420501078795,0.2160522553538551
6.85,-0.6012603063152744,1.2269289707275834,1.26223573706735
6.86,-1.236860758920198,0.33308823984920677,1.8051937617151381
6.87,-1.308116138179413,-2.56812333585443,1.7916653124596889
6.88,-0.8284615070752135,-4.683042214539135,1.304919201733296
6.89,-0.09780511670454049,-3.7538141299233545,0.3590250751626449
6.9,0.5622634783206962,-0.5529143764056451,-0.6073333897774917
6.91,0.8296244057511882,2.764956309396828,-1.304684394771964
6.92,0.4473475976388892,4.105946621033474,-1.39325874780466
6.93,-0.37277969678156025,2.0998460449225558,-1.9466556351743765
6.94,-1.0387422630925314,-2.1397378321044047,-1.6490565169632243
6.95,-1.1593765418463002,-5.464178012231716,0.7436648345226397
6.96,-0.7631055695853544,-4.447370441120153,1.517570894163828
6.97,-0.0713395874710794,0.04714400698004827,1.1213364153095358
6.98,0.40555810452570784,2.638587015062757,2.0311003677309665
6.99,0.5153830261563616,2.2558974943070513,2.955989615005998
7.0,0.429581938099085,0.2855555388491109,2.3719921478544563
7.01,0.21937410297919802,-1.507695300718153,0.5204840942634242
7.02,0.051724368522293195,-1.2827022954435252,-1.7874530815764833
7.03,-0.003945180097910748,0.18347254608500774,-3.5072449109319614
7.04,-0.04963952688185874,0.7015616103932333,-3.935705383968133
7.05,-0.02735395138064376,-0.16199952976969256,-2.765958775876537
7.06,0.18627415335602507,-2.039767147793533,-0.007212566090908376
7.07,0.4782255230113659,-2.8737932653905767,2.4672653041102284
7.08,0.7446579216020202,-1.6716493804173511,3.29697111594168
7.09,0.9562743775588625,-0.18528047741456477,3.3296106746589387
7.1,1.103085608996039,0.4287195370400039,2.595203942389078
7.11,1.2449486280195246,0.8729644890886733,0.35991636225055534
7.12,1.3319600842938104,1.775634103969925,-1.9884632567022846
7.13,1.3900663238823223,2.161113119041487,-3.1707386917636593
7.14,1.3067936214084959,2.28415617684211,-3.1800216940393673
7.15,1.3425298473107952,2.0067198330076725,-1.6233391874322844
7.16,1.8921875593711388,-0.563947400588363,1.4227687974497885
7.17,2.632641781592287,-2.99158084541362,3.2234461881221246
7.18,3.152971550028301,-2.804133436329624,2.9439425435770907
7.19,3.2167872855836492,-1.3362589412462416,2.9538574682807437
7.2,2.8474628895852425,0.30847958644201917,3.436843766941319
7.21,2.2723579788873063,2.340118788868706,2.71988364873532
7.22,1.589415774154247,5.655741753039536,-0.6967207491243245
7.23,1.0589215632546336,3.3042566226257954,-5.232105276841169
7.24,0.7359275637400371,-1.750209591465651,-6.427293850085367
7.25,0.7617038270272379,-0.7572248923591229,-4.491466644524658
7.26,1.365037594092531,-0.9712047961279701,-1.8576232188954203
7.27,2.155631948831414,-1.868431833486276,1.1704081059822558
7.28,2.763854440327058,0.25769097224060966,3.069821748038107
7.29,3.0987807817703295,5.033102975847831,2.4041186755834696
7.3,2.734756508156494,4.019653664952626,0.720717282387226
7.31,1.490994293091024,0.15829382262034672,-0.3067963266598831
7.32,0.4773833757447449,-0.6590316171256979,-0.3873084342289972
7.33,0.4302586395153463,-2.717012209798134,0.5296424801388788
7.34,1.0177340350122146,-3.734730472735313,1.59914539395727
7.35,1.595493849888925,0.6265687910361866,1.601055981079841
7.36,1.8352194526947727,7.312669581360441,0.4847581664823271
7.37,1.7057397050882623,5.789579591987607,-1.2325567480709696
7.38,1.0540167672200296,-0.0721418371524531,-2.497850775299251
7.39,0.3986474498762887,-2.150290947992793,-1.7872636103816801
7.4,0.17280098847382191,-3.4157216141915834,0.3773168254570202
7.41,0.14677847019391102,-3.1844326641869185,2.100902288202756
7.42,0.4126215388272228,1.0324204257413692,1.7138809936903352
7.43,0.5992304432824663,6.192128213327955,0.2745349394529181
7.44,0.27083539323666483,5.986501155428502,-0.3353680165968557
7.45,-0.4495496446181551,2.27886163903137,-0.5237985007138909
7.46,-1.1280702708867578,-1.8290543732126434,-0.6418405650857986
7.47,-1.3104349685556802,-4.58613490763647,-0.45278241751544607
7.48,-0.9010819328384836,-4.284480205009622,-0.28721065544510105
7.49,-0.2544074630202248,-0.11914266173134622,-0.34133255684280867
7.5,0.11720587842931542,4.0405896916379405,0.033200841038267266
7.51,-0.015065986067502877,4.571979613154786,0.13751337881315917
7.52,-0.6064830389838186,2.318984452833169,-0.11487878385418641
7.53,-1.455688175786977,-0.9672738576462192,0.37448345312067377
7.54,-2.1763338399673398,-2.9853973093675714,0.9757990717497261
7.55,-2.4536528098668824,-2.550705736768914,1.082775650265203
7.56,-2.259162117230166,-0.21940741824697998,1.0207005690418829
7.57,-1.7669519228307338,1.7463619452668173,0.7754248838515145
7.58,-1.3337912864870989,1.9827588998015753,0.18201627352475583
7.59,-1.242834603496706,0.8093939331613631,-0.3777548110137734
7.6,-1.4458469327554404,-0.7846858839754959,-0.6044700901277539
7.61,-1.6626648707089458,-1.865325926493709,-0.6657230503740086
7.62,-1.645826062848003,-1.849231955407155,-0.7673276952921632
7.63,-1.3600170750546479,-0.061580278621059616,-1.2808965852645584
7.64,-1.022663853458361,1.8306565668657082,-1.450870817944092
7.65,-0.920670685988418,1.8813545701441676,-0.6742454932955996
7.66,-1.1012365636009314,0.8376404057241021,0.36532161642593824
7.67,-1.3908878651148608,-0.41589664809360277,1.4450857028413446
7.68,-1.5914581676248327,-0.8257991240181922,1.9342761587493456
7.69,-1.534546034659647,-0.15165853581185762,1.2576905103835516
7.7,-1.2561756319917956,0.47706942362405164,0.28953809753970217
7.71,-0.905641992409301,0.31457251412966447,-0.4111959756468424
7.72,-0.5933744505257977,-0.21032941332956326,-1.053460055849001
7.73,-0.44749992665636157,-0.5694432989194419,-1.2861919153649497
7.74,-0.4870296490362569,-0.5012433368560212,-1.1274098408788178
7.75,-0.6427435403882573,-0.07623100155026147,-0.8340548409549882
7.76,-0.8897121271962757,0.1737735109351136,0.08511195848403479
7.77,-1.1749645468952041,0.37496786584136577,1.2208401548712906
7.78,-1.3832224785667053,0.968581686276961,1.491113048838783
7.79,-1.418614922406207,1.3455948761273442,0.9312085574723026
7.8,-1.2663415550787038,0.7651152189079373,0.12897192580893285
7.81,-1.0105100932817348,-0.4660307688035506,-0.34270007189000556
7.82,-0.6930731963468115,-1.556705457325135,-0.461383910017942
7.83,-0.40280088289320776,-1.6807428181789474,-0.4961133149028311
7.84,-0.3238015825209326,-0.4993683513027896,-0.36658607919758823
7.85,-0.47452488898268247,0.9953948872260624,-0.30274454506926063
7.86,-0.7652279265051682,1.2913065115344755,-0.3399004884557793
7.87,-1.1783159001998933,0.3902164948330191,0.08777996819860777
7.88,-1.6015415336238992,-0.44713541401221046,0.7512497635104125
7.89,-1.7636899071946173,-0.7306051383371581,0.7851315881043227
7.9,-1.6072588985742569,-0.7419404687797844,0.5146963673208605
7.91,-1.3250036679799881,-0.6572989747168357,0.5833562399129616
7.92,-1.0694452636361742,-0.4168238855477265,0.492370312742772
7.93,-0.9909785655817601,-0.04725984936899246,0.27959952839934865
7.94,-1.1660857248644088,0.22708159085739474,0.3108372677831521
7.95,-1.4756231113693759,0.3111219695981758,-0.3018541495667114
7.96,-1.7828133263484132,-0.21668176654073898,-1.1548834884724735
7.97,-1.9837116458236141,-1.4241303671492058,-0.8654659346237046
7.98,-1.95561573125365,-2.174985952471671,-0.08050412800820816
7.99,-1.6748982019615521,-1.8328461849526663,0.6987621717794485
8.0,-1.310641666450492,-0.8118360385437179,1.6330389020007476
8.01,-1.0130464064415283,0.25161485515069204,1.7612564510109139
8.02,-0.8821861815818952,1.019551189160361,0.652940522308337
8.03,-1.008204460093072,1.0883932331253519,-0.880896486391585
8.04,-1.4413289783580392,0.060559100108281166,-2.0034317226744047
8.05,-2.0126494799938075,-1.229662976639701,-1.5839440791405455
8.06,-2.3247627556849975,-1.9139511382355696,0.28494319777988875
8.07,-2.1202306395356407,-1.9294638100482375,1.3256301937922181
8.08,-1.5576391794779512,-1.49796485941949,1.541573947975961
8.09,-1.1405720633875596,-0.8916070200613196,2.422210855856658
8.1,-0.9309489415090905,-0.5645838601302283,2.835090044084697
8.11,-0.7339198121839289,-0.1124896775824693,1.20914635334377
8.12,-0.6271798242977774,-0.19904321911356804,-1.2485604185596442
8.13,-0.8026973004988903,-0.8491405028497286,-2.5912226833498844
8.14,-1.033954734450667,-1.140298190796522,-2.5802849460927084
8.15,-1.1296075721818608,-0.9923105371145267,-0.8903589365519933
8.16,-1.040024098077952,-0.48531690973553726,1.6717834703713617
8.17,-0.4978138176675463,0.3236255983618781,2.80249722540649
8.18,0.15110159270667334,-0.27066358541844737,2.6876329565720614
8.19,0.3047855440359672,-2.2247567838533713,3.2134780593279593
8.2,0.022846302837898978,-2.866065298618428,3.5443229945250927
8.21,-0.24624170059335046,-0.5100399966603054,1.8013478136738255
8.22,-0.3238022976993744,1.6867459587504279,-0.6434540312834395
8.23,-0.35380800152178027,0.981480463421144,-2.0595900502722047
8.24,-0.46796581742816795,0.23979950036934455,-2.3068882573403955
8.25,-0.417328517498986,-0.09195024688026089,-1.490823733410108
8.26,0.21631011799938646,-1.9087699712759527,-0.5056642494258817
8.27,0.9929158629260209,-3.142892534945149,-0.2538039142211275
8.28,1.149918238096816,-1.6068296030286322,0.015049094901506126
8.29,0.7223370817580863,1.0964313434768702,0.755068504576511
8.3,0.2065985751141245,1.7973624137815791,0.6751608113339548
8.31,-0.31328286028639396,0.030439565587109925,0.0763642797146845
8.32,-0.8212425105283969,-1.9875612861700178,0.8293106418654992
8.33,-1.1376329259313933,-2.5188178484416754,2.5537804821685555
8.34,-0.9515350926526339,-1.8611289024143274,2.8113770841148393
8.35,-0.17519567507476086,-0.8771097216176446,1.0920105098440496
8.36,0.4145423214477767,0.6313676143499666,-0.28654813150404845
8.37,0.49050264870575083,1.8621596331808783,-0.5562497377249942
8.38,0.5192617408134784,1.2037280706853895,-1.18073074244586
8.39,0.6934452640612727,-0.7925785500559882,-2.0314693669863835
8.4,0.8818002490867924,-1.3786255374322367,-1.9154182745864916
8.41,0.8988593065773018,-0.5076564872836126,-0.6869977027771177
8.42,0.7973130495786561,-0.4343152939242739,1.2100914488014627
8.43,0.6867520504808867,-1.3018307120924164,2.8640375172627164
8.44,0.5695715746275457,-1.7270092456790977,3.0819527017925523
8.45,0.5833049008450799,0.5539817365294617,0.9909180480489458
8.46,0.6756921685104476,1.6300308711075857,-1.8166821683602619
8.47,0.5720001067132918,0.46107885672723903,-3.158574635794458
8.48,0.35903509872266953,0.007027314425821791,-2.5534314289917224
8.49,0.3839447804906185,-0.3300719026932778,-0.7420100918029969
8.5,0.8655321866196545,-0.9571358018236714,0.45695720732723405
8.51,1.4360475859945094,-1.1908703394857798,0.9379762195500748
8.52,1.5260435311335252,-0.4387793497532169,1.719331675734604
8.53,1.135055715775414,0.434148668614869,2.401696694149114
8.54,0.5853319491617247,0.7564214413225843,1.9892124482547253
8.55,0.08883494651000187,0.833492344638962,0.6203008677222872
8.56,-0.1428771020784059,1.0784166839770288,-1.3554456407000086
8.57,0.0760278145282421,0.42119344922655577,-3.0198199100763006
8.58,0.5233516626776655,-0.8345093445332145,-3.196837071759657
8.59,0.887095848789203,-1.196025231547857,-1.957927469038373
8.6,1.1243289420444975,-0.7616708415640404,0.010899626360803692
8.61,1.2510080033028939,0.1776980491120019,1.6891041517826029
8.62,1.146205337929701,1.4181562883010461,1.8918919796383638
8.63,0.6320637443961887,1.6542974069348328,1.1516958599795142
8.64,-0.032201709308364655,0.3750196609997446,1.0002103213257725
8.65,-0.3317543174104519,-1.7831388142745768,1.344754081615738
8.66,-0.0777186706613223,-2.9533816567005418,0.8213615129439136
8.67,0.5639671526126683,-0.3183994406622795,-0.7659315621701805
8.68,1.133832332414322,2.76119154510408,-1.6953137692068998
8.69,1.286581554182199,3.021600796827779,-1.5775838469620296
8.7,0.9604740831167495,1.9004860587690637,-1.063603189571299
8.71,0.40736003745212584,0.14927437816724162,-0.49975741914777017
8.72,0.13471738184576945,-1.749777621088521,-1.0959157801380843
8.73,0.20775933378501932,-1.7927915396017164,-1.2128172385894307
8.74,0.28648571814913226,-1.3307421835700926,0.5993180993495186
8.75,0.21129331169067123,-1.1709205888342131,2.5616842760071536
8.76,0.1733191740717746,-0.21826342682028438,3.119228842308831
8.77,0.17609994015160696,2.0488541344765334,2.3969180101353205
8.78,0.058871979543925326,3.6489439812570414,1.0536347457844746
8.79,-0.22398643194712356,2.7213010242943425,-0.26458451607809486
8.8,-0.48539389536885835,0.29366909425124443,-0.5930778076975909
8.81,-0.5212879237455069,-1.6485866570831078,-0.4502803189968239
8.82,-0.3472097962089923,-0.6227217037476243,-1.4277515496025233
8.83,-0.06491161619407351,0.9878797401044653,-2.292282800260217
8.84,-0.0897363595721694,0.25905160166580193,-1.889512007120326
8.85,-0.600657001488185,-1.222304448212157,-0.2143973275063938
8.86,-1.2117101425353005,-2.971057086558749,2.4192238581318564
8.87,-1.708601945535996,-4.490424974203182,4.200823862537777
8.88,-1.7300748179330776,0.646478803489499,2.6643958103966923
8.89,-1.3012989523461382,5.832561282686586,-0.17467626063815622
8.9,-1.1344686948152793,2.6430921801241767,-1.6630997902432088
8.91,-1.253924650587949,-1.1211777537589829,-1.8841467845479543
8.92,-1.2607506679351657,-1.7796809328517997,-0.8873672977100621
8.93,-1.0479279798426675,-2.529791878195119,0.6420070401768121
8.94,-0.510313766738511,-2.417468009199897,0.36018959468662176
8.95,0.08897470515384369,2.217996346685883,-1.4039806248531166
8.96,0.10362292187809576,3.105236833634331,-2.0208568830316334
8.97,-0.7922750819784826,0.9392887631344022,-1.8640655483870299
8.98,-1.7691028012713774,-0.48923942723012165,-0.9883767074864706
8.99,-2.175844289931751,-2.715106337173539,1.3156123213793016
9.0,-2.0422545194946053,-3.8357030385577633,3.45079873353995
9.01,-1.5066408403241327,-0.27047862974280124,3.1979510933268265
9.02,-0.7715458321182161,3.8482846318445776,1.623473165585244
9.03,-0.2647950441574305,2.35225751721914,0.2989131743452304
9.04,-0.328136034169383,-0.948461541529097,-0.4536332123266257
9.05,-0.6669970580067404,-2.364164972291848,-0.0907579807080017
9.06,-0.9833884243536454,-2.0623640991935677,0.5037430469655751
9.07,-0.9665357872405046,-0.3474543430435781,-0.33323342325607314
9.08,-0.5354264049070521,0.4768686277532632,-1.9643007636298988
9.09,-0.358783175013053,0.35969347143915414,-2.573389193183268
9.1,-0.7284303784712043,0.6980473558056444,-1.3574402692644119
9.11,-1.2108031206927476,0.4204448902590367,1.2764702802612775
9.12,-1.3943347092261005,-1.1909576527085517,3.507963169917539
9.13,-1.2445713011382684,-2.1974907032340236,3.5948125676267746
9.14,-0.8121195201822292,0.7319462567564573,0.9461657188229231
9.15,-0.2404203003182253,0.866052147003456,-1.9229906919170645
9.16,-0.11733286003412584,-0.8490854817775141,-2.6118972915760956
9.17,-0.4856952550702272,-1.1579794176334912,-1.3206839874928635
9.18,-1.045964977445764,-1.6553264794981195,1.2172640888883264
9.19,-1.6167488838899295,-2.1302531400545233,3.3388167636944286
9.2,-1.8252305729169311,-1.0079401485634856,2.9372459080790763
9.21,-1.5374952336238188,0.9613019686148282,0.9746456433241011
9.22,-1.169993381755373,1.2275593276162595,-0.403816118965195
9.23,-0.8536860579667848,0.38265676157732964,-1.3714746060135612
9.24,-0.5075550719192222,-0.6035671830928695,-2.157959124651355
9.25,-0.367332151422096,-1.60028807378872,-2.0478483785263486
9.26,-0.64033844370362,-2.3118183034526583,-1.0331887799187813
9.27,-1.2771494285278255,-2.466846004552209,0.8430856387666031
9.28,-1.9925732754107799,-2.5477036958982797,2.8283728463808773
9.29,-2.2838880846464593,-1.6625384659763172,3.131010410400298
9.3,-1.8211359885809402,1.3619765750536807,1.307178522916453
9.31,-1.1524728630002412,2.2360183619572265,-0.4542118002641237
9.32,-0.7555137989982819,1.2232619981792638,-1.4691357459460572
9.33,-0.5332646230503026,1.048794872014842,-2.9019575796489114
9.34,-0.3421198138157119,-0.7466887715322714,-3.9328205058042394
9.35,-0.5867256621898396,-2.002653787856714,-2.9292437087798486
9.36,-1.2159276418973164,-1.5300631618796683,-0.618608976616055
9.37,-1.780046283574027,-1.297777966004479,1.7812459578262314
9.38,-2.062257796413096,-1.0619428729143585,2.6381313305802885
9.39,-2.0372187010991354,-0.4054150312948974,2.334495506048544
9.4,-1.7940472572441575,-0.21418129310976264,2.392565918737526
9.41,-1.2069701198746168,-0.9596182515619001,1.8032977210022767
9.42,-0.4575141047342423,-1.416428935020745,0.24437422113207877
9.43,0.08406069823871008,0.31702352220105984,-1.5886116501522927
9.44,0.2886225200500759,1.2441757803600084,-3.1338974877168746
9.45,0.04227307687989526,0.4565839142416252,-3.274378232686904
9.46,-0.49988429667865625,-0.005105098340509699,-1.571628162144043
9.47,-0.7291134565978366,-0.8678546418493345,-0.14922122896524476
9.48,-0.4329946630476902,-2.6490729431582016,0.5938659941975464
9.49,-0.2667907472959676,-1.9765150632748254,1.1988907680910774
9.5,-0.24175844225953005,0.8283331276580872,1.3498961929263502
9.51,-0.011768692049297327,1.6004685420000533,0.9958973658787803
9.52,0.37660915761129354,0.12961510434282475,-0.007638377324556428
9.53,0.4988594668352644,-0.6353613353868216,-0.8028672566669526
9.54,0.3029749503782664,-0.0820655482790655,-0.7766875562519352
9.55,0.23212984571698383,-0.03319648341690984,-0.893976796883415
9.56,0.2958876304590489,-0.25606113801261854,-1.40095062364302
9.57,0.061624812565155715,-0.3664245090670072,-0.8306198953312417
9.58,-0.4726967643614072,-0.20291923399119005,0.9915881953205758
9.59,-0.7911255843779029,-0.6018915098092507,2.5032174812656356
9.6,-0.7327202388218462,-1.295649697515262,2.804953060672924
9.61,-0.6370144513337658,-0.5599635022301779,2.206320882542572
9.62,-0.4872855617826253,0.7149986393795748,1.1355373794785106
9.63,-0.2904040052160149,0.4774948673829082,0.25508480588940724
9.64,-0.14058337283446684,-0.7206694449276733,-0.34868376112478267
9.65,-0.1136837897804539,-0.9276571716262598,-1.3309360869609221
9.66,-0.0003866210963146312,-0.040239311416884964,-2.620531622846792
9.67,0.24328515985238408,-0.377100719697259,-3.047472326447135
9.68,0.18988143615387995,-0.8383979913121795,-1.8655787045463395
9.69,-0.2622364913772685,-0.46279601726010583,0.6692222813538611
9.7,-0.6582855563126022,-0.32517361169787395,2.7865643532058963
9.71,-0.8283295262064921,-0.6101615350054073,3.0399655292570777
9.72,-0.9323411755393416,-1.0086443377267502,2.5337898939620707
9.73,-1.126657817960886,-1.5929681216588032,2.6394538016574516
9.74,-1.2373454992392856,-2.05166990909294,2.6281980471426447
9.75,-1.2200889738019276,-1.1184637178121577,1.4277106029989644
9.76,-1.1464123900575294,3.5372376658192572,-0.8890691297233673
9.77,-1.195357387613667,1.6770482118332222,-1.7173844647987
9.78,-1.2963403789059547,-1.811541276259203,-1.4548033272490934
9.79,-1.2396007293348752,-2.589145000742207,-0.8111220805744579
9.8,-1.0149741959320349,-2.7463416003311747,0.5869022289199645
9.81,-0.831338295530927,0.6261794826928304,1.628922742351091
9.82,-0.27820101920493673,0.7087192091941547,1.5358076040542052
9.83,-0.0050649956120727676,-2.331835957707141,0.9493519370862664
9.84,-0.2027379591257877,-2.9262359454161535,1.131945601192684
9.85,-0.6650014223939039,-0.9667631535556852,2.123049092205279
9.86,-1.106110199681602,0.9333944783840835,3.157784377040966
9.87,-1.2051521739608013,1.3811761654965526,2.8137747679670415
9.88,-0.9147252171968467,0.16936253262373205,-0.8855320755575539
9.89,-0.6132045866095451,-1.1050455207870296,-3.695724128745039
9.9,-0.5843142886235637,-0.8276604548332989,-2.9901639729147838
9.91,-0.611817681727072,0.07661957085016642,-0.42294711083623254
9.92,-0.4595004805429447,-0.8697215563327293,1.7959303283032275
9.93,-0.14276036708657114,-2.87866908051168,1.790066433959517
9.94,0.1912439878478149,0.05605869737479299,-0.16289018909562722
9.95,0.12410629010157796,0.904233152757683,-1.2991479167755589
9.96,-0.5297229869126653,-0.5055827000909691,-1.1224640222030864
9.97,-1.3408110528430026,-1.0443126217937433,0.04429868129300813
9.98,-1.721330808590259,-1.4935926269081785,0.9725088607770354
9.99,-1.4060359260833932,-1.8427140537000835,0.7444020797266322
10.0,-0.7723882411446104,-1.2778486271736393,0.632078230794523
10.01,-0.25430562920488553,0.16103129323556692,0.9573296181445203
10.02,0.07604868254843533,1.0566037273325777,0.9291283962143515
10.03,0.21708997557219178,0.6553105629961827,0.581607060551212
10.04,0.20015937829590708,-0.6963290138439926,0.2690558823058351
10.05,0.028989736896295838,-1.7465843681668662,-0.1576416925592564
10.06,-0.09761334146804304,-2.0789817713608003,-0.5033200340945827
10.07,-0.059750675173606375,-1.7356503782156842,-0.3388940155429838
10.08,0.1638201669016053,-0.7977995292291841,-0.22108080201994387
10.09,0.3613804719911835,0.18354729770588568,0.12089588762033837
10.1,0.4710762051343461,0.22444818214489437,0.6452754624778205
10.11,0.6341409145975704,-0.785762996958523,0.048150717105817475
10.12,0.7048234330322113,-1.6099900480531022,-0.8832356896505872
10.13,0.4884330387384617,-1.0104846030157215,-0.6274761310052817
10.14,0.29649070902769437,-0.0955619914906092,0.43934474781343014
10.15,0.5294330681885641,-0.428952349234907,1.100396111220135
10.16,0.9299215074393558,-0.013899276088371961,0.23855945190546335
10.17,1.1326811214618233,1.3807098087036571,-1.18461742021927
10.18,1.0667566270710906,1.2665796283635617,-0.9691130163545991
10.19,0.859195197317307,-0.5347137654556168,0.17936479021106513
10.2,0.7878616729381974,-2.4811041952009307,0.41698397466576637
10.21,0.8098468061697476,-3.056367924839144,0.932154634070298
10.22,0.6454844543045204,-1.1309472164400922,2.0809435103322595
10.23,0.6029986779302741,1.4923265307802513,1.683683436927747
10.24,0.739857261354292,2.0047074351107654,0.25594806172037077
10.25,0.7240404398709148,0.8009533170812266,-0.1791264815974066
10.26,0.5655567506611614,-0.16840031205595293,-0.6370042351922248
10.27,0.6742777290514991,-1.3548935660862453,-2.473726760969362
10.28,0.9384579598138838,-2.5623491991914524,-2.781873338499572
10.29,0.8740805752243038,-2.2583547298026603,-0.7717404831432495
10.3,0.677489500078096,-0.6738684308169575,0.8084550955589418
10.31,0.5821958616862238,0.7609220431966224,1.1614822662852813
10.32,0.43264188865638387,1.235182753948265,1.6647066249214957
10.33,0.1416125681610781,1.1842317154590856,1.9562733454479577
10.34,-0.06536351438708711,0.7100349240387198,0.9960585128699477
10.35,-0.032480296230350175,-0.2306872206682963,-0.18095357268498719
10.36,0.16925433917541957,-1.3457235666496943,-0.022291136399662556
10.37,0.5188794051997255,-1.6001173245742257,0.3138994668570262
10.38,1.0799611715019297,0.46242822192999056,-1.2588787073380006
10.39,1.5275883459266286,0.8708181989171213,-1.837422406916725
10.4,1.43253484407361,-0.4037539373966973,-0.19479694675472292
10.41,0.964493418214123,-0.9823039139013792,0.7393780202062615
10.42,0.34211355535591353,-0.07099062208297545,0.32404797691338033
10.43,-0.05739976826107927,0.4491270950891446,0.06502435755771606
10.44,-0.052539559527516475,-0.12653897805451644,-0.25895740536102513
10.45,0.09765612370905331,-0.19830186392380797,-0.973327535388953
10.46,0.21022800471744035,0.19716646680576735,-0.41627455665850593
10.47,0.4644456526567983,-0.1203307671902768,0.9518527423522294
10.48,0.9336909303160438,-0.9508481213632541,1.0155673079445853
10.49,1.2940128609390424,-1.224055414408344,0.3219421622564317
10.5,1.3178194547936577,-0.641245019818529,0.43360743653673633
10.51,1.1219661068942792,0.28339816142271457,0.656006274641799
10.52,0.8874477668146862,1.1361634634101125,-0.4051681374591573
10.53,0.5126158808951476,1.557279440092453,-1.224371972017661
10.54,0.23589725808467218,0.7655405987051429,-0.8721447102359261
10.55,0.40922401476739884,-0.9982312068785802,-0.706727555650809
10.56,0.7037938419471126,-1.7661630539897164,-0.5560242766318692
10.57,0.6950672335863406,-1.0356441871960624,0.607922055696852
10.58,0.5718441969136552,-0.49776905599684235,2.012176211546939
10.59,0.5745709417083908,-0.4394017890640276,1.9217780052462194
10.6,0.5292138091970114,0.582474044544578,0.636472184753842
10.61,0.3292568700900686,1.8471335224285685,-0.5064035904302565
10.62,0.17453926519966126,1.8363328289604017,-1.780229579125428
10.63,0.18797187164464074,0.6375852379902835,-2.922546426411499
10.64,0.28034870975248966,-0.9878473413668553,-1.9669314302054437
10.65,0.39111097347858564,-1.7529161010540797,-0.15332631693425353
10.66,0.5462626406422058,-1.1218819290496278,0.6025352311194287
10.67,0.5904768394676007,0.2941526196678154,1.302140078714165
10.68,0.4815823359104507,1.3072376410751885,1.9796689900199425
10.69,0.2849130435667356,1.1642170138301018,1.3845616777195675
10.7,0.02445151196110763,0.34445347699268625,0.20698459264396762
10.71,-0.13796447825896324,-0.5669329128693045,-0.24963439796890427
10.72,0.023740715519226317,-0.9900047248675302,-0.5655246980834848
10.73,0.6059949021440229,0.41417411893545847,-1.7794612975148032
10.74,1.0983086914579296,0.9431943490962565,-1.951804117877627
10.75,1.0514832086039099,0.9701385797904906,-0.5630683697608724
10.76,0.7749933264574944,0.6297378463466667,0.9835663651991411
10.77,0.5265013463334433,-0.040518514618680994,1.3254207742772373
10.78,0.5058078864035619,-0.22093193752785192,0.4625685811236514
10.79,0.5076484625705754,0.11926288653129695,-0.4270584617038203
10.8,0.4072799705470308,0.0867056695542001,-0.7491681292523911
10.81,0.3187727049992369,-0.6179151693499204,-0.0040320097898159865
10.82,0.3317259013338264,-1.1586090712102572,1.4162215089771388
10.83,0.497830032074718,-0.2361639680040908,1.9177502737499141
10.84,0.84077762024469,3.7738350936699643,0.0056627778938574255
10.85,1.1051895919286425,2.2664356829037495,-2.10586576750824
10.86,0.9607905971350014,-0.9587275920235198,-2.6253692522508887
10.87,0.5010053529311933,-1.5313103468953204,-2.1394568799377085
10.88,0.03931770790004212,-1.379245275698156,-0.1889864062003286
10.89,-0.2390690117234231,-1.685088064968636,2.614507656414655
10.9,-0.2420642474532077,-0.2901962085690155,3.4231618310001477
10.91,0.05424528041123963,4.847159002165131,1.470527756105776
10.92,0.36071775454378074,4.7695186036589,0.016569762458375166
10.93,0.5359402900681332,0.04228689622618429,-0.3806926159783636
10.94,0.5188062834804519,-3.2424212872371476,-0.6520262693711343
10.95,0.40332139549441387,-2.993733256170373,-0.48804654658960134
10.96,0.4904349986778974,-0.7471790613105579,-0.2367547552963167
10.97,0.7321727401977202,1.135419036452478,-0.7009483592129595
10.98,0.5382633316066456,1.9022216238790302,-0.8842988921840373
10.99,-0.14757684863234705,1.7897786668911813,0.027051311076044922
11.0,-0.8134056407641972,0.33802580530572124,1.5537342159414778
11.01,-1.0149989209345516,-1.72534143389099,1.7586931508600308
11.02,-0.7830196413996892,-1.1463703790580906,0.12568437471612032
11.03,-0.4568154769938158,2.145715663795292,-0.7915412488796094
11.04,0.018816210443464987,2.1308498122664488,-1.0226479012497998
11.05,0.4372633490790817,-0.6639284192975545,-1.7506100234961464
11.06,0.38238062787107996,-2.7014023119040655,-0.45521877141595407
11.07,-0.19335177405649726,-1.9015348671382906,2.434241148216226
11.08,-0.5681824012860633,0.7243335804772484,2.5842900977317513
11.09,-0.5565498855927472,2.003994869250991,0.3879123519875516
11.1,-0.7525381322283144,0.8011563736651126,-0.3453049185864048
11.11,-1.0757291366127029,-0.4628269530001854,-0.24363388399780428
11.12,-1.0944388031246244,-0.9518478090427421,-1.0310503296525713
11.13,-0.555611416813594,-1.4567064673210528,-1.7578798860951828
11.14,-0.04440634359799119,-1.5026755912481613,-1.0564831477651917
11.15,0.030627208416389988,-0.7423089521415996,0.8054654559126646
11.16,-0.010374100332943207,0.14218132947344206,1.9697585282897687
11.17,0.08387270173382239,1.9315514187312588,1.1584583084888511
11.18,0.22959971264180967,2.9801906541020706,0.08606822143782804
11.19,0.06511346333694144,1.7654854678916434,-0.777696882997341
11.2,-0.18078419111616623,-0.3854911234081685,-1.2849107696769315
11.21,-0.18383081279367144,-1.9515706689364032,-0.4242037578920284
11.22,0.243492079193913,-2.0197548726255405,0.5298941632129881
11.23,1.1497136478703591,-0.004675726954357905,0.068255178123077
11.24,1.7669022580824427,1.156279030978359,0.3566084489219639
11.25,1.796810611000158,1.590828858053602,1.7310722185750547
11.26,1.5452245700748297,1.864793030680108,1.6669965624329217
11.27,1.2570508741496367,1.6902710697818724,0.12525456453053052
11.28,1.2279844719163453,0.058437686718300824,-0.6647361447031254
11.29,1.4263680465326234,-1.1405133926150026,-1.3881657103469414
11.3,1.6876212115431821,-0.564372992482629,-1.789765655563431
11.31,2.0198667977478295,1.0433308246834463,-1.2331044509756313
11.32,2.6832526418784703,2.8651950406871536,-1.2550684133730943
11.33,3.1238920454019525,1.358862321786028,-0.5569044095011081
11.34,2.8905694757761777,-0.025384282921015074,1.4504935125311544
11.35,2.3125041164728035,0.719520917444198,2.987893947344126
11.36,1.654085329350319,1.8184407379697118,3.3772442042827593
11.37,1.2015785245319914,0.7935017437780827,1.6603457966469197
11.38,0.9524043858130617,0.4813365904872772,-1.9353535087333362
11.39,0.7831596125696282,1.0204817157154935,-3.131765735703869
11.4,0.9165664193044505,0.7676926264267164,-2.6605263017741803
11.41,1.3177057859331018,-0.2730330196607213,-1.9721851574766907
11.42,1.866293151346212,-1.0350086516579953,-0.8146028870060222
11.43,2.180123784141573,-0.3325615786093186,1.5078430343534175
11.44,2.1151324830263944,1.5730922192710974,3.122958262060292
11.45,1.7081899592558611,3.4812486389575716,2.6307641806302597
11.46,0.8581149255653231,4.516863925867733,1.5427018332631477
11.47,-0.4179372055766493,2.486490477102566,0.723910851856848
11.48,-1.4314080609681676,-0.30667047899957084,-0.06503664016095183
11.49,-1.769991917024949,-3.3487462920439444,-0.09478728256291673
11.5,-1.6271586631933646,-3.619189618838611,0.32343773685623356
11.51,-0.7038118772303631,5.049404970045354,0.1428491653012476
11.52,0.46308691934329005,1.2463179115322451,-0.07046091314212502
11.53,0.5819804481552909,-3.027588321491001,0.6773077388378
11.54,-0.122559216071949,-1.8412615994275752,2.311356330531959
11.55,-1.0404445909332811,-0.4833845748800675,3.3695118237408996
11.56,-1.7866164637835955,0.3311385132022639,1.8776781190392737
11.57,-2.098158356795962,3.814688791636442,-2.7042321943016296
11.58,-2.3940454109634746,1.3392249910307459,-4.57166111271529
11.59,-2.775801250097442,-0.39179980401634407,-3.815019716517711
11.6,-3.0126034170989553,1.273265427124698,-2.6751671331413247
11.61,-2.6940319193841535,1.91052714859856,-0.19593399017489774
11.62,-1.9007874830224496,-0.5684631946180907,3.3057034794215867
11.63,-1.2856060382573868,-3.900564850551475,4.838380832655753
11.64,-1.2935611459308558,-6.169632060293011,5.025514283259104
11.65,-1.9658844452457231,-4.061506086164928,4.837718800266472
11.66,-2.306377970000196,11.439870205377336,0.509016953700188
11.67,-2.2930211960652005,2.618985460218655,-3.9613937562813093
11.68,-2.61524441758247,-4.007654579282721,-4.234095290690904
11.69,-2.5704484762807462,-2.742325853017626,-3.3151662367408394
11.7,-2.0700241663292256,-1.1246945168084883,-2.33720453247676
11.71,-1.5116855725232334,-1.0159973850364021,0.2886659663860734
11.72,-1.1776326602059575,4.251123850124534,2.0080021389974916
11.73,-0.6183471813487516,4.378399293053439,1.5600689577448934
11.74,-0.9653574638766487,-0.697989221501921,0.8503377635556298
11.75,-1.9859557316915282,-2.753110472122526,0.1782402487132326
11.76,-2.5527359717363654,-1.199693893973306,-1.8345099817515267
11.77,-2.457910082426677,-1.7329948864217062,-2.2046043314221833
11.78,-2.0877389852101143,-2.7909096009968883,-0.29888598585125403
11.79,-1.7409858037981303,-1.2554573152085893,1.7030823008003708
11.8,-1.3173547524505906,2.8537413037909904,1.6351812107766523
11.81,-0.761930105787222,1.3043988134233377,0.013524378943952933
11.82,-0.9904436511361943,-1.7269064444502216,-0.6811279673955801
11.83,-1.49091597252518,-2.0044221705360177,-0.09922571575094614
11.84,-1.9924936103941084,-1.0572875391687293,1.177648729198568
11.85,-2.2445261732021007,-0.6787133780200164,1.7008120571593461
11.86,-2.25037402096312,-0.5797541514417799,1.0182322334046798
11.87,-2.4042336399349105,0.07675881360924747,0.3621421211530053
11.88,-2.48300769240475,-0.1657707931965634,0.33053157922521287
11.89,-2.217275446384699,-2.843226236235473,-0.07788800807306562
11.9,-1.672736160243367,0.519277858879529,-3.36411441597786
11.91,-0.9493518812536919,-0.46529917402549414,-4.557734353031974
11.92,-0.6033404472722879,-1.8704634061941543,-4.662071468187564
11.93,-0.5418621942776597,1.381830292839797,-3.2778627504321385
11.94,-0.4810812538527993,3.1766516058465606,1.6523568748676678
11.95,-0.0859240753558145,-0.007633869126620535,7.289682606810434
11.96,0.18105474667230856,-3.128487981778189,7.978462935857123
11.97,0.1987668568108738,-1.6620345954088467,3.62309581821001
11.98,-0.3870598960814893,-0.09599458464535533,1.6377001423471842
11.99,-0.9833121584989212,-0.4883350537684192,-0.08684180472154837
12.0,-1.2298250533840291,-1.5414170412185841,-2.233639585066203
12.01,-1.3305939799824429,-1.6282382264998307,-2.659428701722018
12.02,-1.103235366164826,-1.2324834914410299,-1.4342006228822208
12.03,-0.40671830200039694,-0.682584072618482,-1.023926821310652
12.04,0.2443992143858065,0.6449172853567564,-1.815267825300636
12.05,0.3216586110093123,2.442059949450981,-1.9359560781550764
12.06,0.2575421501384268,0.5253659997771943,-0.8690887892243802
12.07,0.06728259222061357,-1.4795731435920938,-0.9772319030525459
12.08,-0.2307897415636886,-1.9158772663199768,0.05681602075988305
12.09,-0.6341553480689041,-2.3537866119763726,2.955505125583419
12.1,-0.7901487105411542,-2.4006919654896897,3.684803943796412
12.11,-0.7250220908675709,-0.3399972649790855,2.191433445272383
12.12,-0.939822891294542,1.9881937212199452,1.1815660565825026
12.13,-1.2796828269779044,2.699832137155192,-0.025473647847416528
12.14,-1.416047948045266,1.2578306522129576,-1.9425982605119645
12.15,-1.262335756402529,-1.4494368235123942,-1.9123314838204557
12.16,-0.941146780996437,-3.055472383211963,-0.9004905944058103
12.17,-0.5351191943624487,-2.69406578508487,-0.1535472201448332
12.18,-0.17662905707070975,-1.3146609422271136,0.99956987346905
12.19,-0.1466338213966932,0.5561745144118507,2.137094388156764
12.2,-0.24031497600305074,2.2777241674540436,1.0092583533269204
12.21,-0.6307124803030643,1.9216738350446008,-0.7647098341282474
12.22,-1.269144416391237,-0.08008277637549704,-0.5210943371960197
12.23,-1.637070693278968,-2.5941093599693454,0.8428229809259075
12.24,-1.5023330112892455,-4.261462306231915,1.5699624374390906
12.25,-0.9096344120309522,-2.868939877726912,0.973961874195317
12.26,-0.1879374386430204,1.041198205780472,0.48901132514520357
12.27,0.35722321889556574,2.1601713096147335,0.09744633748331469
12.28,0.40407712767926474,1.4283263722927513,-1.2118308723048106
12.29,-0.045733531436495646,-0.1852434835432815,-1.3016991924442765
12.3,-0.504967336912651,-2.3677117802260286,-0.2245424214163974
12.31,-0.6901265025395218,-3.445882987697742,0.02472923266309476
12.32,-0.7303136443501139,-2.162959365220324,0.17635941951630743
12.33,-0.8233066081575496,0.3367134170968578,1.264942565838254
12.34,-0.730936545491533,1.6091910245717806,1.9036021659013114
12.35,-0.6047133049544505,1.2600572364672893,1.5303844799516315
12.36,-0.61860174415084,0.04888351636008641,0.9236386701600401
12.37,-0.565531833181765,-1.4030103145825206,-0.6927877058628413
12.38,-0.4131086973492538,-2.2199892952721467,-2.227691098421714
12.39,-0.2246407402716555,-2.838149269494653,-1.6335813290939485
12.4,-0.06203537640833476,-2.6240330050743546,-0.3200927403137107
12.41,0.0854281415548244,-1.512038330716204,0.5865128997701455
12.42,-0.19904743328152044,0.05686835000099705,2.9988285694730705
12.43,-0.6010922974808571,1.058099409233409,5.44232379300708
12.44,-0.5273845867946391,1.4118039253885921,4.769425650641704
12.45,-0.1064565075583617,-0.9344080075041898,-1.3883229718586652
12.46,-0.7068323147190626,-0.9833096222721008,-3.59068352264911
12.47,-1.2557048155477548,-0.22455807752137855,-3.9930491413727003
12.48,-0.9882890027772324,-2.0349951953168017,-4.0291978608917685
12.49,-0.3887190004271265,-4.341642004464312,-1.6585276937555304
12.5,-0.031446196800095076,-3.5360747975453553,3.3377911483120077
12.51,0.4722885455672991,-0.3065089017990707,5.414381907325039
12.52,1.479919136483574,4.410619712921761,1.5283477100224696
12.53,1.5486042777098588,-1.0725016082728047,0.19777226682078025
12.54,0.9026237223630604,-2.5100806719546926,0.8388305433173717
12.55,0.36640610672119506,-1.6540351728659846,1.7187221185469506
12.56,-0.06277363793528969,-2.007347080397897,2.4614652804784645
12.57,-0.1766762221985214,-0.40439659629464425,2.6421863558354715
12.58,0.07352585504215,5.675252428617832,0.4461486117580977
12.59,-0.24410783179291415,0.7994934530825183,-3.380205808535061
12.6,-0.8092694749135038,-1.3965896653294159,-6.058431122948954
12.61,-0.5010020984559131,-3.0297845276771738,-6.062491400539972
12.62,0.6816422266885651,-5.1754051756919015,-3.7790265837265347
12.63,1.521370129815777,-3.4283858970560335,-0.4763297181542774
12.64,1.7298825026193396,0.6324929862619557,3.502950454426446
12.65,1.720798539945265,3.947200532330552,5.711505885081467
12.66,1.9992667486222129,1.7043043249441996,3.1211924614416735
12.67,1.6428277756474692,-1.004797326835997,1.3270738455427122
12.68,1.0320068582591675,-1.3344116364408205,1.981161999714181
12.69,0.7901176911125152,-2.378553654472892,2.661995563301989
12.7,0.8508952896424131,-2.9085002371988997,2.4774155122125783
12.71,0.8386365138408396,0.22445995011723416,1.5360132805606237
12.72,0.689533388636503,5.49028416791189,-0.005487678871282146
12.73,0.3408886731970101,5.570844441323285,-2.490804316919768
12.74,-0.2842830500403521,0.46672490028984887,-6.058569117589364
12.75,-0.4936566324232254,-2.8528704191573193,-6.746970473562418
12.76,-0.20212763962580715,-3.946978520480374,-4.789055517392278
12.77,0.3468687304321835,-4.385001607784778,-1.4089840981820527
12.78,0.8183197598028336,-3.057216493726355,2.1978562430902504
12.79,0.7575686494162072,2.5541056193577454,4.852053481356451
12.8,0.44242476647210977,4.8321432717040524,5.298653099774178
12.81,-0.09082757562464691,3.4849658980518403,4.644047522537746
12.82,-0.5960164659295331,0.42419814556250957,3.1342154858794746
12.83,-0.761575331370166,-2.4635989241324268,0.15981373116745026
12.84,-0.21026034667174523,-3.256756667472236,-2.8727361989312947
12.85,0.635319183154954,-3.979686613141475,-3.227446385911438
12.86,1.3546868331125332,-2.6208442871949327,-2.3854337821423024
12.87,1.7223452013869365,0.9966696652637814,-1.577502844769781
12.88,1.7773456005498547,8.4589828363429,-0.9642481662988901
12.89,1.6521185076001421,2.703885048062869,-1.3584152404157057
12.9,0.8210364283966367,-1.2135742109074568,-0.5948105803711743
12.91,0.04574803024360106,-1.5183176688189786,1.5235107280994287
12.92,-0.3778357968704193,0.16237429229927527,2.287982836025
12.93,0.2475857259721828,-0.8884554273395588,1.5304943334579606
12.94,0.8377071682996985,-0.6976341863324531,0.49628608613012026
12.95,0.8609433469681271,1.3107609773840052,0.4414891838111511
12.96,0.6178892586510252,2.4113849706638333,1.1277510336921797
12.97,0.5906211177784647,0.3849185775266415,-0.7581370391786075
12.98,1.0340883266317855,-3.214862726146595,-4.261813280150999
12.99,1.0760691258062423,-1.259152536707625,-3.1031289964950064
13.0,0.9288975671343329,1.2269718468996205,-1.2685948765029744
13.01,0.8245868777841515,1.3468357869931693,0.21973557907439922
13.02,0.9614240784541993,-0.4897235705649201,2.1974848354435292
13.03,1.1268103569476475,-0.6717662168171448,3.0372144342802057
13.04,1.247834665710935,1.1399655315978952,1.7732444578786382
13.05,1.3964987658583188,0.4601018366424371,1.2520898331043095
13.06,1.3385735673777623,-1.3332141901198118,1.854013449050939
13.07,1.1274875055087896,1.6222575244385657,0.07267733177610468
13.08,0.9328488490766437,4.8129602916276015,-2.2807421934639955
13.09,0.7190970910166985,1.5579086255557282,-1.5420819664369436
13.1,0.4595554176960135,-2.1937872426803633,-0.6903086867656976
13.11,0.3746267135971184,-3.6563373239674917,0.019067810166353824
13.12,0.4852647057932855,-1.9817646446171087,0.504760921838587
13.13,0.9257712768162581,7.218804937266086,-0.19781802262989212
13.14,1.2608389610747985,4.179950597580222,-0.6876098866199605
13.15,0.8294452290939366,0.671255059525414,-0.22148484488499695
13.16,0.4233827792769775,-1.320896109764203,0.4383608908345538
13.17,0.22617546284117004,-2.7650497788153414,1.4800736146814037
13.18,0.6246546703000407,-0.4163926959562908,0.6994423365090878
13.19,1.3167395501973596,2.8597857012392556,-1.6850880937836397
13.2,1.2171391011822021,1.8917182538740416,-1.005010423437986
13.21,0.46832565530425013,1.0418302154704635,0.3722456132504709
13.22,-0.07448313075257541,0.5992709152731625,-0.7911701974519518
13.23,-0.037350496203205644,-1.8105879015262956,0.06683700222777934
13.24,0.14880532364702903,-2.762500935148833,1.9551625440017002
13.25,0.7478394480995829,1.43219216527598,0.25375365547513756
13.26,0.592451319614993,4.253031508990022,-1.2144420272966827
13.27,0.4420885593008693,-1.261684413168342,-1.0068465336305852
13.28,0.05023800551324365,-1.7479144259459598,-0.8463381506708175
13.29,-0.2844931627226066,-1.3277187745010215,0.267772303541509
13.3,-0.44534815242885645,-1.891182839293775,2.497673663645506
13.31,-0.20955531617671055,3.200545896451756,3.09988937621384
13.32,0.08722846687933923,6.186797639882075,0.7994503691651295
13.33,-0.06425726669932205,0.33312032941080233,-1.8370926525771039
13.34,-0.5299365333359118,-1.3561772043082114,-2.623114550954839
13.35,-0.45123156895343264,-2.8951066631502447,-1.7263081653861894
13.36,-0.1686719153786376,-2.523904294465449,-0.5313961412639108
13.37,0.08540264247401264,0.9042897172694517,0.4560810213489355
13.38,0.03566816061320975,4.411050907129857,1.3879346860419786
13.39,-0.38944770993092526,4.295347685689878,1.3671737268525304
13.4,-0.7827567613589103,0.5141049948683448,0.1467633106429377
13.41,-1.0834781070720967,-3.052065306838247,-0.7298551520443547
13.42,-1.2445122533539374,-3.7828326057715027,-0.10923145155504858
13.43,-1.0465003289537262,-2.384395959765499,0.8010369513805097
13.44,-0.604051554213562,0.8255555700089946,0.7554636959525154
13.45,-0.22564570113128973,3.741649788384194,-0.16396975230272345
13.46,-0.5623568226131322,3.8458718147470004,-0.8905982035231766
13.47,-1.5649305635136146,2.549710986790869,-0.9358859346756526
13.48,-2.41819396433101,-0.5181298922809262,-0.12607050146866466
13.49,-2.5669311987308796,-4.169072680094838,0.2540560738608117
13.5,-1.9226949348748164,-5.227148455578761,-0.17841263318353912
13.51,-1.1519369799619859,-2.3420953240987403,0.10516345771406566
13.52,-0.7588762127462406,1.851353707618503,0.9971685976428262
13.53,-0.7556675652842427,4.550754307896305,0.7646097927143184
13.54,-1.327611202686546,4.099702704571784,0.25739536478558117
13.55,-2.3014616666761443,0.8285773889031312,-0.5746917455089326
13.56,-3.148658329802667,-2.83186516704428,-1.4434910668200782
13.57,-3.3006416532104477,-5.4245672609578115,-0.7534791323553236
13.58,-2.7550225147211536,-4.940353591057427,0.4117420177851508
13.59,-1.631065185283974,0.5310524137239553,-0.26593627229702566
13.6,-0.7197521393792182,4.101516062596502,-0.02323274785997594
13.61,-0.7214270453320926,3.096473387895991,1.3239491317862855
13.62,-1.4320221877302872,0.7029954800105428,1.6611931873599168
13.63,-2.124342612769369,-3.137388330493522,1.04595993561141
13.64,-2.4406037945850763,-5.821885009107523,0.22582754874479832
13.65,-2.342374432798944,-4.751521288444128,-0.2128218249637379
13.66,-2.0035612307789097,-1.0557735260038696,-0.28779495351243983
13.67,-1.5093817347681686,1.9670279414833536,-0.15179797370213452
13.68,-0.8884275866446745,2.580648171125935,-0.4644557802374091
13.69,-0.6194779567088691,0.9537328464991018,-0.10558770422387558
13.7,-0.8298959154284983,-0.45446808617171397,-0.7158317400501746
13.71,-1.0874918462226941,-2.2431622073468955,-0.7613048194414742
13.72,-1.1659028540692007,-3.4728845972564932,0.2127247006578675
13.73,-0.8923376802007819,-2.0039278433234387,-0.08849889874364462
13.74,-0.5189364296071379,0.19667441187150542,-0.4574899879113533
13.75,-0.5400418873411181,1.118146809688955,-0.18112856225497237
13.76,-0.9133614331560092,1.305389401865216,0.7276961599406216
13.77,-1.1877089707888209,0.0606281909835351,1.708709064315515
13.78,-1.1155484947336836,-2.0362580604851015,1.7618976863993325
13.79,-0.6635053940230231,-3.0010388107590082,0.48069377079625475
13.8,-0.04865193149054192,-1.1569886020695093,-0.8192292492117768
13.81,0.5305767336066272,0.2278865932027629,-1.3713008442940324
13.82,0.8598622232620567,0.37186666079256286,-1.571956591188515
13.83,0.9125311140809461,-0.14854565276748388,-0.8586565842281146
13.84,0.8643987329998473,-0.919509874310932,0.558389050840474
13.85,0.8683205710089893,-1.1716671259160902,1.208549447656233
13.86,0.8328402256345394,-0.5203791417452627,1.1415012084886091
13.87,0.8477463659934795,-0.020150787839795004,1.1715302220674018
13.88,0.9127640391051991,0.1442399314804205,1.5680797489956946
13.89,1.1342470543513223,-0.05342582391216382,1.2941095560479308
13.9,1.4533232994929635,-0.295022826766303,-0.005895590902221761
13.91,1.7035585304058587,-0.3237424093413824,-1.2548647126416197
13.92,1.9852274614706167,-0.7596246517219374,-1.8670237886632386
13.93,2.1837029692214367,-1.203611511333053,-1.6748780886951518
13.94,2.0643576135760133,-0.6017550374620136,-0.7906523924311156
13.95,1.7807007868535203,0.2615109794963168,0.42136015513110225
13.96,1.5601621721331462,0.18893416902792923,1.808076457343246
13.97,1.2410857834595257,0.19774532123443,2.974867234245222
13.98,0.9959411530962495,0.5864246305843862,2.626214268822917
13.99,0.9340821123133036,1.3376053021213847,0.8248287564080826
14.0,1.1473841099496591,0.5911150502658248,-0.3982072163611871
14.01,1.4853053301437904,-1.6436021328160269,-0.15882557963838248
14.02,1.7125104301532263,-2.3199097944205724,0.18147319313936505
14.03,1.8215039994087097,2.054258158539477,-1.849664998536228
14.04,1.9267065742767902,2.036890518888193,-2.260825487089993
14.05,1.7416806477658844,-1.1691786704313039,-1.2646325332971404
14.06,1.1919287491063373,-1.9821155547577616,-0.19719514490845236
14.07,0.658117736019088,-0.8851758180667803,1.3338230846811452
14.08,0.3709671384119795,0.7003230442769626,2.2634624854366656
14.09,0.9287152938711989,1.6645289897820346,1.346651189600683
14.1,1.097389915666476,0.21641333081111003,0.44753225725917767
14.11,0.987476139332439,-0.23914114744640927,0.7649049281637361
14.12,0.8016780791679741,0.8088247458202716,0.8775395153147308
14.13,1.118164904045164,-0.7432274919466846,-1.0042997426317752
14.14,1.4021827448490463,-1.9696325742250362,-1.1885890861158204
14.15,1.291445411408323,-1.431212664920295,-0.3446582774746827
14.16,0.9899051659503947,0.33934201741058345,0.5643656660052694
14.17,0.7364763627023982,0.5616743076964429,1.451649039380127
14.18,0.8073630519430598,4.038212737253295,1.2949144868957285
14.19,0.9249078690458139,2.94444128326417,-0.4696926588053796
14.2,0.6541251623340938,0.0038005820115345227,-1.0214222430076034
14.21,0.4124894439452974,-1.9008315323803262,0.2925028262319005
14.22,0.11521516516128037,-1.4786902095018162,1.6264857929093584
14.23,0.3791941968464245,1.4723102546974216,0.14380711069168522
14.24,1.1093355867769115,0.6078367778259787,-2.6617875556211095
14.25,1.1097849285594612,-0.38871272840859633,-2.7213314849522092
14.26,0.5081390114689142,-0.445406216099054,-1.5077818772610947
14.27,-0.24950390649753637,-0.8789795490302342,0.44102285966141475
14.28,-0.8852101648288387,-0.781213987542288,1.8707479554060416
14.29,-1.063390029245494,-0.3405570103905793,2.2734833707211153
14.3,-0.5991929838637544,0.4445940532810311,1.096565093608261
14.31,0.12431144916040938,1.5663459618344178,0.23518532108882123
14.32,1.041313721729287,2.5830321374415792,-0.21533549329588525
14.33,1.773325726880219,1.037545830057237,-1.2145029277872554
14.34,1.975575716088839,-1.164330055885919,-0.9346943610590025
14.35,1.9232375081579567,-3.098003261688653,0.5053578631436472
14.36,1.591549638850391,-2.7156365026962264,1.6592128578377214
14.37,1.2425354885501314,10.53702339183123,-0.07220176139497197
14.38,1.1145134399702272,3.697392100130162,-1.6047777651138477
14.39,0.4352613070048613,-0.10625240036894389,-1.219097993752053
14.4,0.3210241362779052,-2.161993949956662,-0.13599924174112415
14.41,0.4950563371989635,-2.561467174652576,1.3172259441859528
14.42,1.1774671614937222,-1.8987930398842494,1.3250452894480744
14.43,2.2205923970778683,4.313200171186769,-1.3688630645863804
14.44,2.212754899333417,5.268647005345374,-2.589495959019531
14.45,1.3088272520370323,2.0576706406579977,-2.2744555389458516
14.46,0.4038891739179285,-2.003405025445436,-1.1801428015816668
14.47,0.03246596995309346,-5.657191513681381,0.8540242285055052
14.48,-0.1786847432676282,-5.084648184688854,3.5746419120888446
14.49,0.14654445972313226,3.605681493736756,3.669076181469126
14.5,1.3173565250448984,7.747348123752783,1.0332273748093257
14.51,1.5165600218745034,2.0592392856307575,-0.5368421257926383
14.52,0.86974256234547,-0.7146603307444181,-0.32581356902593545
14.53,0.157055439117108,-0.529296232171741,0.24252657147520998
14.54,-0.17350350304956036,-0.12401846827748253,-0.08043413484384541
14.55,0.40256835153308795,-1.455519403866282,-0.5323923095918491
14.56,0.9524904891705636,-1.2215539922303453,-0.4190092284879663
14.57,1.079288804321404,0.2553128775579188,0.38415137256623594
14.58,0.9679745707681218,2.018663460844269,0.3446795417651636
14.59,0.8743241381033099,4.126368911351875,-1.4635846145609532
14.6,0.5960981317808164,1.000725449522058,-2.055268824661093
14.61,-0.029005992248303178,-0.01251816407108433,-1.0759392632494038
14.62,-0.28924341786027885,-1.2641908956101164,1.0207482902945706
14.63,-0.014632697929893397,0.29194519261248736,2.639155974180826
14.64,0.7575131878481964,2.917980120718207,2.619814497859295
14.65,1.0536880825083648,0.06485217386671345,2.2936301384211215
14.66,0.8566692629913102,-2.556634960240813,2.335517945452327
14.67,0.4031896471676746,-1.9871586838438142,2.3340551664010647
14.68,-0.021187461986284486,6.472149300853488,0.23147821653573591
14.69,-0.06533704320232861,1.9782311329555664,-1.9999591734718511
14.7,-0.5482260737036879,-1.745276574120331,-2.32858585938583
14.71,-0.9839066749582169,-2.0326817295452457,-2.1456279777412854
14.72,-1.3935164523325774,0.529994779246513,-1.4229744071967179
14.73,-1.239378866124841,4.464507137015569,0.17092578977092251
14.74,-0.5972771562759862,-1.1217317041501889,-0.02705275561476298
14.75,-0.5873849523256228,-2.408239865593175,1.0302952742704574
14.76,-0.9148691997753253,-1.3375153752404103,3.3142870386342054
14.77,-1.2526166815297404,0.5999044926454062,4.172383647622255
14.78,-0.9273614353731022,3.951414881914144,1.705523715917504
14.79,-0.8706375482930858,1.4756302623636253,-0.030082243171110093
14.8,-1.0536389047341457,-2.2508273256947673,-0.24621891311801872
14.81,-1.137453943785099,-3.9741223212130414,-0.47940937534645917
14.82,-0.9566064794843796,-1.5075849701783335,-1.6416094945436859
14.83,-0.6325599540645362,1.7960486272644398,-1.688978378286494
14.84,-0.5566161664682571,2.7203095989739405,-0.7622835799557476
14.85,-0.68348518531371,3.439702726671362,-1.6891258920404395
14.86,-0.6127020289326278,0.26284387942001725,-2.483453033246184
14.87,-0.7613302820253488,-1.939455171988976,-0.6267458785546753
14.88,-1.0493898184829487,-2.3016603643996065,1.731415822988297
14.89,-1.0661942092845362,-2.065286270467847,2.4201200267426075
14.9,-0.8188091193047835,2.5812698348996745,0.8492656321182137
14.91,-0.4020290312202469,4.69693582018891,0.9034111797402627
14.92,-0.4488959956071425,0.5888581135329013,0.6182558327401599
14.93,-0.6891329740715592,-2.4646240749929245,-0.3409773553963988
14.94,-1.0225894886363098,-2.4500932963613864,0.1780623706498087
14.95,-1.2114472187733296,-0.6489357764889895,0.7370677773972428
14.96,-0.48463451532769153,0.03780602208952434,-1.7533939152090723
14.97,-0.29818525876082425,-1.1457298158048568,-1.54614192794652
14.98,-0.5329463950065038,-0.8780653769948042,0.1857390519968464
14.99,-0.7164559116296036,-0.6510803448253096,0.9497738044918739
15.0,-0.7303207812836947,-1.1050136323462356,0.7044010666594288
15.01,-0.6483331303449745,1.8555468731023577,-0.9026606635498295
15.02,-0.4419462111840844,1.1850778351434756,-2.690361616039502
15.03,-0.5349728353238332,-0.948164726630795,-2.5173565076242213
15.04,-0.5839368354273868,-1.8466538161137538,-0.7747229309648378
15.05,-0.527140650156355,-1.7550485292338376,1.5348880584701545
15.06,-0.1855184159283236,-1.0135124481769988,2.4386612634484255
15.07,0.5318467952628712,4.090538031415102,0.380135117487386
15.08,1.2915156324426498,-0.08729696679966994,-0.9852304920994137
15.09,1.1555846879782397,-0.7646413218453901,-0.9550489904560914
15.1,1.0285293458581906,-1.4191943396734124,0.18548763933192805
15.11,0.7697146933551342,-1.5679241253182483,2.2815774587047613
15.12,0.4856317239354193,-1.1051023125632093,3.6313355073857063
15.13,0.6583521592889308,3.8503106340319655,0.7692068070956126
15.14,0.9390151808226134,1.9201997657594434,-4.309227545411215
15.15,0.5788704039884398,-0.6152202298546308,-3.985187517349294
15.16,0.35451769285604023,-0.5933439378017836,-2.2487097706264914
15.17,0.44553345694449,-1.1674261633491507,0.303499492523681
15.18,0.6766701258270523,-1.3999183090294125,2.89819137665933
15.19,1.028317388846727,1.8822681344657957,2.48039318506134
15.2,1.6594717749540207,1.3569935422759039,-0.4951930666912876
15.21,1.2925317210068075,-1.3720790607908764,-0.9262934561700716
15.22,0.4802844654667074,-0.9871494410850101,-0.2370867760955707
15.23,-0.164060392817142,0.126654132112069,0.7227049781124846
15.24,-0.2613803453643081,-0.1832833598349227,1.429271710040931
15.25,0.29110559147771486,-1.0525456544848328,0.8355231791261092
15.26,0.665778371046124,0.19945385494898843,0.2921117864259573
15.27,0.7726446272503052,1.8648958654512944,0.3565155890960319
15.28,0.91651056179183,2.518105270263445,-1.191242324755266
15.29,0.9200891643483724,2.076347890470746,-2.8390966868848024
15.3,0.6324967718582097,0.06854870811355286,-2.2411600797116087
15.31,0.26528506881824576,-0.07151331126821481,-1.6306270880813052
15.32,0.24767770613741058,-1.8690553749480876,0.6325046216755691
15.33,0.34781079629436634,-2.9343362642942585,3.3486452330588814
15.34,0.5018814723153366,-0.17910715467382332,3.6281825981890554
15.35,0.9077933528461137,6.611470253930611,1.4911507188587048
15.36,0.9631913230620291,3.2824740645978734,-0.38789002607869244
15.37,0.4151289874930022,-1.05488153391038,-1.4430920801485876
15.38,-0.34767668390859807,-2.1051321745640927,-1.2302985203460737
15.39,-0.7209802529955192,-0.8725305373959397,-1.198962936850422
15.4,-0.03302101894996896,-1.040210211352131,-1.2503382111547352
15.41,0.4784827295237987,-1.046875436623134,-0.2843739486299873
15.42,0.456307781521647,0.6539391443641653,1.34980836062991
15.43,0.2920434348049697,2.6994691185802537,1.4494531617216257
15.44,0.3040037384274562,2.495510467263147,0.36169961453622496
15.45,0.270122037761545,-0.23694799379339154,-0.3951505991349558
15.46,-0.07972064914709953,-1.100177109455584,-0.8666424214990279
15.47,-0.33464728693795587,-1.46855133655683,0.21966257524629043
15.48,-0.3559687667820808,-1.6446752168821361,2.0309384505716923
15.49,0.009525856654287691,-0.5753816081736379,1.9111385778613823
15.5,0.5823510824593373,5.167269809929763,-1.3442198731300596
15.51,0.8037052434108802,3.4733101184131416,-2.4853590056329407
15.52,0.6216201419569095,-0.9278921717690758,-1.9653053953903836
15.53,0.08526071361428797,-2.346685311015762,-1.688530131869827
15.54,-0.3216898980381953,-1.6936286686104616,-0.6425827309033436
15.55,-0.48002164822818805,-0.7209571079003144,2.2538236511299132
15.56,-0.34011627074418127,0.06201546731820978,5.073161370568208
15.57,0.012891867161835303,5.012034589443553,3.396267959703618
15.58,0.11524938956960351,6.562258796065711,0.1295936866423324
15.59,-0.2670553512252304,2.1882342500149656,-0.6917713725600951
15.6,-0.40195656430537796,-4.467979751079058,-0.23843342228891842
15.61,-0.3382874339714072,-7.863419326859573,-0.5010292928341662
15.62,-0.1864041274434755,-1.3771889243900548,-2.5432250768387394
15.63,-0.05642072594037978,7.992933924517175,-2.401175683261353
15.64,0.5429189982742889,2.752312457900361,-1.448434890119298
15.65,0.2263482686555761,-0.575045530348645,-1.977516398384111
15.66,-0.35736496070554796,-1.5682569693738582,-0.861943926702658
15.67,-0.6790767297488812,-2.157627241303037,1.0161297917291727
15.68,-0.3442431496999476,-2.1772461490214545,0.9864472770174983
15.69,-0.017131846040498742,5.233280763174528,0.6472642107078382
15.7,0.1018540546718613,3.469499130152833,0.6295075443693722
15.71,-0.3394323411903607,0.3749118107317419,0.635909221268088
15.72,-0.7259107960757232,-2.502058806025188,1.5227756773602958
15.73,-0.8831833716158994,-3.6726791911089625,2.3918482927460616
15.74,-0.4590375985669356,0.7942727745622815,0.25903303541461314
15.75,0.14553808747897254,4.19159669282211,-2.084014671059942
15.76,0.13811052077722394,1.5950672296778212,-1.1051507231339972
15.77,-0.07385400166291486,-1.3578140879136864,0.1874179683211442
15.78,-0.35046534294156184,-1.3203175804700418,-0.8489804737053739
15.79,-0.7069810729658111,3.946148108502783,-2.7697828190843325
15.8,-0.5835919783707288,-0.40970727338305235,-1.1328921025091787
15.81,-0.734038284302141,-2.5541787641090226,-0.12166745020734786
15.82,-0.8299756671025419,-3.6273940247157164,1.3561382765169976
15.83,-0.9999780477774882,-2.781142244499833,3.549193435351634
15.84,-0.9952140857972357,11.645109751272056,2.2442398429578745
15.85,-0.46899573682385404,1.4490127307674054,-0.24824134848905066
15.86,-1.0921577759383654,-2.316950742241674,-0.20885254414226542
15.87,-1.4724764950326872,-2.4963823354626085,0.6092166171730435
15.88,-1.6996622303022495,-2.0436717446796164,1.5962788753083978
15.89,-1.8817699518599145,-1.5213887662081393,1.4017120600824036
15.9,-1.2089984148932438,2.108515033434262,-3.0899823501823223
15.91,-0.8052244013636989,-2.1367335408636006,-2.9852705309355065
15.92,-1.018666153900801,-1.3899575777802076,-1.7054926867713083
15.93,-1.2668715921749412,0.7706403744424553,-0.5977572567343541
15.94,-1.3544152230024384,-0.047201292961096104,0.623638183755097
15.95,-1.2063203416275374,0.345068076787391,0.3642569458876214
15.96,-0.7001073234695948,1.9630808081156261,-1.1231022406646822
15.97,-0.8423980311495559,0.1261369209348457,-0.6319135817325705
15.98,-1.0675746715300394,-1.544762452472484,1.2936137312276519
15.99,-0.965193462183711,-2.921194055844799,2.4832246100585875
16.0,-0.6864643059582142,-1.9788774780248592,1.7701496627082414
16.01,-0.177736041981846,1.5329608765581622,0.13101791298434168
16.02,0.11761847295752469,2.9340946211269303,-1.34794695549872
16.03,-0.156520341309688,1.8074515805769114,-2.4323513687289897
16.04,-0.7703925919646287,0.06063835962442164,-2.0805691169035625
16.05,-1.3326935655432475,-1.7606392619486297,-0.2861066019699076
16.06,-1.3983934286781214,-2.9647002118798502,0.5457318759826555
16.07,-0.9809577654057108,-2.7493402580722357,0.6167409404942346
16.08,-0.6491965562686678,-0.3839128031346078,1.033491674509905
16.09,-0.47076865778506055,2.2884037723432056,1.2691232991131731
16.1,-0.4765234641689675,2.891071689019729,1.6276776803373767
16.11,-0.7576675980389476,1.820863714793207,2.315134505879281
16.12,-1.0178275584720624,-0.24393578214244935,1.748419460271484
16.13,-0.9246811355368663,-3.135793549277739,0.24559817101784556
16.14,-0.5468148051771787,-4.107759110588026,-1.1323890154637233
16.15,-0.03398974285295638,0.21083428479603683,-2.858506863991152
16.16,0.5074960600636353,1.6673398515372713,-2.8670586676482523
16.17,0.47538349874033614,0.9043286650617307,-1.7726753385156748
16.18,-0.19230471409621316,1.251305929537169,-1.0172409047009554
16.19,-0.8943218690129061,0.2592844473215802,0.46281483731786427
16.2,-1.154947645046391,-1.4531149916731065,0.9276488411495263
16.21,-1.242586129293975,-1.7901119538603627,0.9348139599670968
16.22,-1.428094443113691,-0.337437659811878,2.0929553243753505
16.23,-1.0176309402699575,0.7390526614293218,1.6866493661225441
16.24,-0.2942365233737627,0.26450452974343813,0.9353806840576034
16.25,0.05718136706499719,0.3402251447602706,0.20626174082438833
16.26,0.06546949985688082,0.09747484409354817,0.14286596602075508
16.27,0.03813143307153078,-1.530202184305487,1.20991293729251
16.28,-0.049209409587961335,-2.7130527961752,0.9522295598976679
16.29,0.02315145726975978,-0.21825550705494723,-1.5115260720632475
16.3,0.11401776110424926,0.8410045967533518,-2.8742638661231057
16.31,-0.10461879044918099,0.08700567914990913,-2.3963977663281035
16.32,-0.5218246018288182,0.21645016197074657,-0.612125004387636
16.33,-0.6118384990348381,0.33112543684788437,0.28224218973852816
16.34,-0.2943109041469247,-0.5023799779202519,0.8790836634264956
16.35,-0.2770038252154365,-0.06079588156887983,1.6014457854875939
16.36,-0.3719255641679021,0.6533667863523729,1.4899596057266793
16.37,-0.32423711068554206,-0.5660948635938614,1.3884713800978257
16.38,-0.32251801242811484,-1.1422703589650136,0.8512919636733043
16.39,-0.43486364841190384,0.029696422810257667,0.09298245381759332
16.4,-0.2317875576697442,0.42945117127062354,-1.036331129297714
16.41,-0.03842028146524335,-0.7751540998435681,-1.6996678185168141
16.42,-0.38434677725706873,-0.5681079170701767,-0.6561739778671106
16.43,-0.9756169640801088,0.6959646318084524,1.2795721013074606
16.44,-1.25153231198188,0.3881385090043068,2.7589445639423964
16.45,-1.0447858577518787,-1.4905029025141212,2.523055046862232
16.46,-0.45480430094084306,-1.5054138971127533,-0.3371123622783325
16.47,0.11581846573285565,-0.6825301777840531,-1.8961852450561139
16.48,0.06464383151122538,-0.85145304080431,-1.7656476341092686
16.49,-0.30471755043009535,-1.0037459281923469,-0.7532899300752344
16.5,-0.8756647343050882,-0.7149942442567887,1.3159180663097174
16.51,-1.150278104663447,-0.19278688107950914,1.5941557536030115
16.52,-0.7498914857313236,0.9661482724974036,0.07929264484614999
16.53,-0.6545440376632169,0.25873897695987075,-0.15442057309765003
16.54,-0.7976324622157153,0.26440625049446026,-0.16443431523185523
16.55,-0.7223704269161565,-0.8362309400031129,0.7153533168163124
16.56,-0.3921552233088153,-1.9322217239483177,1.494357168435034
16.57,0.24306863874939935,-1.2153086550187282,0.37340925803128017
16.58,0.5501635235975513,0.07268503869151009,-0.5937035516709043
16.59,0.2120350945840303,0.45270742543593967,-0.12187311894018521
16.6,-0.3619849000190351,0.7205933151195262,0.7736518379763307
16.61,-0.895970430089052,0.3262852277066958,1.0205820089960478
16.62,-0.6467150945197958,-5.863919308345785,-1.2731378426523492
16.63,-0.31477813724448017,-2.073704674604927,-1.8408743561762095
16.64,-0.09468886815562585,-1.5878124318076696,-0.5374314333785589
16.65,-0.25715357131885314,0.009876628800505735,0.9440760005459741
16.66,-0.39389944045305425,1.3488501703402191,1.8974465999729246
16.67,-0.34627744897932977,2.234514724766645,1.5166589630655147
16.68,-0.2253382086163933,-0.030098186838643896,-0.8995363209525665
16.69,-0.45547098644094725,-0.9759147742531948,-1.5662015346502665
16.7,-0.4537480103834392,-2.4203683780403136,-0.524018319921683
16.71,-0.375018100829231,-2.503893772966962,1.1795704776779123
16.72,-0.04514429408349786,-1.144174207551455,0.988038305891536
16.73,0.6623028844938826,2.777650339562566,-1.1075371549665103
16.74,0.9459666234501575,-0.0413047587945758,-1.0907529229571697
16.75,0.5070795628954359,-0.904184879201803,-0.47337520347577383
16.76,0.13026989890611765,-1.2808440433748776,0.24200814962386324
16.77,0.0057691182680166455,-1.0542455462602742,0.09688960458257333
16.78,0.5040424661193958,-1.4038551728162272,-0.15297472351612842
16.79,0.7565668181038389,-0.5335455413224077,-0.43552498655702365
16.8,0.6068495175079894,0.99041124431678,0.1749163378945431
16.81,0.4721793607155512,1.1350246081735202,1.1654664981666405
16.82,0.6119975139329741,-0.6954493478699644,1.2346465216388283
16.83,0.7383348310779099,-2.314659034490608,0.8231842826709667
16.84,0.5910966062838858,-1.8575799676416427,1.090827829828457
16.85,0.48644069810633694,-0.0912521422584748,0.5220876311631734
16.86,0.9336401673355122,1.0304808344824463,-2.5022342263522055
16.87,1.4298432039755435,-1.5588584260806264,-3.6252886216897258
16.88,1.2583870400226043,-0.3053598263967954,-2.6508282564173227
16.89,0.9027941226755434,1.621454497974263,-0.6937634158167392
16.9,0.9583275955937691,0.9248693541234818,1.3119433458869294
16.91,1.428692863149721,-1.8140075153493276,2.815741857236672
16.92,1.422063583711606,-1.6722617905680555,2.104208438085894
16.93,0.9213071235789224,-0.1599502911078907,1.4695965431607474
16.94,0.288690099246519,0.6437933732553809,1.8755316776397142
16.95,0.10429890957823497,0.2763839335132552,1.0230572785567729
16.96,0.2630586690084104,0.0010990491230587908,-0.7182734360490461
16.97,0.6028501807547955,0.03485407845389341,-1.988205897172102
16.98,0.8980213207572906,-0.028097657700226677,-1.7665839007569033
16.99,1.1268568619494428,-0.20310804451700712,-1.0403308596069676
17.0,1.3363201894441998,-0.46799500416423556,-0.892524129586901
17.01,1.1326233650590851,-0.24329145348425138,-0.31624213942625146
17.02,0.6366203898211297,-0.023625647939809775,0.8630306167932337
17.03,0.2549710987156704,-0.6106601630603972,1.716232969008803
17.04,0.07082216613048119,-0.7096774159595,1.4698247896033412
17.05,-0.03175105402280549,0.17866878007536957,1.100516555753419
17.06,0.17843951964022495,0.6501583827220437,-0.002175498028767222
17.07,0.5934861439941427,-0.05538771881279982,-0.8851013660711463
17.08,0.9100067356373283,-0.8079392463308988,-0.7363072661263182
17.09,1.1642805482986065,-0.32031052387814246,-1.5074967178504917
17.1,1.2291617590297466,0.6142993964503309,-2.239920009436217
17.11,1.0401124159116686,0.369496358011109,-0.9172071111972397
17.12,0.8914075559161423,-0.3740355208110956,0.0041895624583424005
17.13,0.841576773255032,-1.322953054565526,0.9742036393912495
17.14,0.5251044806748757,-0.581182329326586,2.2255777844885145
17.15,0.24908006541368582,0.9058948063247001,2.2777614201414123
17.16,0.23460986253701996,1.1493244452748357,1.3888509337188775
17.17,0.35837729086084047,0.23472601340355706,0.6136447001721126
17.18,0.5786924088557595,-0.16668273156866414,-0.7519351854388723
17.19,0.8611087968386612,-0.12313621102086539,-1.7621676944355018
17.2,1.4002709135964038,-1.2807670304942056,-1.6003562750144553
17.21,1.9926247481710406,-1.6279894093625433,-1.6335130810549447
17.22,1.9362289240195338,1.463127462322618,-0.7836795159031726
17.23,1.4049447015919523,3.72137096752373,-0.4729058599369216
17.24,0.6819521643349643,2.4317642967219593,-0.2794238246795963
17.25,-0.03514880401798023,-0.33338849639618273,2.2100134730244965
17.26,-0.49460468381841227,-2.642410231092117,3.3916637798479883
17.27,-0.4459974226273276,-3.773656340770753,2.417284991305365
17.28,-0.010341204385005614,-3.037399035003776,1.6554652272625139
17.29,0.7051851778758572,-0.8012389042388736,0.9040282331416383
17.3,1.6374229690276652,3.4685888670269116,-1.3353859762344986
17.31,1.9675454639726317,5.590001837796536,-3.605823744774969
17.32,1.4229157329993771,3.773495735051055,-4.742375593574867
17.33,0.493908231931207,1.372027179592457,-3.810905798293297
17.34,-0.10809586545796429,-0.5548745721019956,-1.4302859371832304
17.35,-0.052095578071710606,-2.468858397796829,1.3481571591646138
17.36,0.378348802454279,-2.8490217021096287,3.238112394780918
17.37,1.0903283869870297,-0.21103299406449177,2.841436887663758
17.38,1.9792710779198384,1.9150643084827141,0.9805586630103333
17.39,2.0839115007271367,0.8391491565382256,0.7366245924257006
17.4,1.4186965863074266,1.8387714565717923,-0.059258669239217986
17.41,0.38497536964487084,3.2440816953050873,-1.5124274673075653
17.42,-0.38336616192723855,0.8072279836677305,-1.1485322497738566
17.43,-0.6205688202317998,-3.0398706409153373,1.297776910387402
17.44,-0.8088473608617097,-3.9651728785459843,2.815985263869004
17.45,-0.5853865948591028,-2.153437998877369,2.0147006181802682
17.46,0.132707539280792,1.6396818272922287,0.15737282750789244
17.47,0.7560137358054441,8.12076201130938,-0.9295781098763257
17.48,1.1971213880884117,0.6936215548985494,-2.6747297162823642
17.49,0.9467088675418281,-0.29682287692980186,-2.6146404341578924
17.5,0.5458996494707192,-0.8959866381909786,0.7617778554744873
17.51,-0.06480796472912492,-1.1431633576283913,4.051269293437138
17.52,-0.10989721961349887,-0.08606824348668805,2.255306544816155
17.53,0.3768172433749122,1.9972063180381816,-1.3053481081077172
17.54,0.3033767824304347,0.7524059246330475,-0.18762129143860634
17.55,0.04849018773951462,0.6647641999506296,0.31511505470680795
17.56,0.003484695877709557,1.3470959414401233,-0.8536528300725885
17.57,0.20155239605392636,1.3310503509141913,-1.528782340419205
17.58,0.556165109846968,-0.792751804190683,-0.1746944502084408
17.59,0.5104739174143369,-1.0136598349054027,1.314786562826722
17.6,0.3656057423580924,-1.158869690498571,2.5943033939719937
17.61,0.3246906827639582,-1.0236378871458922,3.0043919046618357
17.62,0.39135945424923296,-0.06506923394312807,2.726905723848222
17.63,0.47120531823504813,1.5910283863790462,1.4646840452348018
17.64,0.39286821086838086,4.165465883825975,-0.8868774387357414
17.65,0.10744408224859874,5.337399002057569,-3.3558008411331164
17.66,-0.037785504056245936,-0.52173678966209,-4.870805404767108
17.67,0.0036271133482108763,-2.1430003949621645,-4.146837986077733
17.68,0.21735149977571902,-2.5219196477459005,-1.113276855467163
17.69,0.3958342364962631,-0.34549699572147635,1.8404413655375083
17.7,0.6552310688131813,5.18288876913896,2.963360641579014
17.71,1.0987731205290925,4.042693726448354,2.7702079901432732
17.72,0.6327366841642543,0.5613190026061132,2.0829465773618434
17.73,-0.12382011972542449,-1.7369243158119396,1.5859735223089966
17.74,-0.6051373560231301,-2.8691504190903947,1.2085362100772812
17.75,-0.5302321075480745,-2.223002684822245,0.07178603082576057
17.76,0.10179369787860278,1.5984460197234236,-1.9675522064803976
17.77,0.4616661643623848,3.029957119280469,-2.606330370772097
17.78,0.4011678245390982,2.3719036366877813,-2.2918685348073486
17.79,0.04076670914970482,1.1214977059431095,-1.519364262004725
17.8,-0.3273270033910485,-0.4564115153689863,-0.07692654165319525
17.81,-0.4593004740961565,-1.368517989341796,0.9704908432046895
17.82,-0.36456698916585656,-0.3007805271493809,1.075717458064328
17.83,-0.3559295715287427,1.0605501546415492,1.550935257312779
17.84,-0.5367664772606605,1.3918413109801606,2.1273871871413936
17.85,-0.6681051609620375,0.32203481149045443,2.2062306664453923
17.86,-0.7393365582602118,-0.7660708762768454,1.7531189271203822
17.87,-0.5981101130220674,0.06957949232317986,-0.00028597865617398553
17.88,-0.2828259356460168,1.4907922574735646,-2.002815770757453
17.89,-0.21442321652062563,0.8693879602466629,-2.44329074422767
17.9,-0.40787278014006295,0.791405617491855,-2.018962953092703
17.91,-0.6466687868394276,1.104933604845946,-1.82248199894024
17.92,-0.7119206840787757,0.8388826341378959,-1.1895012195281833
17.93,-0.7019991611281524,0.46484741256480233,-0.13925955682720548
17.94,-0.8502425589699323,-0.3783079003977156,0.5123913518903128
17.95,-1.1450729119764689,-0.9872799448716391,2.2783349600355187
17.96,-1.2873233364370127,-1.3804540325014782,3.531316053041742
17.97,-1.3300093954746919,-0.6367905580000506,3.302479202542094
17.98,-1.2373031599990216,1.0452605285486625,1.6496736703082795
17.99,-1.0085510947295813,1.9252296194347547,-0.2701705634752495
18.0,-0.5605099845609706,1.7604660279269018,-3.0256678736000846
18.01,-0.2419808127930559,-1.4580764014688596,-3.4022998583763235
18.02,-0.3998465302634994,-1.8995533573040606,-1.6057657743400626
18.03,-0.5658516622286126,-1.4718685335821522,0.031033232439665645
18.04,-0.8107929031578515,-0.41696570353631845,1.349512864857689
18.05,-1.1245048507059947,4.134870543479904,1.5433085966499462
18.06,-1.1092007140383355,4.768715233403303,0.15903406582228444
18.07,-1.5693109168457764,-0.18015034591898882,-0.22216983999755832
18.08,-1.6890465616175485,-2.952517726020355,0.6073354202294015
18.09,-1.5339883329768236,-2.628293171142357,1.2712008981942702
18.1,-0.8738071056156663,-0.2553682118002426,0.2844722007210994
18.11,0.18827380048925443,1.5261267881877927,-1.4803689553771058
18.12,0.3364021131805513,0.677708569085055,-1.6821743249545325
18.13,-0.29615308828314674,0.30203331344754736,-1.0474571044366991
18.14,-1.203261465168468,-0.4800357320721445,0.4161221150907804
18.15,-1.9771579308063054,-1.0600678537116595,1.317928418342829
18.16,-2.2469032554409867,-0.9241887149858278,0.4341690519696094
18.17,-2.0578128552864428,-0.02700096121960097,-0.6276583372621813
18.18,-1.7195056136716858,1.1593952608207554,-0.6117711651452076
18.19,-1.003476326109018,0.9470790650824176,-1.0235269556118496
18.2,-0.3786753215166077,-0.9508726335471315,-0.5149704479681018
18.21,-0.36300356674789447,-2.3153252240516644,1.6485771838744059
18.22,-0.7678284992128148,-0.960155315391063,2.31031126169905
18.23,-0.9737134536966583,2.2260995684868354,0.08651614333337704
18.24,-0.9651189153236404,-0.05120029815856591,-1.6777442308042545
18.25,-1.2787036511037893,-1.24889606915155,-1.5617854396244262
18.26,-1.5692442599824798,-1.1930414181765485,-0.5067649206077572
18.27,-1.7541487382622436,0.01694261831817805,1.3377887962529509
18.28,-1.3840713963847815,0.7967417113345993,2.213148826609643
18.29,-0.40339548310639556,-0.2717836750815623,-0.26952295615728
18.3,-0.18398921965476142,-1.5856484806948226,-0.983130475073874
18.31,-0.45204136603982104,-1.2274426858404965,0.2488903355937994
18.32,-0.9643044837514005,0.08621982882004545,1.8582992438800576
18.33,-1.144840185964629,-0.06639832971619872,1.866910083869943
18.34,-0.8373170151639524,1.3655548532169062,-1.3921299087410108
18.35,-1.0162174595322744,0.15225612842739947,-2.441709569541115
18.36,-1.4982911564591441,0.5047181441205487,-1.94690660141215
18.37,-1.8072464209889267,1.0582120106563255,-0.32966094890581277
18.38,-1.7844417938459038,0.09579122438326394,1.7886691287074
18.39,-1.311658225041073,-1.5195265956831354,1.5917758500541193
18.4,-0.640862928138462,-1.0242465674844201,-1.3637190966466926
18.41,-0.4686181296068776,-0.29750831379210285,-0.651197342891711
18.42,-0.6388909721163009,-1.1668501225100185,1.5059949445022767
18.43,-0.8655854596892629,-1.5414277249095867,2.053725920526159
18.44,-0.8792933221787871,-0.23521771614091389,0.5303148288827586
18.45,-0.7395172847427958,0.8429814842551056,0.184571650373799
18.46,-0.8793265751398155,-0.8073830360343948,0.8621536153622723
18.47,-1.1577592215920633,-1.6207078208338903,1.0737468577733917
18.48,-1.3912237230901994,-0.44308985010660124,0.6053350336792097
18.49,-1.4018971949339394,1.698004534707915,-1.081753588114695
18.5,-0.9390644068477497,-0.974190368500271,-2.161434555516849
18.51,-0.8403929261666924,-1.4935480676344652,-1.1724319765204496
18.52,-0.6847917444251552,-1.4460347360579269,-0.8038706875260663
18.53,-0.5474866696076365,-0.49783192548309735,-0.6210568830301328
18.54,-0.6247671322042756,1.434616731966544,1.7347245565166538
18.55,-0.6519613985323964,1.1166712495390851,2.035715314632988
18.56,-0.6690026614578011,-1.4171437830551632,-0.8267632378586903
18.57,-0.787189209821182,-2.2838932687582685,-0.637452234524201
18.58,-0.7947656564722972,-2.8253744473776865,1.4470529693347822
18.59,-0.8190089352101328,-2.767298996358454,2.963413950146821
18.6,-0.8121483863907215,-1.2295621597994901,2.9747755106978744
18.61,-0.9038079356353017,0.8409699139848164,2.488114221267968
18.62,-1.2605941507183391,1.7870015073685477,2.0512003614484917
18.63,-1.7007286099033938,2.4932132179694473,-0.6442001875953618
18.64,-2.2378089082224646,1.6172267853164415,-3.5078596950555636
18.65,-2.4980250634742482,-1.3052777911462776,-4.12476315043127
18.66,-1.694097418311773,-6.475255572194726,-4.1252594137420635
18.67,-0.1532234106148558,-4.97648262587321,-2.3465266660241335
18.68,1.1006789330549689,-4.552348700732598,1.354578763537111
18.69,1.6241445967052333,-2.6314598756318826,4.5993573765158375
18.7,1.5326300462989741,1.1489113357367506,6.23337560397183
18.71,0.9563799098410695,6.721800829486131,4.880129770685833
18.72,-0.059935768141739926,7.113419317130713,0.8260428291887796
18.73,-1.611254625324466,-0.5297018496206221,-1.9080958588671992
18.74,-2.3465660513437805,-2.9035366848853537,-1.8524690577361689
18.75,-2.0958083472642066,-2.56443429340921,-0.8667784984548359
18.76,-1.0124019434167733,-0.27432387543495773,-1.2325953066006667
18.77,0.860492796322215,1.0962202212850467,-2.7653626796744093
18.78,2.2365003780779604,-1.4818713107609918,-2.5800448138379517
18.79,2.2795605936461376,-0.8773539148306958,-0.9876064978257931
