seconds_elapsed,z,y,x
0.0,-0.500885009765625,-0.76263427734375,0.0062713623046875
0.01,-0.6605395559252921,-0.9086803230797383,0.08001115854164796
0.02,-0.6116545503671128,-0.552048055646201,0.06977483381487722
0.03,-0.6166671565064964,-0.8835178961948436,-0.03499535207803554
0.04,-0.6245090951730472,-0.9700370126437751,0.0212978226155261
0.05,-0.6936926440100499,-0.6133356360874718,0.1869346002873576
0.06,-0.559559879417156,-0.9116260133908506,0.20200504849533543
0.07,-0.1758465163157631,-0.8332516385184776,0.06403040789823972
0.08,-0.3358324657362774,-0.6175200145692263,-0.02034438213194556
0.09,-0.867592069247629,-0.7008699039446362,0.02114613664546985
0.1,-0.9299471357301743,-0.6698339594462605,0.08340712707416875
0.11,-0.5170277149260523,-0.6704075797567789,-0.010729434753174174
0.12,-0.4115362327410502,-0.6631393684227816,-0.1103048076468984
0.13,-0.6514775281961644,-0.701896039401034,-0.012259318769410749
0.14,-0.7071575119598119,-0.8055881506301328,0.028480579175394857
0.15,-0.6357544795093615,-0.7003279379885196,-0.0030011734731870696
0.16,-0.6598337019000894,-0.71341954603202,0.09691948178370441
0.17,-0.6961146573291528,-0.8802606401113995,0.23951316984086554
0.18,-0.7668195045713629,-0.6851738096098384,0.2132375250110871
0.19,-1.0161753702147414,-0.8999459688866226,0.07671049452320201
0.2,-0.9853557171429651,-0.9650789193397122,0.012394489290573065
0.21,-0.6752708794919839,-0.8406698468777497,-0.04166897951926228
0.22,-0.48064346509174005,-0.9474946704760839,-0.0649773802384021
0.23,-0.46279684211766187,-0.7538414016374652,0.013686005482546669
0.24,-0.66769832695326,-0.7895882580227729,0.11824504150784061
0.25,-0.5629519879503531,-0.7160748244496932,0.13442617471922472
0.26,-0.514364242507121,-0.5845994261905146,0.04274369152707095
0.27,-0.7985185600104681,-0.7699276061318581,-0.002424619904628125
0.28,-0.7603882570995194,-0.6297752513814603,0.0062181302432682125
0.29,-0.5000609572501221,-0.5569458276196948,-0.05581694971412951
0.3,-0.5892740264170828,-0.7670470672541968,-0.04568786203617411
0.31,-0.7618031146727914,-0.5406991087507275,0.078128757294143
0.32,-0.9259953281381761,-0.6703181868145102,0.24877830655763278
0.33,-0.6835028704475253,-0.8035851057931338,0.2750505406758315
0.34,-0.38987850134690855,-0.6447110435268674,0.18559494829299816
0.35,-0.5757693107504975,-0.6735799378288185,0.21219117263575957
0.36,-0.7021334012466067,-0.7944447395433818,0.2463844039318819
0.37,-0.5882219958745215,-0.7229135329023993,0.1572591149560819
0.38,-0.699032085886452,-0.590950894041299,0.09220395295516261
0.39,-1.0774620194814377,-0.60924846566419,0.21230071788889476
0.4,-1.0942436040834156,-0.7699006546375484,0.292845615120829
0.41,-0.8648812220432128,-0.6463119358475176,0.21044094708026861
0.42,-0.5663625916354839,-0.674504953218758,0.11710853562681706
0.43,-0.42099227778538456,-0.8067499853704005,0.0710592327673321
0.44,-0.29953775056690973,-0.6923987228038289,0.08237520619174939
0.45,-0.35254059523742926,-0.7374918752986732,0.11081441044689903
0.46,-0.6400088186675565,-0.7535620550171006,0.2127441710411728
0.47,-0.9045069139927187,-0.6979415835777412,0.3428116170888537
0.48,-1.1204682432722493,-0.8785492384692439,0.34087398253966755
0.49,-0.9112748404841323,-0.7928476178240443,0.19960268377928295
0.5,-0.614707680635669,-0.6716125843136447,-0.07337082264033785
0.51,-0.6492993209538745,-0.9659437474741961,-0.1935181715235939
0.52,-0.4156677630787739,-0.7237078502250666,-0.14869146225431082
0.53,-0.21397445972796147,-0.5957710539516663,-0.141692701494843
0.54,-0.6400237753814176,-0.7396600753320095,-0.013414285318966896
0.55,-0.9048258000137912,-0.7397093377348822,0.1769384886383472
0.56,-0.765413119589961,-0.6445367116288415,0.12027251067814544
0.57,-0.7650698473445617,-0.8762346688216148,-0.04343675702165886
0.58,-0.9119410098286282,-0.9501109351537768,-0.07100063388832421
0.59,-0.8900728062860052,-0.8847380350517604,0.012728012940437647
0.6,-0.393437713390471,-0.7648847653387086,-0.02624571954735137
0.61,-0.26739723045301356,-0.930919348675271,-0.06746972572762498
0.62,-0.8163708578845595,-0.8588139015049743,0.11863400748292109
0.63,-1.062944583000532,-0.4881056563210973,0.169527630906727
0.64,-0.6819620581851259,-0.914423793533199,-0.08311242699636197
0.65,-0.328839035285839,-0.8487319996611085,-0.22447549687848162
0.66,-0.7093160102818178,-0.7742656415185546,-0.02797948318280054
0.67,-0.9940259140199347,-1.0015703860374192,0.09716718819780476
0.68,-0.5546967424196553,-0.80309963657297,-0.006760711077268107
0.69,-0.09178595621533535,-0.738543284057318,-0.02440893076069123
0.7,-0.29139825474482006,-0.6376430244487754,0.0486356376218412
0.71,-0.7073824004500726,-0.6293925847628866,0.02165027519257415
0.72,-0.7865031580218117,-0.6091046605049242,0.002530318635030469
0.73,-0.7505693556811864,-0.6416820204069251,0.04659395663328742
0.74,-0.6884730283088518,-0.8763548051943342,-0.06390644814732471
0.75,-0.4385723876654777,-0.8075800547731322,-0.1902934635945911
0.76,-0.6444019573331415,-0.6454487916708663,-0.12689746747103708
0.77,-0.8819113249013872,-0.9206839835787847,0.06087903089978831
0.78,-0.38117679284735123,-0.650540679946578,0.07961984624149807
0.79,-0.23186958474208197,-0.33480275490644945,0.09510840051003379
0.8,-0.9242031262822853,-0.8210515420311922,0.2848097038338953
0.81,-0.9422471533069611,-0.798822332504846,0.28844560448351414
0.82,-0.6819891080694227,-0.4923640197670108,-0.0512904170343521
0.83,-0.6262881012354153,-0.8659634308834325,-0.19908692837637124
0.84,-0.7476330371850468,-0.7809650437914641,-0.030002767304789433
0.85,-0.9985527075478375,-0.752462757520824,0.07907115153284895
0.86,-0.6755502338122796,-0.7453265757632737,0.09638081040492302
0.87,-0.3955009519158375,-0.5727926692028427,0.17179800713617055
0.88,-0.5469768575889908,-0.8487350111612374,0.22607056200832257
0.89,-0.5402696289897094,-0.7441532077239994,0.19173861877713141
0.9,-0.6701944491721801,-0.5899801464874208,0.045950986688118346
0.91,-0.9121012942083213,-1.0833220717635275,-0.030112098990553258
0.92,-0.8118088601665746,-0.8784964243105419,0.04130506560931687
0.93,-0.7108704701730428,-0.6826126674541371,0.09710733281599392
0.94,-0.6279627278327423,-0.9134926649655798,0.20958645045117277
0.95,-0.26005141896221246,-0.5803250640076703,0.27616938903133953
0.96,-0.18300315714351695,-0.6189895497554105,0.20885330000771568
0.97,-0.48629166620041064,-0.7635984694745961,0.09345525220104407
0.98,-0.8413118110116832,-0.6675669624325367,0.04811033568307783
0.99,-0.9676878092133816,-0.8486042302265656,0.017580140818136854
1.0,-0.6472415165978628,-0.6467838945734774,-0.024408529674641175
1.01,-0.7187714655456436,-0.6180492958326086,-0.0254812631015358
1.02,-0.9130910934684966,-0.9116678254922159,0.06551477253560653
1.03,-0.838511932622794,-0.591802275496789,0.1139469286978158
1.04,-0.8412661627093481,-0.7481749162078218,0.08381046088575096
1.05,-0.6800060115193269,-0.7923220848679022,0.16149483700876816
1.06,-0.3119252986258402,-0.6869120404700152,0.2535955934454174
1.07,-0.1987760923056682,-0.6641646787254889,0.2303104913112411
1.08,-0.47650508058224633,-0.5764516120110174,0.27951162563541715
1.09,-0.8153832342234663,-0.6169859927357981,0.28269358223622193
1.1,-0.8951416887875352,-0.86508745934569,0.12064294494726367
1.11,-0.8176747363153625,-0.6701991785270612,0.012918093354933146
1.12,-0.9493164716251176,-0.6815293877977922,0.07480427430245415
1.13,-0.8529692239227183,-1.0008301940523392,0.22176687450975294
1.14,-0.39260020506715143,-0.5279594825444747,0.19719452939044008
1.15,-0.40842008831822935,-0.884964579704176,0.1582725527697932
1.16,-0.6718518643121062,-0.8609285990148687,0.2586172561242938
1.17,-0.7858398068470961,-0.6110907312684536,0.2691945393880164
1.18,-0.7173662315658279,-0.9090378088655047,0.23322009327438525
1.19,-0.5297140728138174,-0.6546274581168517,0.2684044191600119
1.2,-0.5589012454452127,-0.7124674378522404,0.21527283266523622
1.21,-0.6173880798685565,-0.66702031725807,0.05503533672537268
1.22,-0.7961321614434307,-0.5023441727059281,-0.022290647401176027
1.23,-1.0972567444481247,-0.8585638090762334,0.028086062969855465
1.24,-0.9377042754545724,-0.674296018957342,0.06567167385532299
1.25,-0.5460769897475888,-0.5479031035470902,-0.0328483371867396
1.26,-0.5301438609829371,-0.7588487248609914,-0.0392419216958473
1.27,-0.7536436705998746,-0.710725295291768,0.07212755485843118
1.28,-0.6772556141846802,-0.9490726638878468,0.0897715203185536
1.29,-0.5918297607838955,-0.7385048904008777,0.10862377485414507
1.3,-0.8219199727197423,-0.8765224198447875,0.2070679050916395
1.31,-0.5357836294541208,-0.9356057422042086,0.13600139047137003
1.32,-0.3189469682782205,-0.6874041063550259,-0.03472935129837575
1.33,-0.7412557223347661,-1.068593404603798,-0.11084657386937562
1.34,-0.878508140421403,-0.9351966609095405,-0.08853795960285063
1.35,-0.4973838202360517,-0.4609666366838013,-0.1355055756375559
1.36,-0.2926226325038968,-0.7748702997338515,-0.19006470665909903
1.37,-0.4171992628654078,-0.6787100473791198,-0.14215885495589656
1.38,-0.8286943781633469,-0.5014128005998071,-0.052702990762918796
1.39,-1.104752431207631,-0.8187940538592051,0.05239370534078418
1.4,-0.7920486542636844,-0.8027030165036712,0.07166532867234812
1.41,-0.6747797048156488,-0.7091172385417628,0.08383216430211962
1.42,-0.8968445642026538,-0.8567613274039453,0.207225844662981
1.43,-0.9394036359776998,-0.9410272162374672,0.23945880059113897
1.44,-0.6014667571093446,-0.7658271473639702,0.07551345126277
1.45,-0.479596521804483,-0.6670824002400737,0.0669776753803583
1.46,-0.6979401685939096,-0.6967019153453784,0.2322743070217343
1.47,-0.7629485189477786,-0.6574022476650824,0.33804550021813284
1.48,-0.5801728580931951,-0.4608091349477716,0.23264025181105868
1.49,-0.6305230867066348,-0.6998315446685698,0.11199176490304522
1.5,-0.7817063159208102,-0.6234535156154579,0.05761827144954827
1.51,-0.9396779989575903,-0.6420892074545873,0.029666948440790875
1.52,-0.7703250256991486,-0.8405217076139769,-0.023634131151578672
1.53,-0.49776650914869885,-0.6695072519338026,0.01759317131783486
1.54,-0.6043803319582417,-0.8312503336834973,0.2163026402279261
1.55,-0.662414424047154,-0.8698117418496469,0.36409277186301847
1.56,-0.4225920315028784,-0.6011491331233468,0.32479787574694546
1.57,-0.4014913150055799,-0.882201469291685,0.18454157180891942
1.58,-0.6132596176968583,-0.7501758500988601,0.04601958868467827
1.59,-0.7717334714232127,-0.7086802571018033,-0.0731386014389199
1.6,-0.9441202263219768,-0.8442730742412199,-0.10539167067583166
1.61,-0.8526305414285593,-0.8083278590307377,-0.04093595052559651
1.62,-0.6043619510366599,-0.6434781087756422,0.06544704411163263
1.63,-0.637044087064327,-0.7570016997250756,0.13395840169687945
1.64,-0.9241235835949171,-0.9569694872941388,0.16076924340273419
1.65,-1.0987442669655072,-0.6731295150449689,0.09948780044159068
1.66,-0.9207676644405223,-0.9437201492833264,0.026248616253165314
1.67,-0.34204295498253406,-0.999977326327311,-0.028900952344646062
1.68,-0.1573119442497663,-0.6242548671268927,0.05726172313360098
1.69,-0.6103586498932745,-0.7489802790659542,0.20105451495423649
1.7,-0.6600347428401024,-0.8632514919884069,0.1845063728777465
1.71,-0.5626117409763596,-0.5084338884078076,0.010055258690302452
1.72,-0.8958093360126209,-0.8365689074613141,-0.13735138196655053
1.73,-1.2611119279829766,-0.7577660582786383,-0.14231114054835123
1.74,-1.2370950875161468,-0.6189581576749034,-0.07310182311605053
1.75,-0.7210988218262732,-0.9098365504337563,-0.0023347825775117768
1.76,-0.08067810225584397,-0.7927607837682153,-0.09645431247194497
1.77,-0.17418076494877974,-0.8989469264665879,-0.08582443824756392
1.78,-0.6973954158459907,-0.8327005287804943,0.07996764555219696
1.79,-0.7938586447401249,-0.9076488453403835,-0.030109551358564107
1.8,-0.6107754094268395,-0.9476360477136779,-0.1983053443864905
1.81,-0.652078924658925,-0.691526568570697,-0.13465891075414108
1.82,-0.7867021159965446,-0.851597938217035,-0.12312958020122239
1.83,-0.7258684549020432,-0.8784297907237558,-0.2387585677345912
1.84,-0.585067269285768,-0.9655498981301093,-0.352770459324329
1.85,-0.6864371371497561,-0.8491366317268964,-0.3589580368897839
1.86,-0.614256337502351,-0.8318292599393053,-0.33643813291078767
1.87,-0.22023835307169204,-0.9649151027946874,-0.30065212409560116
1.88,-0.044560465049548616,-0.5366558539394632,-0.19712254515096211
1.89,-0.6356005565202979,-0.6977912708258038,0.017798156693559383
1.9,-0.9994884928572971,-0.9506494948145364,0.12876117707046478
1.91,-0.47460550606533625,-0.717603493640773,-0.05440777963936205
1.92,-0.3297800241378558,-0.7434682318385486,-0.25436594268698254
1.93,-0.6532958962012256,-0.9084082427814585,-0.2472428702469551
1.94,-0.6850222742163002,-0.8270167053379326,-0.2195645308223726
1.95,-0.489860764280386,-0.5519803591204807,-0.23645668708186884
1.96,-0.5264792402251426,-0.7193717061949123,-0.11386036197259082
1.97,-0.5944837511248329,-0.6172191772237279,0.05591639146796788
1.98,-0.5053984444659042,-0.6233931633325098,-0.010866971413842097
1.99,-0.5482513421025386,-0.560264779912286,-0.1905530325153164
2.0,-0.861368612081063,-0.664787356593028,-0.16123907906668522
2.01,-0.8847360065107196,-0.8315853891900908,-0.11086635121321885
2.02,-0.6350305726579499,-0.6157682305781869,-0.19842120074747127
2.03,-0.8510700824727389,-0.7650142332069991,-0.07304405210352687
2.04,-0.8139353026986392,-0.7454299820532727,0.1460440456845344
2.05,-0.44674850204433664,-0.6187909118640417,0.16871701662303815
2.06,-0.6108942147647388,-0.6402371662009666,0.13149017337710783
2.07,-0.9434392149783065,-0.803070309905619,0.21992518731462732
2.08,-0.852092042154739,-0.763583102216006,0.2280864607479407
2.09,-0.37129539824295177,-0.630679122982574,0.02973661030170874
2.1,-0.41963340039946345,-0.7901717420316166,-0.07806993194713904
2.11,-0.9025644194644139,-0.7594572260716668,0.07035237540251538
2.12,-0.8810614612318348,-0.7372446263565903,0.17295135725427055
2.13,-0.40457402843542445,-0.6778526361133987,0.05194311313203047
2.14,-0.3582386826192838,-0.5948155387411247,0.044442111609709976
2.15,-0.7273454456695182,-0.7742827649720762,0.360520773468622
2.16,-0.6685203645423856,-0.5084305748802086,0.4483788218682242
2.17,-0.7784628810675258,-0.6583101821700197,0.250800186405102
2.18,-0.792982875664536,-0.8604398835930441,0.1623807982071489
2.19,-0.6537565625280325,-0.6073755767736533,0.15069961967202644
2.2,-0.9641781868567124,-0.6592418330979678,0.07927835831875364
2.21,-0.8901262385831789,-0.7978083498897813,0.12187220357416419
2.22,-0.41297204727602227,-0.38052255453497164,0.19221191398795764
2.23,-0.28409780905257287,-0.5061002443934837,0.16521549131666635
2.24,-0.7421400245669508,-0.7099004570190549,0.17431539903721507
2.25,-1.2784455765125202,-0.45551221473665593,0.18768764255056392
2.26,-1.3563945487721678,-0.7283790727040511,0.03516357225066809
2.27,-0.9223582141199572,-0.9708191628373332,-0.10676156142334658
2.28,-0.2964495553946283,-0.8299391230079235,-0.03780240678967049
2.29,-0.22285365440971272,-0.9179950684756776,0.15627986152660805
2.3,-0.42150909095844086,-0.746408366551323,0.3214108160081318
2.31,-0.2650855746886054,-0.7893299826396829,0.32394848846029406
2.32,-0.09936366879743848,-0.8492932234023942,0.17388198086526346
2.33,-0.7491050761212624,-0.674194805553355,0.024451169608925124
2.34,-1.2553047579957959,-1.0242458579740474,-0.10577567587319235
2.35,-0.8050008003586578,-0.9139814487953972,-0.24841619755708103
2.36,-0.8003113497478579,-0.8367470958984915,-0.2583086985989676
2.37,-0.8043667008738439,-1.0948616297149236,-0.10489329627776807
2.38,-0.40115357675409563,-0.6521059167884582,-0.010664173655998966
2.39,-0.36286152111476533,-0.6771456667662974,-0.03188182120796062
2.4,-0.4269851373318608,-1.0319718367074229,-0.031186449855355198
2.41,-0.48689601362821705,-0.5176127969497898,0.024115141200774456
2.42,-0.7922633344222724,-0.600050726974997,0.12339152920775083
2.43,-0.7336044691725883,-0.7922962036639811,0.1671389773042506
2.44,-0.4906034323064179,-0.5316012238879209,0.09666048159193759
2.45,-0.734572982601742,-0.7184230482048373,-0.049613563526420434
2.46,-1.1116089627610886,-0.8748371855336327,-0.2028217845454028
2.47,-0.9874473969694909,-0.883051221490382,-0.2647231535668659
2.48,-0.7596570645456056,-0.6621180436143738,-0.09919629778183524
2.49,-0.5932354617791932,-0.7482073690568849,0.13507340075811206
2.5,-0.2773273656511694,-0.7241055427626678,0.30130499011009776
2.51,-0.23024923651029802,-0.4604385285766931,0.3282427313203552
2.52,-0.7685856467945966,-0.8159072725010146,0.25031160583161627
2.53,-1.0552802545287803,-0.8340122058146024,0.11081275433005344
2.54,-0.6156495698746982,-0.825038570237707,-0.04251209006025493
2.55,-0.3297600779353321,-0.8035437908570973,-0.09106840397159881
2.56,-0.5231768635580585,-0.8285932092708649,0.04858427173517434
2.57,-0.6133732034378463,-0.7318677281597714,0.18400036303213993
2.58,-0.6898156073449153,-0.5533452823288855,0.20228998833904452
2.59,-0.5682614134624039,-0.7384196381028992,0.12348533510157718
2.6,-0.4574061366852063,-0.7200779067979026,0.06953097296056926
2.61,-0.5319830615095811,-0.6160389085940706,0.09733284537811243
2.62,-0.8384471923034543,-0.6945814937160011,0.10290601440510347
2.63,-1.164606030993344,-0.8726031154493165,0.08735547113260546
2.64,-0.8532664332745378,-0.8445505429600331,0.05746427382812356
2.65,-0.34924935368487814,-0.6932256165333615,-0.025671350934121626
2.66,-0.45375198280760415,-0.6976337086206078,0.011398110418581964
2.67,-0.7174151886422497,-0.8506555497843062,0.24726580280485944
2.68,-0.6733172965969899,-0.6504768833743515,0.3472114995332902
2.69,-0.7186293592088234,-0.575192870944605,0.20143220444164905
2.7,-0.8246843657884447,-0.8944044866826354,0.08573264418700288
2.71,-0.6431584577082645,-0.726872238471164,0.03123525372614478
2.72,-0.5446456049582004,-0.6484165647356203,-0.0730028853731153
2.73,-0.6808335720466303,-0.8416312767877742,-0.0893575185382202
2.74,-0.8303483393696456,-0.7977914624756959,0.0864766656216963
2.75,-0.6489523520818522,-0.822336861757302,0.17908174452566705
2.76,-0.4481737868543895,-0.8206046147110809,0.1250733954612404
2.77,-0.5846326262111626,-0.7757444097253976,0.17569582650144214
2.78,-0.7547650846951502,-0.8300368022191748,0.23235381951853515
2.79,-0.5743977247125728,-0.8823335085721304,0.16947537987304334
2.8,-0.26074550652425577,-0.7324568089976394,0.04958359478477502
2.81,-0.27705710051179644,-0.7023310591425881,-0.035805809374361404
2.82,-0.8140681394337415,-0.603376766105589,-0.022681276874254887
2.83,-1.152828087762173,-0.6790236591762853,0.0037604203505845583
2.84,-0.7019701053183467,-0.7565952271859004,-0.009043395654663744
2.85,-0.5843079412412417,-0.5719207095740783,0.004153804079243264
2.86,-0.9078935673069485,-0.9400979608219537,0.14294752620486492
2.87,-0.7312482622090127,-0.8252739249910234,0.1969259766937175
2.88,-0.5062484321859847,-0.6169516848923544,0.05833509423524517
2.89,-0.4580684562714485,-0.9617361467938201,-0.024935047864599623
2.9,-0.39915716651887634,-0.7993922074111733,0.10258133458292863
2.91,-0.44277447661829356,-0.4757798023903972,0.24101231532616293
2.92,-0.698091616967781,-0.6300169776440245,0.2351665556001285
2.93,-0.7087090503244774,-0.8301447282574722,0.16127676420528006
2.94,-0.5486147080874928,-0.6601727150292337,-0.006984623747895785
2.95,-0.8671192151017245,-0.694677493947009,-0.15398830303389355
2.96,-1.2090302583457078,-0.9596474643608118,-0.12264099851678893
2.97,-0.8461576806697391,-0.9383985432332158,-0.024446589412290134
2.98,-0.4477325827119909,-0.6999915607918802,0.09335235636705913
2.99,-0.5384143771942603,-0.7486303958292705,0.22185432861996104
3.0,-0.7223873898832348,-0.90546044004325,0.2608186208528679
3.01,-0.8065667673319064,-0.7145269858736741,0.18814085311250506
3.02,-0.8755838858480024,-0.8383894384860828,0.10047738520351714
3.03,-0.7075979962900347,-1.001545629718237,0.014126379979853419
3.04,-0.4805001554625189,-0.6989220564594161,-0.023600348882058312
3.05,-0.48126036295957947,-0.7003758868899854,0.0028900218800882076
3.06,-0.5532486208293974,-0.749827380406029,0.016822635840651714
3.07,-0.6259440137714696,-0.5853166024093929,-0.0391444684181576
3.08,-0.7503912394663705,-0.7195262817153356,-0.005920312130876659
3.09,-0.8873011857614895,-0.6584129579509188,0.12882560460110656
3.1,-0.7567911586293578,-0.7856768913637225,0.16405205983476573
3.11,-0.4014614553267049,-0.6965298815725912,0.12208690945236082
3.12,-0.5037075010574015,-0.7113095259395374,0.14970011475235181
3.13,-0.7487651101075855,-0.8771415518111699,0.17255205247979127
3.14,-0.5000965837105968,-0.6816114056060761,0.10292783455919219
3.15,-0.401992671490129,-0.5892466216527685,0.0774095239689442
3.16,-0.6265983610431483,-0.742665691475913,0.15294720631197278
3.17,-0.7837984257715835,-0.6771878244473024,0.20210365303797595
3.18,-0.8624052165846707,-0.6141535126101517,0.08622742370180396
3.19,-0.7066128633673513,-1.0197679878609718,-0.0250511713644777
3.2,-0.5385946434399251,-0.5937290583472381,-0.08239433344295545
3.21,-0.7266797498248841,-0.6831781450930359,-0.08505300762046646
3.22,-0.7739500666432315,-0.8979081154032762,0.03421191892896869
3.23,-0.5779453369379252,-0.6531540705372253,0.16278153518857558
3.24,-0.3709055580197315,-0.7146776321229278,0.14904931720542408
3.25,-0.44182962156760386,-0.6747257476641141,0.11991362316138944
3.26,-0.7898980988093701,-0.7510574485055916,0.1570255121794941
3.27,-0.8026618485971028,-0.8342765338048028,0.09341504434384622
3.28,-0.6150098174070627,-0.7031648079351586,-0.016266182621227677
3.29,-0.6909947987060929,-0.9629549250510736,0.05208789563767193
3.3,-0.8608157542997441,-0.7849117250442559,0.18772004110984522
3.31,-0.9629322730884838,-0.603252471927541,0.09902142796948445
3.32,-0.8136549159033318,-0.9249820550826728,-0.0263372215341692
3.33,-0.5106794432550211,-0.7035673259596944,-0.10816129165149768
3.34,-0.4888066969410257,-0.6367547974214119,-0.18404546569698418
3.35,-0.8113807031878834,-0.7748149646686678,-0.0503293246712029
3.36,-1.0130579986516823,-0.744542833036786,0.20886784459522806
3.37,-0.6036523815615237,-0.8182078009824049,0.2143553405248897
3.38,-0.29921162791479766,-0.7786047583335229,0.11224856926758685
3.39,-0.5318220564190644,-0.8046821513163392,0.1693141103678998
3.4,-0.7239995132276361,-0.9091643057042877,0.16414245059766724
3.41,-0.48541440548132253,-0.6897045312180361,0.051130541185862285
3.42,-0.40252337475316474,-0.6271040482005682,0.010862264359204154
3.43,-0.6404891323340254,-0.6498890991404813,0.04412211937141677
3.44,-0.8381487567000463,-0.6369037102600156,-0.017347723100018815
3.45,-1.0398360939533877,-0.9032542059910114,-0.03932865749018249
3.46,-0.8705889664147518,-0.7091023322163319,0.026454387077128997
3.47,-0.6255812422241971,-0.7566077437558172,0.03794297394818645
3.48,-0.4644163674807265,-0.8821895682115275,0.05842710580353448
3.49,-0.13788253364486627,-0.7522633393349241,0.1385618065685853
3.5,-0.23905200167580062,-0.6243456649416843,0.17294845508370707
3.51,-0.6068509703985957,-0.7069507103576658,0.1772868677243886
3.52,-0.7373606503091017,-0.7547081609431516,0.18038892419817687
3.53,-1.048631104902229,-0.4972541716824435,0.158946546175067
3.54,-1.2846263385538461,-0.7540687233941094,0.043003152446821284
3.55,-1.0452042460849449,-0.9425622296205333,-0.12239902498200869
3.56,-0.7037676632178715,-0.7555747641971863,-0.19303186998359664
3.57,-0.563394251439813,-0.8937408535231803,-0.08494670187766258
3.58,-0.357983037153026,-1.0649829166871023,0.10994164479019751
3.59,-0.1868743046599348,-0.907900817580364,0.23333166002921216
3.6,-0.409140443904379,-0.5767844324818098,0.28301482604121464
3.61,-0.4256992299554629,-0.777488624074984,0.28468733603296603
3.62,-0.3104886421589593,-0.7387691920498752,0.19113167529231345
3.63,-0.6532392824257576,-0.41977853050030595,0.06509134390635118
3.64,-1.324865170976559,-0.7788518894223903,0.05782164707279108
3.65,-1.3316741132262016,-0.9237328522462298,0.09065918906584032
3.66,-0.555119062614515,-0.7954646756218884,-0.04751962839035274
3.67,-0.3308703744475237,-0.8339541108653727,-0.15191849418310616
3.68,-0.587786284852437,-0.7901604991263779,0.08123928213113384
3.69,-0.6921259736131853,-0.7696405694907315,0.29770353539709504
3.7,-0.5986080492562283,-0.6703279260740239,0.20233459905032505
3.71,-0.4970652922148775,-0.6293970686037736,0.13602468663698625
3.72,-0.6173556019867349,-0.7418947809663821,0.18807469989010678
3.73,-0.8267305196387393,-0.8093597926513354,0.0928552791809231
3.74,-1.0864489834809807,-0.7635104546431016,-0.0552880607391581
3.75,-0.9605783746185412,-0.8678597116088292,-0.016729636282714722
3.76,-0.4238639230473678,-0.7857456272973985,0.01622304053217918
3.77,-0.15828964117101504,-0.7080197135801586,0.029497267003871366
3.78,-0.272622604107347,-0.7723571923450088,0.18339811032627473
3.79,-0.4572645649212081,-0.5525472036022155,0.3032559176220053
3.8,-0.629779747925336,-0.713641427127334,0.254633187508002
3.81,-0.430518251696096,-0.8672689640785922,0.04301982025562654
3.82,-0.3961402196943116,-0.6020573857504175,-0.12803289931350895
3.83,-1.000142103996218,-0.69284327933628,-0.07571971074011899
3.84,-1.324124170032818,-0.9549165254822812,0.06368659960658292
3.85,-0.8768994840346304,-0.7968939840269391,0.05631041028244428
3.86,-0.39258908824760685,-0.7550907440663006,0.007881109384176991
3.87,-0.4651530577875392,-0.9407818436520498,0.1675123096138649
3.88,-0.6445808104991618,-0.7554760012795282,0.2683178989454483
3.89,-0.6229520188164586,-0.8188662184882392,0.06449669906774662
3.9,-0.5019865664246191,-0.8043494302932442,-0.08332232632770728
3.91,-0.7103765670977826,-0.7099669580379663,-0.0740813221155425
3.92,-0.9386546537702256,-0.7948510850433301,-0.08758669792266537
3.93,-0.7064358079622222,-0.6593710347873171,-0.15101249967675842
3.94,-0.6511367956273075,-0.6887182328673931,-0.05991677069556665
3.95,-0.7279255812139211,-0.7037795683163165,0.09007487657583385
3.96,-0.7485872247246147,-0.7157781279488652,0.10050633462627435
3.97,-0.582671809007203,-0.7963424803763098,0.1254671261979399
3.98,-0.3607254743995416,-0.7352489645135925,0.24585810130709437
3.99,-0.3755888179430754,-0.6602331776159502,0.2912329807397099
4.0,-0.4945120032149349,-0.6949993693998109,0.22280929490131637
4.01,-0.3652186376032295,-0.6343361334756931,0.14297735241444032
4.02,-0.44264416384931154,-0.5557556077799671,0.025688054538965298
4.03,-1.0309880517389656,-0.6407540734913378,-0.03758843000545066
4.04,-1.4077358303161147,-0.634798161054797,0.025561120860420446
4.05,-1.2348599655805867,-0.7273102298678974,0.09889303607877256
4.06,-0.9414522511283951,-0.8872975526174038,0.1203717729985131
4.07,-0.8542351823012122,-0.7158008042863567,0.05254370555549168
4.08,-0.9784963353412761,-0.9178847051563688,0.025358662421258654
4.09,-0.5905740684098546,-1.00290752004119,-0.048334738849147
4.1,0.0241286812094148,-0.7593143223172764,-0.17910967703717043
4.11,0.042428520280002234,-0.7042543565249951,-0.13973733956261303
4.12,-0.3000545503106795,-0.6858981648658641,0.08371999928609397
4.13,-0.5308750196477763,-0.6977597314046431,0.24679443432431702
4.14,-0.8412190279865622,-0.6062044406304535,0.2156997364224811
4.15,-1.091265125491317,-0.8190334019533843,0.06570270520156374
4.16,-0.991495886514356,-1.026644583160304,-0.11629219942314405
4.17,-0.853586830072987,-0.8166002399597682,-0.2949756119559062
4.18,-0.9680461119412764,-1.154594636461981,-0.2344244244463705
4.19,-0.7053514587992138,-1.0685569005556725,0.005000993843478744
4.2,-0.09900112446082464,-0.5749338191442945,0.10765458318070711
4.21,-0.009292247692132046,-0.7356746520854183,0.1475916646602333
4.22,-0.32403309034100614,-0.785562976090379,0.20067223558068525
4.23,-0.47525440857671297,-0.3937759915681788,0.15983741828283363
4.24,-0.5866177178509641,-0.5689269750406948,0.017811567773583965
4.25,-0.8956179024172107,-0.8210152206337157,-0.041853402784139446
4.26,-1.1106826789680748,-0.6742956909716381,-0.03472059927280379
4.27,-1.1350509291299846,-0.6946912639464594,-0.02961250473847345
4.28,-0.9707361839080607,-0.7667533914953859,-0.09374674673984627
4.29,-0.6332175260762524,-0.8327235580524327,-0.07877027586846135
4.3,-0.591070750627872,-0.604662745304252,0.08568318361832436
4.31,-0.7246105163526785,-0.7801821207147155,0.19275038769311048
4.32,-0.45092831283662393,-0.8595432887257456,0.21929830298023834
4.33,-0.19333829934507926,-0.5659271173137929,0.12908511014449778
4.34,-0.4537812166436016,-0.9251378241847078,0.009728421823853337
4.35,-0.6524003774178131,-0.8453277880870156,0.023958753369993962
4.36,-0.5769892307331614,-0.6652473925332604,0.03609583110858447
4.37,-0.3918863549632347,-0.7837212290778224,0.0063835678337226445
4.38,-0.49929397311642154,-0.599837293656585,0.15462558158140963
4.39,-0.9458186434343402,-0.5609593685204216,0.2045195520771691
4.4,-1.1309430103854086,-0.9305073888249173,0.019621274432546385
4.41,-0.8255046857901165,-0.945166213777525,-0.12647397867142743
4.42,-0.459701595489045,-0.703647568795697,-0.11684920970923532
4.43,-0.4038591823066742,-0.8245104195221803,-0.07945372822515678
4.44,-0.4753867770536645,-0.985246705664113,0.01205555861971023
4.45,-0.5924807639731787,-0.7209533937425588,0.18348587612041617
4.46,-0.8574687017694536,-0.6270639752419028,0.1852803348633019
4.47,-0.9261820922569053,-0.7943220631287293,0.057847064968681375
4.48,-0.5839225100876967,-0.7529669344519945,-0.011126705256809323
4.49,-0.4597432362491823,-0.5879611862771533,-0.019781776282866127
4.5,-0.6872963858390209,-0.7340861494642321,-0.02547493880232456
4.51,-0.7808163143215551,-0.914626465380549,0.0022667561840950443
4.52,-0.6993525889820352,-0.6609028146309668,0.028482643873891433
4.53,-0.7463693673057141,-0.7614385127496988,-0.006279117877307309
4.54,-0.46419776378257405,-0.8523518665008863,-0.04337471743358673
4.55,-0.1860592701236969,-0.6403648048284738,-0.05751570550158485
4.56,-0.5669070175436228,-0.7059967237826265,0.0208662386072855
4.57,-0.9776695263392706,-0.76548977468498,0.18297526583394216
4.58,-0.8027289853131157,-0.8448111532604398,0.19611232073092885
4.59,-0.40438107063849726,-0.8993905061503059,0.052367676496943336
4.6,-0.5925860956531218,-0.8566412504854768,0.061366483884746234
4.61,-1.0605465171974222,-0.8606123879064181,0.13740922324996452
4.62,-0.8770011304512683,-0.7488560597480316,0.06767512258917951
4.63,-0.24409871150884918,-0.6076165817706195,-0.08015723922131471
4.64,-0.22528313606188324,-0.6126598940837514,-0.0946951581773907
4.65,-0.7909178815249731,-0.6210009265385741,0.02623891302761117
4.66,-0.8493576413242935,-0.6886289636396119,0.13958114003384217
4.67,-0.4669408305307654,-0.6495260916049397,0.08189337040428939
4.68,-0.4846836737286038,-0.8378383022823853,0.021545702024609797
4.69,-0.833865889026841,-0.9165978132571924,0.12122885752683887
4.7,-1.1018906815695373,-0.7720515073051689,0.15226474089603836
4.71,-0.8811096817637354,-1.015973287684678,0.05994486796545909
4.72,-0.4654183312274988,-0.7626264317557071,0.02885884905038447
4.73,-0.5339444522768738,-0.7099871147523179,0.09098422139160432
4.74,-0.6766897394993988,-0.8249064529922928,0.12043245541809526
4.75,-0.7327209081262172,-0.6465060940327079,0.027845121714286117
4.76,-0.5892039391152059,-0.6659591426921401,-0.13516810142149738
4.77,-0.593918321921065,-0.7960351027545929,-0.21090834664416572
4.78,-0.790482881349626,-0.7212768420495137,-0.1199362887499787
4.79,-0.7674457659998513,-0.6935910447143505,0.0444214377801614
4.8,-0.39020598623449754,-0.7405093332721413,0.15484123933558208
4.81,-0.2722366764670372,-0.7315740530810182,0.2320668522506777
4.82,-0.6468477642394145,-0.7293615946901134,0.296678082002242
4.83,-0.9634236538091314,-0.7718341473739833,0.26214421804504545
4.84,-0.825905945796345,-0.7329684464941262,0.03380019258935723
4.85,-0.5160824930770779,-0.8952177889098707,-0.1650131386973743
4.86,-0.4102341571962317,-0.6450827223774195,-0.1494863128811166
4.87,-0.8163894525095099,-0.7647236161849726,-0.06424886238675237
4.88,-1.1475141779442106,-1.0892027284019699,-0.0185416704687849
4.89,-0.7636338348221158,-0.6889054222568407,0.01861391441425976
4.9,-0.5193660751739354,-0.6397226492781082,0.058082078848356165
4.91,-0.5719917267732031,-0.9641859362572026,0.08914643612414377
4.92,-0.6042549240652048,-0.6165974683912908,0.1570431353502088
4.93,-0.5751908036368667,-0.48681135539882775,0.16351483676901862
4.94,-0.4567663960394707,-0.8231345122996803,0.08384310586179168
4.95,-0.428463177870078,-0.5805497720229178,0.03847751539154132
4.96,-0.7795995279649534,-0.6206845214664529,0.060691461671443216
4.97,-0.8801505188972443,-0.9229819040154098,0.030509011734975593
4.98,-0.6227359065820826,-0.8340479038975196,-0.012431035193824918
4.99,-0.5876255836807401,-0.8051136080958282,0.06366125475459225
5.0,-0.5853550672204827,-0.8106463728459743,0.14437512920917114
5.01,-0.5176443060603201,-0.7598242793602155,0.14510243565983538
5.02,-0.5785597140807566,-0.732516292811172,0.11941730433848155
5.03,-0.647692066783359,-0.5527310094195119,0.006125278221327439
5.04,-0.8901056811764897,-0.620817643637694,-0.07787371363208323
5.05,-0.8973844452530166,-0.81824133520553,-0.06954455193957082
5.06,-0.6578933174590993,-0.699698997051762,-0.05654456351263417
5.07,-0.8433566034736939,-0.6043400379603234,0.037927857175886155
5.08,-0.8122510064575922,-0.9341915426490786,0.15972719417323633
5.09,-0.3511180778448747,-0.7175739740905851,0.1703569500799063
5.1,-0.4422827928075815,-0.6398862272541187,0.17310898150693121
5.11,-0.5033594038513708,-0.8922584117136116,0.15562879861282602
5.12,-0.4382096537160641,-0.6603371428399836,0.08106998803677984
5.13,-0.8068001595814943,-0.6426132543220138,0.04399697767503991
5.14,-1.1339225425175228,-0.8719765564017368,0.057619131052615416
5.15,-0.822947982840254,-0.5289177667704542,-0.027569132824908648
5.16,-0.6103247590680625,-0.8749012620105087,-0.09694069684957003
5.17,-0.6328994242163913,-1.0119214072949336,0.010275825080201726
5.18,-0.5822415153379539,-0.5781362211887687,0.12347014313309555
5.19,-0.5659494089005757,-0.8895008930053916,0.20486794622357393
5.2,-0.24752779512714082,-0.8352618879195063,0.22137859655811135
5.21,-0.19370296108064522,-0.6307445384396211,0.10335522675922683
5.22,-1.1067703385731988,-0.7045449582491795,0.09836821027721274
5.23,-1.5687705202476423,-0.8429780092725143,0.13057839969174637
5.24,-0.7484917857122776,-0.7841267264476889,-0.13552309001682009
5.25,-0.2423099378414604,-0.6327173770906716,-0.3208677639643518
5.26,-0.787410237615278,-0.9301255709437276,-0.04909227594172826
5.27,-0.9190056114800838,-0.9261735730136988,0.18147286740695678
5.28,-0.4345445965578981,-0.5806065013831553,0.020754849462312475
5.29,-0.06460473552296218,-0.8053554446848454,-0.02245524550758499
5.3,-0.057522202507213224,-0.7796932456781062,0.16703344169527923
5.31,-0.46552061400329137,-0.4899067585294011,0.2689916860231685
5.32,-0.9959235265665115,-0.5454790862098766,0.2685605059990101
5.33,-0.9353955421193438,-0.8131421726065701,0.21831956065696875
5.34,-0.42673772984929287,-0.690402613939928,0.02495802949639935
5.35,-0.6294830439305034,-0.6794124429668402,-0.1805747074308216
5.36,-1.177211539218521,-0.8943176493185163,-0.2060092466137
5.37,-1.0198508141838523,-0.7529235929305477,-0.12225252894440918
5.38,-0.5440607083969851,-0.8089970172510725,-0.03454186195552337
5.39,-0.2675974147783054,-0.9051714624927648,0.0845165356591207
5.4,-0.4897954421795737,-0.5138953853247492,0.30329780671790785
5.41,-0.8651726312335651,-0.8056471878112945,0.4280675485251514
5.42,-0.5878658585420675,-0.9762252440833656,0.2802728202302424
5.43,-0.1138638617661379,-0.5387695592067483,-0.008632826813857958
5.44,-0.5080743815998708,-0.708617504656175,-0.03545601633830916
5.45,-1.0176437499075675,-0.7913898207554037,0.14692190656501916
5.46,-0.7795233297418381,-0.6522103470363192,0.10699033080281692
5.47,-0.532550161027821,-0.6031768914382384,-0.04946000213455396
5.48,-0.8998913588830869,-0.886654403728285,0.02959049449249214
5.49,-1.1740636096840413,-0.8934132902329309,0.13841028308552175
5.5,-0.7550292096499752,-0.7885436732151305,-0.02582024965324495
5.51,-0.17787393014929384,-0.9542584548780706,-0.11401255959667422
5.52,-0.07056181211663304,-0.6621765339478634,0.11973378335595763
5.53,-0.5164689777277595,-0.690119318601443,0.32950350016104984
5.54,-0.8885212664949848,-0.8096725658451003,0.298536536526653
5.55,-0.6246956722191709,-0.6643562551725419,0.16384007079493773
5.56,-0.43174571256654176,-0.5893368675346751,0.013449196426902447
5.57,-0.8300178066546696,-0.6418753652269129,-0.06488811175610792
5.58,-1.3356606606919998,-0.9686816775979326,-0.02192517584804044
5.59,-0.9675853233016395,-0.8444442530961096,0.06722071708100281
5.6,-0.17504452800554415,-0.6055797662172143,0.0720073539199968
5.61,-0.10284538559784902,-0.9183163101467529,0.051320984560642394
5.62,-0.4433308006017551,-0.875481800131954,0.17247083008588734
5.63,-0.8370246739036395,-0.4671708802768136,0.2498834449932979
5.64,-0.8535377095401635,-0.848692866584966,0.09744590414860851
5.65,-0.3975926005103002,-0.8550316819856671,-0.07248822463828718
5.66,-0.4113047750567732,-0.4958009088041064,-0.011551220901153405
5.67,-0.9178256323620835,-0.8348953166927554,0.08993807716132114
5.68,-0.8231065816519781,-0.9063655269441643,0.04837135397880505
5.69,-0.4146094323718994,-0.8338457208136705,-0.0013777918309760679
5.7,-0.4688303924034664,-0.7034558065211259,0.0681929410675996
5.71,-0.974042729394985,-0.6507691260833076,0.20942903228893955
5.72,-1.0346332651158894,-0.975344124739602,0.22851295606315297
5.73,-0.4050412623599991,-0.5962771719390384,0.03149615351032272
5.74,-0.42796738325086375,-0.4812398174095336,-0.09612442189933336
5.75,-1.0469847339347313,-1.0295035181806271,-0.030752299192175696
5.76,-0.7633393346342072,-0.7494155123775907,-0.07295467094265702
5.77,-0.3586471994817554,-0.47077075842052923,-0.13454961915339975
5.78,-0.7976610555772954,-0.8876004399958191,0.10506322666647545
5.79,-0.9721033313625698,-0.8630547269099216,0.3858409506607864
5.8,-0.4569078534198089,-0.4309071116937557,0.29976151334628404
5.81,-0.15868022009940957,-0.8311807391278244,0.11447161073816996
5.82,-0.4021754537758955,-0.7569947836002446,0.14621449329920463
5.83,-0.8703530039292331,-0.5075929860526178,0.1394138802116026
5.84,-0.9631716451629079,-0.823592350227214,-0.056179169535304566
5.85,-0.7722935612390652,-0.7711043582784562,-0.13609651980477133
5.86,-0.8663960468589742,-0.6799037620987368,-0.0011853666680103495
5.87,-0.9869522849558524,-0.8224948020591275,0.0820007995180536
5.88,-0.9878466922866891,-0.7439115172735857,0.065809997208204
5.89,-0.7959260938688405,-0.7922092003120674,0.06760476645207855
5.9,-0.4701335851726707,-0.7739061456085482,0.08614039839809298
5.91,-0.2807546054116988,-0.7999611533602257,0.09811872322069072
5.92,-0.5229138888849034,-0.7788783178612569,0.15657597447804245
5.93,-0.8383355289439098,-0.6815649975433842,0.23280251459774312
5.94,-0.8079220531554155,-0.6646822775996821,0.14218219267291754
5.95,-0.40609534996982893,-0.6415547901029923,-0.08626557626609646
5.96,-0.362766121913005,-0.649638161452282,-0.1962033119890254
5.97,-0.8579551766483973,-0.5903709364279692,-0.08025836240987286
5.98,-1.189742827289665,-0.8529032591103731,0.08925120346430516
5.99,-0.9641805413600187,-1.0935473029259881,0.11849082259431187
6.0,-0.3259867428539514,-0.8925626231736805,0.10089592072237354
6.01,-0.017974105393243716,-0.689192146589225,0.19076452314657044
6.02,-0.16778283913541825,-0.6605065882933887,0.22404796673020524
6.03,-0.3332598727105043,-0.6963261487938988,0.1414243290650586
6.04,-0.6310443069312162,-0.47295307102021145,0.10259034211034287
6.05,-1.1664429590621395,-0.7988267972736197,0.11454523432084815
6.06,-1.288629845822262,-1.094816456427308,0.021962845803678806
6.07,-1.0690234081573242,-0.7469928257628927,-0.08878568701849107
6.08,-1.0165703889344622,-0.8741300149551956,-0.08878679847871111
6.09,-0.6833892242271589,-0.9869961722745191,-0.06933673778873964
6.1,-0.18411519353579395,-0.663328574052359,-0.07673990564846404
6.11,-0.41693761035074206,-0.6230633116997114,0.08715372818265839
6.12,-0.7463111883964505,-0.7881988742324234,0.32163115279461035
6.13,-0.35505537194067593,-0.726935174535965,0.30580213972395004
6.14,-0.1944629654743884,-0.4637183245654749,0.17149679785730618
6.15,-0.6345454034772274,-0.6677570486510784,0.0705700269139315
6.16,-0.7243930763067081,-0.8276395666100191,-0.049548314869046824
6.17,-0.6060967679860559,-0.6726598776666853,-0.07936171898260884
6.18,-0.7973659061373922,-0.7474783002246359,0.01058813471192699
6.19,-0.9679827690008184,-0.9078450069798114,0.15641459102403402
6.2,-0.8186043330601361,-0.8036811042861588,0.2451051287476807
6.21,-0.6253965354466454,-0.8522105872385098,0.18312807534356068
6.22,-0.2833797565913088,-0.665986896609621,-0.0067924199822474
6.23,-0.3365778666647647,-0.4856945581600279,-0.16122580034706283
6.24,-0.8597910175484155,-0.6985764561838633,-0.08573837531884705
6.25,-0.9198584952623835,-0.7295152277645567,0.069171094419155
6.26,-0.5810542118742968,-0.595376523696079,0.060817037869048865
6.27,-0.44131291197982797,-0.8588738236941597,0.04517842317475734
6.28,-0.6901279463814101,-0.8744970041988198,0.19943379924823482
6.29,-1.0213615349452454,-0.6133616517224173,0.246754272729316
6.3,-0.9661671374177323,-0.865717695969448,0.05594887496544111
6.31,-0.5301824431549972,-0.9066894661715399,-0.013316580237865321
6.32,-0.34525288635335744,-0.6732542191908603,0.08567432241791519
6.33,-0.540782014374542,-0.7787565647645288,0.0759037739572269
6.34,-0.5975383392440757,-0.9263699472688889,-0.02171162730356207
6.35,-0.517629589493056,-0.7413927435711961,-0.0320683908527793
6.36,-0.5778882399545413,-0.7772070851505877,-0.004384602133980756
6.37,-0.3645837134114832,-0.7780389459612732,0.026474507823686294
6.38,-0.29971609072497424,-0.49681279177891036,0.1309608300119147
6.39,-0.8811596900359273,-0.7443504440663485,0.2777692497293468
6.4,-1.0370535279810826,-0.9827529989222706,0.28786311967230854
6.41,-0.7102787412189054,-0.6459529333243234,0.07312197011500898
6.42,-0.8073087587518536,-0.7314095164453929,-0.12011132194633593
6.43,-0.9248175032426961,-0.9413836356061123,-0.05603372367207715
6.44,-0.8226806205234746,-0.6260200157916871,0.0817997520947418
6.45,-0.814921446370264,-0.6254461354427908,0.04256040816524746
6.46,-0.7476508457585481,-0.8643187850346562,0.046597200281487776
6.47,-0.5847795033082748,-0.6749083782378609,0.10927631042073388
6.48,-0.6588723691665122,-0.7544732957653356,0.09627148880025681
6.49,-0.6676716022763691,-0.8429869218814453,0.11726898644395421
6.5,-0.3156623974520783,-0.7534251463746089,0.16814418358101346
6.51,-0.24526669567604867,-0.5790397020607625,0.22003843224323227
6.52,-0.5337672312675448,-0.7095574811014739,0.2817086463593652
6.53,-0.5713907485015474,-0.781892783384454,0.19352763762522396
6.54,-0.5696998116266886,-0.5637868368452683,-0.020221618972881886
6.55,-0.8731965334684381,-0.5845757712370471,-0.09415210316092634
6.56,-0.9832149574110098,-0.8213226161801361,-0.0623927579427499
6.57,-0.6608948950454978,-0.879177570168292,-0.09348877221509345
6.58,-0.6713053602852278,-0.8190812294851829,-0.028517236461740404
6.59,-0.9776413286301396,-0.7911213424829767,0.1726495400094614
6.6,-0.8539020160029154,-0.9166374858786978,0.21715085803445064
6.61,-0.44146880674846645,-0.8657569573070654,0.11216835701321876
6.62,-0.5826996726310899,-0.6142412871151413,0.13360389163769312
6.63,-0.9273965047956008,-0.7728528687560808,0.20812333587652934
6.64,-0.6984803687206383,-0.7986176562960868,0.09780206734817559
6.65,-0.3891214205083874,-0.6415558987052981,-0.08893479919993484
6.66,-0.5536488006100012,-0.7340068107124178,-0.12903650355559873
6.67,-0.8333957570077065,-0.7534905567497694,-0.043090316718409676
6.68,-0.8306654761819234,-0.8255127177518972,0.005945878870346949
6.69,-0.5453184588896022,-0.8017951811759995,0.037398417899452814
6.7,-0.3824524626563588,-0.7598993909217789,0.13064356089017187
6.71,-0.581085924480685,-0.8291476877587851,0.2218249904147267
6.72,-0.7039594136563438,-0.7307843368714785,0.21263643113105135
6.73,-0.5927760520677823,-0.7558631114279665,0.07338056019239744
6.74,-0.5319486613149544,-0.790833464469076,-0.054082879569342164
6.75,-0.6210228181575739,-0.651549031187847,-0.07017595741473759
6.76,-0.8272823075053592,-0.6833660643106038,-0.003206949716708862
6.77,-0.7751034186934097,-0.7171046321203236,0.0740320899248577
6.78,-0.6781296430911575,-0.6013058052413334,0.11461943342556505
6.79,-0.8338238325165351,-0.7519533408049449,0.13106674119419173
6.8,-0.7753803727041298,-0.7901762931939086,0.0909221678524745
6.81,-0.6234684344588294,-0.7006955902534334,0.01655119388439627
6.82,-0.719173396358219,-0.8565219463909872,0.05319590491195456
6.83,-0.5503178056572386,-0.7262049845147215,0.11055177260311996
6.84,-0.37275923256822135,-0.5831764788713253,0.12090518066584931
6.85,-0.6647333506816875,-0.7181040247154497,0.18220947768111684
6.86,-0.7307751605728677,-0.8276757278032549,0.18805645419495406
6.87,-0.5849327638150046,-0.5929978742141828,0.07532527332300053
6.88,-0.7255425434198653,-0.7808533885298949,0.03898584038051405
6.89,-0.7152180530866973,-0.9834644367853924,0.1218268491405439
6.9,-0.48567341913652967,-0.6289411362848075,0.1329172203592375
6.91,-0.569282247704706,-0.6712419171805598,0.13232876925070125
6.92,-0.8103828498197136,-0.8321418968134816,0.14045751262251593
6.93,-0.8734389941208168,-0.8036091841592988,0.04010647461941442
6.94,-1.0326133954476786,-0.7001212174455302,-0.05265143331451129
6.95,-1.101820640242467,-0.8341774755626721,-0.0002303355864547306
6.96,-0.7393353052010785,-0.8955771256313269,0.07738291352946462
6.97,-0.3714187023796131,-0.7255305626518452,0.1399062545625356
6.98,-0.28274414837833894,-0.747608205409254,0.23077500863901074
6.99,-0.37306707146463697,-0.7960063462846797,0.21240066356872264
7.0,-0.5363718292135746,-0.7870165101625898,0.11929141061274112
7.01,-0.5770053095665626,-0.5746977080911051,0.09928536019055952
7.02,-0.5532772624741656,-0.585543440793984,0.06183307517706057
7.03,-0.7665148286445225,-0.740055041735276,0.051428634765827284
7.04,-1.0962698740583758,-0.5420009634656439,0.15040226962992168
7.05,-0.9889858836870087,-0.7477401634242317,0.11271653911800855
7.06,-0.37805140896358097,-0.8863276332571604,-0.08435301781746497
7.07,-0.26688197061323904,-0.6894151573276138,-0.12282228034179321
7.08,-0.6720291702421015,-0.9262765237899345,0.08681243527451023
7.09,-0.7688809190384757,-0.9033110713456256,0.2801894440836286
7.1,-0.648780025074396,-0.7274104228866284,0.2833251744386605
7.11,-0.6193646009870897,-0.8307308530172759,0.21816622970654398
7.12,-0.6172537050307667,-0.7057368361897804,0.13377128791159018
7.13,-0.8274893058383734,-0.6498201964086778,-0.021066822812858158
7.14,-0.8916505862429388,-0.7860649829034493,-0.1592365024097573
7.15,-0.461893475528971,-0.7480496319074228,-0.18401916623189052
7.16,-0.4408633647623305,-0.7114825871104927,-0.07875951289607887
7.17,-0.7619759516951736,-0.9142334419743969,0.040788937900964536
7.18,-0.6416056315104528,-0.6979192755897689,0.03961374691239064
7.19,-0.4483471746030061,-0.654473346212614,0.03152880461319386
7.2,-0.4608611836892932,-0.972051847259172,0.11533644916053466
7.21,-0.7420729015923754,-0.6945963291919887,0.18392020123366215
7.22,-1.1542698977770238,-0.7388491001542705,0.19186924070917868
7.23,-0.7877955090983295,-1.028597106918684,0.09835803650868505
7.24,-0.22116298463070713,-0.737508502443602,-0.08625903864820826
7.25,-0.6847338057559511,-0.7307200352496043,-0.1521614865882876
7.26,-1.3818812923207167,-0.9833988143200518,0.020196121943729824
7.27,-1.1432988460471583,-0.7945213741881714,0.11632099386914216
7.28,-0.21210809346291465,-0.7939707717718723,-0.05728077844808724
7.29,0.14182617813731724,-0.7462529356814334,-0.10701455647100934
7.3,-0.5718870257312016,-0.6486555094315072,0.15068402672280823
7.31,-1.0090804415148018,-0.877173400585162,0.2829931968965074
7.32,-0.5102035002465708,-0.6703712963804673,0.0767527154270473
7.33,-0.26307808112445147,-0.5744667835915659,-0.047277294954678334
7.34,-0.45460549393341937,-0.6184974522239678,0.09186371397560406
7.35,-0.5927329123986932,-0.5278080799906973,0.11537099439045481
7.36,-0.8022331519589867,-0.7837026363847586,0.07345449549391413
7.37,-1.1287823189322723,-0.811828380686874,0.19719672636381466
7.38,-1.0896273752643781,-0.8730055221346461,0.19187723721023925
7.39,-0.4837570132658853,-0.967540307027431,0.024456366979265686
7.4,-0.10507114627338922,-0.6651569297124089,0.023359107486616567
7.41,-0.6073631371422905,-0.8000762130571226,0.18158298751962856
7.42,-0.9526948623631463,-0.9270999163102844,0.21644077421243557
7.43,-0.5695039571303513,-0.6161322226192502,0.035168718097219664
7.44,-0.43558265850982225,-0.6877400119735603,-0.1490756688922362
7.45,-0.7985408407229794,-0.8400206246225933,-0.11992130201263146
7.46,-0.8624651699755113,-0.7524932128560352,-0.042405656367171904
7.47,-0.5400605612335647,-0.6432873949661411,-0.05611486457068988
7.48,-0.4380875677482097,-0.6453054743818031,0.024696110048334743
7.49,-0.532988954001007,-0.7467932723825723,0.16476068045901443
7.5,-0.5122145456547657,-0.627124902205407,0.12271912916734447
7.51,-0.5683430918509106,-0.6170533908480935,0.01319299825455155
7.52,-0.7828139164748181,-0.7768559719712976,0.06020860030154209
7.53,-0.9619233549310695,-0.8234056019002796,0.10996377532169471
7.54,-1.118190434279834,-0.8026128422024211,0.07885955776999035
7.55,-1.0747581382783302,-0.9363820693071783,0.087077752673016
7.56,-0.6833968484389593,-0.9299316551625592,0.0705033181743849
7.57,-0.35733812908794627,-0.8290848842886854,-0.04274341671964174
7.58,-0.39509294758506824,-0.8805476955214836,-0.115045708139501
7.59,-0.5622256865966535,-0.7734896728694909,-0.02721413434960013
7.6,-0.7061568345450178,-0.7098702475916108,0.06655686736747422
7.61,-0.7862521773455197,-0.6286580836043854,0.025302507589933066
7.62,-0.6368539110965686,-0.5378078662545844,-0.04042103322359254
7.63,-0.3897773037437663,-0.5923732469061861,-0.08029354319852848
7.64,-0.7094967238064116,-0.5644536885941193,-0.12339918394910436
7.65,-1.5593762610353807,-0.7981302464737814,-0.0937917412776165
7.66,-1.5743616863412586,-0.9820465160949136,0.018604682995420598
7.67,-0.6028710003314667,-0.9173043588652133,0.05256538630586231
7.68,0.005171029763876427,-0.9941727110993307,0.0031140491276118653
7.69,-0.3118629449043314,-0.912614144390132,0.10689100258747226
7.7,-0.9401809809801415,-0.7339944438997249,0.30005969658751336
7.71,-0.9234637184887562,-0.9022307193375095,0.22950867259816973
7.72,-0.16705177073406394,-0.6597239581504467,-0.0900183254724056
7.73,-0.036527244835322,-0.33850314749660176,-0.26198593182515445
7.74,-0.7771792562285891,-0.7356846550818752,-0.2191515178522055
7.75,-0.9703614272782607,-0.5836323299294149,-0.2152368083547052
7.76,-0.5990380314567585,-0.4386615935819554,-0.2677977597175296
7.77,-0.5612231186178608,-0.9114253089044643,-0.17224338368229566
7.78,-0.8347793472865833,-0.8444851784096511,0.11274071983819754
7.79,-0.9511382501992522,-0.7791821105372183,0.30660154615875096
7.8,-0.6243779010447457,-1.076800416795315,0.22664412458850702
7.81,-0.18695956243771894,-0.957961165767589,0.08294287467809884
7.82,-0.24424527080791966,-0.7914503858656439,0.04883213586039575
7.83,-0.630480223130197,-0.8076102741882817,-0.011809665305095482
7.84,-0.7459738915167762,-0.8383817081240243,-0.1558744739588493
7.85,-0.5006827617574681,-0.6655137813760552,-0.22792409615186354
7.86,-0.42963474281878977,-0.5126789831802735,-0.21878172826180167
7.87,-0.7126611139509805,-0.7311522315502542,-0.1601417505160272
7.88,-0.8522836970358193,-0.6342241524887579,-0.016574527245992267
7.89,-0.7510936931634913,-0.594897684884106,0.07875801311565503
7.9,-0.6124723705395704,-0.8805583401711745,0.03450006168375597
7.91,-0.6985342153093264,-0.7490195897222472,0.061245418688067516
7.92,-0.9982238514559197,-0.7584231154805202,0.11882801179853239
7.93,-0.9244008516353986,-0.9270952846536024,0.002309171612109498
7.94,-0.5278982039841549,-0.7585533653499267,-0.11915267443363482
7.95,-0.4285060402038967,-0.7597910009040494,-0.05918891135393649
7.96,-0.5174409271087433,-0.7456858965653579,0.03545557163975308
7.97,-0.6034962462335257,-0.688998565465094,0.04698091394761009
7.98,-0.6017688936103339,-0.6964830167828827,0.10410025177092307
7.99,-0.46788770769964133,-0.6258667045117634,0.16381624179681276
8.0,-0.6357789349582161,-0.7223500778405114,0.11119401875150325
8.01,-1.0342899246560706,-0.7958829528204695,0.07110933681482037
8.02,-1.041557637388481,-0.6928048674747117,0.049024775532563555
8.03,-0.7296173253011881,-0.8017927130564518,-0.08200090836716187
8.04,-0.46945722191188527,-0.9066420840826457,-0.17031316326680826
8.05,-0.45612329613866676,-0.6173567582742271,-0.029407071442907246
8.06,-0.6966788968833778,-0.6116183260326788,0.16865811737608677
8.07,-0.8132721000941472,-0.9005891323928111,0.2411887933202895
8.08,-0.6138631050704053,-0.8550715954236865,0.2036260444340271
8.09,-0.6085779123906593,-0.7865380362178334,0.14493161654787573
8.1,-0.7549282123830896,-0.8196888417744541,0.12949249166933716
8.11,-0.2699672987398635,-0.6840877851200879,0.05060661132341835
8.12,0.28692081748765585,-0.48894768936291233,-0.1076241720199054
8.13,-0.2929691071096071,-0.6677160394927814,-0.10399994002348378
8.14,-1.4276423499830726,-0.8811301949290097,0.13053786502705828
8.15,-1.5703775533736328,-0.5955828446207015,0.2410498487313397
8.16,-0.8140266306827721,-0.6820923032704149,0.06114728462598545
8.17,-0.379090906098089,-1.0305309985237088,0.011086486852178475
8.18,-0.5299184932264718,-0.8218136657512545,0.21709722221092712
8.19,-0.7590307190753904,-0.8043254725091227,0.2945625142094932
8.2,-0.461599434216611,-0.9430667753445302,0.1345359343021583
8.21,0.011877770177524121,-0.6306369142682527,0.04280885309909285
8.22,-0.22403362950933073,-0.3988806356022974,0.1210111406590781
8.23,-0.8423451884654407,-0.677657611450317,0.1568163395661703
8.24,-0.9907657621240675,-0.6491305317288723,0.10365801775013021
8.25,-0.867005245865598,-0.41493309075603035,0.03972311048085504
8.26,-1.0228321493392685,-0.8329737134770071,-0.032556064000448394
8.27,-1.022454128356232,-1.0034017918615645,-0.09401233822664347
8.28,-0.6328690770969032,-0.758706062082808,-0.08886846676920158
8.29,-0.41913221784894306,-0.7987309660072276,0.013304332203374142
8.3,-0.428706947628556,-0.8845597427882506,0.18305977922447716
8.31,-0.3529605392089422,-0.7032840785417718,0.29606211984532255
8.32,-0.3585926635157778,-0.5053851194905419,0.25183078705483625
8.33,-0.6514325662821173,-0.6544873534130363,0.09319579501112454
8.34,-0.8500639973757536,-0.7343230655442954,-0.09645056373915781
8.35,-0.9141099235381165,-0.6878825063371877,-0.24088461724766844
8.36,-1.009055004909652,-0.8889001909915162,-0.22663825941242677
8.37,-0.8057359837996481,-0.9456006071074833,-0.044178559527373255
8.38,-0.5198493362040763,-0.732572732927476,0.1760785900660052
8.39,-0.5335663681224077,-0.6491559677019645,0.3130210215210878
8.4,-0.6246262927387954,-0.7517138636389047,0.3278341768588068
8.41,-0.659069647904902,-0.7857493611996668,0.23000021180028146
8.42,-0.6747213320547489,-0.6789667591967752,0.061780745749869685
8.43,-0.6490259379508954,-0.7656013038665406,-0.08468150093073773
8.44,-0.681907406857366,-0.8627878448385871,-0.09517211653134303
8.45,-0.6942219341447827,-0.807515647601195,-0.01694670035657521
8.46,-0.6338516572315266,-0.7911469029196805,0.01921669552049901
8.47,-0.8087508109691008,-0.8109943021329478,0.08371203534255749
8.48,-0.9588339602269385,-0.8154857360410509,0.20608158197303073
8.49,-0.6818621538404332,-0.7119723411216337,0.2146383864926019
8.5,-0.475916428669065,-0.6768171691335348,0.13754999224368583
8.51,-0.5532708539845276,-0.7295098974762019,0.1396663562147647
8.52,-0.5741479521856075,-0.6949808376087527,0.13052022317062398
8.53,-0.560962870359958,-0.552267916833843,0.029430206855720616
8.54,-0.6375386405889045,-0.6784530075280448,-0.025197053017369513
8.55,-0.7956636157885738,-0.7475186238114511,0.06166825528051098
8.56,-0.952117978070483,-0.581745880526536,0.2176022010551343
8.57,-0.7662509670795474,-0.8191371102785888,0.269485065464396
8.58,-0.2171799560743716,-0.8192061787139462,0.1769872985447731
8.59,-0.07507769481077164,-0.49810706927914294,0.10232621212081375
8.6,-0.4533350677817466,-0.6231964589189658,0.11375706657571537
8.61,-0.6316567063681103,-0.6026510201745715,0.11712180326431029
8.62,-0.743186968389508,-0.4610830446557473,0.08839898850872295
8.63,-1.0985207303278486,-0.6789767422060409,0.10696770983188357
8.64,-1.2842067569958764,-0.7916697847270661,0.13355688317913492
8.65,-1.0766967719761906,-0.8776376145366371,0.039140979736282125
8.66,-0.7580647844109657,-0.9220887423260385,-0.06310562214302828
8.67,-0.645349363958184,-0.8776717416944173,0.043519726874413016
8.68,-0.6316441684236958,-0.9064487839816794,0.23347108886837079
8.69,-0.3955086489453521,-0.7422401960506821,0.22976801165714342
8.7,-0.1506406298309624,-0.5577370775595056,0.10016304333893351
8.71,-0.4521129694629852,-0.715553001894246,0.09613132495441183
8.72,-0.8877854081646502,-0.7785564591834707,0.13950900200267324
8.73,-0.7708591881101916,-0.565712197265972,0.025555475016626663
8.74,-0.6972310185091858,-0.7976923185259158,-0.08866486663866892
8.75,-0.9089121215361082,-0.9661326565646707,-0.016761270960044105
8.76,-0.9602218413227233,-0.9009984545533245,0.07046965106474119
8.77,-0.6638520543299663,-0.97339843175955,0.06024527768156176
8.78,-0.1913390274579467,-0.8050491841820832,0.10740379481665513
8.79,-0.1516183039227563,-0.6402730783591679,0.23296107826980533
8.8,-0.39619762942043774,-0.5737455799274969,0.2372369114144615
8.81,-0.3736419111213765,-0.5384260631387942,0.052963774158846774
8.82,-0.5241967323892691,-0.5326065963683656,-0.12428897285949765
8.83,-1.0511799194589129,-0.6451755622927936,-0.1814211094177024
8.84,-1.3288485059112625,-0.7927976722666026,-0.12790821225008184
8.85,-1.063657991682568,-0.7025617644916965,-0.015189011274302607
8.86,-0.7262567188769118,-0.7637436959760764,0.08642739748288561
8.87,-0.6394731716553361,-0.9164653134714095,0.15894646091993941
8.88,-0.7385422373569946,-0.8265928893498212,0.16971954051224586
8.89,-0.8248480531723194,-0.8196596478274863,0.1270621139011879
8.9,-0.6676230518550063,-0.9352118891325487,0.07789425400859079
8.91,-0.4291243737093825,-0.7919055007295555,0.06708748718313762
8.92,-0.3031060023305048,-0.7136207097485602,0.1486749129065076
8.93,-0.23842307294465478,-0.8089037495058272,0.21099128149113447
8.94,-0.36713128619461666,-0.7637053418999487,0.1157400275020122
8.95,-0.7569652156295672,-0.6853077083168061,-0.01382145444604305
8.96,-0.8471178341664511,-0.6913560114275102,-0.046371906852364995
8.97,-0.42868178268656615,-0.7995504692752886,-0.036772066898730096
8.98,-0.2380094955702925,-0.6814321739502619,0.02176254829728609
8.99,-0.6907345662011908,-0.48504629651389203,0.214580815076371
9.0,-1.169436722591889,-0.8039753772046665,0.3787927789708358
9.01,-0.9936531399580883,-0.9866384906706369,0.22404230270868172
9.02,-0.6143341750308857,-0.6499181512233806,-0.1264549972536425
9.03,-0.7626265307286308,-0.7807551689391539,-0.19507088716290705
9.04,-0.8896263926781205,-0.9950543992697641,0.09012587973518162
9.05,-0.7124162468235168,-0.6324073535233751,0.28613264252301684
9.06,-0.5461549238928471,-0.6842034839199929,0.2505916843708785
9.07,-0.34343152719950776,-0.7097359445381877,0.16212301271048205
9.08,-0.37706721086729483,-0.603256073501216,-0.01093162125650887
9.09,-0.6247067076973541,-0.7921106081532182,-0.21398011372178247
9.1,-0.8162163444997838,-0.6944050452474462,-0.19066259277174685
9.11,-0.8222450206589618,-0.7729174615047184,0.05639268449333722
9.12,-0.4423036372170604,-0.7979989289445664,0.2552534479495614
9.13,-0.2163574743578413,-0.6741314221341712,0.2580580891215364
9.14,-0.5926077372049576,-0.9263506420730516,0.23660831355429107
9.15,-0.9424076464252232,-0.8026994202363344,0.20875963215158994
9.16,-0.8205057772492504,-0.7949994970769162,0.021104470850891746
9.17,-0.4318897713726381,-1.0261378214533143,-0.1246770228573097
9.18,-0.1960751118161272,-0.7598689808663289,-0.026157736885986573
9.19,-0.485523475282827,-0.6254207535233619,0.08294376420068572
9.2,-0.9332860187247025,-0.7835976536139728,0.08015797412351852
9.21,-0.9464334020338193,-0.638004676573705,0.06295080840754894
9.22,-0.8944854434395306,-0.6401979730870915,0.020183526609092672
9.23,-0.8521671619456291,-0.8755953551876323,0.027385375451733883
9.24,-0.6286014708413972,-0.6763095267675021,0.11057927832498955
9.25,-0.5810479705911772,-0.5372198111194905,0.13651713389355485
9.26,-0.7540598390902017,-0.8080873278776919,0.14005365571123388
9.27,-0.8423078944137501,-0.8091978976361944,0.15108901566429053
9.28,-0.8131127610019544,-0.626719318424976,0.09492688740938529
9.29,-0.8400308700566778,-0.7584954440352248,0.08154465733711426
9.3,-0.6985252103599423,-1.0038021111409678,0.2104448239503617
9.31,-0.2596138340239721,-0.6849752338042076,0.25125744431504743
9.32,-0.038580170926463875,-0.4277139993818594,0.1267109007164059
9.33,-0.4971072564596856,-0.7753739848426779,0.1025302934580205
9.34,-0.962700013320701,-0.8067801024603812,0.20543519013114195
9.35,-0.776772358745203,-0.6233255514204997,0.1793998780138205
9.36,-0.37512539641922477,-0.6834407394034161,0.08348008124722543
9.37,-0.5266869772012448,-0.8206595795806557,0.15628800364768416
9.38,-1.087685148348204,-0.6560954723318222,0.31545419079819975
9.39,-1.1410019742827,-0.745402038730724,0.25355073531150757
9.4,-0.4937860885123172,-1.0257618068973022,0.017200502027011597
9.41,-0.11205751338225539,-0.6810634666621755,-0.020407514524400525
9.42,-0.6363478260164657,-0.721949575630941,0.2022529348041714
9.43,-0.9733604071824008,-0.8067819253527995,0.31623497180741633
9.44,-0.512192961554403,-0.4615547054370873,0.15651493708529082
9.45,-0.33793234763976326,-0.659131632099252,0.07239376975310896
9.46,-0.8448749086282863,-0.6548114831311617,0.19846067776396983
9.47,-1.2861958706059609,-0.5371607796181823,0.20390625335483553
9.48,-1.1320993716308778,-0.761450162509924,0.020112467283904048
9.49,-0.6043085732310094,-0.8606247956896754,-0.09469682060928995
9.5,-0.42363636087009776,-0.8011261201014948,-0.09883130758257576
9.51,-0.7306884577760027,-0.7016115604212088,-0.022485352457101402
9.52,-0.8120441993120339,-0.8727357826823687,0.12026672318549149
9.53,-0.41165321861506543,-0.8800054881543338,0.18450105304430992
9.54,-0.42793820224422013,-0.6132170867472739,0.13582226557729213
9.55,-1.0976677159913464,-0.8522313035159882,0.05524872970533453
9.56,-1.1467370629325389,-1.0828991371938537,-0.09609200326283436
9.57,-0.5707962829339438,-0.8143105774343317,-0.2944605105878853
9.58,-0.3619149049965568,-0.8486019501557338,-0.3194899298000513
9.59,-0.3694547187636724,-0.894484869036483,-0.11699730748425455
9.6,-0.34770866238980047,-0.6104350049956369,0.08838054559323213
9.61,-0.3819872810988833,-0.48013997703488964,0.14961762758414346
9.62,-0.6022241151446169,-0.8380122465244367,0.11494183833884211
9.63,-0.9449743624759527,-0.8674169663182261,0.05571354779478855
9.64,-1.1750209719635591,-0.7691623985196456,0.00928398685481719
9.65,-0.8302883672277311,-0.8861315557447305,-0.05504315249359964
9.66,-0.14920892649767675,-0.7203655933401207,-0.10849656294154696
9.67,-0.23788717426298078,-0.7686517962718856,-0.020484662095016426
9.68,-0.7044339211792847,-0.7939955753649771,0.11790951861263753
9.69,-0.6682851887178581,-0.6120342756357021,0.08557797466055161
9.7,-0.6097160107314232,-0.5992210036860367,0.006553466319753534
9.71,-0.8334906114856196,-0.7392211752282299,0.08519872619835488
9.72,-0.8648588571591062,-0.7320902880988164,0.129007743665666
9.73,-0.8124147576611301,-0.6933682149214014,0.015623790032267671
9.74,-0.7737598547774807,-0.8030259293116794,-0.07525854217871995
9.75,-0.6465068488647073,-0.8823823676523409,-0.0702514257043155
9.76,-0.5791470100959165,-0.7747658242756129,-0.02755404843126534
9.77,-0.5594116987743125,-0.6311999979442133,0.11804103720858981
9.78,-0.3399018597629254,-0.6665483429301666,0.3099213026695953
9.79,-0.19852249879074602,-0.6042299425320224,0.3234132472625983
9.8,-0.43806344574302897,-0.577891851965446,0.2170630734933849
9.81,-0.8569497997134949,-0.70330604077028,0.1300097014363137
9.82,-1.211480623440012,-0.9418368519837861,0.04352770918568834
9.83,-0.9901111797081991,-0.8652942005612361,0.010668701529722668
9.84,-0.5146473501691948,-0.6518451661319327,0.08337874738115282
9.85,-0.40565428622931105,-0.8219569006630632,0.22600626391029793
9.86,-0.4868118020736564,-0.6196383173773399,0.3112140608551373
9.87,-0.8004102416857223,-0.6490071185912506,0.21604100301094795
9.88,-1.1243300371764688,-0.8387566473839523,0.048504205241147166
9.89,-0.8699185011805368,-0.7384993122045387,-0.05279255223183933
9.9,-0.40723064294021305,-0.7537374640885509,-0.0474742745910543
9.91,-0.5313191025504224,-0.635883051910972,0.08698987408656465
9.92,-0.8173072230645432,-0.807440143052595,0.26809840553536946
9.93,-0.6706038049952348,-0.7862847145521527,0.2672549563940462
9.94,-0.5623289628970534,-0.6615663119574905,0.06025147960495759
9.95,-0.49097253047606815,-0.84265827568849,-0.052229954904239824
9.96,-0.37718618320022984,-0.5555407628363417,0.0016849650616897695
9.97,-0.5530672931869196,-0.7024399785924482,0.021379394456698435
9.98,-0.7024824122888725,-1.0336778734856593,0.06765201682280135
9.99,-0.7564944682779976,-0.6980352323221763,0.15754324564846714
10.0,-1.1342225590427615,-0.9718546605637428,0.19225050492923457
10.01,-1.0284505225232619,-1.215916635889168,0.1842285054112227
10.02,-0.25631347969367485,-0.8250262416878387,0.031018175251165923
10.03,-0.09432612887484083,-0.6749563778147935,-0.07605125542052282
10.04,-0.6235537437548214,-0.6925857840286875,0.0425003348098742
10.05,-0.741665757958178,-0.7676201649468452,0.09294051967470941
10.06,-0.3729621771667077,-0.6110186988223437,-0.023923807372434304
10.07,-0.4848582650652253,-0.45837881820490484,-0.08490284264735612
10.08,-1.1560307969240096,-0.7338421910867307,-0.001710409015700796
10.09,-1.1598286998800449,-0.8564542072166133,0.03331073944102946
10.1,-0.38392045083552234,-0.6953669345949302,-0.08513748117501728
10.11,-0.18774615867954625,-0.5836562335037025,-0.0974888308616461
10.12,-0.8221338874824817,-0.857522301732449,0.14150804762302047
10.13,-1.076789043534166,-0.8841238243408117,0.34893034379006443
10.14,-0.5643386423344241,-0.7106659989676746,0.20572530326378136
10.15,-0.1929469885120561,-0.7863929062916598,-0.05515305613147177
10.16,-0.838038096932014,-0.765043507662286,-0.039055219497076084
10.17,-1.406580437492097,-0.8719421271163681,-0.0005972663168258537
10.18,-0.8325939953336069,-0.8711531700021817,-0.22723413870212134
10.19,-0.194607564967831,-0.6721624121906469,-0.40813231329004623
10.2,-0.3831541315160434,-0.7310794407791913,-0.22179613725212513
10.21,-0.68514723898335,-0.7635478961739988,0.08153595906323131
10.22,-0.5726507457876977,-0.7056341620425304,0.1747745173224854
10.23,-0.3378167965982913,-0.7496943754637241,0.18518995336609348
10.24,-0.579785379600252,-0.7785726356767274,0.270795402057191
10.25,-0.9338967623551099,-0.8352837382710313,0.2614932899855378
10.26,-1.0214682544188651,-0.7822179699261146,0.021342635550814858
10.27,-0.9097595229754267,-0.934095913449101,-0.25591416014727036
10.28,-0.6822042854507846,-0.9586183888347158,-0.308073117209694
10.29,-0.4297166939196603,-0.7444186860976161,-0.2464634618669499
10.3,-0.37959902884397256,-0.7938998749685428,-0.17280529446692075
10.31,-0.42967429867626644,-0.6551740171971145,0.020028932972004414
10.32,-0.40510749066758434,-0.6638923538975569,0.215714480532902
10.33,-0.609487861362091,-0.545100595733571,0.20048087047719057
10.34,-1.0050421019714053,-0.6965288924629763,0.08300186912451192
10.35,-1.0656008680327782,-0.9564909093520102,0.021883924468227806
10.36,-0.9209696489098718,-0.8213099842064872,-0.08377285206346724
10.37,-0.7061081780597404,-0.7442258736109681,-0.1880399740927046
10.38,-0.5606787133976965,-0.7439988563680198,-0.04083140126163748
10.39,-0.6339436092262527,-0.7283709693685969,0.19595598961911487
10.4,-0.3956245306823108,-0.6230442995668766,0.19139651106111563
10.41,-0.022585671158012258,-0.39561132885561795,0.03812614861201909
10.42,-0.08913917124024416,-0.5836560836591821,-0.013467774531888037
10.43,-0.5748702907876281,-0.7640179477652985,0.0599530238785965
10.44,-1.2820506821714437,-0.7021832973190709,0.14209388517644383
10.45,-1.481887268698574,-0.9405401500846108,0.13208728184195453
10.46,-0.5357466639331586,-0.8533627098290835,0.00852235370287972
10.47,0.10688819386693992,-0.5660262075582095,-0.1399081861869628
10.48,-0.7084372721246418,-0.7763735806121379,-0.057161451003325175
10.49,-1.3713752825792989,-0.8593618010635742,0.20656978932876752
10.5,-1.0578858966539868,-0.6568263778701248,0.24958253181699638
10.51,-0.4464146843500617,-0.7254609060818699,0.051243322632235744
10.52,-0.16638216694530789,-0.8918704560231994,-0.017051644777805044
10.53,-0.5468011640112205,-0.7800758291924957,0.04428329719382972
10.54,-1.0942890324259817,-0.7488784557066178,0.06939317240330052
10.55,-0.7921479971253523,-0.8009778183167929,0.07759687144837699
10.56,-0.16299164327526816,-0.5115393849604651,0.08220444771116982
10.57,-0.4440260121460997,-0.6685861277094163,0.10821218478253462
10.58,-1.124118586501515,-0.8122404157032315,0.19818322780145203
10.59,-1.1321894940984754,-0.6480008615596928,0.15466610526552313
10.6,-0.5457327084503542,-0.8638037913037295,-0.02937504391068469
10.61,-0.2804892142815605,-0.7969431613418191,-0.024025386820020807
10.62,-0.7044319854544908,-0.7330480593966107,0.1576605081470455
10.63,-0.799401202191603,-0.7469440033036541,0.19579562950768212
10.64,-0.36680270789439673,-0.7813637056556851,0.03341651656507101
10.65,-0.44437546372345904,-0.8453445622793966,-0.056768035273683494
10.66,-0.7689850460348334,-0.6382220881232841,0.07093046865635586
10.67,-0.8854874359872628,-0.6312670882781628,0.16718649206630815
10.68,-0.5837210729203123,-0.8570330114552694,0.016540112848618574
10.69,-0.29219363445442936,-0.6933910074929714,-0.0762917974893032
10.7,-0.6592460846280612,-0.5030104935530376,0.05123838261044635
10.71,-1.0694400082115432,-0.7907829262303254,0.13921416921729343
10.72,-0.6976106203534731,-0.7639797130735592,0.12170816508084163
10.73,-0.2697377496693982,-0.584821209710104,0.07705534900867976
10.74,-0.6514159418282099,-0.9378970714097542,0.10120053051388006
10.75,-1.015428246050436,-0.9461936629181458,0.11485707455536599
10.76,-0.6957502964522724,-0.6218292998951062,0.06625548815446604
10.77,-0.1610822924330554,-0.7055121560083337,0.042601591142612714
10.78,-0.3103744344687018,-0.8017465996104475,0.11090936880926289
10.79,-1.152860777532316,-0.6457051718307214,0.18679171128503236
10.8,-1.2574937935290338,-0.9320766521195976,0.10763239820347431
10.81,-0.4488280217465732,-0.8245245087725498,-0.09951599464026671
10.82,-0.12049828597010351,-0.6822684949465115,-0.17448073419388932
10.83,-0.35548665286562475,-0.8120117824851503,0.054837885487446246
10.84,-0.6147960258783922,-0.46753544012540155,0.33490090466164435
10.85,-0.8757825863321854,-0.8308769664994415,0.3841552320615278
10.86,-0.7752331223144157,-0.8253296066178832,0.22937603842520957
10.87,-0.7609912752289477,-0.4988689109499942,0.0035938805660157168
10.88,-1.0386234803908565,-0.9787106139473156,-0.11497339323441474
10.89,-0.7968757205032462,-0.8673006268290429,-0.03136884388952006
10.9,-0.40695176600423266,-0.5334923926503081,0.1257803419650437
10.91,-0.6834514862267641,-0.8774371201905545,0.28899194664567235
10.92,-0.8929996501193683,-0.8989093901924794,0.3982603901869515
10.93,-0.6233191340833859,-0.6266478336613845,0.2515918397877656
10.94,-0.37731823183262153,-0.6992590408819096,-0.007868796675083072
10.95,-0.5383705425982016,-0.821698721681067,-0.054632963163821206
10.96,-0.969577343955791,-0.7213314445461013,0.12177960377293083
10.97,-1.0768463368850978,-0.6913286864769207,0.259398015514121
10.98,-0.4566425193487139,-0.9292742747708481,0.20059899777097032
10.99,0.16005996549410936,-0.8069687126348564,0.08305510486803755
11.0,-0.3680835927004843,-0.5048684258547095,0.1116435876053408
11.01,-1.189450384866522,-0.7817628391964119,0.25545416590024633
11.02,-0.8488940942889333,-0.8120210665103081,0.19570845021904196
11.03,-0.04339506047491702,-0.6082167056391284,-0.018142523135927766
11.04,-0.24248916441448695,-0.7019348424098216,-0.014669662257547823
11.05,-0.7976732322986925,-0.7586731540753706,0.17131975877326133
11.06,-0.7714250496780191,-0.7793610405656912,0.1613278659342072
11.07,-0.7305864661433166,-0.764693437415316,0.05350314548372887
11.08,-1.0002322420720013,-0.7103382377755889,0.10816118321567124
11.09,-1.0426756865698532,-0.9093885150339193,0.1627060050214171
11.1,-0.605512632249823,-0.8245877439706829,0.05395555072257819
11.11,-0.4558977786155209,-0.7924460331278395,0.02049752777423253
11.12,-0.761503453980817,-0.6903605678024023,0.18562723432743441
11.13,-0.7668405085167239,-0.7630434407138585,0.21492735874100719
11.14,-0.41366394054899086,-0.954676404650695,0.06582594486287578
11.15,-0.2596211538830859,-0.5972677459847606,0.0075767982103624835
11.16,-0.5853880762424482,-0.6130019902297418,0.09824602590399197
11.17,-0.9598812551976939,-0.7244512460833742,0.1920910615456184
11.18,-0.9085302638057309,-0.7639421750400894,0.20578528503573212
11.19,-0.7002444161397354,-0.6190853397970967,0.10953217942981976
11.2,-0.6255902208454296,-0.8075412122614957,-0.05108331699167209
11.21,-0.6456491404360644,-0.8894412048351704,-0.11096587114928642
11.22,-0.7866449650790338,-0.6793429436082349,0.03531057605445016
11.23,-0.7288952015423005,-0.9037372003153165,0.23656339162680987
11.24,-0.39614773893930944,-0.6707373049111244,0.34429659789278955
11.25,-0.4417206794624384,-0.7966120787821678,0.3440087008682992
11.26,-0.580651246175794,-0.7499163338558681,0.22084709273339756
11.27,-0.6949978068584526,-0.6065620938991229,0.055149272197807665
11.28,-0.8883440659694766,-0.9064107547344095,-0.060772835899685664
11.29,-0.710054616064965,-0.635998724143866,-0.124609165883576
11.3,-0.42956686442740016,-0.47619693281306186,-0.13522169374787546
11.31,-0.664415033047554,-0.8855722291029134,-0.11806277349964747
11.32,-1.0743693503527214,-0.7300945471622586,-0.0799414728243209
11.33,-1.2032202787177506,-0.6824667287427172,-0.0375142651934988
11.34,-0.8340225577564865,-1.0339753249903798,-0.03587541697615392
11.35,-0.205995788238826,-0.715057177349783,-0.02659703104781992
11.36,-0.11113162452488068,-0.7087946344647621,0.03375594159017529
11.37,-0.5684276742939028,-0.9282143895196071,0.13127413900175433
11.38,-0.7779878681660206,-0.884213095353844,0.1352945951116097
11.39,-0.5705086426830571,-0.8646898610717271,0.03224797758571082
11.4,-0.4475856629670389,-0.7352769384631932,-0.09360517718397889
11.41,-0.7368608060271934,-0.8691575925049952,-0.04841561546342073
11.42,-0.9030537533531737,-0.7230109333503124,0.05219101286129327
11.43,-0.6192905268069683,-0.6691667660435637,-0.07568514143517055
11.44,-0.4713325206942512,-0.7040572354102492,-0.20122884338236008
11.45,-0.7201294784718685,-0.7016221611682143,-0.10004729818327276
11.46,-0.911606823438839,-0.8437766687761216,0.010646641344690726
11.47,-0.6618182585358664,-0.786803117904853,0.015157853386115078
11.48,-0.31477264629450225,-0.8024481517426143,0.13586418363211777
11.49,-0.4192377862292676,-0.7690318464403036,0.37331517285820515
11.5,-0.8059662428827771,-0.5712063893550999,0.43484196934077185
11.51,-1.0585287844986988,-0.7518233486913427,0.2503561923600147
11.52,-0.9948763064717295,-0.9187282065861506,0.08330621525305104
11.53,-0.9795328682852427,-0.6302536500917806,0.04664661169372374
11.54,-0.8557141755168544,-0.6296831667051405,-0.030475184523405755
11.55,-0.27507699530696283,-0.9512385252235981,-0.06412085495308287
11.56,0.10154018860077405,-0.6786793062342128,0.08117742721781616
11.57,-0.38695333165616463,-0.525720790752604,0.24249665085700747
11.58,-0.9170645760750017,-0.8882629666643316,0.2825764414823522
11.59,-0.7612181166454766,-0.7149508045548005,0.25965678498501493
11.6,-0.6229562433245415,-0.5832936408255506,0.23841654390056108
11.61,-0.4576082726545617,-0.7665668368732376,0.14526915139618882
11.62,-0.1961176943892145,-0.7108406880435375,-0.02068429483053334
11.63,-0.5471077431267463,-0.6331899768560186,0.024494792139834347
11.64,-0.9978005269646825,-0.6763585034538722,0.1809043597261825
11.65,-0.6560014601594056,-0.8176751331642518,0.07053797070138441
11.66,-0.14281971901453022,-0.8320702572737421,-0.10447127040484515
11.67,-0.5269443733572312,-0.6739992743833282,0.014757289542606019
11.68,-1.3167934570551323,-0.7652155980715399,0.22872747675106314
11.69,-1.263661532869714,-0.8993679003297945,0.18365989937600533
11.7,-0.5270141940772421,-0.9919263672679997,-0.03459634171655667
11.71,-0.42310766467085736,-0.8010214459351479,-0.034320512141599084
11.72,-0.9694835919579554,-0.6475869258564981,0.15911836681229544
11.73,-0.8438077944899837,-0.8749935708522535,0.12111971707740248
11.74,-0.22078877906566133,-0.7513127772947907,-0.06146511947345635
11.75,-0.4792750307210238,-0.5867992497573896,0.03278453766794705
11.76,-0.9793127626292701,-0.7000083281266315,0.19593537059095015
11.77,-0.5559100892732294,-0.7125207096079932,0.04032317753664998
11.78,-0.16980204111753622,-0.6693419619951062,-0.1365614454785009
11.79,-0.7181232918801796,-0.9212589288610106,0.0051493125533669
11.8,-1.1645092822641216,-0.861076912437893,0.1572771865660152
11.81,-0.6990050102830536,-0.6867964690332903,0.044250350737412916
11.82,0.0002344899581362187,-0.935228376899937,-0.03947201965637769
11.83,-0.2559435890827706,-0.6130220608155641,0.11910594606946663
11.84,-1.0012796942840103,-0.6800535890579746,0.2567269451911196
11.85,-0.7563390666581796,-0.8518902352015929,0.09745161575759885
11.86,-0.22787759850083367,-0.598320033230857,-0.1658130459839246
11.87,-0.565385258647637,-0.8165301587477126,-0.1614705634755024
11.88,-1.09787123062625,-0.99441050185496,-0.02056323431546296
11.89,-1.2215453657247537,-0.8255840537835358,-0.04436586554078657
11.9,-1.0957595768537678,-0.9366213955263285,-0.06718362223386797
11.91,-0.6851330008018117,-0.8742278012744095,0.02781665429708374
11.92,-0.4642362961760825,-0.8478060411666024,0.05702215063867976
11.93,-0.3015115302251837,-0.7844615175837086,0.033000089813622714
11.94,-0.18334817951583782,-0.5009960221526907,0.06791871745347984
11.95,-0.4866310507676878,-0.8975208148459817,0.02422286354350642
11.96,-0.7624257222948075,-0.9553330766830198,-0.02132710081412167
11.97,-0.6206739631457158,-0.6998758869323337,-0.015162895417519138
11.98,-0.4094697517309954,-0.8901335018610957,-0.040493199250724164
11.99,-0.6390773092446451,-0.9365375668367457,0.001906934873045101
12.0,-1.068173252513409,-0.8415909790075037,0.09060429492357377
12.01,-0.9729610679351127,-0.8161966795622523,0.0077706584509439364
12.02,-0.32218459019597023,-0.655075000558247,-0.2242855265192735
12.03,-0.031110263067648778,-0.5496468053634541,-0.28477877593074635
12.04,-0.6562119415526192,-0.7106901404067508,-0.1086071623924856
12.05,-1.27107066402695,-0.6935910000183468,0.07650687725186132
12.06,-0.992377182012456,-0.7466555742520236,0.17959604567334844
12.07,-0.1777214227721461,-0.7253352655944234,0.14175630337982528
12.08,0.13142441464995994,-0.5478670430792205,0.04526295543693266
12.09,-0.6326193758255382,-0.5748412937583891,0.18220386464122348
12.1,-1.4324729107586907,-0.7321346809277668,0.333936688302152
12.11,-1.026721039694554,-0.7406444649739015,0.16058987582204762
12.12,-0.4433609573515774,-0.5598996484965715,-0.07052138717498013
12.13,-0.7179626349303431,-0.8460111743832043,-0.02471986629931228
12.14,-1.1748748781533818,-0.9425176146232245,0.12585606041259692
12.15,-0.8446247196998402,-0.6341037429681013,0.031725955610499845
12.16,-0.37527087630762435,-0.7588733749881755,-0.1351616971073929
12.17,-0.18854367060583538,-0.9120448679893167,-0.05946423754348483
12.18,-0.2438100785372289,-0.626658427894686,0.1748039330591886
12.19,-0.48381395294536383,-0.5558644183960192,0.2939805301653685
12.2,-0.5344176798785993,-0.8656388329952035,0.24947716943713083
12.21,-0.6752508269543391,-0.5931109617499074,0.21511721394950833
12.22,-0.940443836193039,-0.6748248988535615,0.1360297545775094
12.23,-1.0165252696727927,-1.031259606764568,-0.06256629360757558
12.24,-1.1135131408002363,-0.9779263354422081,-0.17564415574078818
12.25,-0.9820565262484213,-0.6983780449587824,-0.034627429239512564
12.26,-0.6552098039214401,-0.7354840492395811,0.15482403865331426
12.27,-0.31194961601907484,-0.896739289780072,0.17863988749373247
12.28,-0.012975755602032792,-0.5096827429047017,0.17972804833935427
12.29,-0.25761717780823873,-0.47588642288563926,0.21868865284651431
12.3,-0.9453692350369076,-0.7416592275643998,0.14956501883521978
12.31,-1.1068997324639975,-0.6683159741191604,0.08107142393208805
12.32,-0.8997605788455635,-0.37267716387854205,0.04285747471696489
12.33,-0.8206898280605691,-0.7309648300458873,-0.0738685354646979
12.34,-0.5919710403398797,-0.9530398285458538,-0.10101312954669213
12.35,-0.6676977138721919,-0.5384959286934176,0.005456796070438892
12.36,-0.9509762821193609,-0.8281250760404414,0.11618654639873646
12.37,-0.6654521993858882,-0.906022931997404,0.2225905281757375
12.38,-0.15393575778056665,-0.6522382572891596,0.25154493533896605
12.39,-0.2624499790831604,-0.7598490283571373,0.18652529490048736
12.4,-0.7464579909671476,-0.9527223787201039,0.11819893376820079
12.41,-1.034252483785142,-0.7671266953621736,0.01888973150166743
12.42,-0.9728086224426548,-0.7493469580463106,-0.15206812228073374
12.43,-0.49729661548554227,-0.9575747024005218,-0.20527275683851354
12.44,-0.2618660791698156,-0.7873566988881905,-0.07757025191814886
12.45,-0.6416479710621484,-0.6802555041827519,0.13260364972783986
12.46,-0.8094544713220791,-0.6692000386652908,0.2709176016593541
12.47,-0.515180808103554,-0.8252064171203338,0.2464234474905895
12.48,-0.4231153928710781,-0.7960440410513077,0.13258890571563486
12.49,-0.9194083409850327,-0.6789072642705947,0.11529585970063133
12.5,-0.9909039967165469,-0.8903841355321951,0.07471870263010943
12.51,-0.4032560034228719,-0.9302167922975347,-0.08767537487086156
12.52,-0.5311846638161266,-0.5428240786988131,-0.1246500948735357
12.53,-1.2016739599395803,-0.7813821840729164,0.07036573710582006
12.54,-0.9327365504818214,-0.8956119189292134,0.11301169930702368
12.55,-0.2964841735672818,-0.6079354225622369,-0.02344960534575027
12.56,-0.4394091568748065,-0.683570313305158,0.03480039647578899
12.57,-0.8282285522198459,-0.8574381282792206,0.22895449447706018
12.58,-0.8264863189999208,-0.6002153627016609,0.2364842365582206
12.59,-0.5376798157489877,-0.7303403787648197,0.07335224938109212
12.6,-0.1959753189095438,-0.7229226870575538,-0.0667514262858411
12.61,-0.3801679656636127,-0.6732805530943661,-0.03645537737394392
12.62,-0.9744048975347439,-0.7412512399373404,0.09793796821200415
12.63,-1.082227853198247,-0.6445480052237853,0.10320065623675763
12.64,-0.7703489492530173,-0.8889079118977351,0.004761983466796157
12.65,-0.5258200151369952,-0.9431740569024635,0.012826066336784453
12.66,-0.4157718153747168,-0.7029319287557608,0.009848625417188978
12.67,-0.5813091523629786,-0.9270835234392092,-0.000962748888052983
12.68,-0.54126213741693,-0.8917031883610885,0.1677914728101821
12.69,-0.30579904131418006,-0.6256292656915486,0.26568732604368506
12.7,-0.5749186425297464,-0.7560118354078453,0.17333284822799078
12.71,-1.0884174291293622,-0.7569888675643955,0.13266194465149372
12.72,-1.010378491178135,-0.765435580035422,0.09760189389547647
12.73,-0.6258773326594743,-0.7111909175632118,-0.09897726989707191
12.74,-0.6043116191371039,-0.7561005361003355,-0.15158433871554888
12.75,-0.6709651445197939,-0.8357115346112427,0.04642154725751208
12.76,-0.5755676737702223,-0.7828890166991934,0.0683244001080366
12.77,-0.5549145385548329,-0.8603454996148217,-0.03761242859175996
12.78,-0.7280911513339065,-0.6980895306528431,0.03806430339448932
12.79,-0.9370482236899398,-0.738084560950989,0.1685888948616006
12.8,-0.6919161239182031,-0.8169197974339599,0.14476086430253812
12.81,-0.264661345370965,-0.6853953438483508,0.05139744102383747
12.82,-0.522359456022385,-0.744545688724676,0.09004673979375093
12.83,-0.8376553870747776,-0.7873472378126738,0.15949277969130818
12.84,-0.6552308027907153,-0.7882042985018488,0.058706945473680626
12.85,-0.5617658940520822,-0.7643658688507775,-0.03689212512056507
12.86,-0.6272309675844672,-0.6903935865380308,0.07405428302130435
12.87,-0.7602473125595106,-0.7565492236047723,0.16974500090236364
12.88,-0.6223941973891706,-0.7236794111882134,0.10262720144657131
12.89,-0.3820738681527461,-0.7021388951656247,0.016001611336487084
12.9,-0.34222633894099874,-0.7872986017271587,-0.009863559915984005
12.91,-0.35756230729977645,-0.722688569856022,-0.04282722179598269
12.92,-0.9714957783877992,-0.7789182075886686,0.04420871708527175
12.93,-1.483972931746846,-0.9900049306744055,0.18338745497397146
12.94,-1.1664808389569943,-0.8054710886746089,0.02678498235166654
12.95,-0.5253350437242342,-0.8491424720812223,-0.10048376660142197
12.96,-0.24295160506284222,-1.016959043106511,0.03939995127921663
12.97,-0.0441657615039112,-0.9066500701147429,0.08208926075742984
12.98,-0.18912829403155298,-0.6157430346025733,0.07608138464772496
12.99,-0.619544305797834,-0.6845122664784385,0.15150595693282923
13.0,-0.5934773367411704,-0.769101382746272,0.014355502744583321
13.01,-0.4629872576605422,-0.5341830445454426,-0.2500075199904671
13.02,-1.0436652976741785,-0.5092453508735483,-0.20899754645443278
13.03,-1.556841960127377,-0.7669816399808185,-0.001234023580084116
13.04,-1.165189520087081,-0.9030104362587387,-0.036620312825026306
13.05,-0.4099171399744091,-0.7760563601221184,-0.17178561292823036
13.06,-0.30145374183391,-0.9267646753955987,-0.06157791949107181
13.07,-0.3906895353401849,-1.0071733250378607,0.11410850673073451
13.08,-0.33137508293084134,-0.7155414887423855,0.13817390767123913
13.09,-0.4724932840753279,-0.6903498435081341,0.23650855786968072
13.1,-0.6223149880175773,-0.6807490843265375,0.2894746569047724
13.11,-0.5894830841888264,-0.6091767416050474,0.08163364438823724
13.12,-0.6637514734320622,-0.4912047344583766,-0.1839920340286796
13.13,-1.068951437709601,-0.7802103350865306,-0.2953167610250563
13.14,-1.1434542085827573,-0.8412420713787323,-0.2607704376554623
13.15,-0.8734031711168078,-0.6082534976422154,-0.1907518923343846
13.16,-0.5202294566423722,-0.9025878615506114,-0.09051828419812476
13.17,-0.2313100441680415,-0.7745316806707043,0.04874124953040405
13.18,-0.15948249708052595,-0.5298804133484519,0.16938283524054956
13.19,-0.4607470564459791,-0.6958080902602991,0.2242199666773565
13.2,-0.6016841517068962,-0.8097632140106773,0.23412819453847833
13.21,-0.8148168680369803,-0.5168685892585783,0.20207888639110289
13.22,-1.1217842915591545,-0.7684861193067316,0.12303558681363784
13.23,-0.9169594155454354,-0.9188557114711924,-0.13141514142784425
13.24,-0.7569078649751897,-0.6740631204160372,-0.33090774053410654
13.25,-0.9764173249270534,-0.7471320667211796,-0.2746802112089015
13.26,-0.753472425074752,-0.8746857752502709,-0.07007439959968477
13.27,-0.09590385012478529,-0.5818883918331258,0.07683107645487777
13.28,-0.044270115190791104,-0.5936276121144198,0.19445777820566865
13.29,-0.7399835776885184,-0.7715383788495579,0.3510783604479133
13.3,-0.9337478781206584,-0.7531632973799179,0.3233176032308953
13.31,-0.49396254267570355,-0.8706714178357066,0.06685108977275428
13.32,-0.2942382562013776,-0.7482929255828764,-0.09396875279709006
13.33,-0.6103485767200778,-0.7991578691649536,0.013777691263462318
13.34,-0.9784850485291655,-0.8305107586535877,0.17896873413921374
13.35,-0.8427428457415337,-0.738040694635019,0.12050321354109626
13.36,-0.6303266402957869,-0.8610822868417006,-0.013084552709441205
13.37,-0.6950118210438154,-0.8112564966598089,-0.007276170114442308
13.38,-0.8272393852505598,-0.7916922228552155,-0.0047772869866375325
13.39,-0.7547605878851195,-0.8144435649624013,-0.07483647080475395
13.4,-0.6066083891307403,-0.7654217814523205,-0.07116241932194813
13.41,-0.4045156989918674,-0.8588740043349328,-0.024255092427768906
13.42,-0.4221336826032289,-0.6919155893853569,-0.013482428942464028
13.43,-0.48733556143337975,-0.6285028554791275,0.04064625010496848
13.44,-0.6401758440222087,-0.7997279559385154,0.18715269005574467
13.45,-0.6154010486148649,-0.630269515728474,0.18721796121734505
13.46,-0.6987316391769683,-0.7400247094126884,0.08782224150077009
13.47,-0.8546478699398686,-0.8458627656448839,0.06789031596255612
13.48,-0.748315500138506,-0.7614335535966792,-0.012656290108592667
13.49,-0.6169784831057035,-0.896614477843259,-0.11476225125509966
13.5,-0.5162996889383786,-0.8854018982410752,-0.04186292647385183
13.51,-0.18682626006927264,-0.6771228473906555,0.11904589787087723
13.52,-0.08074222674285725,-0.5298785041360573,0.14689997348185507
13.53,-0.560365239646963,-0.7137112657562266,0.14311262096817348
13.54,-1.4143872497052805,-0.8745701967338736,0.23440927505584072
13.55,-1.6148167554815458,-0.7412236824803584,0.18823917531305884
13.56,-0.7118246732446233,-0.8455815724463331,-0.10076702188276934
13.57,0.02152454659982408,-0.8472750508946867,-0.23576531331589054
13.58,-0.020010406988430488,-0.6241425695161867,-0.03492657460410581
13.59,-0.8006515139491766,-0.7945022666877946,0.22483945897577862
13.6,-1.3692057723059017,-1.0027196547564068,0.26024076615736985
13.61,-1.0888760325212756,-0.8111494478936011,0.12534046231335558
13.62,-0.44502951627957715,-0.7970979214588186,0.0478268506050288
13.63,0.3482375135057989,-0.6554074378856194,0.012527462092743993
13.64,0.20690393500289578,-0.6594083512733675,-0.0530558160129872
13.65,-1.054468390244925,-0.9319544706748403,0.006542471293425421
13.66,-1.5830499667918714,-0.8234951579819714,0.13957873016279448
13.67,-0.6933386064967539,-0.8445855173884481,0.03549801369970544
13.68,-0.14081029275084148,-0.8055471726313964,-0.10968308619318722
13.69,-0.7761902228224971,-0.8469968231749099,0.05070226512519957
13.7,-1.0790439804760013,-0.9715339357973605,0.26132006083285764
13.71,-0.1432875060473743,-0.6063395856980083,0.02800813858735877
13.72,0.3144807153058291,-0.47463857839907087,-0.33906578842935853
13.73,-0.5064455741752524,-0.9788021480439626,-0.30996304879303743
13.74,-1.5061086097158067,-0.680116208790477,-0.09731336020284198
13.75,-1.1943148987480772,-0.7166038132039791,-0.1263994749261755
13.76,-0.12913962567924056,-0.862841257434885,-0.2178269863967182
13.77,-0.003113277540388032,-0.43598526624223555,-0.09216372408115328
13.78,-0.7990179926447022,-0.8467272922377028,0.1321176318555001
13.79,-1.35913764673292,-1.1536556357210965,0.25506898866210087
13.8,-1.1668005026666926,-0.6983002551414552,0.09902290669469735
13.81,-0.5636325395758708,-0.8889886505027236,-0.04852371860705515
13.82,0.07883789374106029,-0.9605940425011871,-0.005669052198948082
13.83,0.07552076698267657,-0.5552108032182085,-0.009431376444982053
13.84,-0.9780512919235924,-0.6773348764960632,-0.04842751954436488
13.85,-1.7469095601227662,-0.7643943398022356,0.0669614876439116
13.86,-0.9552845529032581,-0.8755962971203881,0.039955803768844785
13.87,0.10008702150572546,-0.8177231757533496,-0.115625266893664
13.88,-0.22058009223035235,-0.4666443050015311,0.05684645370767133
13.89,-1.4895339281100655,-1.0261918901538472,0.38869936929753723
13.9,-1.3765711684414739,-0.8655069829920358,0.3791419937059929
13.91,-0.5719428737476793,-0.5265756609152056,0.008290675820088031
13.92,-0.5082324503081829,-0.995113880484788,-0.0773696642218336
13.93,-0.7586955114177447,-0.7785316434669792,0.21988777001283705
13.94,-0.7314828571128006,-0.4801562624050397,0.34016108480262897
13.95,-0.3686115771083646,-0.6089330930040732,0.1725866151130945
13.96,-0.08555564376262896,-0.6424248252139413,0.12040422746556556
13.97,-0.31596970311235306,-0.4990736741629414,0.16919784814279198
13.98,-0.8002899460673043,-0.594847669982383,0.18194064891307804
13.99,-0.8300028069313017,-0.6519463121286811,0.29249035835384984
14.0,-0.6736499104698562,-0.4414952295959837,0.4219276063853035
14.01,-0.5461304027027543,-0.7224753169032366,0.4025488744053312
14.02,-0.44950177397822094,-0.5593122359989536,0.27452516482402073
14.03,-0.5578204485408551,-0.6551524831932881,0.1796270727948364
14.04,-1.0572338875387066,-0.8076283664686785,0.09156019509721251
14.05,-0.9618458705929808,-0.7555121592718713,0.06089332734138444
14.06,-0.6764721449324054,-0.6759469835228512,0.10106317061883856
14.07,-0.6006381987127553,-0.6713075911094524,0.21787553663522904
14.08,-0.6216398380622757,-0.7064257826960899,0.3265858174989452
14.09,-0.6664050077957526,-0.7919343778849085,0.33354520674250865
14.1,-0.5500738282955816,-0.5133071024948869,0.22091777682981079
14.11,-0.7005476259553169,-0.643682109850921,0.09956603347855476
14.12,-0.5532948252714205,-0.9045196469834441,0.1494529972936063
14.13,-0.5549190349873802,-0.43876204986984085,0.1795279743308178
14.14,-1.017491748735748,-0.8287670675529293,0.32704173109391343
14.15,-0.9854468938674344,-0.8956746124793135,0.4609737475917033
14.16,-0.73005614542555,-0.5150789428973228,0.3443613326337484
14.17,-0.5830082985864263,-0.848263955671842,0.1717412643593202
14.18,-0.4211521495336691,-0.7944124030582259,0.11702603997488913
14.19,-0.6855865129624167,-0.6115273845971476,0.0792360549935688
14.2,-0.7935777977875168,-0.6591158431521968,0.0655324993638111
14.21,-0.5932755182328042,-0.6018663204715553,0.10206342968877236
14.22,-0.7426512352316608,-0.9163707974979703,0.07492166185781328
14.23,-0.9570615141036498,-0.4965434893418596,0.053888674156272146
14.24,-0.6579180962177623,-0.4750827083322845,-0.023319664843859136
14.25,-0.45584156543794196,-1.1183464656953133,-0.1360950709000663
14.26,-0.2508638660400748,-0.5982141381064474,-0.08297948965879787
14.27,-0.7120025243370247,-0.5805326837111014,0.06553319900974049
14.28,-1.0316640329925564,-1.1717465003825656,0.24566094014207368
14.29,-0.5234937699531379,-1.0776392191398478,0.17325673150859985
14.3,-0.2425487365014376,-0.7743617464920264,-0.020051382178281372
14.31,-0.7338928288259657,-0.9291535497340686,0.01868235796998475
14.32,-1.0904815740915812,-1.0577883587619545,0.1391497632032605
14.33,-0.5813956516369376,-0.7592712491805622,0.09098651532334213
14.34,-0.12412044427491815,-0.5649952518537136,-0.024991108333534504
14.35,-0.3838088603454392,-0.9501327162393003,0.07860821660684357
14.36,-0.3722381837822453,-0.7410483520347757,0.11871807463512049
14.37,-0.6195137588064774,-0.46135212890128113,-0.03472448333574149
14.38,-1.0333401931720207,-0.9618042253117645,-0.053195163218458776
14.39,-0.4650484168253381,-0.8768881378788604,0.11370461457989826
14.4,-0.3004867482143386,-0.2766301160867383,0.1313131562382617
14.41,-1.2614568754826117,-0.9246131301494976,0.16470599968354888
14.42,-1.6593855812560456,-1.086351792747584,0.3218448617296766
14.43,-0.9137987502506069,-0.3806269252256011,0.15790698498935965
14.44,-0.13953792775734303,-0.8730111865491593,-0.26824572590789836
14.45,-0.21881911594792583,-0.8108192762173977,-0.363979235230327
14.46,-0.8653521511570937,-0.5504434453475832,-0.045104230109850256
14.47,-0.9332671086605188,-0.7758883041878295,0.03856325262526836
14.48,-0.5777743464224522,-0.8481457676532334,-0.06647461858925585
14.49,-0.8143286149958783,-0.7065259412311692,0.1601896266207624
14.5,-1.166904504907747,-0.7096289618327428,0.3492435054908258
14.51,-0.5542338094389867,-1.0649768184942183,0.14264606323470136
14.52,0.055345115228190425,-0.6886536818715258,-0.017116806348955838
14.53,-0.12020221252176201,-0.6661290436331424,0.08347012790199422
14.54,-0.6620046311570428,-0.9865778435538624,0.17789715815480683
14.55,-0.7796133513652849,-0.7575727063555951,0.147221120372515
14.56,-0.2373326662953531,-0.8210218812377009,-0.07971361677278277
14.57,-0.26035559249904067,-0.6392109986290874,-0.17445458403527803
14.58,-1.2281256357579486,-0.9404268933851877,0.07527688753097181
14.59,-1.502398739790639,-1.1159505003317167,0.18798399380424552
14.6,-0.4623279441534531,-0.5638419671651081,-0.008541154797379276
14.61,0.20561007957611696,-0.8048050988342281,-0.05258048025686185
14.62,-0.19765949379722558,-0.8978096136525849,0.1385324458393537
14.63,-0.7606737037406501,-0.6312894414385959,0.13503399166450003
14.64,-0.9326073037289866,-0.7190404492755473,0.03819332305447582
14.65,-0.6158472814359,-0.6824937439524081,-0.003126723626247351
14.66,-0.5426534477891467,-0.7063971596442464,-0.13740565643098082
14.67,-0.9573829886453805,-0.5911656779099013,-0.11762613576443567
14.68,-1.3106640972409176,-0.8203876700843441,0.09500523417282251
14.69,-1.0288074926540618,-0.9821802690575725,-0.04980074905059122
14.7,-0.2992235486224528,-0.7817887617178351,-0.22427472451153116
14.71,0.01994468915599266,-0.7118996703487209,-0.02518137167128162
14.72,-0.15637645813694068,-0.7465705209922986,0.12144076947083889
14.73,-0.36043421716294377,-0.6869944627313865,0.061559651916365886
14.74,-1.2833303104004452,-0.6912552749481311,0.26234791776615385
14.75,-1.4656075169726415,-1.070067658592632,0.3320977982255053
14.76,-0.5564951716697246,-0.6097310346839657,-0.06997708620797462
14.77,-0.4155519227159652,-0.9005762327220879,-0.3359817682309481
14.78,-0.6830869692154989,-1.1835077882409544,-0.20367628195153414
14.79,-0.7470255231439062,-0.4744910898454855,-0.05477746225995466
14.8,-0.567377960955083,-1.1533219675794788,-0.10834966297870016
14.81,-0.05672555310507789,-0.7343628936129875,-0.08728693608793686
14.82,-0.15534062075246852,-0.2325119076703285,0.09547649679506397
14.83,-0.8430583197887884,-0.9677721214252563,0.10744655391741838
14.84,-0.7896771080694506,-0.4268497200985733,-0.027044584172488874
14.85,-0.9005165390840648,-0.4231862300584289,-0.06675289020609138
14.86,-1.2700888533272332,-1.2351344326451825,-0.029215821815420682
14.87,-1.0142487240229465,-0.9806508058120214,-0.08918165214735944
14.88,-0.6721281762434552,-0.8014495819788298,-0.07859647179371217
14.89,-0.5664250704778137,-0.9789830784782299,0.13673632919857745
14.9,-0.25824927375092227,-0.7683041634191708,0.317307243566188
14.91,-0.09537519746070396,-0.3211632650858334,0.2696273062688952
14.92,-0.7308737932229219,-0.3549903721457984,0.272878969424776
14.93,-1.1960067704293897,-0.9184955539520947,0.29391098246109476
14.94,-0.7472903342858004,-0.7080528217342916,-0.05858414182727933
14.95,-0.42214944088612344,-0.4360735471918702,-0.3879381775520432
14.96,-0.41080662252615013,-1.0925319185242175,-0.22545209473732014
14.97,-0.2051685631922582,-0.4736925232520666,0.0462375948859875
14.98,-0.5045056005634486,-0.2695341107666743,0.22040130610018357
14.99,-1.224587806779513,-0.7117286078620947,0.45325618070493595
15.0,-1.3818263673485258,-0.7732993165404425,0.6479850704742337
15.01,-1.0088829426694186,-0.4730055221757802,0.4206778899240289
15.02,-0.5841454498116204,-0.6926434401468429,-0.05547023282548009
15.03,-0.40768692726703565,-1.1714140626788954,-0.288271802858179
15.04,-0.4841187703526861,-0.8281616468873271,-0.24007800232437546
15.05,-0.864184815213551,-0.5867506408132258,-0.1315312761227778
15.06,-1.1820223101745684,-1.2399020971253545,0.0434547563723872
15.07,-0.5165459645031997,-0.8216411597842915,0.2772536335317608
15.08,0.11029773160953772,-0.2799137091714459,0.349672333952773
15.09,-0.2192782887960779,-0.7432479150247787,0.2559400468089204
15.1,-0.6116504971114827,-0.730761014555544,0.1347946814081753
15.11,-0.6419395877673392,-0.7226222218865174,0.04589074473841055
15.12,-1.0221042441552768,-0.8011430314715028,-0.06377051495451014
15.13,-1.0158966645953227,-1.1638189006175659,-0.10701916262360585
15.14,-0.18093307581583465,-1.0924597451853042,-0.1133381908984073
15.15,0.09440686822420846,-0.4087994236407434,-0.09774229413818906
15.16,-1.0040367291220427,-0.8903726798053138,-0.04458254250739643
15.17,-1.5555279579035892,-1.042607235794916,0.1291366154069396
15.18,-0.5053532238012117,-0.3557496816956407,0.04875587919072436
15.19,0.48456057498072447,-0.5735670858298654,-0.22200008852218778
15.2,-0.15050724872678245,-0.7853110430644183,-0.16136921787021855
15.21,-1.7235617355276578,-0.8669537545555043,0.1423535461604401
15.22,-1.7340294646173386,-0.7628692543457886,0.06025684469261147
15.23,-0.606915036015316,-0.8341593480884011,-0.24064093400878941
15.24,0.1462255205425561,-0.7820570008093704,-0.30388561216722393
15.25,-0.13105127864135446,-0.4653410459942786,-0.10347607553089101
15.26,-1.27110515826896,-0.8536000236160235,0.19275688282842215
15.27,-1.1914420188440311,-1.2430665592255155,0.2953029511052627
15.28,-0.04835592407459246,-0.5947445915481214,0.12024437936230763
15.29,0.2000966393701367,-0.5919069354694508,-0.034340215477716755
15.3,-0.4523272988664456,-0.8644089832048745,-0.020551546956729737
15.31,-1.037664047917785,-0.5787119294051464,0.0809236989872275
15.32,-0.9271749196157835,-0.8043855392439492,0.07059431326495434
15.33,-0.7238172877821295,-0.8795699549544801,0.05951745932285777
15.34,-0.5212544665925537,-0.6453749102551466,0.13659841934227948
15.35,-0.45850791870579444,-0.7737980055258608,0.17743269381133456
15.36,-0.5877089104887566,-0.7022320857791201,0.0847445489373821
15.37,-0.9951400887302665,-0.6021268530270146,0.012193027935661934
15.38,-1.1930374531674393,-0.8250983116891277,0.1389312498127519
15.39,-0.23647182637478736,-0.6453759830484918,0.17575560024955894
15.4,0.5087091983798213,-0.34940725568447706,-0.0412730779269766
15.41,-0.5299639631954224,-0.7194733484569394,-0.01908256235545293
15.42,-1.9907023160434476,-0.9869243766734769,0.34794102966143836
15.43,-1.4639759313461236,-0.5972830791223493,0.35855384932520323
15.44,-0.03822941708485291,-0.7662624304614681,-0.025510833393474926
15.45,0.2982805363202753,-0.8141113072506272,0.007058735949147808
15.46,-0.9439319784294652,-0.6395498226927112,0.4513050531860622
15.47,-1.5674109630740425,-0.7866900645202679,0.4161120753825916
15.48,-0.44262441241645256,-0.8322001143050471,-0.17680811562261564
15.49,0.1510272656936605,-0.8863671373431001,-0.4316697470117043
15.5,-0.8862467835582781,-0.6373531108114111,-0.11898327365354096
15.51,-1.8820317352696223,-1.0439536504181162,0.27864854232119624
15.52,-1.0976935896018867,-0.9803880263241732,0.2514293835408793
15.53,0.34731670942011456,-0.7826847089928766,-0.05211441824686405
15.54,0.05545882328856496,-0.7690382333665651,0.0024517380634270928
15.55,-1.199802096182426,-1.051266626660091,0.1940823204266961
15.56,-1.1001924993064216,-0.9565568151645499,0.06530448789635855
15.57,-0.0031977208632649207,-0.41539346144414546,-0.06938536120081715
15.58,0.07991643610796453,-0.8141315658506649,0.10466374562591052
15.59,-0.6496318524904356,-0.9620070398750727,0.32766599768838417
15.6,-1.2641446551691768,-0.5130948243887337,0.215209011899345
15.61,-1.6203985228910762,-0.8008295335276996,-0.028690851140962714
15.62,-0.8765305680690255,-1.2064494072796779,-0.2252047022315697
15.63,0.06451685444070664,-0.46010750089923613,-0.3739860008149609
15.64,-0.19815214442957946,-0.40740013136536746,-0.24250423570716015
15.65,-1.1581504744243922,-1.2883071672036277,0.2512288577205682
15.66,-0.9860444152887704,-0.6067238458743821,0.535958824883539
15.67,0.025151946615681334,-0.45208319477070874,0.22394502202546315
15.68,0.3873526478476091,-0.9009245282957137,-0.12098493789201593
15.69,-0.07265555257240382,-0.4919862811726836,-0.17774057543231964
15.7,-1.2004842767730342,-0.48760767493450846,-0.1473043538544644
15.71,-1.7800620416734219,-1.1144496330166545,-0.1675536613608778
15.72,-1.0738484602607634,-0.8548371657061482,-0.1396695502008088
15.73,-0.09326205273173571,-0.7811586246934065,-0.08897771978835083
15.74,0.005711565848248262,-0.8543847534731364,0.0507917468242329
15.75,-0.469055683823522,-0.5816739911190423,0.19207958129460362
15.76,-1.0735934490362937,-0.717761734808331,0.24558700723671975
15.77,-1.090138285818507,-0.5751804223671723,0.22702612042267098
15.78,-0.5683881078634755,-1.0839264694311503,0.043113128501109356
15.79,-0.25944033266645833,-0.7510966747224265,-0.09014995906237167
15.8,-0.9462805046823236,-0.4760712277440834,0.09824075666240323
15.81,-1.223424280934744,-1.1684038810129118,0.28364473638538534
15.82,-0.7630730800085512,-0.5807177435423818,0.19043547715460912
15.83,-0.38596764751446594,-0.6073974824077533,0.007477632648942283
15.84,-0.7838637699934864,-0.8029999878928756,0.026690202291100286
15.85,-1.2177293385372858,-0.9153150514439893,0.19736171455426604
15.86,-0.9150550414372197,-0.5791208655988623,0.28104431162778337
15.87,-0.42800560616338695,-0.6690084812625284,0.1919275302078496
15.88,-0.020894268590770634,-1.1165579648948727,0.05385597334305543
15.89,-0.1872603935855559,-0.3400800351537328,0.0035131782260611915
15.9,-1.2035557496323717,-0.719533395959362,-0.012150786760831199
15.91,-1.3210104773066973,-1.033756449657327,0.009607436069567283
15.92,-0.5617634302930272,-0.7642892649804742,0.10737778751016873
15.93,-0.007850971457329558,-0.687048900842358,0.14994374954672066
15.94,-0.4243452774025796,-0.45748639400295005,0.18432589529639373
15.95,-1.0492318185363907,-0.8980967272106923,0.20644823335850077
15.96,-0.8171736606678573,-0.7856662055519169,0.009133140272287548
15.97,-0.4389898636763398,-0.5923134794640459,-0.2904843096855787
15.98,-0.5637165856562222,-1.1260770121874897,-0.20367738046503595
15.99,-0.5963887894365572,-0.9339810435325347,0.1578517345005404
16.0,-0.2916794988106058,-0.45810740559294544,0.18914500257828332
16.01,-0.253939561388404,-0.6791945742035683,0.07404446767856841
16.02,-0.5759309392573766,-0.7432172960523907,0.197464958401114
16.03,-0.9057591713317714,-0.7418254859284109,0.2062107196610766
16.04,-0.9544930057006044,-1.0384274510799658,0.016668485718633125
16.05,-1.0532829865580493,-0.8164605415744036,0.018308390956490315
16.06,-0.9526245721053453,-0.8001416027553214,0.09109545565936274
16.07,-0.9223300767770881,-1.033650906007718,0.03569917049327216
16.08,-0.3648288988476854,-0.5714465139993067,-0.05963762025008726
16.09,-0.04607716084284642,-0.5883590785839962,-0.07663761640739476
16.1,-0.25506985118813763,-0.6192656371205646,-0.032617163646491226
16.11,-0.5723310086279014,-0.5652909550043286,0.10371849167412346
16.12,-1.3120086140605531,-0.9716867683831626,0.37114551097340165
16.13,-1.4039687066658633,-0.5832495347397194,0.3467038609167633
16.14,-0.5204620193587443,-0.9140030863347188,-0.04944357028066228
16.15,0.3246426238478018,-0.549841019938082,-0.15505515809215925
16.16,-0.40536677615468747,-0.28881089958881107,0.1225346823247334
16.17,-1.4706439144423262,-1.1741314750641956,0.2875879126319903
16.18,-0.9389150182278468,-0.38322716773212945,0.2267568024290478
16.19,-0.11423842841415091,-0.5681464821832297,-0.0017728875201245343
16.2,-0.5541757910013371,-1.1300201259458174,-0.005596463101038186
16.21,-1.3080834967794803,-0.5104905214771146,0.11750289278846475
16.22,-1.082363101451568,-0.8593486012810176,0.04192383456608239
16.23,-0.06169243077865531,-0.9590798826813022,0.03192343874351491
16.24,0.2535923140672491,-0.5615420037578607,0.24071832966481385
16.25,-0.5372397540560144,-0.8561758095199284,0.38434195513254826
16.26,-0.838798544566547,-0.7950804948457088,0.36597500098991204
16.27,-0.45945785595141214,-0.4669394275389309,0.17147718117145277
16.28,-0.7039054672113683,-0.8123033280570371,0.029215650603847055
16.29,-1.0032646674382297,-0.8260340695388501,0.04448985711013608
16.3,-1.0462904238069013,-0.7291834981155538,0.04161665913996546
16.31,-0.8806663865057696,-0.9984582405618779,-0.005102878113553751
16.32,-0.3013019287311717,-1.1052958719794463,-0.06980148470877251
16.33,0.013403836953049853,-0.6342184761730734,-0.036538731328179704
16.34,-0.5639511448708374,-0.9609395757797569,0.1464718692562465
16.35,-0.6054375275392564,-1.0675563824836565,0.23347216203448068
16.36,-0.25744298904881663,-0.019150701727569153,0.15965114102864758
16.37,-0.48403435170890563,-0.7563179520066347,0.11774861050789709
16.38,-0.8267496942351454,-0.8301360714955248,0.09780818780322159
16.39,-1.3802089903628847,-0.5613077986349532,-0.06137071840229783
16.4,-1.6076073851212032,-1.2859947155199543,-0.2733653384337147
16.41,-0.9041303143302319,-0.784607227698549,-0.3370306443451818
16.42,-0.28711538569898964,-0.884511541094284,-0.21962797808615753
16.43,-0.11087024131515061,-0.8474849486618827,0.07463236605188478
16.44,-0.05665118817487915,-0.4613706848508333,0.3936259089744039
16.45,-0.30886285575725764,-0.6252520309427001,0.5019737274962928
16.46,-0.4487108503069536,-0.5177814900373917,0.3834536255908297
16.47,-0.44293369261994403,-0.568610501828124,0.11261456299570398
16.48,-0.8828629897587884,-0.7524190067384053,-0.052231427256708186
16.49,-1.2324030820198906,-0.7628135861943692,-0.03559885962995533
16.5,-1.00962696627592,-0.9234110406223045,9.534515942686668e-05
16.51,-0.27580130585652834,-0.7087682341056047,0.10776566349049627
16.52,-0.4514394590293809,-0.49202320382646614,0.2630328756061283
16.53,-0.8842566995059926,-0.9650380751666107,0.3764805513269808
16.54,-0.626970997185207,-0.4893605557585807,0.272958420990772
16.55,-0.31996789291338984,-0.5694741306512395,0.011550092574800741
16.56,-0.28368181098550144,-0.9374469900958867,-0.1479670524782825
16.57,-0.8487427384041994,-0.5778600595600328,0.06762946550403748
16.58,-1.4572632014858207,-0.8954581781024643,0.2917008111658596
16.59,-1.2448723312699157,-0.8758489089764643,0.18345408772750182
16.6,-0.6196525129218843,-0.7509169922769726,0.05142651394027119
16.61,-0.32824623908570905,-1.0073709184125947,0.022379331530968573
16.62,-0.06259788064937331,-0.5273451206256837,-0.006654208993924725
16.63,-0.4827466766791328,-0.4227303025404588,0.040564326259648044
16.64,-1.1898950558518484,-0.9176324721727073,0.20655311344425392
16.65,-1.0449990520055634,-0.5467664786423075,0.2776263740104349
16.66,-0.5839335831934409,-0.9043529852968871,0.1191635864302215
16.67,-0.5337451383600547,-0.8587767108391888,-0.06001457903030609
16.68,-0.8568612704072366,-0.8658706625899589,-0.18087229772376062
16.69,-0.9063137930471746,-0.7815921644695174,-0.10330980262089598
16.7,-0.32869043626283384,-0.7118489493871656,0.07968288378300784
16.71,0.08037812878437384,-0.7010469195518584,0.11149221988509901
16.72,-0.3169526511484603,-0.3405056078033609,0.25930882227098423
16.73,-1.040280118564605,-0.8393590330480534,0.3735936111854625
16.74,-1.0417436544192065,-0.6437765915039033,0.14222664504116728
16.75,-0.5329904364539712,-0.7247209619074697,-0.3091787310065412
16.76,-0.579427447729381,-0.9384897008843237,-0.4526825789792364
16.77,-0.7995650906661572,-0.673272949004163,-0.21617658449995455
16.78,-0.782273149612657,-0.9804089359943357,-0.10221801399960807
16.79,-0.34702975845212536,-0.940751795374447,-0.028908830966324853
16.8,-0.4229734598576988,-0.6897527319345195,0.15970135051944878
16.81,-1.2070113467775054,-1.0102051195743609,0.3876112698808693
16.82,-0.6448796401928737,-0.7546550179949656,0.20943395293825234
16.83,0.2929367511234248,-0.643057162486337,-0.14900129764410727
16.84,0.05298380442407105,-0.8302010127875317,-0.22071707575438848
16.85,-1.4319453382021021,-1.0487091723471207,-0.017656351640713108
16.86,-2.32548182817156,-0.9592358393666612,0.06540731519883365
16.87,-0.7824363860395862,-0.8358370857243546,-0.2650111173147425
16.88,0.8236125165512156,-0.8089090108358926,-0.45490730230478343
16.89,-0.025733713476626854,-0.25326711641370286,-0.3101236356662889
16.9,-1.7846320525390416,-1.104995033093707,0.09945788189537957
16.91,-1.256719884076695,-0.7508172606825976,0.3469309468555095
16.92,0.08721564863584598,-0.3456895693355498,0.15304113946961917
16.93,0.44660565302279887,-0.9332687334324028,0.07086941728907845
16.94,0.03406915950303183,-0.3551124769946746,0.2606858879585568
16.95,-1.5147524030270636,-0.33175658285072024,0.16165816215161202
16.96,-2.5082077882198894,-1.3648525619734246,-0.0005594085431534279
16.97,-1.0013908150469337,-0.8635979447041696,-0.05994193325317091
16.98,0.2826255409191326,-0.44223191539175355,-0.161059250047901
16.99,-0.2221052025547079,-0.6431293647830437,-0.06490027804333613
17.0,-1.7242155487662254,-1.060748233610954,0.42114992590177297
17.01,-1.5027048615289011,-0.7577667262420196,0.5566560220783725
17.02,0.10624176791745105,-0.4420556137243282,0.08989295357471136
17.03,0.47025783799834253,-0.8999106696061342,-0.17424583942917765
17.04,-0.07362531301087162,-0.6117499415220893,0.12145268883000726
17.05,-0.6499567300476483,-0.3034009814886656,0.3662667536919212
17.06,-1.3403820606653143,-1.1255052669778673,0.27230265738326986
17.07,-1.6765125234119893,-1.3104982179701694,0.2766547896740537
17.08,-0.7183712677306509,-0.5409825220456511,0.22434901240657157
17.09,0.38748679435404954,-0.6550663283736743,-0.06012778481937151
17.1,0.0988189351382096,-0.7621789438070629,-0.1543864206365336
17.11,-1.2474645995199796,-0.8646464993624581,0.09907853419321447
17.12,-1.7139750706986145,-1.0785058248577755,0.28017898844730044
17.13,-0.5275793805933884,-0.7640665179428118,0.18102639863329706
17.14,0.4993004335750723,-0.5932776872501819,-0.04560369864697475
17.15,-0.46605802397731605,-0.5889882648133821,0.0099456292100978
17.16,-1.6049664385366023,-1.1841596849780012,0.2324855074604125
17.17,-0.8050786785432114,-0.9013208266504226,0.05840994859468978
17.18,-0.04863356369745502,-0.5102091848096592,-0.22742811737826435
17.19,-0.6950946022856312,-0.833786457293594,-0.11573180011730004
17.2,-1.4403157266804996,-0.6776114697332499,0.34167866896016136
17.21,-0.5336826714459152,-0.7099251730007886,0.28308046125907
17.22,0.6036479861238483,-0.8844787242801161,-0.3322319208189471
17.23,-0.37233316363911123,-0.5138996497488906,-0.34838478216065716
17.24,-1.8479194683052422,-0.8390676373305914,0.14425481933951723
17.25,-1.0212232825676224,-0.9831123143313562,0.13645839187964143
17.26,0.8829450958389319,-0.5124556393622015,-0.2517090965746945
17.27,0.5620474075795193,-0.7230675055835912,-0.11711943614636355
17.28,-1.8222168427977559,-0.6545105040108913,0.347487106159211
17.29,-2.8266911099541567,-0.8770970071615407,0.2526646654264388
17.3,-0.17890601593765124,-0.9718139790068812,-0.30748633686133203
17.31,1.219354264224701,-0.04219628684961462,-0.4245854128565349
17.32,-0.3853725580124413,-0.7458816410902983,-0.30515568594477177
17.33,-2.188595595666431,-1.6583531036586223,-0.03366683772096868
17.34,-1.2342367628639301,-0.5444267969072242,0.09854371399472019
17.35,0.3010837487091591,-0.4916455755481303,0.028187635659188578
17.36,0.31001551614012457,-1.0645583467167399,0.1097009103639313
17.37,-0.634891872049807,-0.320379909293208,0.2984710559167015
17.38,-1.5264654256690258,-0.6317683313397753,0.2898555395642784
17.39,-1.0659013356074447,-1.1316132262757923,-0.035739060818175857
17.4,-0.29998391695153476,-0.6737214014492565,-0.3708768425149939
17.41,-0.24342407545634073,-0.8012275114314766,-0.2689637770661237
17.42,-0.3210151423548446,-0.8359360350665801,-0.00834132747014368
17.43,-0.36574716215732317,-0.36351596756965227,-0.0136042347591781
17.44,-0.7206489633064995,-0.727303407097646,0.0009536951902781541
17.45,-1.0121294576315307,-0.7368781567260755,0.22328324178730408
17.46,-1.3249462866471713,-0.863895491554712,0.1918369223882402
17.47,-1.0787779017219028,-0.9669874337358855,0.025467804242089283
17.48,-0.6374514961731919,-0.6312992743145798,0.08349260474876304
17.49,-0.6227999041039894,-1.0353824942753342,0.15085828138891832
17.5,-0.3060867763170015,-0.7280877549728338,0.060008428603382326
17.51,-0.5041979308331126,-0.5486896239805364,0.056633049281127494
17.52,-0.8152784709806803,-0.7627328528114725,0.21433980216525703
17.53,-0.8489785136270255,-0.5548207261702663,0.2685782233480934
17.54,-0.8459289204871673,-0.7344886164005672,0.23093583832175762
17.55,-0.823110991584719,-0.9450379961142992,0.1976468472222498
17.56,-0.5177036653032228,-0.8304776212330055,0.077057799510285
17.57,-0.37079747191739465,-0.7127133535439177,-0.14881633545607625
17.58,-0.4748763290707552,-0.6206817224375935,-0.1438430981831064
17.59,-0.8900377585976551,-0.6620182371437711,0.15367461722089654
17.6,-0.9475774215211896,-0.8557725324513018,0.3656226764415718
17.61,-0.4578150163433747,-0.35248544576330204,0.2261610457923435
17.62,-0.35471512923274745,-0.8070401759591997,0.032551852478414287
17.63,-1.0251635282951514,-1.0358838957454093,0.14376825500615503
17.64,-1.1342735185221149,-0.7886174130326361,0.22663940899353646
17.65,-0.20790053689460733,-0.8389046249305414,-0.03545436838164015
17.66,0.3839588016185646,-0.4736264728115616,-0.09841622126537551
17.67,-0.048895523856097085,-0.5762429343251977,0.13670638976582286
17.68,-1.6031103926242922,-0.6744562573607149,0.2506073733104831
17.69,-2.589181803164096,-0.7427606485034444,0.2241867849260687
17.7,-1.3482242157061837,-1.1233580240589414,0.005866591763138686
17.71,0.4100433159502112,-0.9111409434386291,-0.17708243648108424
17.72,0.7754167544887782,-0.4329143777175238,-0.18956765146572654
17.73,-0.6338024389603557,-1.0949256248966872,0.09148614989042236
17.74,-1.162366638518993,-1.1342404744002923,0.30739324282444813
17.75,-0.38209784227198706,-0.20697976211728109,0.12755192940104715
17.76,-0.4048603580454644,-0.9187544784858351,0.003918433995474751
17.77,-0.8971209332111898,-0.6705531214306253,0.05947521485091408
17.78,-0.9556022334856811,-0.2373560541966278,0.03278315923134142
17.79,-0.6684109853797181,-0.7846533082350068,-0.04193812699142943
17.8,-0.9335422529381531,-1.1902123905647024,-0.0035646122920607007
17.81,-0.9225553140200496,-0.8880172734712015,0.07466262845714175
17.82,-0.3453824529837297,-0.5160430576450451,0.0033879987512435996
17.83,-0.05569746745030269,-0.967503185279208,0.06785379300059678
17.84,-0.04952533491579551,-0.7043061568583223,0.24426577532459348
17.85,-0.7874832140273653,-0.004691806456300486,0.37662792660107536
17.86,-1.2882969042839165,-1.0170394757677572,0.37289369629031544
17.87,-0.4051024429682133,-0.8030236933597945,0.030136941861700968
17.88,-0.5816287791693953,-0.3081073194856485,-0.2256427903278546
17.89,-1.3358636832736979,-1.3024819174646833,-0.20631029430155454
17.9,-1.1178820852221403,-1.0644786886436477,-0.17131193223214505
17.91,-0.5622978667963106,-0.4439561133328804,-0.16055983246588104
17.92,-0.5283441223241295,-0.8726508327291793,0.10920214757274223
17.93,-0.3515876085079588,-0.9437569940310294,0.48219859010354965
17.94,0.033710033267135196,-0.4773415235252338,0.4041875373054306
17.95,-0.23240850003046606,-0.8376858533702769,0.14831491456312565
17.96,-0.45586008957429797,-0.9779520517742651,0.08934303135520104
17.97,-0.6052072937655223,-0.7994675881373338,-0.030435902452181918
17.98,-1.1084535338988781,-0.5001910999782336,-0.15435110250356807
17.99,-1.4583546251874173,-0.7605465454829785,0.0026084928790221455
18.0,-0.6622604308613725,-1.1863517920586106,0.14723882455014287
18.01,-0.20909383228471906,-0.3961692319522877,0.05315750111633126
18.02,-0.957777391179564,-0.7291335342014545,0.14574312438630696
18.03,-1.176160136586593,-1.400579601240628,0.3042548788881714
18.04,-0.30516767081328766,-0.5045894120979401,0.13209490004347058
18.05,0.11070876465739467,-0.4822776841959642,-0.09459649767794685
18.06,-0.03711559972999809,-0.894951668645797,0.037112819474864604
18.07,-0.5946253098947151,-0.656807986350711,0.2442577156578466
18.08,-1.3606486420090222,-0.4846553185111267,0.2600171331580655
18.09,-1.6388114902175719,-0.7558451040157368,0.23448370102637503
18.1,-0.6395548830629105,-0.9826942508147726,0.05532265254627613
18.11,0.3190459604969763,-0.4525955322826304,-0.11722253926682831
18.12,-0.1506378408664499,-0.4183716010417956,-0.005293144765647407
18.13,-0.7293233549997159,-1.2600727500600768,0.1971114120893146
18.14,-0.5378366192865872,-0.2695640935789219,0.3087073102806431
18.15,-1.00227599553426,-0.6463508200582253,0.24003194210453754
18.16,-1.1798486122517449,-1.4099582405977378,0.19065106518454417
18.17,-0.35321936779183355,-0.22835617391600363,0.08819555327086998
18.18,-0.5219513532132879,-0.4918768894279738,0.024181258892387727
18.19,-1.2654107496192224,-1.3742934572341678,0.25354376504585185
18.2,-1.0520299076297925,-0.7142429570336638,0.34388407270058674
18.21,-0.18428582545231903,-0.5359566816789434,0.09593422175527574
18.22,0.053829370543022406,-0.7082870096486594,-0.12332073365987282
18.23,-0.45851907866376207,-0.7150195900710409,-0.1536804870180952
18.24,-1.1352446235744609,-0.49033824710884677,0.03915293228288029
18.25,-1.438379938413061,-0.7952787260205788,0.206115426314839
18.26,-0.8710462596563977,-1.1375901910960728,0.0889972409616399
18.27,-0.5099723462553866,-0.56021642396063,0.016308202812508145
18.28,-0.7879327513351315,-0.9377361897279346,0.13728958750522452
18.29,-0.6260188454783292,-1.1849900041215728,0.13395062763989946
