time,seconds_elapsed,z,y,x
1789222573017678800,0.049678955078125,-6.121237147438526,-7.646307364600896,0.4845843555759638
1789222573027672800,0.0596728515625,-6.112355337324738,-7.651247743612528,0.5175852558912709
1789222573037667800,0.069667724609375,-6.114045190107822,-7.650743301221728,0.5049426684718579
1789222573047661800,0.079661865234375,-6.136583769652247,-7.634874116438627,0.47056569403037424
1789222573057655800,0.08965576171875,-6.185156954163313,-7.596308531200886,0.4586047687321901
1789222573067650800,0.09965087890625,-6.2282005615979426,-7.561503175279498,0.4511870398215949
1789222573077644800,0.109644775390625,-6.234540286013484,-7.556044909873604,0.4550593512102961
1789222573087638500,0.119638427734375,-6.225989315289259,-7.561599621391296,0.4792273585874587
1789222573097633800,0.1296337890625,-6.205218329939246,-7.577233243852853,0.5011819276988506
1789222573107627500,0.13962744140625,-6.168696233227848,-7.60609167406857,0.5147161301957444
1789222573117621800,0.149621826171875,-6.135675422635674,-7.630957819777727,0.5406911504622548
1789222573127615700,0.15961572265625,-6.129880472621322,-7.633997333604097,0.5630537523852661
1789222573137610800,0.16961083984375,-6.1370578169047825,-7.628580569252371,0.5582616227379068
1789222573147604700,0.179604736328125,-6.136741590562463,-7.629569580289721,0.5481339772814885
1789222573157598700,0.1895986328125,-6.155543321666121,-7.615255808255076,0.5362325270855799
1789222573167593700,0.19959375,-6.187074770483374,-7.591033805668354,0.5164102207625284
1789222573177587700,0.209587646484375,-6.196337688869238,-7.58240450901091,0.5318936210984364
1789222573187581700,0.219581787109375,-6.186605983927846,-7.586071214824915,0.5897579637091607
1789222573197576700,0.22957666015625,-6.170654966080188,-7.5989447249233715,0.5911397369237616
1789222573207570700,0.23957080078125,-6.142997143825888,-7.626987162581086,0.5128721462968736
1789222573217565000,0.24956494140625,-6.127765087902546,-7.642313911050557,0.4646736768497154
1789222573227559700,0.2595595703125,-6.1208139535903925,-7.647911292666197,0.46418001158125693
1789222573237554000,0.269553955078125,-6.104921387931705,-7.658531470879912,0.49721364512238647
1789222573247547600,0.279547607421875,-6.094957627800107,-7.6592323126256465,0.598363075773418
1789222573257541600,0.289541748046875,-6.097093470785022,-7.647071334710716,0.7198155454691499
1789222573267536600,0.29953662109375,-6.118501000472903,-7.629592376643418,0.7236350306920707
1789222573277530600,0.309530517578125,-6.153496910530328,-7.613858216416835,0.5779509868636727
1789222573287524600,0.319524658203125,-6.202174724459648,-7.584928474530577,0.4150609201578423
1789222573297519600,0.32951953125,-6.246807646912336,-7.551568056720495,0.3487032918268814
1789222573307513600,0.339513671875,-6.239335703596472,-7.555017320391535,0.4034687916394323
1789222573317507800,0.3495078125,-6.1946355611264705,-7.583458986499905,0.5366789556788281
1789222573327502800,0.3595029296875,-6.151040749549866,-7.611164739549159,0.6365993559915571
1789222573337496800,0.369496826171875,-6.122908880043029,-7.635173976168036,0.6200778447795658
1789222573347490800,0.37949072265625,-6.143520875439047,-7.6218714270025485,0.5784550639282912
1789222573357485800,0.38948583984375,-6.161120245015621,-7.607998384472728,0.5738788055213168
1789222573367479800,0.399479736328125,-6.149427469134331,-7.616950921735167,0.5804939493447542
1789222573377473800,0.409473876953125,-6.157464645117521,-7.608640774029493,0.6038194049505516
1789222573387468000,0.419468017578125,-6.18432284142673,-7.584143461632729,0.6366369115229695
1789222573397463000,0.429463134765625,-6.208906663063168,-7.565662633046507,0.6169430538851768
1789222573407457000,0.43945703125,-6.231065303379297,-7.5523296887427565,0.5536473704081029
1789222573417451300,0.449451171875,-6.242197522768378,-7.5469953419774765,0.4982166481524706
1789222573427446000,0.459446044921875,-6.24525223416388,-7.543765274015069,0.5087443257771432
1789222573437440300,0.469440185546875,-6.239091957968473,-7.542663450253009,0.5935951672518626
1789222573447434200,0.479434326171875,-6.235996330040693,-7.535046545508504,0.7112042228598148
1789222573457429200,0.48942919921875,-6.233064952763915,-7.530242360097169,0.784052601449564
1789222573467423200,0.49942333984375,-6.212009305253624,-7.5491931442826985,0.7687695459913462
1789222573477417200,0.509417236328125,-6.196439395678043,-7.567905443537235,0.7080535037439316
1789222573487411200,0.5194111328125,-6.202699625116586,-7.568498733255267,0.6439838402196765
1789222573497406200,0.52940625,-6.20854835114479,-7.56618051944077,0.6141745390199125
1789222573507400000,0.53939990234375,-6.207857446271181,-7.561112714657187,0.6800478179000318
1789222573517394200,0.549394287109375,-6.228198808032274,-7.527838806086778,0.8435444356642663
1789222573527389000,0.559388916015625,-6.241310218539834,-7.502863939306139,0.9609650194954127
1789222573537383200,0.569383056640625,-6.22421529135406,-7.516578576403856,0.9646643124047666
1789222573547377200,0.579377197265625,-6.223839443778991,-7.525901116022467,0.8916440843794494
1789222573557372200,0.5893720703125,-6.236948516198992,-7.527195832008123,0.7824258770305663
1789222573567366100,0.5993662109375,-6.23434154857099,-7.535372124201059,0.7221786213386804
1789222573577360100,0.609360107421875,-6.244641408789158,-7.520075770869851,0.7894878513060509
1789222573587355100,0.619355224609375,-6.266833366852999,-7.486865575185417,0.9187107358075678
1789222573597349000,0.62934912109375,-6.258713188761472,-7.484187295886874,0.9928911667186766
1789222573607343000,0.639343017578125,-6.241137784582376,-7.4929294052690265,1.036627578723058
1789222573617337300,0.64933740234375,-6.244479496225714,-7.485071677505969,1.0726444293260573
1789222573627332000,0.65933203125,-6.226970143020153,-7.5039675166338675,1.0419690858814865
1789222573637326300,0.669326416015625,-6.19526918285489,-7.535522346326708,1.0024630049232393
1789222573647320000,0.679320068359375,-6.183882696443796,-7.542105816370248,1.0230440206591038
1789222573657315300,0.6893154296875,-6.187732942131161,-7.533757090219855,1.0605858158070594
1789222573667309000,0.69930908203125,-6.1944701414316885,-7.5256526942193505,1.0786477613940835
1789222573677303000,0.709302978515625,-6.212037362304329,-7.508036958029866,1.1001652542624623
1789222573687298000,0.719298095703125,-6.238638368982076,-7.485452201256155,1.1035334155213088
1789222573697292000,0.7292919921875,-6.248261937373877,-7.480209624427556,1.084471060720086
1789222573707286000,0.7392861328125,-6.239296540629863,-7.487299874949455,1.087152481823787
1789222573717281000,0.749281005859375,-6.234722072321176,-7.490437003931403,1.0917803608201444
1789222573727275000,0.75927490234375,-6.2245870472759,-7.503014745953679,1.0628615787193179
1789222573737269200,0.769269287109375,-6.209683492654562,-7.513983883735537,1.0725043632682412
1789222573747263200,0.77926318359375,-6.192454709956049,-7.518370135995745,1.1392999446250498
1789222573757258200,0.78925830078125,-6.155169812178611,-7.539877618926763,1.1977111439961938
1789222573767252200,0.799252197265625,-6.135213065820932,-7.5467480892181396,1.255445467019081
1789222573777246200,0.80924609375,-6.167007549488544,-7.509701091849803,1.320150286641717
1789222573787241200,0.8192412109375,-6.20457710942626,-7.476207403048872,1.3341405258104204
1789222573797235200,0.829235107421875,-6.228645382755994,-7.463801510462164,1.290746205241978
1789222573807229000,0.83922900390625,-6.256929812476039,-7.451511937731504,1.2231822698611765
1789222573817224200,0.84922412109375,-6.269907951992749,-7.449475463467836,1.1678805077474563
1789222573827218200,0.85921826171875,-6.260010827356576,-7.4586360905230045,1.162493992403522
1789222573837212200,0.869212158203125,-6.2213470424413675,-7.4865674690216775,1.1901813330132514
1789222573847206100,0.8792060546875,-6.18907792699933,-7.50556735304594,1.2377983127780259
1789222573857201200,0.889201171875,-6.202952138572931,-7.474056947016716,1.3536049586065113
1789222573867195100,0.899195068359375,-6.22828181014061,-7.4210127545714375,1.519035174781829
1789222573877189000,0.909189208984375,-6.257493876099586,-7.37365537559092,1.6258403296396136
1789222573887184100,0.91918408203125,-6.282444777482747,-7.3497723957002155,1.6377219060912727
1789222573897178000,0.92917822265625,-6.256762054693699,-7.386941558143496,1.567292425211519
1789222573907172000,0.939172119140625,-6.219508721098303,-7.433664730873703,1.4928922871351242
1789222573917167000,0.9491669921875,-6.216424783608317,-7.445609435689449,1.4454616967879235
1789222573927161300,0.959161376953125,-6.2380760589241975,-7.428397019603848,1.4407324763089417
1789222573937155300,0.9691552734375,-6.267056069692969,-7.392128605392575,1.5002778673417865
1789222573947150300,0.979150390625,-6.29178485275805,-7.355612938421964,1.574417600916326
1789222573957144300,0.989144287109375,-6.305447467407584,-7.337041508942842,1.6060941572926937
1789222573967138000,0.999137939453125,-6.300427593418956,-7.34333096447587,1.597026907609403
1789222573977132000,1.009132080078125,-6.273952258947491,-7.367917708721756,1.5879823081493376
1789222573987127000,1.019126953125,-6.246060627937316,-7.391122643220424,1.5900978389985858
1789222573997121000,1.02912109375,-6.226235399004817,-7.405795311695337,1.5995545263908804
1789222574007115000,1.039114990234375,-6.214917886176705,-7.405900525635481,1.642505048714578
1789222574017110000,1.049110107421875,-6.227043792778253,-7.3824483383774755,1.7011052678517997
1789222574027104300,1.059104248046875,-6.2534156668752425,-7.3546227583408355,1.7247291584149003
1789222574037098200,1.06909814453125,-6.288068462583422,-7.329531571704149,1.705442420273274
1789222574047093200,1.07909326171875,-6.306390301215648,-7.321288644015788,1.6728873274967073
1789222574057087200,1.089087158203125,-6.300495982480049,-7.331435359498858,1.6505150444298982
1789222574067081200,1.099081298828125,-6.296515388411283,-7.337722476944327,1.6377163531333208
1789222574077076200,1.109076171875,-6.287340732830763,-7.346010997340083,1.6358064278587698
1789222574087070200,1.1190703125,-6.264031168913841,-7.361060097911953,1.6574365142561494
1789222574097064200,1.129064208984375,-6.248965117207169,-7.366558110806346,1.6895710435330866
1789222574107058200,1.13905810546875,-6.247419641330838,-7.366476862263679,1.6956297590501606
1789222574117053000,1.149052978515625,-6.240425836920738,-7.37591279912889,1.6802939504913985
1789222574127047200,1.159047119140625,-6.2251201312392945,-7.390946702131629,1.6709825167886911
1789222574137041200,1.169041259765625,-6.227359434598684,-7.390513571411371,1.6645422546081243
1789222574147036200,1.1790361328125,-6.229950035613775,-7.389710438334942,1.6584014137655496
1789222574157030100,1.189030029296875,-6.218073719859123,-7.392756966423988,1.6891102941535412
1789222574167024000,1.199024169921875,-6.227019827380776,-7.381822315433621,1.7039118497051298
1789222574177019100,1.20901904296875,-6.253284733971953,-7.378552499982714,1.6198070408247411
1789222574187013000,1.21901318359375,-6.2563026204884045,-7.400113174405694,1.50578260223791
1789222574197007000,1.229007080078125,-6.250210733354091,-7.406600782859325,1.4991706367522477
1789222574207001000,1.2390009765625,-6.247258313289285,-7.394708685013652,1.5685767659336327
1789222574216996000,1.24899609375,-6.228487561845779,-7.402418528738617,1.6064027848504483
1789222574226990300,1.258990234375,-6.217521346673369,-7.4162132453352205,1.5851165434546768
1789222574236984300,1.268984375,-6.231856746017932,-7.416001063889265,1.5288148105181754
1789222574246979300,1.278979248046875,-6.2400739547431465,-7.418903799593449,1.480450008060783
1789222574256973300,1.288973388671875,-6.2319952777057885,-7.427388134822249,1.4719130658619104
1789222574266967000,1.298967041015625,-6.220232359197736,-7.43048084014058,1.5056757808625698
1789222574276962000,1.308962158203125,-6.207289875516295,-7.433004221138358,1.5460855326622724
1789222574286956000,1.3189560546875,-6.211892400875687,-7.426813549804687,1.5573106910318135
1789222574296950000,1.328949951171875,-6.238922446620464,-7.4129621345847845,1.5146670427002011
1789222574306945000,1.338945068359375,-6.260398365369439,-7.407880301275849,1.4495152099624276
1789222574316939000,1.34893896484375,-6.273484641435742,-7.403191266676783,1.4165246483780443
1789222574326933200,1.358933349609375,-6.295200214159489,-7.38407973897159,1.419930657429248
1789222574336927200,1.36892724609375,-6.3060986247926945,-7.371770292496681,1.435445621947199
1789222574346922200,1.378922119140625,-6.2892982966393225,-7.3823770267069335,1.454518132816255
1789222574356916200,1.388916259765625,-6.253766964530945,-7.406801858389377,1.4832659422643482
1789222574366910200,1.39891015625,-6.220557937890291,-7.425424141272902,1.5290883667625486
1789222574376905200,1.4089052734375,-6.207852770096063,-7.428575298780203,1.5649983229249715
1789222574386898700,1.418898681640625,-6.220231190153956,-7.419951262819766,1.5567374211885034
1789222574396892700,1.428892578125,-6.243868670850992,-7.405943195733427,1.528557182495296
1789222574406887700,1.4388876953125,-6.264291281154751,-7.397207516092061,1.4867279192864895
1789222574416881700,1.448881591796875,-6.282061915645003,-7.392159585052728,1.4359874737389384
1789222574426875600,1.458875732421875,-6.294490020063519,-7.393079622507095,1.3755527326509356
1789222574436869600,1.46886962890625,-6.311429464426636,-7.381550512754917,1.3597590973220766
1789222574446864600,1.47886474609375,-6.318367739257216,-7.367624278733134,1.4023995307832955
1789222574456858600,1.488858642578125,-6.2896700525611635,-7.3808870804101225,1.4604577519983053
1789222574466852600,1.4988525390625,-6.248104116463661,-7.409557294577359,1.4933293633781373
1789222574476847600,1.50884765625,-6.222296305990219,-7.434947171899676,1.4747801457308232
1789222574486841600,1.518841552734375,-6.215497731891274,-7.452644156631827,1.4128281319476663
1789222574496835600,1.528835693359375,-6.2160419217705725,-7.465511236989498,1.3406539993576705
1789222574506830600,1.53883056640625,-6.232264157775044,-7.460329450437426,1.2933448434330521
1789222574516824800,1.548824951171875,-6.269069163081049,-7.430766671344638,1.285638799100369
1789222574526818800,1.55881884765625,-6.300227686932683,-7.409187292221188,1.257562313042581
1789222574536813800,1.568813720703125,-6.336064139467477,-7.389475460535287,1.1917707941617817
1789222574546807800,1.578807861328125,-6.361283336398005,-7.376503166237473,1.1365131634507328
1789222574556801500,1.588801513671875,-6.312248964115977,-7.416559282293916,1.149151330423355
1789222574566796500,1.598796630859375,-6.211137783116102,-7.4950763541698455,1.1899504468668252
1789222574576790500,1.60879052734375,-6.133961019933223,-7.558915496873855,1.1864664041433484
1789222574586784500,1.618784423828125,-6.078227442273497,-7.6100705145716665,1.1455902769409119
1789222574596778800,1.62877880859375,-6.065102003240585,-7.621274045631289,1.1406564007353037
1789222574606773500,1.6387734375,-6.132418466666341,-7.564005513489246,1.1617414935357868
1789222574616767700,1.648767822265625,-6.207302150475979,-7.50927789800167,1.1182718427088112
1789222574626761700,1.65876171875,-6.240381997779012,-7.498202377235889,1.002491646495834
1789222574636756700,1.6687568359375,-6.264691678649187,-7.493626155361532,0.8772646266974509
1789222574646750700,1.678750732421875,-6.289339213171601,-7.481044321686029,0.8053435190204531
1789222574656744700,1.68874462890625,-6.269880479463935,-7.498665903094411,0.7930952281482517
1789222574666739700,1.69873974609375,-6.221600140419602,-7.538475350913405,0.795909481851384
1789222574676733700,1.708733642578125,-6.177293965703249,-7.572816596454381,0.8147880775835364
1789222574686727700,1.718727783203125,-6.1158437639623875,-7.615445193347335,0.878541807026416
1789222574696722700,1.72872265625,-6.090383159491419,-7.626973134055733,0.9523065698087215
1789222574706716400,1.73871630859375,-6.140253398075699,-7.592544794753193,0.9060543025258928
1789222574716710700,1.748710693359375,-6.189971660968661,-7.57093618953526,0.7318328771296888
1789222574726704600,1.75870458984375,-6.204001939886808,-7.568271354240179,0.6340493792477995
1789222574736699600,1.76869970703125,-6.213439630317688,-7.555643343335389,0.6897881445392966
1789222574746693600,1.778693603515625,-6.208029295706749,-7.555622300547361,0.737101172921434
1789222574756687600,1.7886875,-6.189613933572173,-7.574917368125915,0.6925942149359733
1789222574766682600,1.7986826171875,-6.177303902575373,-7.590970677304267,0.6232709417324512
1789222574776676600,1.808676513671875,-6.174735513392091,-7.595766679409146,0.5893650188688189
1789222574786670600,1.818670654296875,-6.19331220356822,-7.581400300404429,0.5793296182731166
1789222574796665600,1.82866552734375,-6.231929811254143,-7.549860083758831,0.5771021880146116
1789222574806659600,1.83865966796875,-6.244948867303132,-7.538805605781078,0.5808624173309653
1789222574816653800,1.84865380859375,-6.203026372852921,-7.572194665163755,0.5955765868600458
1789222574826648800,1.85864892578125,-6.155277364206314,-7.610017323079704,0.6087496278943494
1789222574836642800,1.868642822265625,-6.118584002581239,-7.64124540503621,0.5870902423372492
1789222574846636500,1.878636474609375,-6.077659871518612,-7.673982137989998,0.5851799152038991
1789222574856630500,1.888630615234375,-6.077179394525289,-7.671822914129495,0.6175811325930058
1789222574866625500,1.89862548828125,-6.123346102416515,-7.635096234756707,0.6167036921713501
1789222574876619500,1.90861962890625,-6.16910422950685,-7.6027815266072745,0.5570034759029746
1789222574886613500,1.918613525390625,-6.233948749861121,-7.552878554797172,0.5121375849446281
1789222574896608500,1.9286083984375,-6.295401289689541,-7.5019310423702,0.5092629062911496
1789222574906602500,1.9386025390625,-6.295594766435027,-7.501821152254939,0.5084804872091859
1789222574916596700,1.9485966796875,-6.260919174373149,-7.530584305402636,0.5114422596242278
1789222574926591700,1.958591796875,-6.216206756943464,-7.565982366520166,0.5339137652818113
1789222574936585700,1.968585693359375,-6.1640083676725625,-7.6053078302145,0.5785167309876531
1789222574946579700,1.978579833984375,-6.1235389946401115,-7.633987981253862,0.6283989522706717
1789222574956574700,1.98857470703125,-6.126815824353694,-7.6280895708650345,0.6668995094481855
1789222574966568700,1.998568603515625,-6.153429690513015,-7.604688237011432,0.6887716609731316
1789222574976562700,2.008562744140625,-6.176448747050761,-7.585377971863746,0.69563321730569
1789222574986556700,2.018556640625,-6.227804255756736,-7.544435720622539,0.6828820914778858
1789222574996551700,2.0285517578125,-6.274653100693225,-7.511245983204245,0.6166776078820229
1789222575006545700,2.038545654296875,-6.278363061127067,-7.514187297353148,0.5380772781694307
1789222575016539600,2.04853955078125,-6.264418122404813,-7.5274711418181655,0.5144140054440125
1789222575026534700,2.05853466796875,-6.244519243714213,-7.541202145528793,0.5537553608272224
1789222575036528600,2.068528564453125,-6.215808697536588,-7.558575889655947,0.6340681570135056
1789222575046522600,2.078522705078125,-6.175732123214006,-7.584571916177868,0.7106211622748524
1789222575056517600,2.088517578125,-6.151080497038364,-7.600662050235271,0.7513472865473478
1789222575066511600,2.09851171875,-6.163898477557301,-7.591249494245648,0.7413961667016148
1789222575076505600,2.108505615234375,-6.172354755735397,-7.589058706203103,0.6918096404295414
1789222575086500600,2.11850048828125,-6.1781409379214045,-7.587711383247375,0.6539143556687981
1789222575096494600,2.12849462890625,-6.208813724082708,-7.562511475539207,0.6553217382486909
1789222575106488800,2.13848876953125,-6.229551391685009,-7.543585825794935,0.6763029322832822
1789222575116482800,2.14848291015625,-6.235249895587563,-7.536106283694505,0.7065009405396878
1789222575126477800,2.158477783203125,-6.241088100221753,-7.528454892158508,0.7359260647274554
1789222575136471800,2.168471923828125,-6.230989900055527,-7.536825830140709,0.7358028036739677
1789222575146465500,2.178465576171875,-6.214084357962012,-7.552834715655446,0.7142999969180673
1789222575156460800,2.188460693359375,-6.190764857172965,-7.570511826643347,0.729500853985548
1789222575166454500,2.19845458984375,-6.169840142565965,-7.582327936643361,0.7821483752634376
1789222575176448500,2.208448486328125,-6.15854776417911,-7.588586997038125,0.8099416604656726
1789222575186443500,2.218443603515625,-6.144681151390075,-7.601030299025774,0.7985072432596236
1789222575196437500,2.2284375,-6.149951785269379,-7.597635395890474,0.7902055711213499
1789222575206431700,2.238431640625,-6.178043907287717,-7.577460038346052,0.7643695574667304
1789222575216426500,2.248426513671875,-6.219429226121306,-7.548383581465482,0.7148309619896114
1789222575226420700,2.258420654296875,-6.257825300011039,-7.519635041365027,0.6819684837643056
1789222575236414700,2.268414794921875,-6.267592076265812,-7.507168943023681,0.7280753512270748
1789222575246409700,2.27840966796875,-6.244369606110453,-7.51729870737195,0.8175934903930873
1789222575256403700,2.28840380859375,-6.188477623018622,-7.5565598736584185,0.8783681309599429
1789222575266397700,2.298397705078125,-6.124634973183274,-7.605790060773492,0.9006557314179837
1789222575276391700,2.3083916015625,-6.10166560100615,-7.622534274825453,0.9148938078679144
1789222575286386700,2.31838671875,-6.121860832294821,-7.605225997149944,0.9239836347091942
1789222575296380700,2.328380615234375,-6.166943836602568,-7.571768548706173,0.8986225450899451
1789222575306374700,2.338374755859375,-6.2237435821890825,-7.530934434014559,0.8487791214473545
1789222575316369400,2.348369384765625,-6.273425604724884,-7.492859262642264,0.819498520296812
1789222575326363600,2.35836376953125,-6.3042801771938795,-7.465542801171541,0.8319276476286351
1789222575336357600,2.368357666015625,-6.297846929275989,-7.465775440883636,0.8773222021035849
1789222575346352600,2.3783525390625,-6.2483385097414255,-7.501477453383803,0.9254676627218723
1789222575356346600,2.3883466796875,-6.197929341974854,-7.541028542527556,0.9428400916747748
1789222575366340600,2.398340576171875,-6.162908297476172,-7.56963095215559,0.9432006686154752
1789222575376335600,2.408335693359375,-6.154851832270622,-7.572400416868924,0.9731111651673913
1789222575386329900,2.418329833984375,-6.179260881862044,-7.545971259626746,1.0224640288140625
1789222575396323800,2.42832373046875,-6.217651695054769,-7.512775676989555,1.034114207662642
1789222575406318800,2.43831884765625,-6.265624575585126,-7.477166603469848,1.0021588343448937
1789222575416312800,2.448312744140625,-6.310242884990573,-7.44454385228455,0.9643599956959485
1789222575426307000,2.45830712890625,-6.319877559298276,-7.438734289222955,0.9459139461621642
1789222575436301800,2.4683017578125,-6.2966901604563,-7.4573676780223845,0.9538003154978155
1789222575446296000,2.478296142578125,-6.266724061259627,-7.479628025147319,0.9765783298213034
1789222575456289800,2.488289794921875,-6.235995745518803,-7.498339739879965,1.0284162882819772
1789222575466283800,2.49828369140625,-6.213949917927384,-7.50221044383347,1.128734126947075
1789222575476278800,2.50827880859375,-6.214913210001588,-7.489535671177506,1.2050308924250304
1789222575486272800,2.518272705078125,-6.197940447890758,-7.507497444325685,1.1804299004580825
1789222575496266800,2.528266845703125,-6.179255621165037,-7.53447488310039,1.1040268981266765
1789222575506261800,2.53826171875,-6.216130184575915,-7.512273572686314,1.0468333309169857
1789222575516255700,2.548255859375,-6.2523027371972795,-7.482279416438937,1.046223382325098
1789222575526250000,2.55825,-6.245211902153492,-7.476461085548997,1.1270499001871794
1789222575536245000,2.568244873046875,-6.246973651129007,-7.454584184783696,1.2549423398025332
1789222575546239000,2.578239013671875,-6.281071151041984,-7.418367208498716,1.2985994029603898
1789222575556233000,2.58823291015625,-6.310759017819166,-7.408722012796997,1.2064587332710623
1789222575566228000,2.59822802734375,-6.336406084772944,-7.402075998911261,1.1088829598557204
1789222575576222000,2.608221923828125,-6.341458107465505,-7.401548760166764,1.0832239102032035
1789222575586216000,2.6182158203125,-6.295372063595056,-7.433571791893243,1.1316769754659384
1789222575596211000,2.6282109375,-6.228260182830691,-7.475294964379072,1.2243855081710964
1789222575606204700,2.63820458984375,-6.1801949478417635,-7.504780586582422,1.2860239990256725
1789222575616198700,2.64819873046875,-6.177686764413118,-7.507035672032833,1.2849135535657406
1789222575626193700,2.658193603515625,-6.218970376437902,-7.478596344012022,1.251150400173664
1789222575636188000,2.66818798828125,-6.253758781224489,-7.457404502901435,1.2033284724213182
1789222575646182000,2.678181884765625,-6.299627967473864,-7.4252633977532385,1.162121432764083
1789222575656175900,2.68817578125,-6.35396336877346,-7.378096572908759,1.1667127060770988
1789222575666171000,2.6981708984375,-6.335659650319815,-7.383942376327514,1.2276834537379442
1789222575676164900,2.708164794921875,-6.273160816308856,-7.428050398123264,1.281369012826681
1789222575686158800,2.718158935546875,-6.235947814723849,-7.465014393383264,1.2477576889954507
1789222575696153900,2.72815380859375,-6.20554566219747,-7.503507497906685,1.1657497062638402
1789222575706147800,2.73814794921875,-6.192610192778706,-7.517914793443679,1.141455003767088
1789222575716141800,2.748141845703125,-6.191113816741108,-7.514647316080332,1.170711566454917
1789222575726136800,2.75813671875,-6.18484540399611,-7.5139587492942805,1.2076808224119244
1789222575736131000,2.768131103515625,-6.196712951922416,-7.501668592041731,1.2231540666799992
1789222575746124800,2.778124755859375,-6.2152943182736635,-7.4896210113734005,1.2025283350195735
1789222575756120000,2.7881201171875,-6.229720903033018,-7.486001651832461,1.1492346247926353
1789222575766113800,2.79811376953125,-6.247115105426311,-7.48139678838551,1.082883718463406
1789222575776107800,2.808107666015625,-6.254401170781255,-7.478703311517834,1.0591755836829542
1789222575786102800,2.818102783203125,-6.2452785376489155,-7.4761495353817935,1.1287507127556948
1789222575796096800,2.8280966796875,-6.2380199448227875,-7.471051919981837,1.2003671383976935
1789222575806090800,2.8380908203125,-6.2348810622751705,-7.480509484156966,1.156985896506533
1789222575816085800,2.848085693359375,-6.230097335129976,-7.492928820747137,1.1010380185090005
1789222575826079700,2.858079833984375,-6.215143511626124,-7.5040464270889755,1.109803727962449
1789222575836074000,2.868073974609375,-6.1868485605120656,-7.526863239052891,1.1133796867530792
1789222575846068700,2.87806884765625,-6.171739838707446,-7.54441643140018,1.0778683745194226
1789222575856063000,2.88806298828125,-6.169867030572891,-7.5472104460328815,1.0689932864073663
1789222575866057000,2.898056884765625,-6.177279937177896,-7.535151759448647,1.1104415874745697
1789222575876052000,2.908052001953125,-6.203005330064892,-7.511064781418442,1.1300523699387908
1789222575886046000,2.9180458984375,-6.222721253404021,-7.499961203601956,1.094857064851746
1789222575896040000,2.9280400390625,-6.227265911096334,-7.4988114490449425,1.076741124055162
1789222575906033700,2.93803369140625,-6.225495394292474,-7.497022812062501,1.0992043733410537
1789222575916029000,2.94802880859375,-6.207053144150972,-7.51188837276101,1.1020059867583214
1789222575926022700,2.958022705078125,-6.151046594768762,-7.558621482363343,1.0964763366166501
1789222575936017000,2.968016845703125,-6.11084142563045,-7.589006683754921,1.1112917014978825
1789222575946012000,2.978011962890625,-6.128923610287904,-7.572554730647802,1.1238698088463395
1789222575956006000,2.988005859375,-6.155355105617642,-7.554045260488986,1.103807264026627
1789222575965999900,2.997999755859375,-6.210720434486865,-7.5110273720175025,1.08710016711466
1789222575975995000,3.007994873046875,-6.292568696612119,-7.4413149533659215,1.0958054516177624
1789222575985988900,3.01798876953125,-6.326616512164473,-7.4113652207821605,1.102713477440551
1789222575995982800,3.02798291015625,-6.297787892565131,-7.439160990202426,1.0803410482432692
1789222576005977900,3.037977783203125,-6.229649591362476,-7.501419001194834,1.0443036663088947
1789222576015971800,3.047971923828125,-6.1510565316408865,-7.564199574756622,1.057253748774901
1789222576025965800,3.0579658203125,-6.105371469786763,-7.591752767592668,1.122547181940451
1789222576035960800,3.0679609375,-6.101151221743225,-7.5849407494902605,1.1895425236530601
1789222576045954800,3.077954833984375,-6.124972826835513,-7.559359733510017,1.2292981954582034
1789222576055949000,3.087948974609375,-6.1807145878016945,-7.512763986551761,1.2359347108632326
1789222576065944000,3.097944091796875,-6.2360729024082415,-7.4731123596429825,1.197650499850139
1789222576075937800,3.107937744140625,-6.266001592203974,-7.455002702456713,1.1534899441495536
1789222576085931800,3.117931884765625,-6.264194250521063,-7.457961552262306,1.144142708481103
1789222576095926800,3.1279267578125,-6.223495160385966,-7.488957579028606,1.1636214620634913
1789222576105920800,3.137920654296875,-6.162348910027742,-7.532467050409316,1.207389145988971
1789222576115914800,3.147914794921875,-6.106395552137494,-7.569460856285691,1.2592020430736244
1789222576125909800,3.15790966796875,-6.0954065406113855,-7.570633407196402,1.3045748241081834
1789222576135903700,3.16790380859375,-6.113522043016553,-7.547610259005427,1.3523375690191983
1789222576145898000,3.17789794921875,-6.137130882140994,-7.518540231865644,1.4062600056037307
1789222576155892700,3.187892822265625,-6.164541451635956,-7.487472308906912,1.451401023709029
1789222576165887000,3.197886962890625,-6.193176594489812,-7.463920168405771,1.4508090491652488
1789222576175881000,3.207880859375,-6.216839209628104,-7.454066882911324,1.3993490571714937
1789222576185876000,3.2178759765625,-6.227633575364947,-7.455313668102026,1.34359692094177
1789222576195870000,3.227869873046875,-6.219118844997882,-7.461879017966985,1.3465911343216894
1789222576205864000,3.237864013671875,-6.201620013186335,-7.463056245052814,1.418831025624275
1789222576215857700,3.247857666015625,-6.182473998689651,-7.460387902626395,1.513278949342668
1789222576225853000,3.25785302734375,-6.155767193549871,-7.466863820642232,1.5883515798531471
1789222576235846700,3.2678466796875,-6.142586224937439,-7.466506677767634,1.6402143074288964
1789222576245841000,3.2778408203125,-6.14416911021471,-7.459801627171039,1.6646109359301626
1789222576255835600,3.287835693359375,-6.1541305322587485,-7.452453017973899,1.6607273724950848
1789222576265830000,3.297829833984375,-6.183105866852403,-7.427769243094325,1.663680523212254
1789222576275823900,3.307823974609375,-6.1941848947495215,-7.413755330789089,1.684842553706467
1789222576285819000,3.31781884765625,-6.183565885579585,-7.412766904273629,1.727653813689947
1789222576295812900,3.327812744140625,-6.202299227622151,-7.383709152093529,1.784015313989669
1789222576305806800,3.337806884765625,-6.21653175111413,-7.364462599831819,1.8137813605695963
1789222576315801900,3.3478017578125,-6.1949272375494235,-7.376429516479373,1.838899727474153
1789222576325795800,3.3577958984375,-6.200546246474981,-7.35923931222558,1.8881746305137872
1789222576335789800,3.367789794921875,-6.235986393168568,-7.315503046351671,1.9406874925613402
1789222576345784800,3.377784912109375,-6.260083892592787,-7.295339379245043,1.9390106453903018
1789222576355778800,3.38777880859375,-6.273192380490899,-7.28406044486165,1.9390487854436038
1789222576365773000,3.39777294921875,-6.27444091924727,-7.268819621109962,1.9914917971253394
1789222576375768000,3.40776806640625,-6.27227701921165,-7.254191960820555,2.0507639241747557
1789222576385761800,3.41776171875,-6.272045548543334,-7.250245853543281,2.0653741949379443
1789222576395755800,3.427755859375,-6.274899184408784,-7.246696052107215,2.069161312261224
1789222576405750800,3.437750732421875,-6.298774565514922,-7.218174306499957,2.0961356822960076
1789222576415744800,3.447744873046875,-6.333609147530794,-7.183557751148939,2.1100411657907068
1789222576425738800,3.45773876953125,-6.342303910639882,-7.167936988168955,2.136875542832911
1789222576435733800,3.467733642578125,-6.315116043984889,-7.1775950433522455,2.1844503639563917
1789222576445727700,3.477727783203125,-6.29909371446669,-7.187125672763585,2.1993251308746635
1789222576455721700,3.4877216796875,-6.305170988553762,-7.191217910513282,2.168314052669704
1789222576465716700,3.497716796875,-6.30105361636281,-7.192228548860549,2.1769136848412454
1789222576475710700,3.507710693359375,-6.290374985960126,-7.182113982081413,2.2402688434205946
1789222576485704700,3.51770458984375,-6.3037576146245,-7.163629646363854,2.261731756557524
1789222576495699700,3.52769970703125,-6.328205827182531,-7.154342178058624,2.222517498152703
1789222576505693700,3.537693603515625,-6.344345645600557,-7.151433597135544,2.1855545258060096
1789222576515687700,3.547687744140625,-6.350844944491982,-7.152675706151127,2.1624971830844877
1789222576525682700,3.5576826171875,-6.346572674000263,-7.162368248125911,2.1428661615498363
1789222576535676700,3.5676767578125,-6.333829512283206,-7.174152209421992,2.141150589803606
1789222576545670700,3.577670654296875,-6.3036319424182174,-7.189874094688892,2.1772287421397865
1789222576555665700,3.587665771484375,-6.275149944299459,-7.208498131138086,2.197826270619035
1789222576565659600,3.59765966796875,-6.258412159988284,-7.233271922388672,2.1638931674875317
1789222576575654000,3.60765380859375,-6.253167245072126,-7.248473583173752,2.1278927565626797
1789222576585649000,3.61764892578125,-6.273971548169851,-7.232235565078258,2.1218932238869366
1789222576595643000,3.627642822265625,-6.3203761564701795,-7.202534838819504,2.0848782290920616
1789222576605636900,3.637636962890625,-6.375395448380709,-7.171922258412837,2.0219411497943103
1789222576615632000,3.6476318359375,-6.416919883424043,-7.148599835014343,1.9725734539046882
1789222576625625900,3.6576259765625,-6.418339102572203,-7.159333410474658,1.9285367437794803
1789222576635619600,3.66761962890625,-6.366833371740579,-7.214153380420804,1.894676267492771
1789222576645614600,3.677614501953125,-6.2964002375990145,-7.27594903459847,1.8937514077328144
1789222576655608600,3.687608642578125,-6.2518479791671036,-7.309971715709566,1.910259182680398
1789222576665602600,3.6976025390625,-6.2283712419897315,-7.33154232700467,1.9042768934004008
1789222576675597600,3.70759765625,-6.232353589624166,-7.335072254696488,1.8774673585385082
1789222576685591800,3.717591796875,-6.28126462778747,-7.307659347113966,1.8205014626048504
1789222576695585800,3.727585693359375,-6.322027430808544,-7.2976114158302545,1.7167473658807575
1789222576705579800,3.737579833984375,-6.32831863990724,-7.31477648564279,1.6176554157488048
1789222576715574800,3.74757470703125,-6.331275736147165,-7.3234887844085685,1.5658379886195062
1789222576725568800,3.75756884765625,-6.315676600477099,-7.344045250225067,1.5321946622148155
1789222576735563800,3.767563720703125,-6.278871010649204,-7.379142867091297,1.5147311939775943
1789222576745557800,3.777557861328125,-6.250869489523768,-7.401899473300576,1.519506153294444
1789222576755551700,3.7875517578125,-6.228395207387209,-7.422111071202158,1.5131908326677976
1789222576765545700,3.797545654296875,-6.212310918548702,-7.443475930792093,1.4738529478833078
1789222576775540700,3.807540771484375,-6.224968155547976,-7.442241420561075,1.4259009640105067
1789222576785534700,3.81753466796875,-6.2499354235440485,-7.429496505278348,1.3824895461767912
1789222576795528700,3.82752880859375,-6.265326469421386,-7.42759154843986,1.3217210430897772
1789222576805523700,3.837523681640625,-6.287911226195097,-7.418859960451722,1.262168930055201
1789222576815517700,3.847517578125,-6.293994930022954,-7.420501297917961,1.2215425398301332
1789222576825511700,3.85751171875,-6.261549288970231,-7.447590964895486,1.2234228006187826
1789222576835506700,3.867506591796875,-6.246373347148299,-7.455265737307071,1.253883478399366
1789222576845500700,3.877500732421875,-6.256511879324913,-7.44646517573595,1.2556326601542531
1789222576855494700,3.88749462890625,-6.27001901115179,-7.441546424034238,1.2168098852850495
1789222576865489700,3.89748974609375,-6.304468393242359,-7.419630360302329,1.1718117827817798
1789222576875483600,3.907483642578125,-6.324653103137016,-7.410208451962471,1.1215876892585306
1789222576885478000,3.917477783203125,-6.328778658634424,-7.414688227725028,1.0673996605403722
1789222576895472600,3.92747265625,-6.313746509197354,-7.430744459512829,1.0445246155831962
1789222576905467000,3.937466796875,-6.2924664052814245,-7.4428329567134375,1.0860473701260984
1789222576915460900,3.9474609375,-6.2916030664503575,-7.435452198812365,1.1402502310872078
1789222576925456000,3.957455810546875,-6.280177417072653,-7.4445736629009245,1.143718126393482
1789222576935449900,3.967449951171875,-6.288466521990299,-7.439273218405246,1.1326026389434933
1789222576945443600,3.977443603515625,-6.316019130304455,-7.416164145496487,1.1308369444452226
1789222576955438800,3.98743896484375,-6.309547888463735,-7.4236004329770795,1.1181046694483607
1789222576965432600,3.9974326171875,-6.300234116673469,-7.433582897809147,1.1042153333708644
1789222576975426600,4.007426513671875,-6.279224061870575,-7.454854818418622,1.0802184447769074
1789222576985421600,4.017421630859375,-6.241408418217301,-7.489169760474562,1.0618570047866553
1789222576995415800,4.027415771484375,-6.222620715638995,-7.5009455384641885,1.0886606944296509
1789222577005409800,4.037409912109375,-6.204543207156658,-7.507444252833723,1.1455635350644588
1789222577015404800,4.04740478515625,-6.203384684771299,-7.501596695849299,1.1893075458534061
1789222577025398800,4.057398681640625,-6.22615473498404,-7.482326178190112,1.1917054738406092
1789222577035392800,4.067392822265625,-6.254184313160181,-7.4639581623286,1.1596991009879856
1789222577045387800,4.0773876953125,-6.287079451546073,-7.443550749593973,1.1120141705535351
1789222577055381800,4.0873818359375,-6.30215427108109,-7.436174667868018,1.0754341331098227
1789222577065375700,4.097375732421875,-6.301399068799615,-7.435092133328318,1.087270262984559
1789222577075370800,4.107370849609375,-6.280801101928949,-7.444182617756724,1.1428334525134414
1789222577085364700,4.11736474609375,-6.241998785325884,-7.4695917843014,1.188710749004036
1789222577095359000,4.12735888671875,-6.195015500354766,-7.504756036663055,1.2127665281783788
1789222577105353700,4.137353759765625,-6.15556436445415,-7.533270183485746,1.2366267847806214
1789222577115347700,4.14734765625,-6.154729667195677,-7.532639484366774,1.2446055085748433
1789222577125341700,4.157341796875,-6.1634928193658585,-7.5299325634956356,1.2173162273719906
1789222577135336700,4.167336669921875,-6.2005240346431725,-7.502675723257661,1.1973863690212367
1789222577145330700,4.17733056640625,-6.26117870209217,-7.452207518780231,1.1969274462725967
1789222577155324700,4.18732470703125,-6.2921455027639865,-7.427361831337213,1.1889449230860918
1789222577165319700,4.197319580078125,-6.305255159705877,-7.416898889511823,1.1847984709311277
1789222577175313700,4.207313720703125,-6.273126914039254,-7.445163445487618,1.1780558648031205
1789222577185307600,4.2173076171875,-6.211027893000841,-7.491308526068925,1.214006226041168
1789222577195302700,4.227302734375,-6.159627960631251,-7.5191913892507545,1.300430710040778
1789222577205296600,4.237296630859375,-6.102814771041274,-7.550228332549334,1.3856710988223553
1789222577215291600,4.247291748046875,-6.061580843377113,-7.577228567677736,1.4188802715934812
1789222577225286000,4.257285888671875,-6.0805024014681575,-7.565775445771217,1.3988963449679315
1789222577235280000,4.26727978515625,-6.125853701323271,-7.54042356237173,1.3365266902945936
1789222577245275000,4.27727490234375,-6.170601190066337,-7.5083531843721865,1.3109909747608006
1789222577255268900,4.287268798828125,-6.21899258826971,-7.466155380111933,1.323267395748943
1789222577265262800,4.297262939453125,-6.2421484229296444,-7.451395033353567,1.2971812067255377
1789222577275256600,4.307256591796875,-6.242238439300656,-7.456451732221245,1.2673513011291622
1789222577285251600,4.31725146484375,-6.240524621120095,-7.448634336468577,1.3206380701586604
1789222577295245600,4.32724560546875,-6.223932382759451,-7.442939339697361,1.426781692367792
1789222577305240600,4.337240478515625,-6.187393919435143,-7.457739433944225,1.5062084264345466
1789222577315234600,4.347234619140625,-6.14858926474452,-7.4851283761292695,1.5290812063694
1789222577325228800,4.357228759765625,-6.132768010756373,-7.502260128194093,1.5085215256825089
1789222577335223600,4.3672236328125,-6.156891813665628,-7.487313903474807,1.4843193968400359
1789222577345217800,4.3772177734375,-6.184097215977311,-7.4642545149266715,1.48735613418743
1789222577355211800,4.387211669921875,-6.170583069887757,-7.47300480761528,1.4994930005744098
1789222577365206800,4.397206787109375,-6.1511991549819705,-7.4869456546843045,1.5095638743422926
1789222577375200800,4.40720068359375,-6.149485921323299,-7.487427885243296,1.5141411191299556
1789222577385195000,4.417195068359375,-6.144422208192944,-7.483973945397138,1.5513218258805572
1789222577395190000,4.42718994140625,-6.140472009262442,-7.471916427856684,1.623409303100407
1789222577405183700,4.437183837890625,-6.135715170124173,-7.467518485158681,1.6611906060926616
1789222577415177700,4.447177734375,-6.128491064089537,-7.472236745852231,1.6666314819723367
1789222577425172700,4.4571728515625,-6.139172032579779,-7.458290053564309,1.6896337335057556
1789222577435166700,4.467166748046875,-6.171354054260253,-7.420342307963967,1.7387639673776925
1789222577445161000,4.477160888671875,-6.182722420492768,-7.404220609724521,1.766871140834689
1789222577455156000,4.487156005859375,-6.159249190446734,-7.425747966399788,1.7584911427631973
1789222577465150000,4.49714990234375,-6.140502988922596,-7.441087574350833,1.7592120043836532
1789222577475144000,4.50714404296875,-6.112853349974751,-7.456465176224708,1.790121229649335
1789222577485139000,4.517138916015625,-6.066225454312563,-7.480686594289541,1.8467859506793318
1789222577495133000,4.5271328125,-6.066656246945262,-7.47125124194622,1.883207217364758
1789222577505127000,4.537126953125,-6.106850894689559,-7.439384277564287,1.8794449422217905
1789222577515122000,4.547121826171875,-6.139848908928037,-7.409341606000066,1.8905812532640993
1789222577525116000,4.557115966796875,-6.158788587197661,-7.383266084501146,1.9305660576499997
1789222577535110000,4.56710986328125,-6.167391580370068,-7.375065826910734,1.9344437758661805
1789222577545105000,4.57710498046875,-6.169816761690377,-7.379433374470472,1.9098988249354063
1789222577555099100,4.58709912109375,-6.173087746185064,-7.3738131965011355,1.9210025488823652
1789222577565092900,4.5970927734375,-6.152472828179597,-7.375233584693074,1.9807590984478591
1789222577575087900,4.607087890625,-6.133961604455113,-7.3761945386797185,2.033875333216041
1789222577585081900,4.617081787109375,-6.143325645127892,-7.367849319660663,2.0358596389010546
1789222577595075800,4.627075927734375,-6.15524696906805,-7.363268421611189,2.016333100654185
1789222577605070800,4.63707080078125,-6.169456696206331,-7.347950440970063,2.028748783982545
1789222577615064800,4.64706494140625,-6.165618140956759,-7.344521635565162,2.0526909467145797
1789222577625058800,4.657058837890625,-6.1180327984392635,-7.37908383038044,2.0710352894395587
1789222577635053800,4.6670537109375,-6.082849841377139,-7.406231365025043,2.0777561221271754
1789222577645047800,4.6770478515625,-6.105135907465219,-7.397905435228347,2.0417383216761054
1789222577655042000,4.6870419921875,-6.149315240931511,-7.3736846016854045,1.9962669025726616
1789222577665036800,4.697036865234375,-6.1729632430225605,-7.346083478054404,2.0248381864100695
1789222577675031000,4.707031005859375,-6.188116388490796,-7.318443775978684,2.077974002661556
1789222577685025000,4.71702490234375,-6.204995042577385,-7.305972416940331,2.071519127433747
1789222577695020000,4.72702001953125,-6.199608088842034,-7.328225749802589,2.00807059148252
1789222577705014000,4.737013916015625,-6.217972013050318,-7.31695967490077,1.9923127581194042
1789222577715007700,4.7470078125,-6.226469207760691,-7.301694301229715,2.0215693938724697
1789222577725003000,4.7570029296875,-6.188129247972369,-7.323958155485987,2.0584159002326428
1789222577734996700,4.766996826171875,-6.166439978733658,-7.336521868982911,2.0786676840141416
1789222577744990700,4.77699072265625,-6.170568456840515,-7.339952427953481,2.05415970409289
1789222577754985700,4.78698583984375,-6.188900816866755,-7.3390335595428935,2.00161805434227
1789222577764979700,4.796979736328125,-6.219419873771071,-7.325861943280697,1.9547243473507463
1789222577774974000,4.806973876953125,-6.228508020111918,-7.321924603831768,1.9404893396407366
1789222577784969000,4.816968994140625,-6.22253654448688,-7.317877958789468,1.9746138736911116
1789222577794963000,4.826962890625,-6.214764156919718,-7.322736504736542,1.9810662647008894
1789222577804958000,4.8369580078125,-6.195179751005768,-7.354833186221122,1.9226454937838018
1789222577814952000,4.846951904296875,-6.198002407211065,-7.3659893710076805,1.8701207951679826
1789222577824946000,4.85694580078125,-6.213236216700077,-7.35987234943211,1.8434652818240225
1789222577834941000,4.86694091796875,-6.222205120575428,-7.356898886579275,1.8249908829785881
1789222577844935000,4.876934814453125,-6.231136030527949,-7.351902977988123,1.8146208801336585
1789222577854929000,4.886928955078125,-6.217337222278117,-7.362938751265406,1.817202274928987
1789222577864924000,4.896923828125,-6.176916949084401,-7.395728091189265,1.8218939398765563
1789222577874918000,4.90691796875,-6.148842362722754,-7.421965525251626,1.8101269297152756
1789222577884912000,4.916912109375,-6.140272102776169,-7.439793442887067,1.7654826090857385
1789222577894907000,4.926906982421875,-6.158165486863255,-7.438218156394362,1.7088867155082523
1789222577904900900,4.93690087890625,-6.199513396295905,-7.413349088075757,1.6669371869206429
1789222577914894800,4.946894775390625,-6.216553962945937,-7.400842073202133,1.6590287518836557
1789222577924889900,4.956889892578125,-6.210848444780707,-7.402209854423999,1.6742286591030657
1789222577934883800,4.9668837890625,-6.184834882602095,-7.426274036100506,1.6639277759715914
1789222577944877800,4.9768779296875,-6.157824126079678,-7.455615281397104,1.6326003252938388
1789222577954872800,4.986872802734375,-6.158644210290908,-7.461267608070373,1.6034256687358022
1789222577964866800,4.99686669921875,-6.16639964672327,-7.461175838133692,1.573771265836805
1789222577974860800,5.00686083984375,-6.184880475309491,-7.448617385333776,1.5606883507713674
1789222577984855800,5.016855712890625,-6.215126560491323,-7.421051917538047,1.5718085874617098
1789222577994850000,5.02685009765625,-6.227940449357033,-7.408520352745056,1.5801806944876908
1789222578004844000,5.036843994140625,-6.220822726306319,-7.415145908364654,1.5771373812690377
1789222578014839000,5.046839111328125,-6.1898424816310404,-7.444445652607083,1.5609206982225179
1789222578024833000,5.0568330078125,-6.156147132778167,-7.475070507973432,1.5477598956152796
1789222578034827000,5.066826904296875,-6.124796301224827,-7.499223536977172,1.5552838613793254
1789222578044822000,5.076822021484375,-6.108219844955205,-7.503730200746655,1.5981427598968148
1789222578054816000,5.08681591796875,-6.118688631999492,-7.4841352734386914,1.6491704979531465
1789222578064809700,5.096809814453125,-6.134392981609702,-7.469839621582627,1.6556263960942625
1789222578074804700,5.1068046875,-6.164277832263708,-7.451272868278622,1.6280673580393195
1789222578084798700,5.116798828125,-6.1996834921658035,-7.427094120311737,1.6039244120381773
1789222578094793700,5.126793701171875,-6.211604816105962,-7.418114695042371,1.5993514050342141
1789222578104787700,5.13678759765625,-6.220401286023855,-7.408781634029745,1.608399950017035
1789222578114782000,5.146781982421875,-6.200536309602856,-7.4232947280287735,1.6181617578357457
1789222578124777000,5.15677685546875,-6.163019941157102,-7.450625218024849,1.6357751559376716
1789222578134771000,5.16677099609375,-6.149885149773955,-7.458002468794584,1.6515125310346483
1789222578144765000,5.176764892578125,-6.142083536112308,-7.4623074725121255,1.6610706329748033
1789222578154760000,5.186760009765625,-6.142980777212977,-7.4554130368232725,1.6884874860800803
1789222578164754000,5.19675390625,-6.1708519499570125,-7.428809107536077,1.7040455590873955
1789222578174748000,5.206747802734375,-6.207209211495519,-7.403767020738124,1.6808280573680996
1789222578184743000,5.216742919921875,-6.247318519043922,-7.374921450003981,1.6588941657185554
1789222578194737000,5.22673681640625,-6.262753404062986,-7.365429983559251,1.6427885418310761
1789222578204731000,5.23673095703125,-6.231672037100791,-7.394529821315407,1.6302090462431311
1789222578214726000,5.246725830078125,-6.187116271537542,-7.430039526113867,1.638439698971808
1789222578224720100,5.25672021484375,-6.148594525441527,-7.453986218890547,1.6742907645538447
1789222578234713900,5.2667138671875,-6.12139613739252,-7.4706176202178,1.6996360720820725
1789222578244709000,5.276709228515625,-6.097579208475351,-7.490772519496083,1.6965382521972059
1789222578254702800,5.286702880859375,-6.089252694156766,-7.502280586460232,1.6754622925512492
1789222578264696800,5.29669677734375,-6.103310445603728,-7.49443396461308,1.6593511157058178
1789222578274691800,5.30669189453125,-6.140091485512256,-7.471012172493338,1.6289967478439211
1789222578284685800,5.316685791015625,-6.171832777687907,-7.45133190498948,1.5989102371379733
1789222578294679800,5.3266796875,-6.1824336666792625,-7.441597861960529,1.6032888906136153
1789222578304674800,5.3366748046875,-6.171040166005492,-7.44532828066051,1.62964659005478
1789222578314668800,5.346668701171875,-6.150456812182068,-7.457949277302622,1.6496236485481262
1789222578324663800,5.356663818359375,-6.138535488241911,-7.4681842555910345,1.6477221988409756
1789222578334657800,5.36665771484375,-6.1248290344506495,-7.480757905960083,1.6416799960672854
1789222578344652000,5.376652099609375,-6.114213532412052,-7.486306772258877,1.6558970297291873
1789222578354647000,5.38664697265625,-6.102928168287873,-7.490081030100583,1.6802768532261252
1789222578364641000,5.39664111328125,-6.0948652733415365,-7.4958110981851815,1.6839872520513832
1789222578374635000,5.406635009765625,-6.111637544444203,-7.487016381832957,1.6621810784347355
1789222578384629800,5.416629638671875,-6.133784494322538,-7.472042100062966,1.6479238588929175
1789222578394623700,5.426623779296875,-6.162058987170457,-7.447641233778,1.6528909797810016
1789222578404617700,5.43661767578125,-6.204605750998854,-7.400658533328771,1.7039647489361465
1789222578414612700,5.44661279296875,-6.204963478395342,-7.382303376948833,1.7805640044920146
1789222578424606700,5.456606689453125,-6.1705894996285435,-7.398698631432652,1.8312459978505968
1789222578434600700,5.4666005859375,-6.147448278015852,-7.420290870037674,1.8216889188237486
1789222578444595700,5.476595703125,-6.125394267117977,-7.444069220510125,1.7988196460202335
1789222578454590000,5.48658984375,-6.100731535026431,-7.456514276063442,1.830806583520025
1789222578464583700,5.496583740234375,-6.080864220517873,-7.457137960919737,1.893295188397914
1789222578474578700,5.50657861328125,-6.079883977308869,-7.443470670095086,1.9493951151520013
1789222578484572700,5.51657275390625,-6.124477736794948,-7.398181914082169,1.9819347180984914
1789222578494566700,5.526566650390625,-6.183914845147728,-7.347524909034371,1.9858160895764827
1789222578504561700,5.536561767578125,-6.237790227720141,-7.2971391221433874,2.0030264598354695
1789222578514555600,5.5465556640625,-6.2790639028728,-7.258609777262807,2.014032422496378
1789222578524549600,5.556549560546875,-6.2890411070078605,-7.252423197582364,2.005169463213533
1789222578534544600,5.566544677734375,-6.280808116191626,-7.249779989597201,2.0402267480693754
1789222578544538600,5.57653857421875,-6.247350083225965,-7.249422846722602,2.1417000403799116
1789222578554533600,5.58653369140625,-6.196659760430455,-7.26063573013246,2.248323555060476
1789222578564527900,5.59652783203125,-6.173787418887019,-7.263795655468106,2.3004352889612316
1789222578574521900,5.60652197265625,-6.17533231024146,-7.256353522768617,2.319694846834987
1789222578584516900,5.616516845703125,-6.183149705994129,-7.24468997298181,2.335275570065528
1789222578594510800,5.6265107421875,-6.209114168334007,-7.22762427189052,2.3192096936665476
1789222578604504800,5.6365048828125,-6.2518479791671036,-7.207415012076496,2.266705307186395
1789222578614499800,5.646499755859375,-6.287271174725889,-7.1827651394665235,2.2468853389509023
1789222578624493800,5.656493896484375,-6.2885442634016275,-7.16214496076405,2.3083030997268854
1789222578634487600,5.666487548828125,-6.2363873751848935,-7.178567103254795,2.397089344421774
1789222578644482800,5.67648291015625,-6.173067872440814,-7.2173068760156625,2.4441958173811433
1789222578654476500,5.6864765625,-6.1312903394192455,-7.248682842010259,2.4564745764568445
1789222578664470800,5.696470703125,-6.1150184190541506,-7.264609894460439,2.4499768850006163
1789222578674465500,5.706465576171875,-6.138338504365086,-7.251293901291489,2.431031799903512
1789222578684459800,5.716459716796875,-6.181807059213519,-7.223655368259549,2.4030086514681575
1789222578694453800,5.726453857421875,-6.194466049778461,-7.212868601307273,2.402812544374168
1789222578704448800,5.73644873046875,-6.1805082515746355,-7.212572248709201,2.4393657668761906
1789222578714442800,5.74644287109375,-6.172894269439578,-7.219025954893231,2.43955339840278
1789222578724437800,5.756437744140625,-6.1650768736869095,-7.237727732753753,2.4036444651536644
1789222578734431700,5.766431640625,-6.149793379837274,-7.251811203163862,2.4003455697387457
1789222578744425700,5.77642578125,-6.108084235876798,-7.275370357927679,2.4352993942201135
1789222578754420700,5.786420654296875,-6.080450963541865,-7.283750063738227,2.4790078953042625
1789222578764414700,5.796414794921875,-6.092412034970522,-7.271300916531682,2.486177933064103
1789222578774408700,5.80640869140625,-6.102230249151587,-7.272113401958346,2.4595818948224184
1789222578784403700,5.81640380859375,-6.126369249629974,-7.266860888257622,2.414689298520237
1789222578794398000,5.82639794921875,-6.173501003161072,-7.258380060160159,2.3182293043270707
1789222578804391700,5.8363916015625,-6.218802034133672,-7.25297147911489,2.2116252249993384
1789222578814387000,5.846386962890625,-6.2203364040941,-7.250942019113898,2.2139619973838327
1789222578824380700,5.856380615234375,-6.147890176564455,-7.281693131208419,2.313174066764116
1789222578834374700,5.866374755859375,-6.071607731872796,-7.322915368434787,2.3834575633019206
1789222578844369700,5.87636962890625,-6.0315481086850165,-7.367367673623561,2.3479141023643315
1789222578854363600,5.88636376953125,-6.023388767626881,-7.396836344692111,2.2750807752132416
1789222578864357600,5.896357666015625,-6.048914838549495,-7.392652921527624,2.220290762013942
1789222578874352600,5.9063525390625,-6.071630528226494,-7.388654207280278,2.1710541451580823
1789222578884346600,5.9163466796875,-6.088026951754093,-7.386033211126923,2.1337360757634043
1789222578894341600,5.926341552734375,-6.1013037819564335,-7.380638074085116,2.1143943925641477
1789222578904335600,5.936335693359375,-6.1006684066623444,-7.38756991917491,2.091899652161449
1789222578914329900,5.946329833984375,-6.1047419397115705,-7.389991593363881,2.0713599913492797
1789222578924324900,5.956324951171875,-6.091293844595551,-7.407519651269912,2.048212339995801
1789222578934318800,5.96631884765625,-6.067637074676155,-7.433899708673358,2.022697374989092
1789222578944312800,5.976312744140625,-6.051586103585362,-7.450906373053789,2.0081553471565243
1789222578954307800,5.986307861328125,-6.015860125687718,-7.475999313256144,2.0221886948145924
1789222578964301800,5.9963017578125,-5.99603197414577,-7.488667071649432,2.034168470943719
1789222578974295600,6.006295654296875,-6.02357698367536,-7.481444134658575,1.9786106882423162
1789222578984290800,6.016290771484375,-6.068177757424116,-7.472171863922476,1.874633304156363
1789222578994284500,6.026284423828125,-6.090320031127333,-7.473263166290521,1.7968639819078147
1789222579004278800,6.03627880859375,-6.119219962397217,-7.458525031363964,1.7595291075088082
1789222579014273500,6.0462734375,-6.165566703030467,-7.4264160749197,1.733356993767619
1789222579024267800,6.056267822265625,-6.163960436877608,-7.428812030145526,1.7287917316786945
1789222579034262800,6.0662626953125,-6.127629478824138,-7.448177824872732,1.7740309494614601
1789222579044256800,6.0762568359375,-6.1116433896631,-7.461769127851724,1.7720605261713265
1789222579054250800,6.086250732421875,-6.072069504165649,-7.506675606548786,1.7176079282328485
1789222579064245800,6.096245849609375,-5.992330197018385,-7.57216602359116,1.7101668184466658
1789222579074239700,6.10623974609375,-5.9462605197608465,-7.602333782839775,1.736921846642345
1789222579084233700,6.116233642578125,-5.934736086183786,-7.6148992499023676,1.7212215886853635
1789222579094228700,6.126228759765625,-5.98276975699067,-7.586482718235254,1.679921902308613
1789222579104222700,6.13622265625,-6.065013155913353,-7.526384515625238,1.6551570250168441
1789222579114216700,6.146216796875,-6.0956853575527665,-7.507014044722914,1.6302582922123372
1789222579124211700,6.156211669921875,-6.121945003446936,-7.491845117163658,1.6013855412103235
1789222579134205700,6.166205810546875,-6.166880123716592,-7.465715235128998,1.5501855153270065
1789222579144200000,6.176199951171875,-6.157068923798203,-7.480224237474799,1.5189226543180643
1789222579154195000,6.18619482421875,-6.108751759874821,-7.514142873689532,1.546347398468852
1789222579164188700,6.196188720703125,-6.057005790546536,-7.550755571293831,1.5713561675190926
1789222579174184000,6.206183837890625,-6.008299919566512,-7.5857392063915725,1.5897420112982392
1789222579184177700,6.216177734375,-5.980058744466304,-7.600622302746772,1.624754726359993
1789222579194171600,6.226171630859375,-6.011484979343414,-7.566920524153113,1.6655753970481455
1789222579204166700,6.236166748046875,-6.077650519168377,-7.521212081423402,1.6321479053512216
1789222579214160600,6.24616064453125,-6.11682868334651,-7.509515213888883,1.5368677685923873
1789222579224154600,6.256154541015625,-6.138031045851111,-7.505202026864886,1.4720416606776416
1789222579234149600,6.266149658203125,-6.149948862659931,-7.478433262404799,1.5561328794240952
1789222579244143600,6.2761435546875,-6.139429806733131,-7.467298704928159,1.6484044820167123
1789222579254137900,6.286137939453125,-6.1406321682602165,-7.474119490858912,1.6126244358442723
1789222579264132900,6.2961328125,-6.161899412694573,-7.475104410243034,1.5245298266753553
1789222579274126800,6.306126953125,-6.14023410885334,-7.5112845616489645,1.4312619065217673
1789222579284120800,6.316120849609375,-6.045217153075337,-7.579026557010412,1.4778665674388407
1789222579294115800,6.32611572265625,-5.913615556743741,-7.626576243692636,1.7420852207548916
1789222579304109800,6.33610986328125,-5.8315171192497015,-7.644201332232355,1.9313149763211608
1789222579314104800,6.346104736328125,-5.88088583805263,-7.624726231911778,1.8571790421389043
1789222579324098800,6.356098876953125,-6.016918110308051,-7.5659297595500945,1.6503896644845604
1789222579334092500,6.366092529296875,-6.131213767051697,-7.510352833756804,1.474178088184446
1789222579344087800,6.376087890625,-6.184992118990421,-7.480021408379077,1.4019758985437452
1789222579354081500,6.38608154296875,-6.191245334166288,-7.466169993159174,1.4474701140008865
1789222579364075800,6.39607568359375,-6.158726627877354,-7.477657601857185,1.52482880962193
1789222579374070500,6.406070556640625,-6.126407828074694,-7.500431159201264,1.5430653080582617
1789222579384064500,6.416064453125,-6.1257853122621775,-7.507177126330137,1.5124262780360878
1789222579394058500,6.42605859375,-6.118782155501842,-7.522944019782543,1.4615759423732757
1789222579404053500,6.436053466796875,-6.131253514540195,-7.518642523196339,1.4311277587480842
1789222579414047200,6.446047119140625,-6.156009770134091,-7.49840637537539,1.4310253212869166
1789222579424042500,6.45604248046875,-6.161114399796724,-7.490114347848296,1.4523195998586713
1789222579434036200,6.4660361328125,-6.189146316060423,-7.465200855866074,1.46137647427842
1789222579444030200,6.4760302734375,-6.2077978250384325,-7.454173265895247,1.4383769992239772
1789222579454025200,6.486025146484375,-6.194568925631046,-7.470276259434223,1.4116183177664876
1789222579464019200,6.496019287109375,-6.204040518331527,-7.464427533406019,1.4009265356212854
1789222579474013400,6.506013427734375,-6.198022865477204,-7.471722366589307,1.388620011755824
1789222579484008200,6.51600830078125,-6.162852767896652,-7.493063260781764,1.4295590481266378
1789222579494002400,6.52600244140625,-6.121290338930487,-7.509941330346464,1.5168921714037655
1789222579503996400,6.535996337890625,-6.085745562818646,-7.5284198208451265,1.567478157041967
1789222579513991400,6.545991455078125,-6.098001233279705,-7.522942266216874,1.5459958085522054
1789222579523985400,6.5559853515625,-6.147108670797944,-7.495506562280655,1.483514364067465
1789222579533980400,6.56598046875,-6.172008718776702,-7.481442965614796,1.4507552731513975
1789222579543974400,6.575974365234375,-6.159701025867462,-7.49764182074368,1.4190947911269962
1789222579553968400,6.585968505859375,-6.143916012236476,-7.51496704955399,1.3956903885334728
1789222579563963400,6.59596337890625,-6.138604461824894,-7.502700273177028,1.4823666553370654
1789222579573957400,6.605957275390625,-6.148255502745509,-7.46636463894844,1.6194894993081688
1789222579583951400,6.615951416015625,-6.192269416517019,-7.415703542247414,1.6833112524859606
1789222579593946400,6.6259462890625,-6.216058872905373,-7.397910111403465,1.673896796800196
1789222579603940400,6.6359404296875,-6.195995159041881,-7.423782803806662,1.6332427148506043
1789222579613934300,6.645934326171875,-6.177331959626078,-7.453780467185378,1.5659246439896524
1789222579623929300,6.655929443359375,-6.197670983299613,-7.444757787296176,1.528018691704422
1789222579633923300,6.66592333984375,-6.213279471319914,-7.430833306840062,1.532403482659906
1789222579643918300,6.67591845703125,-6.175213067775965,-7.4516908014297485,1.5841212488070129
1789222579653912300,6.685912353515625,-6.162095227527618,-7.447681565788388,1.6525747534386812
1789222579663906300,6.69590625,-6.1910126944541926,-7.417637140658497,1.6794053310886023
1789222579673901300,6.7059013671875,-6.2382338798344135,-7.38324095005989,1.6560693175561725
1789222579683895300,6.715895263671875,-6.30897797962129,-7.327247260159254,1.6366513542503118
1789222579693889300,6.72588916015625,-6.312407369548082,-7.3265195304065935,1.6266560299366712
1789222579703884300,6.73588427734375,-6.263709681874513,-7.359778241407871,1.6643297809012234
1789222579713878300,6.745878173828125,-6.220025438448786,-7.379208333542943,1.740387184665352
1789222579723872500,6.75587255859375,-6.208154967913031,-7.387240833351016,1.7486770202353596
1789222579733867500,6.765867431640625,-6.232268833950162,-7.379457924389839,1.694938854176551
1789222579743861500,6.775861572265625,-6.241807646667957,-7.379148712310195,1.6608385777845978
1789222579753855500,6.78585546875,-6.243869839894772,-7.37281600215733,1.6810909460879861
1789222579763850500,6.7958505859375,-6.247680922615528,-7.36168202920258,1.7153738855704663
1789222579773844200,6.80584423828125,-6.236296774291992,-7.36626994151473,1.7369662703059612
1789222579783839500,6.815839599609375,-6.259049873369932,-7.339847798535227,1.7667223800137637
1789222579793833200,6.825833251953125,-6.284224062114953,-7.318278940805793,1.7668351927384733
1789222579803827200,6.8358271484375,-6.2970508104622365,-7.3131421624392265,1.7422648151054978
1789222579813822200,6.845822265625,-6.325061683937907,-7.291113285982608,1.7331024344846606
1789222579823816200,6.855816162109375,-6.327007557308674,-7.290357499179244,1.72917283995077
1789222579833810400,6.865810546875,-6.311936829426885,-7.302734165671468,1.73202647581622
1789222579843805400,6.875805419921875,-6.298743001332879,-7.307948685449361,1.7578695037335157
1789222579853799400,6.88579931640625,-6.247464649516344,-7.340429982337355,1.8048977968901394
1789222579863793400,6.89579345703125,-6.185899296963215,-7.378208801111579,1.862007046817243
1789222579873788400,6.905788330078125,-6.1477265104353425,-7.401362297683954,1.896225104369968
1789222579883782400,6.915782470703125,-6.1260986159950495,-7.417441910347342,1.903381113604456
1789222579893777400,6.92577734375,-6.155157537218928,-7.400160520678758,1.8767123023875056
1789222579903771400,6.935771484375,-6.2183086976587765,-7.358807935070991,1.8305641530662773
1789222579913765400,6.945765380859375,-6.269233413732051,-7.324799282485246,1.7928791500553487
1789222579923760400,6.955760498046875,-6.294149828323722,-7.309011346244811,1.7698650619536638
1789222579933754400,6.96575439453125,-6.307513167765737,-7.299996265140176,1.7594658330142496
1789222579943748400,6.975748291015625,-6.305645620328187,-7.303958739030361,1.749688535365462
1789222579953743400,6.985743408203125,-6.269321676537394,-7.335913966217636,1.7465271487250924
1789222579963737300,6.9957373046875,-6.23027619882822,-7.366630591520667,1.756927985099703
1789222579973732400,7.005732421875,-6.190750244125724,-7.397130359202623,1.7684607481136918
1789222579983726300,7.015726318359375,-6.14165040539205,-7.431611889997124,1.7948947276614606
1789222579993720300,7.02572021484375,-6.1320747677952046,-7.43516402952075,1.8128364809349178
1789222580003715300,7.03571533203125,-6.169970490947366,-7.411400292095541,1.7812901268094776
1789222580013709300,7.045709228515625,-6.221195066750049,-7.384703423827887,1.7126790935285388
1789222580023703300,7.055703369140625,-6.27393589233458,-7.349460845533013,1.6713870059363543
1789222580033698300,7.0656982421875,-6.310016675019264,-7.318765847539901,1.6702514260351657
1789222580043692300,7.0756923828125,-6.300302505734562,-7.3218842718213795,1.6931009712249039
1789222580053686300,7.085686279296875,-6.251520646908879,-7.3585156741261475,1.7149692502923308
1789222580063681300,7.095681396484375,-6.208972129514813,-7.398364869433641,1.6980113934896885
1789222580073675500,7.105675537109375,-6.179843065664172,-7.427691501682997,1.6761054127603767
1789222580083670300,7.115670166015625,-6.152908296987414,-7.450460967373847,1.6741354278616607
1789222580093664500,7.12566455078125,-6.143754099673032,-7.463803264027834,1.6481252266839146
1789222580103658500,7.135658447265625,-6.164423962736129,-7.453829567024111,1.6157602496519683
1789222580113653500,7.145653564453125,-6.202752232086658,-7.424760124406218,1.6028671580702065
1789222580123647500,7.1556474609375,-6.2530526787817475,-7.384788179501891,1.5920469272397457
1789222580133641200,7.16564111328125,-6.300078049328923,-7.3521408783972255,1.5573754268310964
1789222580143636500,7.175636474609375,-6.313477044606208,-7.351829328230023,1.5036648794315755
1789222580153630200,7.185630126953125,-6.278191796213388,-7.388101834094524,1.4733083196125925
1789222580163624200,7.195624267578125,-6.223798527246713,-7.429459680399298,1.4959442220516501
1789222580173619200,7.205619140625,-6.172975517982244,-7.4559782694906,1.5726247261501847
1789222580183613200,7.21561328125,-6.095861883163452,-7.504400062832236,1.6415945097409188
1789222580193608200,7.225608154296875,-6.027759237796068,-7.560107921528815,1.6374617938503622
1789222580203602400,7.2356025390625,-6.025272681677341,-7.5756719858855,1.573423329181969
1789222580213596400,7.245596435546875,-6.085919165819883,-7.543803852459788,1.4909702330313621
1789222580223591400,7.25559130859375,-6.187229668784141,-7.475588978889584,1.415674022898078
1789222580233585400,7.26558544921875,-6.2795578238695855,-7.404329330796003,1.3832728055089711
1789222580243579400,7.275579345703125,-6.3212318965166805,-7.366692550840973,1.3943629393219947
1789222580253574400,7.285574462890625,-6.302798414203524,-7.378458391958475,1.4154374376632273
1789222580263568400,7.295568359375,-6.237108675196766,-7.435878315269947,1.4059091463394462
1789222580273563400,7.3055634765625,-6.171610074847936,-7.493996742239594,1.3862263946175575
1789222580283557400,7.315557373046875,-6.115812199780344,-7.542951035022735,1.3678893584161995
1789222580293551400,7.32555126953125,-6.032367023852467,-7.609481901028752,1.3699302165940404
1789222580303546400,7.33554638671875,-5.967065407380462,-7.654836123493314,1.4028538504220545
1789222580313540400,7.345540283203125,-5.981864332583546,-7.634796959549188,1.4482989660404622
1789222580323534300,7.355534423828125,-6.048081894856691,-7.582125107547641,1.4499924720853565
1789222580333529600,7.365529541015625,-6.150177410718798,-7.5115470119774335,1.3864970282524822
1789222580343523300,7.3755234375,-6.269679988455772,-7.4347390821069474,1.2594256226964293
1789222580353518300,7.385518310546875,-6.329968160679936,-7.406688461142778,1.1148288626480847
1789222580363512300,7.39551220703125,-6.317752822229266,-7.421468097123503,1.0854453856449573
1789222580373506300,7.40550634765625,-6.250570214316249,-7.469160407146811,1.1455973642688244
1789222580383501300,7.415501220703125,-6.111542267376184,-7.570322441551089,1.2286819632560013
1789222580393495800,7.425495849609375,-5.97829582644701,-7.660090975281595,1.3241490008890628
1789222580403489800,7.43548974609375,-5.917953878208994,-7.695371547499299,1.38905182730183
1789222580413484800,7.44548486328125,-5.926138353708386,-7.692749382302164,1.3685318941034377
1789222580423478800,7.455478759765625,-6.009868776318431,-7.645455716207623,1.2644642013855278
1789222580433472800,7.46547265625,-6.125988725879788,-7.572486926108598,1.1402075609892606
1789222580443467800,7.4754677734375,-6.224447931066155,-7.50541888448596,1.0465746799807996
1789222580453461800,7.485461669921875,-6.2772694206714625,-7.470531695500016,0.9784826290726661
1789222580463456800,7.495456787109375,-6.2709226819932455,-7.483742474728822,0.9162512138262391
1789222580473450800,7.50545068359375,-6.234149240869283,-7.515237683188915,0.9093854927752166
1789222580483444700,7.51544482421875,-6.1741258570611475,-7.5548209210366,0.9875437412761151
1789222580493439700,7.525439697265625,-6.106468617373705,-7.596018608343601,1.087163880000636
1789222580503433700,7.535433837890625,-6.082887250778079,-7.60803111769855,1.134343637391925
1789222580513427700,7.545427734375,-6.094705114343762,-7.603874582540988,1.098202575887367
1789222580523422700,7.555422607421875,-6.115799924820661,-7.598706824514269,1.0134280510518698
1789222580533416700,7.565416748046875,-6.151494923058152,-7.579674207264184,0.937037542875856
1789222580543411700,7.57541162109375,-6.1851002555400125,-7.55941000239253,0.8776322909660637
1789222580553405700,7.58540576171875,-6.1928872561544175,-7.559135277104377,0.8234061952598393
1789222580563399700,7.595399658203125,-6.199332779031992,-7.55599756360054,0.8034615777313708
1789222580573394700,7.605394775390625,-6.217520762151479,-7.536926952427625,0.8411584173105656
1789222580583389000,7.615388916015625,-6.198786251065135,-7.547304554057121,0.8852227460950612
1789222580593383000,7.6253828125,-6.163226861906051,-7.5746145857870575,0.9001288579996675
1789222580603378000,7.6353779296875,-6.142209792840481,-7.59213972108364,0.8961387654501944
1789222580613372000,7.645371826171875,-6.124974580401182,-7.607301049858331,0.8854624000698328
1789222580623367000,7.655366943359375,-6.122309745106101,-7.611851552769541,0.864534397527203
1789222580633361000,7.66536083984375,-6.1508782524645325,-7.592557069712877,0.8307640106767415
1789222580643355000,7.67535498046875,-6.205424666166305,-7.551700743189453,0.7968075266696513
1789222580653350000,7.685349853515625,-6.27091449868679,-7.502738851621746,0.74493018604666
1789222580663343600,7.695343505859375,-6.326629371646046,-7.462256619107722,0.6774057789586484
1789222580673337600,7.705337646484375,-6.332957405623794,-7.45772832802832,0.6680700145322829
1789222580683332600,7.71533251953125,-6.29120617608726,-7.483810863789915,0.7639904219560325
1789222580693326600,7.72532666015625,-6.230587748995423,-7.5243690841495985,0.8567589412201195
1789222580703321600,7.735321533203125,-6.160521110078692,-7.58218239069283,0.8537431735955178
1789222580713315800,7.74531591796875,-6.133830087029933,-7.608913161230086,0.8068189253352582
1789222580723309800,7.755309814453125,-6.143267192938923,-7.606067124149203,0.7605265452377498
1789222580733304800,7.765304931640625,-6.158724289789795,-7.599349214071035,0.7002735904574394
1789222580743298800,7.775298828125,-6.200744399395584,-7.5695590559631585,0.6503204958952963
1789222580753292800,7.785292724609375,-6.243484639969468,-7.532044441083073,0.6764549079746007
1789222580763287800,7.795287841796875,-6.2679492191404105,-7.505123700931668,0.745873239050433
1789222580773281800,7.80528173828125,-6.3069619636237615,-7.468201791247725,0.7864972181227058
1789222580783276800,7.81527685546875,-6.304972251111269,-7.4708011600911615,0.7777105389464646
1789222580793270800,7.825270751953125,-6.249651930427551,-7.517824777072668,0.771076580824703
1789222580803264800,7.8352646484375,-6.199101308363676,-7.560783628833294,0.7589918099511415
1789222580813259800,7.845259765625,-6.159839557555317,-7.595670817819237,0.7297657885320484
1789222580823253800,7.855253662109375,-6.153018187102675,-7.602357748237252,0.7175695931732654
1789222580833247700,7.865247802734375,-6.199944188928604,-7.563485873529315,0.7243967357795685
1789222580843243000,7.875242919921875,-6.263578164449334,-7.51293408242166,0.7027086355846375
1789222580853236700,7.88523681640625,-6.32740561671555,-7.4623939817517995,0.6685841745994985
1789222580863230700,7.895230712890625,-6.358259604662656,-7.438010651123523,0.6472464222121983
1789222580873225700,7.905225830078125,-6.333592780917883,-7.460248786416649,0.6329823345381766
1789222580883219700,7.9152197265625,-6.298158479443192,-7.48941525966823,0.6420516300480812
1789222580893214700,7.925214599609375,-6.255608793005347,-7.521714185726642,0.6793747409440577
1789222580903208700,7.935208740234375,-6.200429926618933,-7.561160645452142,0.7442550632640719
1789222580913202700,7.94520263671875,-6.174265557792783,-7.577032168322801,0.7983844936627894
1789222580923197700,7.95519775390625,-6.177613114655017,-7.572652345803379,0.8138900327652693
1789222580933191700,7.965191650390625,-6.194997380176186,-7.561159476408362,0.7881986882783472
1789222580943186700,7.975186767578125,-6.219187818580865,-7.546250076568127,0.7390585175342858
1789222580953180700,7.9851806640625,-6.2330509242385626,-7.5418404434323305,0.6634108636148274
1789222580963175000,7.9951748046875,-6.230796423310041,-7.550610609865188,0.5795153866361826
1789222580973170000,8.005169921875,-6.230730956858396,-7.553445541030168,0.5420747868403792
1789222580983164000,8.015163818359374,-6.236438813111186,-7.546469856798648,0.5727240825282409
1789222580993158000,8.025157958984375,-6.235605284896493,-7.541553443184495,0.6423257708143443
1789222581003153000,8.03515283203125,-6.253333833810687,-7.522121012961864,0.6956264222387224
1789222581013147000,8.04514697265625,-6.262815363383293,-7.514901583102345,0.6883220905747264
1789222581023142000,8.055141845703124,-6.276804141247272,-7.506662162545323,0.6497293250691145
1789222581033135900,8.065135986328125,-6.291513050079345,-7.499201909667253,0.5909362867735326
1789222581043129600,8.075129638671875,-6.268935307568311,-7.522611426827311,0.5302519183060154
1789222581053124600,8.08512451171875,-6.246039585149288,-7.54363200302422,0.500991446628049
1789222581063118600,8.09511865234375,-6.235000304740667,-7.552657605522871,0.5025141626833006
1789222581073112800,8.10511279296875,-6.222952724072337,-7.560891765382886,0.5273976613860577
1789222581083107600,8.115107666015625,-6.204658942490815,-7.575223657596111,0.5371890606254339
1789222581093101800,8.125101806640625,-6.1917754955202335,-7.586721787688136,0.523416701991111
1789222581103096800,8.135096923828126,-6.206219031414389,-7.575062914076447,0.5211961033321917
1789222581113090800,8.1450908203125,-6.223574655362963,-7.559975235059857,0.5331821996042505
1789222581123084800,8.155084716796875,-6.232804840523004,-7.55107355120182,0.5512023153435438
1789222581133079800,8.165079833984375,-6.236034908485412,-7.548662982928753,0.5476594916375354
1789222581143073800,8.17507373046875,-6.225002642339468,-7.560277432876825,0.5117958588348701
1789222581153067800,8.18506787109375,-6.211708276480436,-7.574680052238702,0.45747423033230006
1789222581163062800,8.195062744140625,-6.211672036123275,-7.577439580079913,0.4097924417030066
1789222581173056800,8.205056884765625,-6.2207064064502715,-7.571322558504343,0.3850722803357988
1789222581183051800,8.2150517578125,-6.225801683762669,-7.5672835122466084,0.3821179240422323
1789222581193045800,8.225045654296874,-6.225633925980329,-7.567093542632461,0.3885460939262062
1789222581203040000,8.2350400390625,-6.22167846635282,-7.570240608486532,0.3905934549100697
1789222581213034800,8.24503466796875,-6.221085176634788,-7.571510190030932,0.37511812828276303
1789222581223028700,8.25502880859375,-6.233453659820556,-7.562967987135052,0.3405168070334941
1789222581233022700,8.265022705078126,-6.2524249022722245,-7.54915281227231,0.29642230230644345
1789222581243017700,8.275017822265625,-6.271900002592802,-7.534105465266108,0.2662646991256624
1789222581253011700,8.28501171875,-6.290008490735292,-7.51890263543725,0.26884419422484934
1789222581263006700,8.2950068359375,-6.2958525405883785,-7.513317528781294,0.2875435791988857
1789222581273000700,8.305000732421876,-6.285137669828534,-7.522443669044971,0.28330314688384534
1789222581282994700,8.31499462890625,-6.265726282393932,-7.539464361950754,0.25988122689994053
1789222581292989700,8.32498974609375,-6.239313491764665,-7.561997096276283,0.23989048694111406
1789222581302983700,8.334983642578125,-6.216813490664959,-7.5807275157094,0.2327672839976847
1789222581312977700,8.344977783203126,-6.212916483226418,-7.584057536914944,0.2283001485209912
1789222581322972700,8.35497265625,-6.21623247590661,-7.581634693682194,0.21829448547642677
1789222581332967000,8.364966796875,-6.232694950407743,-7.5687605990618465,0.1943149133434519
1789222581342961700,8.374961669921875,-6.249255624586343,-7.555905793663859,0.1596000304508023
1789222581352956000,8.384955810546876,-6.258788592085242,-7.548625573527812,0.1273061367605347
1789222581362950000,8.394949951171874,-6.256690158501267,-7.550659709703922,0.10840556665859184
1789222581372945000,8.40494482421875,-6.234945359683037,-7.568489965426921,0.11746488876375369
1789222581382939000,8.41493896484375,-6.208288238903879,-7.589872360673547,0.14620152836386113
1789222581392933000,8.42493310546875,-6.1837529325842855,-7.609401237007975,0.16909836502773687
1789222581402928000,8.43492822265625,-6.178994924402237,-7.6130656047344205,0.17785810139812527
1789222581412922000,8.444922119140625,-6.194568925631046,-7.600788306963444,0.16032808899702503
1789222581422917000,8.454917236328125,-6.219270820689201,-7.5812617687165735,0.12456597120692021
1789222581432911000,8.4649111328125,-6.255871243333816,-7.551462842780351,0.09932021506302989
1789222581442905000,8.474905029296876,-6.282609028133749,-7.529338689255714,0.09094058231771923
1789222581452900000,8.484900146484375,-6.280815130454301,-7.530866629475355,0.08834050108822994
1789222581462894000,8.49489404296875,-6.26507687857449,-7.54409728244841,0.07611718939365819
1789222581472889000,8.50488916015625,-6.242777953004837,-7.562650007227063,0.06659146448629907
1789222581482883300,8.51488330078125,-6.23033114388585,-7.5726342256248,0.09250709184892475
1789222581492877300,8.524877197265624,-6.2267310735672705,-7.574943671610951,0.1357491992640309
1789222581502872300,8.534872314453125,-6.221221954756975,-7.5787863185137505,0.16962615176150575
1789222581512866300,8.5448662109375,-6.22486761778295,-7.575231840902567,0.19304525873381642
1789222581522860000,8.554860107421876,-6.227709563210606,-7.572689755204319,0.20097349444981663
1789222581532855000,8.56485498046875,-6.220275613817572,-7.579388960582017,0.17727144235027953
1789222581542849000,8.57484912109375,-6.212267663928866,-7.586958519053459,0.12713456131960266
1789222581552844000,8.584843994140625,-6.215502408066391,-7.584724476391076,0.09935776146128773
1789222581562838000,8.594838134765626,-6.235708160749078,-7.567837054476142,0.11903406517608091
1789222581572832000,8.60483203125,-6.247850433963537,-7.55706139343977,0.15990909639997408
1789222581582827000,8.614826904296875,-6.242208628684282,-7.560892934426665,0.19521626436365766
1789222581592821200,8.6248212890625,-6.232165373575687,-7.568551924747228,0.21799122821353376
1789222581602815200,8.634815185546875,-6.209632054728269,-7.586989498713612,0.22010832996536045
1789222581612810200,8.644810302734374,-6.188310449758172,-7.604463780605792,0.21753930146126074
1789222581622804200,8.65480419921875,-6.187583304527402,-7.605222490018606,0.21162923716725782
1789222581632799200,8.66479931640625,-6.1886290141880504,-7.604545029148459,0.20531601716615258
1789222581642793200,8.674793212890625,-6.201119662448764,-7.593937125894427,0.22050487326858564
1789222581652787200,8.684787109375,-6.217062496989965,-7.579964714643359,0.2503046577213332
1789222581662782200,8.6947822265625,-6.232413795378804,-7.566804204297065,0.2662286779642105
1789222581672776200,8.704776123046875,-6.236073486930132,-7.563871073454618,0.26387104545477774
1789222581682771200,8.714771240234375,-6.206579681420326,-7.58779555439949,0.27224693360673263
1789222581692765200,8.72476513671875,-6.1819496825546025,-7.606524220266937,0.3076851623378694
1789222581702759200,8.73475927734375,-6.169602242156863,-7.615097402822971,0.3415794678289443
1789222581712754200,8.744754150390625,-6.149805070275068,-7.63078304773271,0.34846166509073223
1789222581722748200,8.754748046875,-6.157886085399985,-7.623852956208586,0.35733693586587906
1789222581732742100,8.7647421875,-6.182573951932787,-7.603004813969135,0.37480683384388686
1789222581742737200,8.774737060546874,-6.183142691731453,-7.60282653479278,0.3689975630432367
1789222581752731100,8.784731201171875,-6.189342130893468,-7.599410588869452,0.33375735936854034
1789222581762726100,8.79472607421875,-6.205410637640953,-7.588045729768276,0.2912504343601875
1789222581772720000,8.80472021484375,-6.2056391856998205,-7.587791462746262,0.2930007668925449
1789222581782714000,8.814714111328126,-6.192606101125478,-7.595746221143007,0.3558784806858748
1789222581792709000,8.824709228515625,-6.16018910164535,-7.6187705383777615,0.4204582491567358
1789222581802703000,8.834703125,-6.120212480565905,-7.649155155247449,0.45145124371573325
1789222581812698000,8.844697998046875,-6.1117573714315885,-7.655612368562817,0.456509002029337
1789222581822692000,8.854692138671876,-6.146874862042069,-7.627101728871464,0.46219650961384173
1789222581832686000,8.86468603515625,-6.1835325678318735,-7.598320455545187,0.4470240749232471
1789222581842681000,8.87468115234375,-6.205907481247186,-7.5819228629738085,0.4141750041687861
1789222581852675000,8.884675048828125,-6.225927940490841,-7.565140654999017,0.42053705001398917
1789222581862669300,8.89466943359375,-6.237267080628872,-7.553398779278993,0.46158225017301735
1789222581872664300,8.904664306640624,-6.238532570520043,-7.551519541403651,0.4750307471478358
1789222581882658300,8.914658203125,-6.233773393294215,-7.555957816112041,0.4668516784759238
1789222581892653300,8.9246533203125,-6.220694716012478,-7.564792279952764,0.49725843411218373
1789222581902647300,8.934647216796876,-6.2105012387782335,-7.568868735611439,0.558838034386374
1789222581912641000,8.94464111328125,-6.20823270932436,-7.5681749081283805,0.5924198763947933
1789222581922636000,8.954635986328125,-6.2116843110829585,-7.565688936531544,0.5879717378795146
1789222581932630000,8.964630126953125,-6.210391348662972,-7.567113416376709,0.58328171689976
1789222581942624000,8.9746240234375,-6.213636029672623,-7.563134575873613,0.6000947584042325
1789222581952619000,8.984618896484376,-6.211451086848974,-7.563052158287167,0.6233052823934704
1789222581962613000,8.994613037109374,-6.198503342470526,-7.5710910878360265,0.653853346196562
1789222581972608000,9.00460791015625,-6.197940447890758,-7.567544209009409,0.6987064872711897
1789222581982602200,9.014602294921875,-6.189371941509843,-7.572585125786065,0.7197253099024296
1789222581992596200,9.02459619140625,-6.168337921309471,-7.592666959828138,0.6880427621766925
1789222582002591200,9.03459130859375,-6.169695765659212,-7.5943819470524785,0.6562086040858179
1789222582012585200,9.044585205078125,-6.199713302782177,-7.569271471193432,0.6633766690842807
1789222582022580200,9.054580322265625,-6.234383634147048,-7.538804436737299,0.6850296979658306
1789222582032574200,9.06457421875,-6.257780291825533,-7.515999899733066,0.721328726511076
1789222582042568200,9.074568115234374,-6.2468053088247775,-7.521563379079103,0.7575520594716072
1789222582052563200,9.084563232421875,-6.210274444285035,-7.552834131133556,0.746707790178433
1789222582062557200,9.09455712890625,-6.178529644978046,-7.584248675572872,0.6894394041668623
1789222582072551200,9.10455126953125,-6.175565534475445,-7.587966819313168,0.6749337628219276
1789222582082546200,9.114546142578124,-6.162026253944635,-7.595616457283496,0.7116371343843638
1789222582092540200,9.1245400390625,-6.131969553855061,-7.616361139148474,0.7485881970975548
1789222582102535200,9.13453515625,-6.136826346236467,-7.611174676421284,0.7614270012088119
1789222582112529200,9.144529052734375,-6.161044257169961,-7.594068058797717,0.7362433139830827
1789222582122523100,9.154523193359376,-6.21134645743072,-7.557312153330445,0.6903607567954808
1789222582132518100,9.16451806640625,-6.264011879691481,-7.519733825564384,0.6214136234279721
1789222582142512000,9.17451220703125,-6.263003579431772,-7.525174555313587,0.5629471136730164
1789222582152507100,9.184507080078125,-6.234926654982567,-7.547701444420218,0.5729571240991354
1789222582162501000,9.194501220703126,-6.185263337147235,-7.5850477169960735,0.6163979141578078
1789222582172495000,9.2044951171875,-6.118683955824375,-7.637915383830666,0.6279648717023432
1789222582182490000,9.214489990234375,-6.104141051208972,-7.652751133912801,0.5875875243349
1789222582192484000,9.224484130859375,-6.124692256328463,-7.641130838745832,0.5211920847442001
1789222582202479000,9.23447900390625,-6.13247574981153,-7.637692680990695,0.4783038140017539
1789222582212473000,9.24447314453125,-6.127166537487507,-7.644243417808413,0.4401846938898787
1789222582222467000,9.254467041015625,-6.128065532153845,-7.64572167366743,0.40016244357042013
1789222582232462000,9.264462158203125,-6.142009886354208,-7.63589410713613,0.37310138163287193
1789222582242456300,9.274456298828126,-6.178780989390611,-7.6064973322600125,0.3664087155938148
1789222582252450300,9.2844501953125,-6.236943840023875,-7.55903590838313,0.3631503713849932
1789222582262445300,9.2944453125,-6.269718566900491,-7.533608621659875,0.32518644183482975
1789222582272439300,9.304439208984375,-6.247073604372144,-7.5546905726552005,0.26664427302777766
1789222582282434300,9.314434326171876,-6.202846924632787,-7.592382297667861,0.2253849003951065
1789222582292428300,9.32442822265625,-6.170671332693099,-7.61879333473146,0.2172165905792266
1789222582302422000,9.334422119140624,-6.139926650339365,-7.643700981494784,0.21335902010193095
1789222582312417300,9.344417236328125,-6.130624568986892,-7.651569815173745,0.19826438162159174
1789222582322411000,9.354410888671875,-6.149232823345065,-7.637379961779713,0.1665863274078816
1789222582332406000,9.364406005859376,-6.1712313046634195,-7.62060126093626,0.11278987355688586
1789222582342400000,9.37439990234375,-6.195451553684473,-7.601608975696563,0.04803456585602835
1789222582352394000,9.38439404296875,-6.227549404212832,-7.575487276968359,0.0018693346817250129
1789222582362389000,9.394388916015625,-6.256943841001391,-7.551214420977234,-0.013829848417133325
1789222582372383200,9.40438330078125,-6.2604983186125756,-7.548227514120936,-0.0282801554037258
1789222582382377200,9.414377197265624,-6.244818518921733,-7.561030297070741,-0.05868178277371917
1789222582392371500,9.424371337890625,-6.2243357028633355,-7.57761259855926,-0.08843372319648042
1789222582402365400,9.434365478515625,-6.189014214113354,-7.606272875854373,-0.10533917395845055
1789222582412360400,9.4443603515625,-6.15987229078114,-7.6298454746216535,-0.10871654143705964
1789222582422354400,9.4543544921875,-6.162950967574119,-7.6273852219879625,-0.10682919332049787
1789222582432348400,9.464348388671874,-6.194789290383458,-7.601395625206828,-0.11729953300105407
1789222582442343400,9.474343505859375,-6.228424433481693,-7.573197704726457,-0.15423678638460114
1789222582452337400,9.48433740234375,-6.246817583784461,-7.556895973744988,-0.2024230539373122
1789222582462332400,9.49433251953125,-6.23827654993236,-7.562741777163744,-0.2433650859828107
1789222582472326400,9.504326416015624,-6.220433434727788,-7.576693730148673,-0.2651550573833287
1789222582482320400,9.5143203125,-6.226046598434448,-7.572113416621089,-0.2642708584273234
1789222582492315400,9.5243154296875,-6.257658126750588,-7.545874813514947,-0.26809591487450524
1789222582502309400,9.534309326171876,-6.276910524231195,-7.52852620382905,-0.30342814421420916
1789222582512304400,9.544304443359374,-6.276195069438219,-7.527417950326204,-0.34313769358899443
1789222582522298400,9.55429833984375,-6.264469560331106,-7.536524216845631,-0.35722682655490934
1789222582532292400,9.564292236328125,-6.232556418719887,-7.563527374583482,-0.3444992642657831
1789222582542287400,9.574287353515626,-6.186254686272144,-7.602542457154393,-0.3193608774865046
1789222582552281300,9.58428125,-6.154943017685413,-7.628388261550665,-0.3078126246424392
1789222582562276400,9.5942763671875,-6.140763101163506,-7.6389862279325715,-0.32755938151124864
1789222582572270300,9.604270263671875,-6.149547296121717,-7.630153517657518,-0.36633594261854885
1789222582582264300,9.614264404296875,-6.18881664571464,-7.59659845405817,-0.4007806485339999
1789222582592259300,9.62425927734375,-6.2482823956400155,-7.546652227628231,-0.42117432500422
1789222582602253300,9.63425341796875,-6.29642887917161,-7.505546310257912,-0.4383500988738611
1789222582612247600,9.64424755859375,-6.3231350997895,-7.482954539221525,-0.4401618975361809
1789222582622242600,9.65424267578125,-6.32181115770936,-7.484103709256648,-0.439645545511879
1789222582632236500,9.664236572265626,-6.267639422538876,-7.527617272290587,-0.47124162053056057
1789222582642231600,9.6742314453125,-6.194788121339679,-7.586328404456377,-0.4925583666624501
1789222582652225500,9.6842255859375,-6.145877667698263,-7.628021181803941,-0.460300174473226
1789222582662219300,9.69421923828125,-6.131564480185508,-7.643031119409203,-0.397969646233879
1789222582672214500,9.704214599609376,-6.157818865382671,-7.624226465696096,-0.35046924205347896
1789222582682208300,9.714208251953124,-6.216514215457439,-7.57636405980289,-0.3522013996083289
1789222582692203300,9.724203369140625,-6.273257262420654,-7.525719329714775,-0.4244629912860691
1789222582702197200,9.734197265625,-6.319415202483534,-7.479630947756767,-0.5389849675988778
1789222582712191200,9.744191162109376,-6.351349386882782,-7.447067817804217,-0.6098562739619985
1789222582722186200,9.754186279296874,-6.353759955155849,-7.446250071680545,-0.5945481205951422
1789222582732180500,9.764180419921875,-6.318649478808045,-7.4805772886961694,-0.5348188243627547
1789222582742175200,9.77417529296875,-6.278781578800082,-7.517710795304179,-0.48094256500750776
1789222582752169500,9.78416943359375,-6.247009306964278,-7.546351783376932,-0.4447798396604135
1789222582762163500,9.79416357421875,-6.205083889904618,-7.581718864834309,-0.4299634153332561
1789222582772158500,9.804158447265625,-6.179411688509583,-7.601867334371804,-0.4437060364164412
1789222582782152400,9.81415234375,-6.194782276120781,-7.5878516685009,-0.4685649851998314
1789222582792147500,9.8241474609375,-6.224740776532888,-7.561852134847641,-0.4913057727854699
1789222582802141400,9.834141357421874,-6.261991772040725,-7.529647901335358,-0.5120943303247913
1789222582812135400,9.844135498046874,-6.298509777098894,-7.497021058496832,-0.5420576530424878
1789222582822130400,9.85413037109375,-6.315382585966587,-7.480788301098347,-0.5693217632714659
1789222582832124400,9.86412451171875,-6.328344943392277,-7.469362651720642,-0.5753789078859612
1789222582842118400,9.874118408203126,-6.332268838837742,-7.468044554859399,-0.5486885789569467
1789222582852113400,9.884113525390624,-6.30459698805809,-7.495195596635341,-0.49444757794253524
1789222582862107400,9.894107421875,-6.268068461605906,-7.529573667055368,-0.4326936440147459
1789222582872102400,9.904102294921875,-6.229668296062946,-7.562920056340098,-0.40479437768738713
1789222582882096400,9.914096435546876,-6.206536426800489,-7.581717111268639,-0.4084742717765271
1789222582892090400,9.92409033203125,-6.213177179989218,-7.575474417486786,-0.4230913376066833
1789222582902085400,9.93408544921875,-6.226420107921958,-7.5627055368065825,-0.4555869187483564
1789222582912079400,9.944079345703125,-6.246399650633335,-7.544419354009628,-0.48437367196734993
1789222582922074400,9.954074462890626,-6.302420228540897,-7.497824191573262,-0.4822118177583441
1789222582932068400,9.964068359375,-6.347936363568902,-7.461128491860627,-0.4534862932072952
1789222582942062300,9.974062255859375,-6.3423477497816085,-7.4683841620773075,-0.41018122182488437
1789222582952057300,9.984057373046875,-6.312149595394731,-7.495601254826783,-0.37830063077639786
1789222582962051300,9.99405126953125,-6.264951790890097,-7.536025035151839,-0.35931101241782304
1789222582972046300,10.00404638671875,-6.206629365780949,-7.5854691572785375,-0.3298483692312613
1789222582982040300,10.014040283203125,-6.167082952812314,-7.618932450941204,-0.2989069221964106
1789222582992034600,10.02403466796875,-6.159689335429668,-7.6253084157139055,-0.28859513407843185
1789222583002029300,10.034029296875,-6.175827400282025,-7.612794971099495,-0.2736615861776285
1789222583012023600,10.0440234375,-6.2040907872140405,-7.590765510120987,-0.2447811815921217
1789222583022018600,10.0540185546875,-6.24842326541543,-7.555308996814489,-0.2118813670311123
1789222583032012500,10.064012451171875,-6.269714475247263,-7.537987275135516,-0.19953613685676827
1789222583042006500,10.074006591796875,-6.258616742649674,-7.547153747409582,-0.20140920071965082
1789222583052001500,10.08400146484375,-6.250244635623693,-7.554532751744985,-0.18400865991711615
1789222583061995500,10.09399560546875,-6.25224545405209,-7.553788655379414,-0.14174503301219082
1789222583071990500,10.103990478515625,-6.246247674942016,-7.559336937156319,-0.1058272314700298
1789222583081984500,10.113984619140625,-6.241800632405281,-7.5633192847907535,-0.08064617459280415
1789222583091978200,10.123978271484376,-6.240771873879432,-7.5644322144687175,-0.050040128958201965
1789222583101973200,10.13397314453125,-6.242012813851237,-7.563558354243636,-0.01600716848168522
1789222583111967200,10.14396728515625,-6.2409296947896475,-7.5644602715194225,0.011038262061891145
1789222583121962200,10.153962158203125,-6.234550222885608,-7.569651410421729,0.03386910711773671
1789222583131956200,10.163956298828126,-6.22742314748466,-7.57531835014224,0.06428646634640171
1789222583141950500,10.173950439453124,-6.214355576118827,-7.5856971208155155,0.0968022043601144
1789222583151945500,10.183945556640625,-6.205278535693884,-7.59270086209774,0.12571684000878594
1789222583161939500,10.193939453125,-6.214048117604851,-7.585132472670078,0.14750658308044076
1789222583171933400,10.203933349609375,-6.237067758664488,-7.565839158657193,0.16566020727260036
1789222583181928400,10.213928466796874,-6.264896261310577,-7.5422975395500655,0.18762966342587023
1789222583191922400,10.22392236328125,-6.273635448083281,-7.534722135859727,0.19960100052021443
1789222583201917400,10.23391748046875,-6.260405379632115,-7.545779536446928,0.19727865851987153
1789222583211911400,10.243911376953125,-6.231856161496043,-7.56938779104948,0.1967681151818484
1789222583221905400,10.253905517578126,-6.201676127287745,-7.593115872639417,0.23277638061959294
1789222583231900400,10.263900390625,-6.180639184477925,-7.607707292571663,0.30476386806368827
1789222583241894400,10.273894287109375,-6.1768584968954325,-7.607740610319375,0.3729569681935012
1789222583251889400,10.283889404296875,-6.194845404484868,-7.5907666791647666,0.4177710558993742
1789222583261883400,10.29388330078125,-6.220771872901916,-7.568818466728925,0.4305493985276669
1789222583271877400,10.30387744140625,-6.2517614699274295,-7.545323609372973,0.39237814636975527
1789222583281872400,10.313872314453125,-6.291292685326933,-7.516021527042985,0.3153434220060706
1789222583291866400,10.323866455078125,-6.315174496173858,-7.49760324229896,0.27367488405061885
1789222583301861400,10.333861328125,-6.296566241815686,-7.51114427639544,0.32610461612567304
1789222583311855400,10.34385546875,-6.2564972662776706,-7.539114233338832,0.43403040904384105
1789222583321849300,10.353849365234375,-6.226421276965737,-7.557966817846894,0.5283961709041148
1789222583331844400,10.36384423828125,-6.205085643470287,-7.57177439392507,0.5792504155570641
1789222583341838300,10.37383837890625,-6.20440876712203,-7.570157021856308,0.6069756770243868
1789222583351833300,10.383833251953124,-6.234552560973167,-7.545033686515689,0.6109075731132179
1789222583361827300,10.393827392578125,-6.251290929806232,-7.534304202708602,0.570972526153177
1789222583371821300,10.4038212890625,-6.244193080499768,-7.541992419123649,0.546621015435271
1789222583381816300,10.41381640625,-6.241547534427046,-7.5416048811107865,0.5810865814756602
1789222583391810300,10.423810302734376,-6.238197639477253,-7.541111544635892,0.6220175076052546
1789222583401805000,10.43380517578125,-6.222401519930362,-7.553898545494675,0.6250714152831583
1789222583411799300,10.44379931640625,-6.224421627581119,-7.551471610608696,0.6342269277717918
1789222583421793300,10.453793212890625,-6.245032453933358,-7.5309373566240065,0.6744977094922214
1789222583431788300,10.463788330078126,-6.25717063549459,-7.517142055505514,0.7146864389523864
1789222583441782300,10.4737822265625,-6.257628900656104,-7.514958866247534,0.7333879976172
1789222583451777300,10.48377734375,-6.2531087928831575,-7.519784094446897,0.7224008127219974
1789222583461771300,10.493771240234375,-6.248168998393416,-7.527727162405848,0.6812436766210943
1789222583471765200,10.50376513671875,-6.225727449482679,-7.549184960976243,0.6484640543736517
1789222583481760300,10.51376025390625,-6.198896141180396,-7.570859617167711,0.6528033987522125
1789222583491754200,10.523754150390625,-6.187036776560545,-7.578127562344074,0.6803995539471507
1789222583501749200,10.533749267578125,-6.176353469982743,-7.583000721338391,0.7218980508316308
1789222583511743200,10.5437431640625,-6.181192726707458,-7.573539065510034,0.7776608545858412
1789222583521737200,10.5537373046875,-6.215898713907599,-7.541484469601511,0.8117894072242081
1789222583531732200,10.563732177734375,-6.242990718972683,-7.523929523688555,0.7654697007283567
1789222583541726500,10.5737265625,-6.246572084590793,-7.529679465517401,0.6742811441320925
1789222583551721200,10.58372119140625,-6.23833266403377,-7.539798123949765,0.6364302830349654
1789222583561715200,10.593715087890626,-6.212724760046601,-7.558340911856293,0.6662791125275195
1789222583571709200,10.603709228515624,-6.173111127060651,-7.586666842630505,0.7110306198585779
1789222583581704200,10.6137041015625,-6.149657186236977,-7.603671168923378,0.732319199341908
1789222583591698200,10.6236982421875,-6.148012926161289,-7.604938996902108,0.732955816745013
1789222583601693200,10.633693115234376,-6.160947811058163,-7.5956006751924745,0.7210772359680384
1789222583611687200,10.643687255859374,-6.173005328598618,-7.5882491433858865,0.6948826911993324
1789222583621681200,10.65368115234375,-6.168415078198909,-7.594978743901848,0.6613108956608921
1789222583631676200,10.66367626953125,-6.162584472349286,-7.601364645546674,0.6420174355175345
1789222583641670100,10.673670166015626,-6.152004041624068,-7.611676780724525,0.620976547184959
1789222583651665200,10.6836650390625,-6.155826814782619,-7.609860671213268,0.6051446622049436
1789222583661659100,10.6936591796875,-6.163665253323316,-7.603084893468022,0.6104935489522293
1789222583671653400,10.7036533203125,-6.141301445823908,-7.620901120665669,0.6137251147519797
1789222583681648000,10.713648193359376,-6.113386433938145,-7.64419256440401,0.6026719519484788
1789222583691642400,10.723642333984374,-6.085836163711548,-7.6676944360226384,0.5826175173699856
1789222583701637400,10.733637451171875,-6.066500764122605,-7.684072154849767,0.5683171528061851
1789222583711631400,10.74363134765625,-6.065124215072393,-7.68701229995489,0.5426761137343943
1789222583721625300,10.753625244140625,-6.07202917215526,-7.68488697836399,0.4933258439036086
1789222583731620400,10.763620361328124,-6.100914490377902,-7.66454035590589,0.451720087252371
1789222583741614300,10.7736142578125,-6.1415872770279645,-7.633558357664942,0.42434984976779666
1789222583751609300,10.783609375,-6.175443369400501,-7.607312740296125,0.4038212583389133
1789222583761603000,10.79360302734375,-6.181818749651312,-7.601869087937474,0.408774350701645
1789222583771597000,10.80359716796875,-6.156212014707923,-7.621739909577369,0.42487822102345524
1789222583781592000,10.813592041015625,-6.112532447457313,-7.6578697921007866,0.40541356903165576
1789222583791586000,10.8235859375,-6.067654610332847,-7.695638674002885,0.3620584114298224
1789222583801581000,10.8335810546875,-6.039474810031056,-7.718807952666282,0.3393125092776492
1789222583811575300,10.8435751953125,-6.040360360693931,-7.718309940016269,0.3348554568035528
1789222583821569300,10.8535693359375,-6.073828330531716,-7.6927119729012245,0.3180883002674207
1789222583831564300,10.863564208984375,-6.1155520875394345,-7.660733364838361,0.2890880869608372
1789222583841558300,10.873558349609375,-6.156468035295605,-7.629090856862068,0.2554604330493137
1789222583851553300,10.88355322265625,-6.1787646227777,-7.612792633011937,0.19659403725657612
1789222583861547300,10.89354736328125,-6.1720654174000025,-7.619554382231831,0.13560105949761345
1789222583871541200,10.903541259765625,-6.157382227531075,-7.631612484294176,0.1245989966936875
1789222583881536300,10.913536376953125,-6.143302264252305,-7.642267149299383,0.1611751708130352
1789222583891530200,10.9235302734375,-6.127194594538212,-7.654533341154456,0.18972687316713854
1789222583901525200,10.933525146484374,-6.10436959926784,-7.6731649763882155,0.1720676266294904
1789222583911519200,10.943519287109375,-6.079432141888141,-7.693715012463927,0.13281965775131246
1789222583921513200,10.95351318359375,-6.071334175628423,-7.700580806580185,0.10166655899346806
1789222583931508200,10.96350830078125,-6.080222415482997,-7.693937715303897,0.06779443793473765
1789222583941502200,10.973502197265624,-6.111169342410564,-7.669591794076561,0.03679697726317681
1789222583951497200,10.983497314453125,-6.157699622917175,-7.632352489006519,0.017495930893340846
1789222583961491500,10.993491455078125,-6.185772455713153,-7.609614587497711,-0.01919060484037036
1789222583971486200,11.003486328125,-6.192044375589489,-7.604123004344105,-0.07930025814287364
1789222583981480200,11.013480224609374,-6.180417066159844,-7.61302761081159,-0.12099994015526026
1789222583991474200,11.02347412109375,-6.154810331216454,-7.6338377591282125,-0.1149926899639424
1789222584001469200,11.03346923828125,-6.137005794456601,-7.648422749319672,-0.09576465060645714
1789222584011463200,11.043463134765625,-6.129857676267624,-7.654197241067886,-0.09223398312912322
1789222584021458200,11.053458251953124,-6.1333583778649565,-7.6512302079558365,-0.10482058431128971
1789222584031452200,11.0634521484375,-6.145237031707167,-7.640877740767598,-0.15311633098730817
1789222584041446100,11.073446044921875,-6.158724874311686,-7.628213489505648,-0.22551685621170325
1789222584051441200,11.083441162109375,-6.173546011346578,-7.614767147955298,-0.2702499145706184
1789222584061435100,11.09343505859375,-6.179502873924374,-7.609209513828158,-0.28991850990299134
1789222584071430100,11.10343017578125,-6.175156369152665,-7.612332614284753,-0.3003475311924703
1789222584081424100,11.113424072265625,-6.155185594269633,-7.628363127109408,-0.3035530309692025
1789222584091418400,11.12341845703125,-6.13200871682167,-7.6473589194804426,-0.29453674428816884
1789222584101413400,11.133413330078126,-6.127611358645558,-7.651174678376316,-0.2868730047272518
1789222584111407400,11.143407470703124,-6.138771050563454,-7.641178769540787,-0.31347503431830553
1789222584121402400,11.15340234375,-6.145829736903309,-7.632752301979065,-0.37451614380162207
1789222584131396400,11.163396240234375,-6.158088914495706,-7.620147671949863,-0.42624556385390455
1789222584141390300,11.173390380859376,-6.171567989271879,-7.607520830088854,-0.4558181336883455
1789222584151385300,11.18338525390625,-6.179066820594668,-7.600323612061143,-0.4739144930016249
1789222584161379300,11.19337939453125,-6.23652473782897,-7.5542130182713265,-0.4582677187975496
1789222584171374300,11.203374267578125,-6.330218336048722,-7.475674903607368,-0.4615233595926314
1789222584181368300,11.213368408203126,-6.369765918061137,-7.4389692670226095,-0.5081428162200377
1789222584191362000,11.223362060546876,-6.347783803355694,-7.456767958563566,-0.5221433575870469
1789222584201357000,11.233357177734375,-6.256816999751329,-7.531576239049434,-0.5458793302224949
1789222584211351000,11.24335107421875,-6.111934481564163,-7.645608860942721,-0.5994242752641439
1789222584221346000,11.253345947265625,-6.022817105218768,-7.716277557405829,-0.595919116687402
1789222584231340300,11.26334033203125,-6.09454144821465,-7.661884872961044,-0.567865171254985
1789222584241334300,11.273334228515624,-6.181974816995859,-7.586562213212251,-0.6305866715732962
1789222584251329300,11.283329345703125,-6.177400933209062,-7.581693145871162,-0.726655839817971
1789222584261323300,11.2933232421875,-6.1769718941420315,-7.580943788808583,-0.7380332661397755
1789222584271318300,11.303318359375,-6.263856396868825,-7.517875630477071,-0.6450073380485176
1789222584281312300,11.313312255859374,-6.323958691132068,-7.4680416322499505,-0.6374122067444026
1789222584291306200,11.32330615234375,-6.32914047768414,-7.463857040041685,-0.6349900210987777
1789222584301301200,11.33330126953125,-6.278661751812696,-7.508579394343495,-0.6082939930813387
1789222584311295200,11.343295166015626,-6.218049169939756,-7.559856577116251,-0.5956718639280647
1789222584321290200,11.353290283203124,-6.194680569311976,-7.576656905269623,-0.6249675895825028
1789222584331284200,11.3632841796875,-6.2378136085957285,-7.539535673621296,-0.6445663893479854
1789222584341279200,11.373279296875,-6.267565772780776,-7.515198520222306,-0.6401567562121897
1789222584351273200,11.383273193359376,-6.262454713377356,-7.520463308882713,-0.6282371858377009
1789222584361267500,11.393267333984374,-6.280642111974954,-7.504764219969511,-0.634380876224488
1789222584371262200,11.40326220703125,-6.339313496652245,-7.453997909328341,-0.6491519635725767
1789222584381256400,11.41325634765625,-6.412098162356019,-7.3919684463948006,-0.6435725560050457
1789222584391252200,11.423252197265626,-6.467389841467142,-7.347710202473402,-0.5953224294358864
1789222584401246200,11.43324609375,-6.474196014350652,-7.346856800514459,-0.5280633952857926
1789222584411240400,11.443240478515625,-6.443540763846039,-7.376533561375736,-0.48777909649666396
1789222584421235200,11.453235107421875,-6.400031292465329,-7.412976747632026,-0.507710781478323
1789222584431229400,11.4632294921875,-6.3336746139824385,-7.467153158977627,-0.5445899114664644
1789222584441224400,11.473224365234374,-6.22734832868278,-7.558600439575314,-0.5080161941656842
1789222584451218200,11.48321826171875,-6.058309274360537,-7.700618800503015,-0.4095808813115582
1789222584461212200,11.493212158203125,-5.896835686856508,-7.829701692011952,-0.30576840546373274
1789222584471207200,11.503207275390626,-5.921994093510508,-7.814340456750989,-0.19093619415797292
1789222584481201200,11.513201171875,-6.079701021957397,-7.692735353776812,-0.17157118488205597
1789222584491196200,11.523196044921875,-6.22000030400753,-7.575698873892426,-0.30127743245372546
1789222584501190100,11.533190185546875,-6.362797248092293,-7.4488231370389455,-0.4474615895576775
1789222584511184100,11.54318408203125,-6.4879182502329344,-7.336267017439007,-0.5064514655996114
1789222584521179100,11.55317919921875,-6.486865526309609,-7.335836224806308,-0.525797313517332
1789222584531173000,11.563173095703124,-6.401607748001814,-7.41254010978043,-0.4940172602338716
1789222584541168000,11.573168212890625,-6.3367638121694325,-7.476220262530446,-0.34921032803356644
1789222584551162400,11.583162353515625,-6.238284733238816,-7.563541987630725,-0.21682927176207303
1789222584561156400,11.59315625,-6.1186044608473775,-7.661400888836384,-0.1897510212277062
1789222584571151400,11.6031513671875,-6.062638243475556,-7.704765983310342,-0.22667815507603808
1789222584581145300,11.613145263671875,-6.083032212206721,-7.687874469742178,-0.2523840760775842
1789222584591140400,11.623140380859375,-6.132322020554542,-7.648508089515566,-0.2556049743528478
1789222584601134300,11.63313427734375,-6.206707107192278,-7.588831911709904,-0.2383487373918295
1789222584611128300,11.64312841796875,-6.302983707642555,-7.509811566486954,-0.21333233302440494
1789222584621123300,11.653123291015625,-6.372890772083402,-7.450085704320669,-0.22991660727430133
1789222584631117300,11.663117431640625,-6.403020537409186,-7.421967278817296,-0.2934442728763446
1789222584641112300,11.6731123046875,-6.390725703981518,-7.429916776517033,-0.3540435934089124
1789222584651106000,11.68310595703125,-6.310338746580481,-7.498322788745164,-0.35379334497489034
1789222584661101300,11.693101318359375,-6.185723355874419,-7.604931398117542,-0.26877869124058634
1789222584671095000,11.703094970703125,-6.072635905876755,-7.699028900963068,-0.13578348512612282
1789222584681089300,11.71308935546875,-6.01041121263206,-7.748845948055386,-0.02716264773205621
1789222584691084000,11.723083984375,-6.025113107201457,-7.737465891385078,-0.004435916356644884
1789222584701078300,11.733078369140625,-6.0904936341285705,-7.685676082915068,-0.08165496804285793
1789222584711073300,11.7430732421875,-6.1690919545471665,-7.620235934755206,-0.21141656253095714
1789222584721067300,11.7530673828125,-6.246759716117381,-7.553298241513967,-0.3099374713093042
1789222584731061200,11.763061279296876,-6.2829948125809425,-7.521955593267083,-0.33843861251994967
1789222584741056300,11.77305615234375,-6.262065421798825,-7.540868383529782,-0.3036693325589411
1789222584751050200,11.78305029296875,-6.203665839800238,-7.591685547575354,-0.22633549738451836
1789222584761045200,11.793045166015625,-6.142246617719531,-7.643477694132923,-0.14296463793502187
1789222584771039200,11.803039306640626,-6.091807054814696,-7.6843176540434355,-0.10745197399449534
1789222584781033200,11.813033203125,-6.08268091455102,-7.691223780170082,-0.12830712136346847
1789222584791028200,11.8230283203125,-6.1276458454370495,-7.654401823729276,-0.18023314170008525
1789222584801022200,11.833022216796875,-6.1746174399703735,-7.614866516676544,-0.24145846691019832
1789222584811017200,11.843017333984376,-6.211829857033491,-7.582861020606756,-0.2894460518193431
1789222584821011200,11.85301123046875,-6.240887024691701,-7.557868618169427,-0.3167653445679694
1789222584831006200,11.863006103515625,-6.244425135689974,-7.55446728529334,-0.32795860996190457
1789222584841000200,11.873000244140625,-6.222949801462889,-7.572332612329721,-0.32412257546298207
1789222584850994400,11.882994384765626,-6.194005446529388,-7.596931631535291,-0.3021723902657628
1789222584860989400,11.892989501953124,-6.180173905053734,-7.609588868534565,-0.26457093735244125
1789222584870983200,11.902983154296875,-6.170176827174425,-7.61871793140769,-0.23333743030214682
1789222584880978400,11.912978515625,-6.1568140722543,-7.629474303221702,-0.2348274496641941
1789222584890972200,11.92297216796875,-6.1539382245570415,-7.630396094241738,-0.276554604205396
1789222584900966100,11.932966064453124,-6.1635945261746645,-7.620608275198936,-0.32682978859506545
1789222584910961200,11.942961181640625,-6.164878136244416,-7.618166142743825,-0.3580629485854879
1789222584920955100,11.952955078125,-6.158420922929048,-7.622910706922411,-0.368066419672966
1789222584930950100,11.9629501953125,-6.155580731067061,-7.625374466687441,-0.36450653523430226
1789222584940944100,11.972944091796874,-6.149592888829112,-7.630784216776489,-0.3521635152833536
1789222584950938000,11.982938232421875,-6.145833828556538,-7.63458828523457,-0.3349208867225796
1789222584960933000,11.99293310546875,-6.157402685797214,-7.625454546186328,-0.33049883249662815
1789222584970927400,12.00292724609375,-6.1747472038298845,-7.610247624704241,-0.35638931628484277
1789222584980922000,12.012922119140624,-6.1859419670611615,-7.5987740445315834,-0.40390776757858693
1789222584990916400,12.022916259765625,-6.192631820088625,-7.589536845108866,-0.4697030858516693
1789222585000911400,12.032911376953125,-6.196300863990187,-7.581222021228075,-0.5489153003849089
1789222585010905300,12.0429052734375,-6.200635093802213,-7.573657723453641,-0.6018429537784308
1789222585020899300,12.0528994140625,-6.200857796642184,-7.574205420464277,-0.5925911413084716
1789222585030894300,12.062894287109375,-6.191599554431438,-7.584738504916429,-0.5533765541100875
1789222585040888300,12.072888427734375,-6.180833830267191,-7.594457350376248,-0.5402792451931163
1789222585050883300,12.08288330078125,-6.178267779171467,-7.594283747375011,-0.5711855113167316
1789222585060877300,12.092877197265626,-6.175968854579329,-7.5922934503406285,-0.6203854494240134
1789222585070871300,12.102871337890624,-6.171389710095524,-7.59130268573761,-0.6756177995633333
1789222585080866300,12.1128662109375,-6.172729434266686,-7.585881245210766,-0.7226406858924775
1789222585090860000,12.122860107421875,-6.179456696695089,-7.578803854170441,-0.7392107124213129
1789222585100855300,12.132855224609376,-6.193568808677792,-7.567670465737581,-0.7351515001583844
1789222585110849000,12.14284912109375,-6.206828103223443,-7.555950217327475,-0.7438322347421199
1789222585120843300,12.15284326171875,-6.205486040964722,-7.552177128529548,-0.791801900402084
1789222585130838300,12.16283837890625,-6.196319568690657,-7.552480495390296,-0.8579372642844915
1789222585140832300,12.172832275390626,-6.195845521438121,-7.548079630082845,-0.8991009762566536
1789222585150827300,12.1828271484375,-6.215460322490334,-7.531618324625492,-0.9017526598092168
1789222585160821200,12.1928212890625,-6.234948282292485,-7.516241891795397,-0.8954865851517766
1789222585170816300,12.202816162109375,-6.245751415857672,-7.506670345851779,-0.9004883389618247
1789222585180810200,12.212810302734376,-6.2540855289608235,-7.498261413946747,-0.9126144647590816
1789222585190804200,12.22280419921875,-6.244536194849014,-7.501898309144377,-0.9474524808410555
1789222585200799200,12.23279931640625,-6.2206479542613025,-7.516592604929208,-0.9872986074086278
1789222585210793200,12.242793212890625,-6.222142576733231,-7.516406726968288,-0.9792679342314601
1789222585220788200,12.252788330078126,-6.252627731367945,-7.495965996485948,-0.9410221555326134
1789222585230782200,12.2627822265625,-6.28572277624011,-7.4698881368994705,-0.9278177329793572
1789222585240776200,12.272776123046874,-6.309708047461509,-7.448080209717154,-0.94025226713866
1789222585250771200,12.282771240234375,-6.312697876927256,-7.4430685190349815,-0.9596679654221981
1789222585260765400,12.292765380859375,-6.299006620705128,-7.452418531182408,-0.9769071964494883
1789222585270760200,12.30276025390625,-6.280694134423136,-7.466862067076564,-0.9844975785132497
1789222585280754400,12.31275439453125,-6.266441152665019,-7.479974062106013,-0.9757487471293658
1789222585290748200,12.322748046875,-6.2704936429262155,-7.4800360214263195,-0.9488643204003572
1789222585300743400,12.332743408203125,-6.276276902502775,-7.478919584617018,-0.918958938414976
1789222585310737200,12.342737060546876,-6.280105520880222,-7.478922507226467,-0.8923916148111224
1789222585320732200,12.352732177734374,-6.297254224079847,-7.467095291310549,-0.870321456496045
1789222585330726100,12.36272607421875,-6.303572905707359,-7.461783740898967,-0.8701387203402817
1789222585340721200,12.37272119140625,-6.3033542945206165,-7.463470671072602,-0.8571520321909337
1789222585350715100,12.382715087890626,-6.294928996002674,-7.475960150289535,-0.8088688436023891
1789222585360709000,12.392709228515624,-6.276153568384051,-7.496870836371183,-0.7597469391673803
1789222585370704100,12.4027041015625,-6.261826936867833,-7.510998145923018,-0.7381191908575594
1789222585380698000,12.412697998046875,-6.262392169535159,-7.511761531510949,-0.7254471216153353
1789222585390693000,12.422693115234376,-6.28721564514637,-7.495296134400367,-0.6795860456071794
1789222585400687000,12.43268701171875,-6.304100144451856,-7.486186360749602,-0.6210660520993173
1789222585410681300,12.442681396484375,-6.292680924814939,-7.499915026372671,-0.569057742040418
1789222585420676400,12.45267626953125,-6.283420344516634,-7.511568054765463,-0.5151434156971052
1789222585430670300,12.46267041015625,-6.264993876466154,-7.52925159549415,-0.4802162600269541
1789222585440665300,12.472665283203124,-6.229075006344914,-7.560646850711107,-0.45346020891796796
1789222585450659000,12.4826591796875,-6.223082487931848,-7.568359032523632,-0.4044403766179457
1789222585460654300,12.492654296875,-6.237345991083979,-7.560107921528815,-0.3326653994133696
1789222585470648000,12.50264794921875,-6.256817584273219,-7.5462629360496996,-0.2766483834360726
1789222585480642000,12.51264208984375,-6.301488500648737,-7.510034853848815,-0.24699818178815766
1789222585490637000,12.522636962890624,-6.325646205827593,-7.4901406513333315,-0.2331844864964485
1789222585500631000,12.532631103515625,-6.320366219598054,-7.495577289429306,-0.19917216238258406
1789222585510626000,12.5426259765625,-6.3082023190736765,-7.506985987672209,-0.14876051953113636
1789222585520620000,12.5526201171875,-6.273405730980635,-7.536925198861956,-0.09762235250342637
1789222585530614000,12.562614013671874,-6.244445009434223,-7.561561042946576,-0.009347765391413122
1789222585540609000,12.572609130859375,-6.2327580787718295,-7.570567940744757,0.09802179101663641
1789222585550603300,12.582603271484375,-6.219338625228405,-7.580171050870418,0.17665866248048842
1789222585560598000,12.592597900390626,-6.23385756444633,-7.56763422538042,0.2008000923779793
1789222585570592300,12.60259228515625,-6.272559343284368,-7.536138432398438,0.1789090169568546
1789222585580587300,12.612587158203125,-6.302349501392245,-7.512004692617058,0.14336791237313298
1789222585590581200,12.622581298828125,-6.340124228513241,-7.479826178067922,0.15940016049714759
1789222585600575200,12.6325751953125,-6.350238210770487,-7.469573664122819,0.22435290873255578
1789222585610570200,12.6425703125,-6.311338863533735,-7.499201909667253,0.31520478072036057
1789222585620564200,12.652564208984375,-6.267602013137936,-7.530383229872584,0.42530342416558414
1789222585630559200,12.662559326171875,-6.235621651509404,-7.5512752112537616,0.5154107613964006
1789222585640553200,12.67255322265625,-6.21352847764492,-7.566355291485786,0.5592067946335301
1789222585650547200,12.682547119140626,-6.217611947566271,-7.561614234438538,0.5776445512630045
1789222585660542200,12.692542236328125,-6.231465700873732,-7.550808178263902,0.5696586305430159
1789222585670536000,12.702535888671875,-6.2465913738131515,-7.539027724099159,0.5599424519643187
1789222585680531200,12.71253125,-6.278907251006364,-7.509555545899271,0.5935351806929334
1789222585690525000,12.72252490234375,-6.307339564764499,-7.482334361496568,0.634448461567983
1789222585700520000,12.73252001953125,-6.314861776962876,-7.475420636585354,0.6410777435146272
