time,seconds_elapsed,z,y,x
1789222573012681700,0.044681640625,-0.441696435213089,0.45302632451057434,0.22612181305885315
1789222573022675700,0.05467578125,-0.2158377468585968,0.2614891231060028,0.10379457473754883
1789222573032670700,0.064670654296875,0.1149502843618393,-0.08863931894302368,-0.015135809779167175
1789222573042664700,0.074664794921875,0.35263848304748535,-0.20857824385166168,-0.27304911613464355
1789222573052658700,0.08465869140625,0.26608309149742126,0.1587611585855484,-0.679858386516571
1789222573062653000,0.09465283203125,-0.01064944826066494,-0.17189106345176697,-0.5968066453933716
1789222573072648000,0.10464794921875,-0.41923508048057556,-0.48201483488082886,-0.02009434998035431
1789222573082642000,0.114641845703125,-0.6629795432090759,-0.40135329961776733,0.1287502497434616
1789222573092635600,0.1246357421875,-0.5753674507141113,-0.3511239290237427,0.29009974002838135
1789222573102630700,0.134630615234375,-0.28121888637542725,-0.1786632239818573,0.5060019493103027
1789222573112624600,0.144624755859375,0.004500475712120533,0.43412935733795166,0.4322265088558197
1789222573122618600,0.15461865234375,0.21475224196910858,0.6487300395965576,0.015278555452823639
1789222573132613600,0.164613525390625,0.24812352657318115,0.172933429479599,-0.13978372514247894
1789222573142607600,0.174607666015625,0.01073839794844389,-0.1633726805448532,0.05156731978058815
1789222573152601600,0.1846015625,-0.20044228434562683,-0.44703128933906555,-0.22145701944828033
1789222573162596600,0.1945966796875,-0.1993381381034851,-0.6395583748817444,-0.4176880419254303
1789222573172590800,0.2045908203125,-0.10825483500957489,0.0782623142004013,-0.12501411139965057
1789222573182584800,0.214584716796875,0.043829772621393204,1.105301022529602,0.062071360647678375
1789222573192578800,0.224578857421875,0.3630959093570709,0.49514129757881165,0.14949308335781097
1789222573202573800,0.23457373046875,0.6557935476303101,-0.6466703414916992,0.4392593801021576
1789222573212567800,0.24456787109375,0.6000916957855225,-0.04543565958738327,0.1909281462430954
1789222573222561800,0.254561767578125,0.3696454167366028,0.4657258987426758,0.03867815434932709
1789222573232556800,0.264556884765625,0.019349729642271996,0.4816928803920746,0.2039312869310379
1789222573242550800,0.27455078125,-0.434815376996994,1.1356216669082642,0.05192391946911812
1789222573252544800,0.284544677734375,-0.719905436038971,1.2520822286605835,-0.13143259286880493
1789222573262539500,0.29453955078125,-0.4866599142551422,-0.5205923318862915,-0.2425796240568161
1789222573272533800,0.30453369140625,0.19582650065422058,-2.3234734535217285,-0.25773701071739197
1789222573282527700,0.31452783203125,0.9150930643081665,-1.6469776630401611,-0.5501355528831482
1789222573292522800,0.324522705078125,1.3231244087219238,0.5003512501716614,-0.6757901906967163
1789222573302516700,0.334516845703125,1.0563697814941406,2.1807022094726562,0.009889914654195309
1789222573312510700,0.3445107421875,0.256393164396286,2.552539110183716,0.4798044264316559
1789222573322504700,0.354504638671875,-0.5628207325935364,1.0443636178970337,0.47931864857673645
1789222573332499700,0.364499755859375,-0.9215570688247681,-1.5829179286956787,0.559330940246582
1789222573342493700,0.37449365234375,-0.8517563939094543,-1.8148510456085205,-0.20278213918209076
1789222573352487700,0.38448779296875,-0.47376516461372375,-0.6261533498764038,-0.2147277444601059
1789222573362482700,0.394482666015625,0.09811165183782578,0.199870765209198,0.20101672410964966
1789222573372477000,0.404476806640625,0.6355910897254944,1.1424545049667358,-0.20834414660930634
1789222573382471200,0.41447119140625,0.8098459839820862,1.6128718852996826,-0.513154149055481
1789222573392466200,0.424466064453125,0.5922577381134033,0.3591288626194,-0.3504948914051056
1789222573402460200,0.434460205078125,0.017401093617081642,-1.0623780488967896,-0.22736018896102905
1789222573412454100,0.4444541015625,-0.5459197759628296,-1.6444332599639893,-0.021574534475803375
1789222573422448000,0.4544482421875,-0.8199720978736877,-0.8427906036376953,0.0026607641484588385
1789222573432443100,0.464443115234375,-0.6878995895385742,0.5522016286849976,0.05740097537636757
1789222573442437000,0.47443701171875,-0.29420605301856995,1.6056938171386719,-0.10327285528182983
1789222573452431000,0.48443115234375,0.10662684589624405,1.3377885818481445,-0.12657871842384338
1789222573462426000,0.494426025390625,0.3080238699913025,0.04385720193386078,0.3010043203830719
1789222573472420000,0.504420166015625,0.1659117341041565,-0.8303914666175842,0.30208635330200195
1789222573482414300,0.514414306640625,-0.1533634513616562,-1.2738720178604126,0.006895989179611206
1789222573492409300,0.524409423828125,-0.5063154101371765,-1.1869748830795288,0.00791358295828104
1789222573502403300,0.5344033203125,-0.7777825593948364,0.07292081415653229,0.04337650164961815
1789222573512397000,0.54439697265625,-0.7920938730239868,1.8540112972259521,-0.4935913383960724
1789222573522392000,0.55439208984375,-0.42573294043540955,1.4188398122787476,-0.38660842180252075
1789222573532386000,0.564385986328125,-0.08221737295389175,-0.09709565341472626,0.2949956953525543
1789222573542380000,0.574380126953125,0.09391078352928162,-1.1241765022277832,0.13896720111370087
1789222573552374000,0.5843740234375,0.1709459125995636,-1.6335475444793701,-0.04024222865700722
1789222573562369000,0.594369140625,0.04442152753472328,-1.0406954288482666,0.17331746220588684
1789222573572363300,0.60436328125,-0.3454359471797943,0.7251079082489014,-0.2080562561750412
1789222573582357200,0.614357177734375,-0.7048399448394775,1.36882746219635,-0.5107551217079163
1789222573592352300,0.624352294921875,-0.797376811504364,0.15076927840709686,0.114476777613163
1789222573602346200,0.63434619140625,-0.7775362133979797,-0.27682948112487793,0.3117528259754181
1789222573612340200,0.64434033203125,-0.5772489309310913,-0.021317539736628532,-0.10144379734992981
1789222573622335200,0.654335205078125,-0.13675439357757568,-0.760999321937561,0.3514656126499176
1789222573632329200,0.6643291015625,0.19780921936035156,-0.49635836482048035,0.5233620405197144
1789222573642323200,0.6743232421875,0.28676652908325195,0.7339972853660583,0.04100123047828674
1789222573652318200,0.684318115234375,0.1491684466600418,0.8226019740104675,-0.18144036829471588
1789222573662312200,0.694312255859375,-0.1800994575023651,0.013222861103713512,-0.0850544422864914
1789222573672306200,0.70430615234375,-0.5640887022018433,-0.31750020384788513,-0.18904049694538116
1789222573682300200,0.714300048828125,-0.690912663936615,-0.7719707489013672,-0.27757835388183594
1789222573692295200,0.724295166015625,-0.5466820001602173,-1.0435348749160767,0.01649082638323307
1789222573702289200,0.7342890625,-0.3547724783420563,-0.3694760501384735,0.20268599689006805
1789222573712283100,0.744283203125,-0.010059026069939137,0.11755459010601044,0.01919553242623806
1789222573722278100,0.754278076171875,0.3656783699989319,-0.15590570867061615,0.15899470448493958
1789222573732272000,0.764272216796875,0.2943280339241028,0.4852133095264435,0.13089516758918762
1789222573742266000,0.77426611328125,-0.16789525747299194,0.9604905843734741,0.060317136347293854
1789222573752261000,0.78426123046875,-0.6933566331863403,0.06474730372428894,0.5248997211456299
1789222573762255000,0.794255126953125,-1.0564181804656982,-0.40060627460479736,0.3654860854148865
1789222573772249300,0.804249267578125,-1.0230722427368164,-0.12073946744203568,-0.46689555048942566
1789222573782244000,0.814244140625,-0.586234450340271,-0.5005134344100952,-0.43248164653778076
1789222573792238300,0.82423828125,-0.033771812915802,-0.7768943905830383,-0.1593792736530304
1789222573802232300,0.834232421875,0.5297884941101074,-0.5306028723716736,-0.3274998366832733
1789222573812226000,0.84422607421875,0.6573501825332642,-0.20749087631702423,-0.1410609781742096
1789222573822221000,0.854220947265625,-0.0332341194152832,-0.08967502415180206,0.1288978010416031
1789222573832215000,0.864215087890625,-1.0040132999420166,-0.7525219917297363,0.6665202379226685
1789222573842209000,0.874208984375,-1.7831014394760132,-1.466101884841919,0.7098490595817566
1789222573852204000,0.8842041015625,-2.035614490509033,-0.6125177145004272,-0.13445954024791718
1789222573862198000,0.894197998046875,-1.5434925556182861,0.9799314141273499,-0.5330849289894104
1789222573872192300,0.904192138671875,-0.618215799331665,0.9889060258865356,-0.6113973259925842
1789222573882187000,0.91418701171875,0.15540477633476257,0.3606324791908264,-0.4911292493343353
1789222573892181200,0.92418115234375,0.532575249671936,-0.6099456548690796,0.5410741567611694
1789222573902175200,0.93417529296875,0.45649564266204834,-0.6864899396896362,0.6836534142494202
1789222573912169200,0.944169189453125,0.09641628712415695,-0.6652280688285828,0.15084943175315857
1789222573922164200,0.954164306640625,-0.40882185101509094,-0.6199697852134705,-0.1906019002199173
1789222573932158200,0.964158203125,-0.9023809432983398,-0.06800541281700134,-0.39048120379447937
1789222573942152200,0.974152099609375,-1.0514119863510132,0.007379353046417236,-0.3436308801174164
1789222573952147200,0.984147216796875,-0.8156570196151733,-0.461828351020813,-0.09804267436265945
1789222573962141000,0.994140869140625,-0.40215569734573364,-0.6731709241867065,0.20692415535449982
1789222573972135200,1.00413525390625,-0.13749687373638153,-0.3280295431613922,0.44978952407836914
1789222573982130200,1.014130126953125,-0.12367453426122665,-0.10686492919921875,0.4051584005355835
1789222573992124200,1.024124267578125,-0.3147220015525818,-0.2705095112323761,0.3186517357826233
1789222574002118100,1.0341181640625,-0.678065299987793,-0.10655973106622696,0.19732666015625
1789222574012113200,1.044113037109375,-0.9132445454597473,-0.08787179738283157,-0.16791389882564545
1789222574022107100,1.054107177734375,-0.8578904867172241,-0.641679584980011,-0.21261213719844818
1789222574032101000,1.06410107421875,-0.5868104696273804,-1.0422967672348022,-0.26201722025871277
1789222574042095000,1.07409521484375,-0.2782723605632782,-0.8795939087867737,-0.06214433163404465
1789222574052090000,1.084090087890625,-0.05122377350926399,-0.4195181727409363,0.206614688038826
1789222574062084000,1.094083984375,0.030768033117055893,-0.17612522840499878,0.07629583775997162
1789222574072078300,1.104078369140625,-0.126907080411911,-0.2073260247707367,0.1533123254776001
1789222574082073000,1.114072998046875,-0.41522568464279175,-0.1403970569372177,0.37366440892219543
1789222574092067300,1.1240673828125,-0.5920489430427551,-0.14397741854190826,0.2392679750919342
1789222574102061000,1.13406103515625,-0.5095780491828918,-0.5190423727035522,0.1156589537858963
1789222574112056300,1.144056396484375,-0.2716844975948334,-0.6119883060455322,0.2225707620382309
1789222574122050000,1.154050048828125,-0.04662209749221802,-0.21438419818878174,0.29037776589393616
1789222574132044000,1.1640439453125,0.1441691517829895,0.07906312495470047,-0.07929562032222748
1789222574142039000,1.1740390625,0.22138191759586334,0.07232958823442459,-0.07499221712350845
1789222574152033000,1.184032958984375,0.03449193015694618,0.5952934622764587,0.06670339405536652
1789222574162027000,1.194027099609375,-0.11279978603124619,0.2104850709438324,-0.17266631126403809
1789222574172021200,1.204021240234375,-0.027579164132475853,-1.4734429121017456,-0.07735976576805115
1789222574182016300,1.214016357421875,0.059308864176273346,-1.9543063640594482,0.3911435306072235
1789222574192010200,1.22401025390625,-0.012684635818004608,-0.08195158839225769,0.10827028006315231
1789222574202004200,1.234004150390625,-0.05733732506632805,1.1702220439910889,-0.2413841187953949
1789222574211999200,1.243999267578125,-0.042922697961330414,0.5573820471763611,0.15726977586746216
1789222574221993200,1.2539931640625,-0.012736834585666656,-0.3923233151435852,0.2552426755428314
1789222574231987200,1.2639873046875,0.08398837596178055,-0.8622588515281677,-0.055634766817092896
1789222574241982200,1.273982177734375,0.15801812708377838,-0.62642902135849,0.0010748518398031592
1789222574251976200,1.28397607421875,0.1384846419095993,0.0051710596308112144,0.12140952050685883
1789222574261970000,1.293969970703125,0.04984026029706001,0.6445603370666504,0.021093301475048065
1789222574271964200,1.303964111328125,-0.07811503857374191,0.5733649730682373,0.07538476586341858
1789222574281959200,1.313959228515625,-0.24302729964256287,-0.08573567867279053,-0.04056260734796524
1789222574291953200,1.323953125,-0.3385692536830902,-1.1344927549362183,-0.16369278728961945
1789222574301947100,1.333947021484375,-0.36244797706604004,-1.549633502960205,0.012917929328978062
1789222574311942100,1.343942138671875,-0.3100678622722626,-0.9030502438545227,0.01673450507223606
1789222574321936100,1.35393603515625,-0.18760105967521667,-0.14923502504825592,-0.2941775619983673
1789222574331930000,1.36393017578125,-0.14631913602352142,0.06972821801900864,-0.18005898594856262
1789222574341925000,1.373925048828125,-0.23211339116096497,0.014488928020000458,0.22625496983528137
1789222574351919000,1.383919189453125,-0.3787776827812195,-0.011976235546171665,0.5024918913841248
1789222574361913000,1.3939130859375,-0.5099676251411438,0.1455974131822586,0.42940303683280945
1789222574371908000,1.403908203125,-0.5211006999015808,-0.000660463934764266,0.17021460831165314
1789222574381901800,1.41390185546875,-0.3774822950363159,-0.6484517455101013,-0.048290565609931946
1789222574391895600,1.4238955078125,-0.3175973892211914,-0.8197886347770691,-0.1644507348537445
1789222574401889500,1.4338896484375,-0.24913552403450012,-0.9701810479164124,-0.07276022434234619
1789222574411884500,1.443884521484375,-0.08647097647190094,-0.8999324440956116,-0.08008658140897751
1789222574421878500,1.45387841796875,0.21632298827171326,-0.8321416974067688,0.0020636834669858217
1789222574431872500,1.46387255859375,0.3604617714881897,0.1649247705936432,-0.279446542263031
1789222574441867500,1.473867431640625,0.11809894442558289,0.8576489090919495,-0.2913048267364502
1789222574451861500,1.483861572265625,-0.29253464937210083,0.6257344484329224,0.2964545786380768
1789222574461855700,1.493855712890625,-0.5648593902587891,-0.10528860241174698,0.6093589663505554
1789222574471850800,1.503850830078125,-0.49807584285736084,-0.9124506711959839,0.5300049781799316
1789222574481844700,1.5138447265625,-0.14888907968997955,-1.2260783910751343,0.30640867352485657
1789222574491838700,1.523838623046875,0.25556278228759766,-0.9031034708023071,0.1638118326663971
1789222574501832700,1.533832763671875,0.5755266547203064,-0.11358674615621567,-0.19288264214992523
1789222574511827700,1.54382763671875,0.6756647229194641,0.7611790895462036,-0.6707757115364075
1789222574521821700,1.55382177734375,0.6392436027526855,0.305110365152359,-0.4564562141895294
1789222574531815700,1.563815673828125,0.481550395488739,-0.5365515947341919,-0.4059259295463562
1789222574541810700,1.573810791015625,0.21864792704582214,-0.7024015188217163,-0.31111767888069153
1789222574551804400,1.583804443359375,-0.17701366543769836,0.03821289911866188,0.6778189539909363
1789222574561798700,1.593798583984375,-0.3337031304836273,0.3321838080883026,1.3895373344421387
1789222574571793700,1.603793701171875,-0.057554904371500015,-0.1607329547405243,1.0270671844482422
1789222574581787600,1.61378759765625,0.3772202432155609,-0.31462424993515015,0.791411817073822
1789222574591781600,1.62378173828125,0.7287372946739197,0.8554866909980774,0.09639497846364975
1789222574601776600,1.633776611328125,0.8769943714141846,1.5609500408172607,-1.2162805795669556
1789222574611770600,1.6437705078125,0.8009880185127258,0.26872947812080383,-1.0828924179077148
1789222574621764600,1.6537646484375,0.6256673336029053,-1.1873836517333984,-0.23220235109329224
1789222574631758600,1.663758544921875,0.5140311121940613,-1.505616545677185,-0.12810097634792328
1789222574641753600,1.673753662109375,0.4642885625362396,-0.6335950493812561,-0.3184567987918854
1789222574651747600,1.68374755859375,0.24761804938316345,0.1669250726699829,0.25875937938690186
1789222574661741800,1.693741943359375,0.12476403266191483,0.17547941207885742,0.6654802560806274
1789222574671736800,1.70373681640625,0.11390366405248642,0.40889161825180054,0.48793265223503113
1789222574681730800,1.713730712890625,0.11396917700767517,1.1684017181396484,0.7419145703315735
1789222574691724500,1.723724609375,0.18842850625514984,1.6095865964889526,0.18387183547019958
1789222574701719800,1.7337197265625,0.5117961764335632,-0.08723503351211548,-0.7355629801750183
1789222574711713500,1.743713623046875,0.8979476094245911,-2.0152039527893066,-0.4702969491481781
1789222574721707500,1.75370751953125,0.922088623046875,-0.5597245693206787,-0.09737528860569
1789222574731702500,1.76370263671875,0.6871011257171631,1.9527820348739624,-0.3219063878059387
1789222574741696500,1.773696533203125,0.4321482181549072,1.3577812910079956,-0.05500705912709236
1789222574751690800,1.783690673828125,0.11298567056655884,-0.6840060353279114,0.3242284059524536
1789222574761684700,1.793684814453125,-0.16066797077655792,-1.4036132097244263,0.2763828635215759
1789222574771679700,1.8036796875,-0.1532132476568222,-0.7227169275283813,0.09782110154628754
1789222574781673700,1.813673828125,0.2229587733745575,0.10985752195119858,-0.2542645037174225
1789222574791667700,1.823667724609375,0.6409754753112793,0.7382684350013733,-0.616041362285614
1789222574801662700,1.833662841796875,0.7640076279640198,0.964382529258728,-0.28612229228019714
1789222574811656700,1.84365673828125,0.5155983567237854,0.8554875254631042,0.5471557378768921
1789222574821650700,1.853650634765625,0.15186941623687744,0.45614171028137207,0.5988309383392334
1789222574831645700,1.863645751953125,-0.0537380613386631,-0.5242403149604797,0.48902666568756104
1789222574841639700,1.8736396484375,-0.31545063853263855,-0.4504667818546295,0.6199870705604553
1789222574851633700,1.883633544921875,-0.408143550157547,0.09865333884954453,0.006894657853990793
1789222574861628400,1.89362841796875,-0.1668478399515152,-0.18035273253917694,-0.6605028510093689
1789222574871622700,1.90362255859375,0.27247440814971924,-0.7622334361076355,-0.5035028457641602
1789222574881616600,1.91361669921875,0.6258572340011597,0.0032117723021656275,-0.8845694661140442
1789222574891611600,1.923611572265625,0.7115651965141296,0.8574723601341248,-0.9479466080665588
1789222574901605600,1.933605712890625,0.5377238988876343,0.5985494256019592,-0.00296276668086648
1789222574911599600,1.943599609375,0.1847381591796875,0.2385403960943222,0.4604954421520233
1789222574921593600,1.953593505859375,-0.1862172782421112,0.120845727622509,0.5798572301864624
1789222574931588600,1.963588623046875,-0.42142125964164734,0.21224035322666168,0.685455322265625
1789222574941582600,1.97358251953125,-0.45752575993537903,0.25596973299980164,0.5422284007072449
1789222574951576800,1.983576904296875,-0.2754201292991638,0.281644731760025,-0.09434834122657776
1789222574961571600,1.993571533203125,-0.00800519622862339,0.3337329626083374,-0.4214297831058502
1789222574971565800,2.00356591796875,0.16805025935173035,0.30013319849967957,-0.2827368974685669
1789222574981559800,2.013559814453125,0.24081766605377197,0.13940609991550446,-0.7369682788848877
1789222574991554800,2.023554931640625,0.261850506067276,-0.813664436340332,-0.5948271155357361
1789222575001548800,2.033548828125,0.15024782717227936,-1.165743112564087,0.07215861231088638
1789222575011542500,2.04354248046875,-0.003909520339220762,-0.39110517501831055,0.21021687984466553
1789222575021537500,2.05353759765625,-0.10077481716871262,0.5114105343818665,0.22555775940418243
1789222575031531500,2.063531494140625,-0.21026934683322906,1.0750411748886108,0.28663522005081177
1789222575041525500,2.073525390625,-0.29952651262283325,0.8948231935501099,0.46890702843666077
1789222575051519700,2.083519775390625,-0.3078363835811615,0.28786134719848633,0.3241117596626282
1789222575061514500,2.093514404296875,-0.1838609129190445,-0.39273956418037415,-0.19154946506023407
1789222575071508700,2.1035087890625,-0.037223003804683685,-0.9282530546188354,-0.020592626184225082
1789222575081502700,2.113502685546875,0.05507417023181915,-0.5895306468009949,0.01296453457325697
1789222575091497700,2.123497802734375,0.1296141892671585,0.2070237547159195,-0.4769420623779297
1789222575101491700,2.13349169921875,0.10510537773370743,0.4561488926410675,-0.32023075222969055
1789222575111485700,2.143485595703125,-0.04952973499894142,0.42187267541885376,-0.09409879893064499
1789222575121480700,2.153480712890625,-0.23929700255393982,0.2088075429201126,-0.1302914321422577
1789222575131474700,2.163474609375,-0.3153883218765259,-0.398883193731308,0.19163787364959717
1789222575141468700,2.17346875,-0.18520741164684296,-0.6597129106521606,0.2727108895778656
1789222575151463700,2.183463623046875,-0.09828688949346542,0.11611941456794739,0.3012426793575287
1789222575161457700,2.193457763671875,-0.10020036995410919,0.793057382106781,0.209471195936203
1789222575171451600,2.20345166015625,-0.04751931503415108,0.41456523537635803,0.07271521538496017
1789222575181446700,2.21344677734375,0.004029895178973675,-0.27976879477500916,0.24381452798843384
1789222575191440600,2.223440673828125,-0.061528339982032776,-0.1719352751970291,-0.05916425213217735
1789222575201434600,2.2334345703125,-0.060570403933525085,-0.5051965713500977,-0.328045517206192
1789222575211428600,2.2434287109375,0.062123559415340424,-0.7713497281074524,-0.4871765673160553
1789222575221423600,2.253423583984375,0.21337193250656128,-0.3789033591747284,-0.5090714693069458
1789222575231417600,2.26341748046875,0.08552342653274536,0.887340784072876,-0.21419112384319305
1789222575241411600,2.27341162109375,-0.13453836739063263,1.3463882207870483,0.1593499779701233
1789222575251406600,2.283406494140625,-0.3123070299625397,0.5962173342704773,0.6937691569328308
1789222575261400600,2.293400634765625,-0.39744457602500916,-0.18360204994678497,0.9118149280548096
1789222575271394800,2.303394775390625,-0.3727370798587799,-0.24657808244228363,0.3199513852596283
1789222575281389800,2.313389892578125,-0.29970335960388184,-0.1960563212633133,-0.26209020614624023
1789222575291383800,2.3233837890625,-0.16420571506023407,-0.6387157440185547,-0.5329731106758118
1789222575301377500,2.33337744140625,0.0005400890368036926,-0.8739922046661377,-0.6745693683624268
1789222575311372800,2.343372802734375,0.14703471958637238,-0.3227689862251282,-0.6401501297950745
1789222575321366500,2.353366455078125,0.22927579283714294,0.46705639362335205,-0.48558056354522705
1789222575331360500,2.363360595703125,0.09830925613641739,0.8537138104438782,-0.030159499496221542
1789222575341355500,2.37335546875,-0.21317912638187408,0.5457360148429871,0.650036633014679
1789222575351349500,2.383349609375,-0.4351509213447571,-0.268385112285614,0.7039248943328857
1789222575361343700,2.39334375,-0.5231534838676453,-0.7125385999679565,0.5591152310371399
1789222575371338500,2.40333837890625,-0.5128534436225891,-0.1474083662033081,0.1273166686296463
1789222575381333000,2.4133330078125,-0.3559064567089081,0.4299026429653168,-0.4082988202571869
1789222575391327000,2.423326904296875,-0.09864535182714462,0.061348844319581985,-0.5220248699188232
1789222575401321000,2.433321044921875,0.10076362639665604,-0.4574003219604492,-0.589138925075531
1789222575411316000,2.44331591796875,0.12401489168405533,-0.4866950809955597,-0.5781437754631042
1789222575421310000,2.45331005859375,-0.024345552548766136,-0.3461478352546692,-0.08386294543743134
1789222575431304000,2.463303955078125,-0.26736992597579956,-0.17348043620586395,0.3586984872817993
1789222575441299000,2.473298828125,-0.4304501712322235,-0.178181990981102,0.4208143353462219
1789222575451292700,2.483292724609375,-0.4847072958946228,0.19226931035518646,0.3837287425994873
1789222575461286700,2.49328662109375,-0.595866858959198,0.9801202416419983,0.1775212585926056
1789222575471281700,2.50328173828125,-0.6338741183280945,0.5564448833465576,-0.15802797675132751
1789222575481276000,2.51327587890625,-0.5182223916053772,-1.1049010753631592,0.41261208057403564
1789222575491270000,2.523269775390625,-0.30650028586387634,-1.6938707828521729,0.5798141360282898
1789222575501265000,2.533264892578125,0.0158253014087677,-0.9455071091651917,-0.43461722135543823
1789222575511259000,2.5432587890625,0.14211319386959076,0.11144983023405075,-0.5508735179901123
1789222575521252900,2.5532529296875,-0.10647530853748322,1.1793116331100464,-0.01606445387005806
1789222575531247900,2.563247802734375,-0.5475757718086243,1.5330382585525513,-0.2468409389257431
1789222575541241900,2.573241943359375,-0.7841640710830688,-0.16505233943462372,-0.4920664131641388
1789222575551235800,2.58323583984375,-0.6725011467933655,-2.4561755657196045,0.03104420192539692
1789222575561229800,2.593229736328125,-0.4475191831588745,-2.1442651748657227,-0.03689303621649742
1789222575571224800,2.603224853515625,-0.17878200113773346,-0.619022786617279,-0.022974558174610138
1789222575581219000,2.613218994140625,-0.014572285115718842,0.7593045234680176,0.5433152318000793
1789222575591212800,2.623212890625,0.03783233463764191,1.6102648973464966,0.6766759157180786
1789222575601208000,2.6332080078125,-0.021981997415423393,0.9925191402435303,0.4869832396507263
1789222575611201800,2.643201904296875,-0.26930150389671326,-0.40146273374557495,0.10887055844068527
1789222575621195800,2.65319580078125,-0.5538040995597839,-1.2447165250778198,-0.4139487147331238
1789222575631190800,2.663190673828125,-0.6325175166130066,-1.5498878955841064,-0.1901467740535736
1789222575641184800,2.673184814453125,-0.3543410301208496,-1.1365668773651123,-0.42805707454681396
1789222575651178800,2.6831787109375,0.05824972316622734,0.11617694050073624,-0.8651518225669861
1789222575661173800,2.693173828125,0.2360471487045288,1.2949035167694092,0.06826774030923843
1789222575671167700,2.703167724609375,0.2601229250431061,1.2501826286315918,0.7135868072509766
1789222575681162000,2.713161865234375,0.31935083866119385,-0.19830137491226196,0.4779234230518341
1789222575691157000,2.723156982421875,0.24536661803722382,-1.1850643157958984,0.6205183863639832
1789222575701151000,2.73315087890625,-0.011529357172548771,-0.3854813873767853,0.21717332303524017
1789222575711145000,2.74314501953125,-0.1880207657814026,0.29313039779663086,-0.05338466167449951
1789222575721140000,2.753139892578125,-0.17724455893039703,0.4025426506996155,0.050571031868457794
1789222575731134000,2.763134033203125,0.04890655726194382,0.31610336899757385,-0.23500852286815643
1789222575741128000,2.7731279296875,0.29783836007118225,0.01389637403190136,-0.2632870376110077
1789222575751123000,2.783123046875,0.47490447759628296,-0.3135688304901123,-0.13967028260231018
1789222575761116700,2.79311669921875,0.5358168482780457,-0.49079689383506775,-0.17948853969573975
1789222575771110700,2.803110595703125,0.3815132677555084,-0.0191944669932127,-0.10695867240428925
1789222575781105000,2.81310498046875,0.0006532734259963036,1.2010952234268188,-0.03575320541858673
1789222575791100000,2.823099853515625,-0.23186466097831726,1.0458464622497559,-0.07485853135585785
1789222575801094000,2.833093994140625,-0.06397738307714462,-0.9549751877784729,0.18982239067554474
1789222575811088000,2.843087890625,0.03280135616660118,-0.9597260355949402,0.19432340562343597
1789222575821083000,2.853082763671875,0.06829436868429184,0.312285453081131,0.13672935962677002
1789222575831076900,2.863076904296875,0.2193872183561325,0.36262133717536926,0.35786840319633484
1789222575841070800,2.87307080078125,0.41255825757980347,-0.17786400020122528,0.21459858119487762
1789222575851065900,2.88306591796875,0.31680190563201904,0.19804170727729797,-0.017056215554475784
1789222575861059800,2.893059814453125,-0.025906698778271675,0.7255332469940186,-0.18530088663101196
1789222575871053800,2.9030537109375,-0.27199849486351013,0.02562573552131653,-0.3843391537666321
1789222575881048800,2.913048828125,-0.3100079298019409,-1.0591343641281128,-0.11303067952394485
1789222575891043000,2.92304296875,-0.24639646708965302,-0.630683422088623,0.03760596364736557
1789222575901037000,2.933037109375,-0.051948416978120804,0.3845924139022827,-0.04506973922252655
1789222575911032000,2.943031982421875,0.28525516390800476,0.3446790874004364,0.1551605612039566
1789222575921025800,2.95302587890625,0.328723281621933,0.2715449631214142,0.7556504011154175
1789222575931019800,2.963019775390625,0.11144103854894638,0.38863644003868103,0.524598240852356
1789222575941014800,2.973014892578125,-0.1014145016670227,0.12541091442108154,-0.3444348871707916
1789222575951008800,2.9830087890625,-0.23424924910068512,-0.6867496371269226,-0.21250960230827332
1789222575961002800,2.993002685546875,-0.23841789364814758,-0.6041010618209839,-0.6449848413467407
1789222575970997800,3.002997802734375,-0.045124601572752,0.11718867719173431,-1.2069611549377441
1789222575980991700,3.01299169921875,0.18535174429416656,0.344077467918396,-0.5187592506408691
1789222575990986000,3.022986083984375,0.33673301339149475,0.027842283248901367,0.40737947821617126
1789222576000980700,3.032980712890625,0.3683687150478363,-0.2308822125196457,0.9576855301856995
1789222576010975000,3.04297509765625,0.160435751080513,0.398539662361145,1.031839370727539
1789222576020969000,3.052968994140625,-0.16346749663352966,0.9258372783660889,0.47290629148483276
1789222576030963000,3.062962890625,-0.4873552918434143,0.5205039381980896,-0.048889245837926865
1789222576040958000,3.0729580078125,-0.67424076795578,-0.18988019227981567,-0.27094361186027527
1789222576050952000,3.082951904296875,-0.5432372093200684,-0.5334436893463135,-0.6953926086425781
1789222576060945700,3.092945556640625,-0.09821418672800064,-0.8008367419242859,-0.6340725421905518
1789222576070941000,3.10294091796875,0.31286096572875977,-0.3915613889694214,-0.3440766930580139
1789222576080934700,3.1129345703125,0.40972334146499634,0.34526658058166504,-0.04909564182162285
1789222576090929000,3.122928955078125,0.16181686520576477,0.4939554035663605,0.48994654417037964
1789222576100924000,3.132923828125,-0.30256572365760803,0.351543128490448,0.7656537294387817
1789222576110918000,3.14291796875,-0.7432810664176941,-0.05819299817085266,0.800525963306427
1789222576120912000,3.152911865234375,-0.9008041024208069,-0.4007317125797272,0.17857879400253296
1789222576130907000,3.162906982421875,-0.7954303026199341,-0.21535572409629822,-0.22836525738239288
1789222576140900900,3.17290087890625,-0.5384291410446167,0.21651659905910492,-0.3578241765499115
1789222576150894800,3.182894775390625,-0.3097333610057831,0.39870530366897583,-0.44961056113243103
1789222576160889900,3.192889892578125,-0.18052716553211212,-0.2303975224494934,-0.3488975465297699
1789222576170883800,3.2028837890625,-0.2109663039445877,-1.1459203958511353,-0.11152679473161697
1789222576180877800,3.2128779296875,-0.3638610243797302,-1.4200960397720337,0.10195193439722061
1789222576190872800,3.222872802734375,-0.5471696257591248,-0.6302213668823242,0.23198875784873962
1789222576200866800,3.23286669921875,-0.6567704081535339,0.42482081055641174,0.1608693152666092
1789222576210861000,3.242861083984375,-0.6494224667549133,0.7892887592315674,0.07971639931201935
1789222576220856000,3.25285595703125,-0.640773594379425,0.4223856031894684,0.2919250726699829
1789222576230849800,3.262849853515625,-0.6860055327415466,0.00851652305573225,0.16674824059009552
1789222576240843800,3.27284375,-0.7919793725013733,-0.5416004061698914,0.07890866696834564
1789222576250838800,3.2828388671875,-0.844683825969696,-1.1309624910354614,0.13878610730171204
1789222576260832800,3.292832763671875,-0.805004358291626,-0.937700629234314,-0.22948752343654633
1789222576270826800,3.30282666015625,-0.7170451879501343,-0.5277748703956604,-0.04968686401844025
1789222576280821800,3.31282177734375,-0.6911611557006836,-0.14916737377643585,0.24107466638088226
1789222576290815700,3.322815673828125,-0.736709713935852,0.09203272312879562,-0.3244795501232147
1789222576300810000,3.33281005859375,-0.8308237195014954,-0.5329656600952148,-0.11669599264860153
1789222576310804700,3.3428046875,-1.0337547063827515,-0.8598049879074097,0.58943772315979
1789222576320799000,3.352799072265625,-1.1091588735580444,-0.5226733088493347,0.04458557814359665
1789222576330793000,3.36279296875,-1.0136682987213135,-0.25265195965766907,-0.47367674112319946
1789222576340788000,3.3727880859375,-0.6951140761375427,-0.9497844576835632,-0.06974605470895767
1789222576350782000,3.382781982421875,-0.5211347937583923,-0.6740636229515076,-0.012341887690126896
1789222576360776000,3.39277587890625,-0.6481457352638245,0.1386449635028839,-0.05031696707010269
1789222576370771000,3.40277099609375,-0.8483235836029053,0.02569044940173626,0.020893564447760582
1789222576380765000,3.412764892578125,-0.9691352248191833,-0.9521504044532776,0.2646465599536896
1789222576390758700,3.422758544921875,-1.057639479637146,-1.232467770576477,0.3310306668281555
1789222576400753000,3.4327529296875,-0.971777081489563,-0.6224853992462158,-0.1676451861858368
1789222576410747600,3.44274755859375,-0.6202235817909241,-0.5462731719017029,-0.3672270178794861
1789222576420742000,3.452741943359375,-0.46430882811546326,-0.1158328577876091,-0.109843410551548
1789222576430736000,3.46273583984375,-0.5654894709587097,0.16841138899326324,0.37961816787719727
1789222576440731000,3.47273095703125,-0.6392244100570679,-0.4698740243911743,0.3678770959377289
1789222576450724900,3.482724853515625,-0.6279142498970032,-1.3371102809906006,0.27630695700645447
1789222576460718600,3.492718505859375,-0.7345672249794006,-0.7287148833274841,0.27390292286872864
1789222576470713600,3.502713623046875,-0.821228563785553,0.1910240203142166,0.12316054850816727
1789222576480707600,3.51270751953125,-0.6616522669792175,-0.3943840563297272,-0.08996770530939102
1789222576490701600,3.52270166015625,-0.41387468576431274,-1.1921656131744385,0.0037641117814928293
1789222576500696600,3.532696533203125,-0.2659163773059845,-0.8885125517845154,0.0441000834107399
1789222576510690800,3.54269091796875,-0.20468389987945557,-0.5897213220596313,0.07907218486070633
1789222576520684800,3.552684814453125,-0.22374014556407928,-0.5764095187187195,0.23430384695529938
1789222576530679800,3.5626796875,-0.27423980832099915,-0.39194512367248535,0.267301470041275
1789222576540673800,3.572673828125,-0.4929353892803192,0.1088511124253273,0.4096682071685791
1789222576550667800,3.582667724609375,-0.6080103516578674,-0.33273160457611084,0.4964853823184967
1789222576560662800,3.592662841796875,-0.515178918838501,-1.2135976552963257,0.5889666080474854
1789222576570656800,3.60265673828125,-0.26243269443511963,-0.9388452172279358,0.36337342858314514
1789222576580650800,3.612650634765625,0.09455766528844833,0.10594134777784348,-0.32617464661598206
1789222576590645800,3.622645751953125,0.4878980219364166,-0.06287643313407898,-0.6455643773078918
1789222576600639700,3.6326396484375,0.5406826734542847,-0.44134756922721863,-0.6675189137458801
1789222576610633700,3.6426337890625,0.29128509759902954,-0.4318600594997406,-0.49156200885772705
1789222576620628700,3.652628662109375,0.04875582084059715,-0.6420130133628845,0.13475461304187775
1789222576630622700,3.662622802734375,-0.08089085668325424,-0.6622096300125122,0.9216577410697937
1789222576640616700,3.67261669921875,-0.08622836321592331,-0.110338494181633,1.0472660064697266
1789222576650611700,3.68261181640625,0.08535031974315643,0.41305068135261536,0.4776991903781891
1789222576660605700,3.692605712890625,0.33735033869743347,0.26145291328430176,0.2533893883228302
1789222576670599700,3.702599609375,0.4833376407623291,0.1444820761680603,-0.06191902607679367
1789222576680594700,3.7125947265625,0.6433427333831787,-0.13123232126235962,-0.7061411738395691
1789222576690588700,3.722588623046875,0.8316306471824646,-0.7635123133659363,-0.4044766426086426
1789222576700582700,3.732582763671875,0.9048222899436951,-0.5896515846252441,0.09146466851234436
1789222576710577700,3.74257763671875,0.8881141543388367,0.24899543821811676,-0.13108132779598236
1789222576720571600,3.752571533203125,0.8241072297096252,0.40643221139907837,0.118697889149189
1789222576730566000,3.76256591796875,0.650046169757843,0.4586333632469177,0.43939948081970215
1789222576740561000,3.772560791015625,0.44685259461402893,0.6346328854560852,0.2322196513414383
1789222576750555000,3.782554931640625,0.3543919026851654,0.3385130763053894,0.22570689022541046
1789222576760548900,3.792548828125,0.4278983473777771,-0.1652936190366745,0.2752360999584198
1789222576770543900,3.8025439453125,0.5699910521507263,-0.12387214601039886,-0.16608378291130066
1789222576780537900,3.812537841796875,0.7179972529411316,0.197891503572464,-0.4097888469696045
1789222576790531600,3.822531494140625,0.8793051838874817,0.018275942653417587,-0.18170295655727386
1789222576800526600,3.832526611328125,0.8745578527450562,0.06549511849880219,-0.34684982895851135
1789222576810520600,3.8425205078125,0.7232306599617004,0.16051538288593292,-0.1521141678094864
1789222576820514600,3.8525146484375,0.4031842052936554,0.5146178007125854,0.4168872535228729
1789222576830509600,3.862509521484375,0.11735086143016815,0.6877986192703247,0.08634074777364731
1789222576840503800,3.87250390625,0.026278208941221237,0.06319548189640045,-0.1899544894695282
1789222576850497800,3.882497802734375,0.09237733483314514,-0.5785104632377625,-0.043288350105285645
1789222576860492800,3.892492919921875,0.27049219608306885,-0.39734548330307007,-0.46331891417503357
1789222576870486800,3.90248681640625,0.43359190225601196,-0.2880491018295288,-0.21735867857933044
1789222576880480800,3.912480712890625,0.5943371057510376,-0.20632414519786835,-0.03816123306751251
1789222576890475800,3.922475830078125,0.5593224167823792,0.2280835062265396,0.1737036108970642
1789222576900469800,3.9324697265625,0.23395363986492157,0.9868924021720886,0.1867794692516327
1789222576910463700,3.942463623046875,-0.07420632243156433,0.8598947525024414,-0.1797569841146469
1789222576920458800,3.952458740234375,-0.25787895917892456,-0.3259594738483429,0.24427925050258636
1789222576930452700,3.96245263671875,-0.29437491297721863,-0.5689449310302734,-0.017680993303656578
1789222576940446700,3.97244677734375,-0.13614106178283691,-0.1590450406074524,-0.4302416741847992
1789222576950441700,3.982441650390625,0.08013930916786194,-0.14683152735233307,0.16200675070285797
1789222576960435700,3.992435791015625,0.2273082584142685,0.06127401068806648,0.09090833365917206
1789222576970429700,4.0024296875,0.25131797790527344,-0.09426631778478622,0.2793637216091156
1789222576980424700,4.0124248046875,0.12745968997478485,-0.21374531090259552,0.5891090631484985
1789222576990418700,4.022418701171875,-0.14460964500904083,0.28536808490753174,0.163595050573349
1789222577000412700,4.03241259765625,-0.4453098177909851,0.4424043297767639,0.19742785394191742
1789222577010407700,4.04240771484375,-0.5373923182487488,0.08699322491884232,0.0035830168053507805
1789222577020401700,4.052401611328125,-0.3695990741252899,-0.42435234785079956,-0.26774781942367554
1789222577030395600,4.062395751953125,-0.04975850135087967,-0.6015343070030212,-0.27076253294944763
1789222577040390700,4.072390625,0.2942633330821991,-0.4475378394126892,-0.4120112657546997
1789222577050384600,4.082384521484375,0.45364072918891907,-0.09865174442529678,-0.17801101505756378
1789222577060379000,4.09237890625,0.3144724369049072,0.544543981552124,-0.07934489101171494
1789222577070374000,4.102373779296875,-0.10774990171194077,0.8208027482032776,0.14486956596374512
1789222577080367900,4.112367919921875,-0.5092131495475769,0.12728871405124664,0.508155345916748
1789222577090361900,4.12236181640625,-0.7400977611541748,-0.5465506911277771,0.7169639468193054
1789222577100356900,4.13235693359375,-0.7252269387245178,-0.4779069125652313,0.6473295092582703
1789222577110350800,4.142350830078125,-0.40559038519859314,-0.3205718994140625,0.001865011639893055
1789222577120344600,4.152344482421875,-0.03196938335895538,-0.5303863883018494,-0.0002364887041039765
1789222577130339600,4.162339599609375,0.2723473608493805,-0.029980270192027092,-0.4845222234725952
1789222577140333600,4.17233349609375,0.4124445617198944,0.536103367805481,-0.9845264554023743
1789222577150327800,4.182327880859375,0.29043397307395935,0.1645956039428711,-0.403775691986084
1789222577160322600,4.192322509765625,-0.06078984588384628,-0.10909026861190796,-0.21206165850162506
1789222577170316800,4.20231689453125,-0.3984443247318268,-0.6587967872619629,0.547824501991272
1789222577180310800,4.212310791015625,-0.672163188457489,-0.24401240050792694,0.9139124751091003
1789222577190305800,4.222305908203125,-0.7275779843330383,0.5887937545776367,0.550361692905426
1789222577200299800,4.2322998046875,-0.658856213092804,0.658639132976532,0.6579296588897705
1789222577210293800,4.242293701171875,-0.47174862027168274,-0.044005539268255234,0.6040707230567932
1789222577220288800,4.252288818359375,-0.1808217167854309,-0.5577695369720459,-0.19579559564590454
1789222577230282800,4.26228271484375,0.17374302446842194,-0.9588836431503296,-0.45693692564964294
1789222577240276700,4.27227685546875,0.25432947278022766,-0.11174757033586502,-0.5674296021461487
1789222577250271700,4.282271728515625,0.06447486579418182,0.39302265644073486,-0.7549238801002502
1789222577260265700,4.292265625,-0.15863651037216187,-0.6583235859870911,-0.1922599822282791
1789222577270259700,4.302259765625,-0.30257824063301086,-0.964150071144104,0.1882743090391159
1789222577280254700,4.312254638671875,-0.2634473443031311,0.6365628838539124,-0.11321364343166351
1789222577290248700,4.322248779296875,-0.3026088774204254,1.418744444847107,-0.04801652953028679
1789222577300242700,4.33224267578125,-0.44277504086494446,0.7753899693489075,0.3476210832595825
1789222577310237700,4.34223779296875,-0.5402584671974182,-0.3016112446784973,0.5970854759216309
1789222577320231700,4.352231689453125,-0.4530761241912842,-0.9443222880363464,0.4207836985588074
1789222577330225700,4.3622255859375,-0.145081028342247,-0.5829089879989624,-0.24869529902935028
1789222577340220700,4.372220703125,-0.08854877203702927,-0.02592667192220688,-0.4158419370651245
1789222577350214700,4.382214599609375,-0.2530200183391571,-0.10875497758388519,0.24468271434307098
1789222577360208600,4.392208740234375,-0.41660040616989136,-0.3279973268508911,0.34651854634284973
1789222577370203600,4.40220361328125,-0.41392022371292114,-0.49256014823913574,0.08343390375375748
1789222577380198000,4.412197998046875,-0.4990207254886627,-0.02111726999282837,0.07748706638813019
1789222577390191900,4.42219189453125,-0.692995548248291,0.4205184578895569,-0.04344680905342102
1789222577400187100,4.432187255859375,-0.7694125175476074,-0.34437096118927,0.12604475021362305
1789222577410180900,4.442180908203125,-0.689257800579071,-0.7977858781814575,0.2856658399105072
1789222577420174800,4.4521748046875,-0.4570711553096771,-0.2099420428276062,-0.08915597200393677
1789222577430169900,4.462169921875,-0.26592516899108887,0.5288923382759094,-0.6134157180786133
1789222577440163800,4.472163818359375,-0.25667572021484375,0.17858625948429108,-0.2156774252653122
1789222577450157800,4.48215771484375,-0.4067022502422333,-0.6966986656188965,0.5340405106544495
1789222577460152800,4.49215283203125,-0.6094609498977661,-0.7179467082023621,0.3903650939464569
1789222577470146800,4.502146728515625,-0.7775660753250122,-0.46464329957962036,0.4515877068042755
1789222577480140800,4.512140869140625,-0.9629034399986267,-0.1589755415916443,0.7442414164543152
1789222577490135800,4.5221357421875,-0.8557791113853455,-0.44575804471969604,0.0800655409693718
1789222577500130000,4.532130126953125,-0.5503970980644226,-0.8070826530456543,-0.39326712489128113
1789222577510124000,4.5421240234375,-0.38383927941322327,-0.30516737699508667,-0.3741839826107025
1789222577520119000,4.552119140625,-0.42362236976623535,0.23458561301231384,-0.3105357587337494
1789222577530113000,4.562113037109375,-0.47176727652549744,-0.5159373879432678,0.007090133614838123
1789222577540107000,4.57210693359375,-0.5369377732276917,-1.1340032815933228,0.2707310914993286
1789222577550102000,4.58210205078125,-0.607230544090271,-0.5636764168739319,0.05492716282606125
1789222577560095700,4.592095703125,-0.7094005942344666,0.18095433712005615,0.2559681236743927
1789222577570089700,4.60208984375,-0.7107625603675842,0.05402568355202675,0.26082494854927063
1789222577580084700,4.612084716796875,-0.5682613253593445,-0.6851860880851746,0.017539845779538155
1789222577590078700,4.62207861328125,-0.4120323061943054,-0.9044262766838074,0.09100393950939178
1789222577600073700,4.63207373046875,-0.36679184436798096,-0.1974494308233261,-0.16611680388450623
1789222577610068000,4.64206787109375,-0.390135794878006,-0.044554419815540314,0.018265822902321815
1789222577620062000,4.65206201171875,-0.5029595494270325,-0.30215585231781006,0.7935453057289124
1789222577630057000,4.662056884765625,-0.5672516822814941,-0.542818546295166,0.6686848402023315
1789222577640051000,4.672051025390625,-0.41233962774276733,-1.1242324113845825,-0.03604482114315033
1789222577650045000,4.682044921875,-0.2061566263437271,-1.1445331573486328,-0.3378440737724304
1789222577660040000,4.6920400390625,-0.355619877576828,0.1403629630804062,-0.3565743565559387
1789222577670034000,4.702033935546875,-0.47372254729270935,0.3695700466632843,-0.2929932475090027
1789222577680028000,4.71202783203125,-0.37744635343551636,-0.4995909035205841,-0.14830105006694794
1789222577690023000,4.72202294921875,-0.14118295907974243,-1.3745615482330322,0.5332157015800476
1789222577700017000,4.732016845703125,-0.04957101494073868,-0.2913855016231537,-0.23024438321590424
1789222577710011000,4.742010986328125,-0.0916801169514656,0.39439791440963745,-0.2823683023452759
1789222577720006000,4.752005859375,-0.2886613607406616,0.2634441554546356,0.5382147431373596
1789222577730000100,4.762000244140625,-0.43329018354415894,-0.14170227944850922,0.31632229685783386
1789222577739993900,4.771993896484375,-0.3936658203601837,-0.8942655324935913,0.17637157440185547
1789222577749988900,4.78198876953125,-0.17500483989715576,-1.1081490516662598,0.06106974557042122
1789222577759982800,4.79198291015625,0.11135341972112656,-0.651239275932312,-0.29444149136543274
1789222577769976800,4.801976806640625,0.2699052393436432,0.035833366215229034,-0.12706713378429413
1789222577779971800,4.811971923828125,0.1858268529176712,0.8900534510612488,-0.1435806006193161
1789222577789965800,4.8219658203125,0.06913299858570099,0.23629429936408997,0.004592354875057936
1789222577799959800,4.831959716796875,-0.06768503785133362,-1.1335097551345825,0.6167606711387634
1789222577809954800,4.841954833984375,-0.16193270683288574,-1.0592060089111328,0.20550069212913513
1789222577819948800,4.85194873046875,-0.05649017542600632,-0.48324814438819885,-0.11314519494771957
1789222577829943000,4.861943115234375,0.1307564079761505,-0.14656467735767365,-0.07593338191509247
1789222577839938000,4.87193798828125,0.31649139523506165,0.2128843069076538,-0.2063124179840088
1789222577849932000,4.88193212890625,0.4235459268093109,0.5539093017578125,0.03620753809809685
1789222577859926000,4.891926025390625,0.3698115944862366,0.5222501754760742,0.4605556130409241
1789222577869921000,4.901921142578125,0.20141486823558807,0.08149033039808273,0.3488392233848572
1789222577879915000,4.9119150390625,0.05909527838230133,-0.6666321158409119,0.2758195996284485
1789222577889908700,4.92190869140625,0.06368257105350494,-0.8842834830284119,-0.02569897100329399
1789222577899904000,4.931904052734375,0.24459882080554962,-0.4168259799480438,-0.533551812171936
1789222577909897700,4.941897705078125,0.39948561787605286,0.3422963619232178,-0.2964138090610504
1789222577919891700,4.9518916015625,0.4646957814693451,0.8546954989433289,-0.12780669331550598
1789222577929886700,4.96188671875,0.464216411113739,0.36894047260284424,0.2767546474933624
1789222577939881000,4.971880859375,0.33688268065452576,-0.14124608039855957,0.4293883740901947
1789222577949875700,4.981875732421875,0.1432194709777832,-0.2987273037433624,0.012740562669932842
1789222577959870000,4.991869873046875,-0.053471747785806656,-0.5786756277084351,0.01894492842257023
1789222577969864000,5.001864013671875,-0.161278635263443,-0.4367064833641052,-0.1521083116531372
1789222577979859000,5.01185888671875,-0.10319216549396515,0.08893013745546341,-0.4707709848880768
1789222577989853000,5.02185302734375,0.04592195153236389,0.17936336994171143,-0.2049741894006729
1789222577999847000,5.031846923828125,0.10354290157556534,0.08049670606851578,0.05590827390551567
1789222578009842000,5.041842041015625,0.02815360762178898,-0.23283778131008148,0.49546220898628235
1789222578019836000,5.0518359375,-0.07317567616701126,-0.3251006007194519,0.5135536193847656
1789222578029830000,5.061829833984375,-0.16228531301021576,-0.10811927914619446,0.44824808835983276
1789222578039825000,5.071824951171875,-0.28212970495224,0.3773512840270996,0.15350326895713806
1789222578049819000,5.08181884765625,-0.3889003396034241,0.4497690200805664,-0.2747841477394104
1789222578059812900,5.091812744140625,-0.3906140923500061,-0.3825465738773346,-0.11446905136108398
1789222578069808000,5.10180810546875,-0.32225847244262695,-0.8930689692497253,-0.21288084983825684
1789222578079801900,5.1118017578125,-0.2165307104587555,-0.674696683883667,-0.38414525985717773
1789222578089795800,5.1217958984375,-0.1789519041776657,-0.2855212390422821,-0.057021208107471466
1789222578099790800,5.131790771484375,-0.18483403325080872,-0.049972619861364365,-0.15644046664237976
1789222578109784800,5.141784912109375,-0.2739071846008301,-0.1933809071779251,0.313996285200119
1789222578119778800,5.15177880859375,-0.39230573177337646,-0.18227393925189972,0.5964586138725281
1789222578129773800,5.16177392578125,-0.41278597712516785,-0.22630397975444794,0.18760904669761658
1789222578139767800,5.171767822265625,-0.37572595477104187,-0.3500826358795166,0.1798752248287201
1789222578149761800,5.18176171875,-0.3055705726146698,0.10603269189596176,-0.016282035037875175
1789222578159756800,5.1917568359375,-0.10806974768638611,0.16431251168251038,-0.44758468866348267
1789222578169751000,5.2017509765625,0.06232808902859688,-0.3847828209400177,-0.4018859267234802
1789222578179745000,5.2117451171875,0.04706817492842674,-0.2910691201686859,-0.5146356225013733
1789222578189740000,5.221739990234375,-0.011805260553956032,-0.25758546590805054,-0.1877981275320053
1789222578199734000,5.231734130859375,-0.08730001747608185,-0.3298165202140808,0.533854067325592
1789222578209728000,5.24172802734375,-0.11381551623344421,-0.02792484126985073,0.6077613234519958
1789222578219723000,5.251722900390625,-0.12930499017238617,0.4980185627937317,0.41246506571769714
1789222578229717000,5.261717041015625,-0.051648546010255814,0.36518755555152893,0.25970107316970825
1789222578239712000,5.2717119140625,0.0007877630414441228,-0.0433804951608181,0.3444175720214844
1789222578249705700,5.281705810546875,0.08351512998342514,-0.27400439977645874,0.1653040051460266
1789222578259699700,5.29169970703125,0.1280786097049713,-0.07739332318305969,-0.166526660323143
1789222578269694700,5.30169482421875,0.23460078239440918,-0.2417263388633728,-0.47802436351776123
1789222578279689000,5.31168896484375,0.22288474440574646,-0.2781924605369568,-0.38065147399902344
1789222578289683000,5.321682861328125,0.052191831171512604,0.14934873580932617,-0.1801905483007431
1789222578299678000,5.331677978515625,-0.10188961029052734,0.3351633548736572,0.0845084935426712
1789222578309672000,5.341671875,-0.147119402885437,0.15600691735744476,0.2615647614002228
1789222578319666000,5.351666015625,-0.05974002927541733,-0.13431546092033386,0.1636536419391632
1789222578329661000,5.361660888671875,0.023561784997582436,-0.11947686225175858,0.21932382881641388
1789222578339655000,5.371655029296875,0.04622155800461769,0.2947429418563843,0.06448764353990555
1789222578349649000,5.38164892578125,-0.06644134223461151,0.33986595273017883,0.0660538524389267
1789222578359644000,5.391643798828125,-0.2834479510784149,-0.2600257098674774,0.19283975660800934
1789222578369638000,5.401637939453125,-0.38760897517204285,-0.8789198398590088,-0.061163220554590225
1789222578379631900,5.4116318359375,-0.37405481934547424,-0.6876963376998901,-0.15155276656150818
1789222578389626600,5.421626708984375,-0.19230206310749054,-0.2176833301782608,-0.3122505843639374
1789222578399620900,5.431620849609375,-0.11253293603658676,0.7073187828063965,-0.8137722611427307
1789222578409614800,5.44161474609375,-0.3000578284263611,0.9506779313087463,-0.22456680238246918
1789222578419609900,5.45160986328125,-0.5649281144142151,0.19982843101024628,0.4646369218826294
1789222578429603800,5.461603759765625,-0.6927486658096313,-1.0210554599761963,0.5375164747238159
1789222578439598800,5.471598876953125,-0.7674514055252075,-1.4150317907333374,0.6374971270561218
1789222578449592800,5.4815927734375,-0.8744028806686401,-0.4990188479423523,0.4482118785381317
1789222578459586600,5.491586669921875,-0.8822328448295593,-0.001413073274306953,0.2622515857219696
1789222578469581800,5.501581787109375,-0.8077910542488098,-0.06108199432492256,0.06628048419952393
1789222578479575600,5.511575439453125,-0.6481412053108215,-0.23157650232315063,-0.5899996161460876
1789222578489569800,5.52156982421875,-0.540271520614624,-0.6743142604827881,-0.6484230160713196
1789222578499564500,5.531564453125,-0.6893344521522522,-0.5076533555984497,-0.6003830432891846
1789222578509558800,5.541558837890625,-0.869037389755249,-0.782823383808136,-0.3876015245914459
1789222578519552800,5.551552734375,-1.0245816707611084,-1.4161447286605835,0.2690250873565674
1789222578529547800,5.5615478515625,-1.1756991147994995,-0.8088411688804626,0.3189050257205963
1789222578539541800,5.571541748046875,-1.27392578125,0.23059432208538055,0.39066174626350403
1789222578549535700,5.58153564453125,-1.216225504875183,0.36843341588974,0.6340373754501343
1789222578559530800,5.59153076171875,-0.9535485506057739,-0.31293395161628723,0.3959718346595764
1789222578569524700,5.601524658203125,-0.7727140784263611,-0.6493367552757263,0.15801706910133362
1789222578579518700,5.611518798828125,-0.7853427529335022,-0.6063479781150818,0.09569589793682098
1789222578589513700,5.621513671875,-0.7870532870292664,-1.145937204360962,0.002364886924624443
1789222578599507700,5.6315078125,-0.700844407081604,-1.7423696517944336,-0.07056524604558945
1789222578609502000,5.641501953125,-0.6470868587493896,-1.1326160430908203,-0.16289357841014862
1789222578619496700,5.65149658203125,-0.7423052787780762,0.2199411541223526,-0.128249853849411
1789222578629491000,5.661490966796875,-0.9173393845558167,0.44471248984336853,0.6300863027572632
1789222578639486000,5.67148583984375,-0.9732016324996948,-0.40585216879844666,1.036257028579712
1789222578649479700,5.681479736328125,-0.9116548895835876,-0.8820341229438782,0.862840473651886
1789222578659473700,5.6914736328125,-0.6588495373725891,-0.9146208763122559,0.5497803092002869
1789222578669468700,5.70146875,-0.32207363843917847,-0.6804842352867126,-0.11879695951938629
1789222578679462700,5.711462646484375,-0.11814634501934052,-0.6481004953384399,-0.4519203305244446
1789222578689456600,5.72145654296875,-0.2143775373697281,-0.2752994894981384,-0.0831952840089798
1789222578699451600,5.73145166015625,-0.4236750900745392,0.22169511020183563,0.151712566614151
1789222578709445600,5.741445556640625,-0.459396630525589,-0.5144156813621521,0.2503219544887543
1789222578719440000,5.75143994140625,-0.48504817485809326,-1.2246748208999634,0.5127269625663757
1789222578729434600,5.7614345703125,-0.5666543841362,-0.7284970283508301,0.40851345658302307
1789222578739428900,5.771428955078125,-0.6270921230316162,-0.1496153175830841,0.6632429361343384
1789222578749422800,5.7814228515625,-0.5286819338798523,0.13918158411979675,0.3607182502746582
1789222578759417900,5.79141796875,-0.27551281452178955,-0.19353458285331726,-0.17376114428043365
1789222578769411800,5.801411865234375,-0.14584535360336304,-0.6423925161361694,0.11152732372283936
1789222578779405800,5.81140576171875,-0.08630532771348953,-0.7756502032279968,-0.07402841746807098
1789222578789400800,5.82140087890625,0.10951557755470276,-1.4792834520339966,-0.2009647935628891
1789222578799394800,5.831394775390625,0.3392624855041504,-1.5037627220153809,-0.19757485389709473
1789222578809389800,5.841389892578125,0.24629046022891998,0.325916588306427,-0.17246711254119873
1789222578819383600,5.851383544921875,-0.10407926142215729,1.6380283832550049,0.5754875540733337
1789222578829377500,5.86137744140625,-0.27606621384620667,0.9117190837860107,0.773248016834259
1789222578839372500,5.87137255859375,-0.22794021666049957,-0.950926661491394,0.8336029648780823
1789222578849366800,5.88136669921875,-0.12198875844478607,-1.4354501962661743,0.5687004923820496
1789222578859360800,5.89136083984375,0.12058766931295395,-0.7310494184494019,-0.18048588931560516
1789222578869355800,5.901355712890625,0.3505510985851288,-0.38335299491882324,-0.1919902116060257
1789222578879349800,5.911349853515625,0.5159499049186707,-0.01432194747030735,-0.21566198766231537
1789222578889343700,5.92134375,0.596088171005249,0.4688657522201538,-0.34838780760765076
1789222578899338800,5.9313388671875,0.5380730628967285,0.24400946497917175,-0.030590133741497993
1789222578909332700,5.941332763671875,0.32057854533195496,0.06648288667201996,-0.11814475059509277
1789222578919326700,5.95132666015625,0.07103822380304337,-0.2876112759113312,0.2703228294849396
1789222578929321700,5.96132177734375,-0.0396542027592659,-0.46541908383369446,0.47023993730545044
1789222578939315700,5.971315673828125,0.028533905744552612,-0.22128577530384064,0.2179965078830719
1789222578949310700,5.981310791015625,0.08948780596256256,0.3673252761363983,0.42697635293006897
1789222578959304700,5.9913046875,0.21534134447574615,0.5615493655204773,0.13503319025039673
1789222578969299000,6.001298828125,0.42290279269218445,-0.413337767124176,-0.29302361607551575
1789222578979293700,6.011293701171875,0.5268651247024536,-1.1733741760253906,-0.3442194163799286
1789222578989288000,6.021287841796875,0.4653935134410858,-0.7227976322174072,-0.09069980680942535
1789222578999281700,6.03128173828125,0.4523317813873291,-0.021440843120217323,-0.3620429039001465
1789222579009276700,6.041276611328125,0.5108579397201538,0.1806267648935318,-0.7578882575035095
1789222579019270700,6.051270751953125,0.4018203914165497,0.3254595994949341,-0.043304864317178726
1789222579029264600,6.0612646484375,0.1039586216211319,1.0003727674484253,0.3227546215057373
1789222579039259600,6.071259765625,0.08019337058067322,0.07752568274736404,0.12818700075149536
1789222579049253600,6.081253662109375,0.07633684575557709,-0.949647843837738,0.7200308442115784
1789222579059247600,6.09124755859375,-0.10132395476102829,-0.20431558787822723,1.2018457651138306
1789222579069242600,6.10124267578125,-0.06494145095348358,0.4701840281486511,0.4598160684108734
1789222579079236900,6.11123681640625,0.11748455464839935,-0.17707757651805878,0.23591531813144684
1789222579089231600,6.121231689453125,0.2591732442378998,-0.41486403346061707,-0.5642148852348328
1789222579099225900,6.131225830078125,0.23730017244815826,-0.09150781482458115,-1.1870044469833374
1789222579109219800,6.1412197265625,0.06852739304304123,-0.3166634440422058,-0.2728714644908905
1789222579119214800,6.15121484375,0.008942628279328346,-0.4458310008049011,-0.23040710389614105
1789222579129208800,6.161208740234375,0.19356787204742432,-0.6576068997383118,-0.5743988156318665
1789222579139202800,6.171202880859375,0.19129672646522522,-0.35176071524620056,0.23752200603485107
1789222579149197800,6.18119775390625,-0.03332040458917618,0.517422616481781,0.5643233060836792
1789222579159191800,6.19119189453125,-0.1929367035627365,0.13980796933174133,0.6568148732185364
1789222579169185500,6.201185546875,-0.30069592595100403,-0.07969190180301666,0.6566486954689026
1789222579179180500,6.2111806640625,-0.25421205163002014,0.23906610906124115,0.3645726442337036
1789222579189174500,6.221174560546875,-0.18029360473155975,0.5747146606445312,-0.565905749797821
1789222579199168800,6.231168701171875,-0.013073191046714783,-0.6054155826568604,-0.8242976069450378
1789222579209163800,6.241163818359375,0.0729498416185379,-1.5639653205871582,-0.1754610389471054
1789222579219157800,6.25115771484375,0.13546541333198547,-1.0583415031433105,-0.06452280282974243
1789222579229152800,6.26115283203125,0.1708953082561493,1.8375816345214844,-0.5517765879631042
1789222579239146800,6.271146728515625,0.24111194908618927,1.9255163669586182,-0.24510030448436737
1789222579249140700,6.281140625,0.1647585928440094,-0.5131930112838745,0.11154570430517197
1789222579259135700,6.2911357421875,-0.16349226236343384,-1.6858776807785034,-0.01398878637701273
1789222579269129700,6.301129638671875,-0.47787708044052124,-2.1684346199035645,0.7020620107650757
1789222579279123700,6.311123779296875,-0.47461897134780884,0.015372298657894135,1.2908378839492798
1789222579289118700,6.32111865234375,-0.25922703742980957,4.455638408660889,0.8690906763076782
1789222579299112700,6.33111279296875,-0.1779782623052597,3.2415456771850586,0.3539319634437561
1789222579309107000,6.34110693359375,-0.041976477950811386,-1.5832442045211792,-0.32066643238067627
1789222579319101700,6.351101806640625,0.05962790921330452,-3.5985827445983887,-1.0662553310394287
1789222579329096000,6.361095947265625,0.2184937298297882,-2.693955898284912,-0.9955497980117798
1789222579339089700,6.371089599609375,0.3461206555366516,-0.7688252925872803,-0.5612915754318237
1789222579349084700,6.381084716796875,0.32440871000289917,1.2248612642288208,-0.32206991314888
1789222579359078700,6.39107861328125,0.10494585335254669,1.501833438873291,0.16728220880031586
1789222579369073700,6.40107373046875,-0.06660778820514679,0.16226880252361298,0.441996306180954
1789222579379067600,6.411067626953125,-0.25495266914367676,-0.8462617993354797,0.11081519722938538
1789222579389061400,6.421061279296875,-0.3904154300689697,-1.3702208995819092,0.4029197692871094
1789222579399056400,6.431056396484375,-0.2525227963924408,-0.8172186613082886,-0.02364727295935154
1789222579409050400,6.44105029296875,0.10630566626787186,0.11888483911752701,-0.40643566846847534
1789222579419044400,6.45104443359375,0.33778655529022217,0.7979347109794617,-0.15887753665447235
1789222579429039400,6.461039306640625,0.4384942650794983,0.6959311366081238,-0.5608928799629211
1789222579439033300,6.471033447265625,0.3088372051715851,-0.035712990909814835,-0.28587543964385986
1789222579449027300,6.48102734375,-0.007910653948783875,-0.4874839186668396,0.35074469447135925
1789222579459022300,6.491022216796875,-0.27658018469810486,-0.45565512776374817,-0.11262162029743195
1789222579469016300,6.501016357421875,-0.3934202492237091,-0.7797770500183105,0.21633176505565643
1789222579479011300,6.51101123046875,-0.5534040927886963,0.02123311720788479,0.4857531189918518
1789222579489005300,6.52100537109375,-0.6002059578895569,0.7819309830665588,0.38835465908050537
1789222579498999300,6.530999267578125,-0.458538293838501,0.2909218370914459,0.4571342468261719
1789222579508994300,6.540994384765625,-0.1535687893629074,-0.571068286895752,-0.05871870741248131
1789222579518988300,6.55098828125,0.15513844788074493,-0.9615433812141418,-0.5318915843963623
1789222579528982500,6.560982421875,0.08538787066936493,-0.36697453260421753,-0.2801719903945923
1789222579538977300,6.570977294921875,-0.1351197361946106,-0.6599792242050171,0.3259245753288269
1789222579548971500,6.580971435546875,-0.33549705147743225,-0.9535171389579773,0.39133208990097046
1789222579558965500,6.590965576171875,-0.526685357093811,0.7813200354576111,-0.09347349405288696
1789222579568960500,6.60096044921875,-0.3689687252044678,1.9120292663574219,-0.4864591360092163
1789222579578954500,6.61095458984375,-0.473074346780777,0.47078055143356323,-0.7760962843894958
1789222579588949500,6.620949462890625,-0.7261667847633362,-1.09513258934021,-0.0942697748541832
1789222579598943500,6.630943603515625,-0.8228344917297363,-1.603296160697937,0.6673426032066345
1789222579608937200,6.640937255859375,-0.4362036883831024,-1.7837871313095093,0.6715608239173889
1789222579618932200,6.65093212890625,0.15981736779212952,-0.38113218545913696,-0.23852096498012543
1789222579628926200,6.66092626953125,0.23019112646579742,0.3353053033351898,-0.3601033091545105
1789222579638920200,6.670920166015625,-0.16452796757221222,0.674614667892456,0.47196459770202637
1789222579648915200,6.680915283203125,-0.5834149718284607,0.4569752812385559,0.08088712394237518
1789222579658909400,6.690909423828125,-0.7950063347816467,-0.5132257342338562,-0.321811318397522
1789222579668903400,6.7009033203125,-0.7936161160469055,-1.4081429243087769,-0.2760699391365051
1789222579678898400,6.7108984375,-0.6638544201850891,-1.0637328624725342,-0.8623286485671997
1789222579688892400,6.720892333984375,-0.4978220462799072,-0.7928949594497681,0.16176040470600128
1789222579698887400,6.730887451171875,-0.2974199652671814,0.22880308330059052,0.658330500125885
1789222579708881400,6.74088134765625,-0.11926034837961197,1.2428275346755981,0.3152434229850769
1789222579718875400,6.75087548828125,0.09325218200683594,0.20248280465602875,0.12386122345924377
1789222579728870400,6.760870361328125,0.005327120888978243,-0.9617934226989746,-0.17640165984630585
1789222579738864400,6.770864501953125,-0.40445053577423096,-1.0454039573669434,0.11746058613061905
1789222579748858400,6.7808583984375,-0.7566053867340088,-0.5041313171386719,0.10122222453355789
1789222579758853400,6.790853271484375,-0.746211051940918,-0.2903095781803131,-0.03370416909456253
1789222579768847400,6.800847412109375,-0.5376277565956116,-0.3535098731517792,0.3158423900604248
1789222579778841300,6.81084130859375,-0.2704584002494812,0.2216775268316269,-0.4239177107810974
1789222579788836400,6.82083642578125,-0.08511435985565186,-0.09516087174415588,-0.34347933530807495
1789222579798830300,6.830830322265625,-0.11591142416000366,-0.5844994187355042,0.008507201448082924
1789222579808825300,6.840825439453125,-0.256209135055542,-0.41408398747444153,-0.3553442358970642
1789222579818819300,6.8508193359375,-0.3810722529888153,-0.5150122046470642,0.10833259671926498
1789222579828813300,6.860813232421875,-0.45618724822998047,-0.5117117762565613,0.355845183134079
1789222579838808300,6.870808349609375,-0.5067670345306396,-0.15589798986911774,0.14730902016162872
1789222579848802300,6.88080224609375,-0.6061636805534363,0.05361822247505188,0.721543550491333
1789222579858796300,6.89079638671875,-0.6464070081710815,0.20966987311840057,0.8168191909790039
1789222579868791300,6.900791259765625,-0.5415793657302856,-0.08092521131038666,0.4973141849040985
1789222579878785300,6.910785400390625,-0.4130208492279053,-0.3802836835384369,0.4400959014892578
1789222579888779500,6.920779541015625,-0.1475266069173813,-0.6408345699310303,-0.2594435513019562
1789222579898774300,6.930774169921875,0.025288311764597893,-0.7619242668151855,-0.7193403244018555
1789222579908768500,6.9407685546875,-0.034387536346912384,-0.6434010863304138,-0.554484486579895
1789222579918763500,6.950763427734375,-0.1835075169801712,-0.5590273141860962,-0.19318383932113647
1789222579928757500,6.960757568359375,-0.27072256803512573,-0.470866858959198,-0.07775445282459259
1789222579938751500,6.97075146484375,-0.2361574023962021,-0.4467484652996063,0.09370704740285873
1789222579948746500,6.98074658203125,-0.19116249680519104,-0.3072883188724518,0.611270546913147
1789222579958740500,6.990740478515625,-0.15739361941814423,0.001609614584594965,0.5221098065376282
1789222579968734200,7.000734130859375,-0.15498772263526917,-0.01426442340016365,0.5105090737342834
1789222579978729200,7.010729248046875,-0.2566238045692444,0.14769437909126282,0.683742344379425
1789222579988723200,7.02072314453125,-0.23290222883224487,0.04698188975453377,0.1184757798910141
1789222579998717200,7.03071728515625,-0.06246284395456314,-0.6057631373405457,-0.4117063283920288
1789222580008712200,7.040712158203125,0.11930003017187119,-1.0635613203048706,-0.4478036165237427
1789222580018706400,7.05070654296875,0.17445169389247894,-0.46843671798706055,-0.6309584975242615
1789222580028701200,7.060701171875,0.10001128911972046,0.117857925593853,-0.5607621073722839
1789222580038695400,7.0706953125,-0.10106323659420013,0.26033464074134827,0.07304225116968155
1789222580048689400,7.080689453125,-0.28960543870925903,0.0639725923538208,0.6984198689460754
1789222580058684400,7.090684326171875,-0.24205736815929413,-0.6089069843292236,0.7071132063865662
1789222580068678400,7.100678466796875,-0.15418663620948792,-0.5907074809074402,0.5096698999404907
1789222580078672400,7.11067236328125,-0.15341591835021973,-0.13878610730171204,0.4025735557079315
1789222580088667400,7.12066748046875,-0.047387756407260895,-0.5207095146179199,0.24510961771011353
1789222580098661400,7.130661376953125,0.06814896315336227,-0.45957183837890625,-0.1973559409379959
1789222580108655400,7.1406552734375,0.2383318841457367,0.1240987777709961,-0.5517536997795105
1789222580118650400,7.150650390625,0.23274962604045868,0.10630380362272263,-0.7204148769378662
1789222580128644400,7.160644287109375,0.0007161240209825337,-0.5547620058059692,-0.5538261532783508
1789222580138639400,7.170639404296875,-0.21260787546634674,-1.1699905395507812,0.04054209962487221
1789222580148633300,7.18063330078125,-0.26984238624572754,-0.8141235709190369,0.6664333939552307
1789222580158627300,7.19062744140625,-0.10856429487466812,0.2102874517440796,0.7181432247161865
1789222580168622300,7.200622314453125,-0.010900052264332771,1.3079774379730225,0.35432371497154236
1789222580178616300,7.2106162109375,-0.13799834251403809,1.0298140048980713,0.8447403311729431
1789222580188610300,7.2206103515625,-0.21697492897510529,-0.37433257699012756,1.0404709577560425
1789222580198605300,7.230605224609375,-0.1843528002500534,-1.3328183889389038,0.29107365012168884
1789222580208599300,7.240599365234375,0.009112006053328514,-1.3832064867019653,-0.5384261608123779
1789222580218594300,7.25059423828125,0.31248414516448975,-0.9110304117202759,-1.2279324531555176
1789222580228588300,7.26058837890625,0.4070223569869995,-0.03237098827958107,-1.2824867963790894
1789222580238582300,7.270582275390625,0.2661376893520355,0.5365545153617859,-0.6752503514289856
1789222580248577300,7.280577392578125,0.02250690758228302,0.4165836274623871,0.1698060780763626
1789222580258571300,7.2905712890625,-0.1527906060218811,-0.3889235258102417,1.0090490579605103
1789222580268565500,7.3005654296875,-0.28001728653907776,-0.6593246459960938,1.0081223249435425
1789222580278560500,7.310560546875,-0.31022417545318604,-0.6911366581916809,0.805456817150116
1789222580288554500,7.320554443359375,-0.34833136200904846,-0.39604106545448303,1.2212108373641968
1789222580298548500,7.330548583984375,-0.21604548394680023,0.3045431077480316,0.8597256541252136
1789222580308543500,7.34054345703125,0.023070698603987694,0.8712696433067322,-0.40983837842941284
1789222580318537500,7.350537353515625,0.19333910942077637,0.2696751654148102,-0.9339088201522827
1789222580328532500,7.360532470703125,0.25341150164604187,-0.7453146576881409,-1.2183884382247925
1789222580338526200,7.370526123046875,0.34257972240448,-1.6528807878494263,-1.4017572402954102
1789222580348520200,7.380520263671875,0.4643618166446686,-1.9739747047424316,-0.5079503059387207
1789222580358515200,7.39051513671875,0.2936129868030548,-0.059269979596138,0.20105454325675964
1789222580368509200,7.40050927734375,0.1613026112318039,1.2226258516311646,0.6692680716514587
1789222580378503400,7.41050341796875,-0.08017126470804214,1.2440516948699951,1.73865807056427
1789222580388498700,7.420498779296875,-0.3662046194076538,1.1872448921203613,1.6075918674468994
1789222580398493000,7.430492919921875,-0.5185587406158447,0.48382365703582764,0.6679689884185791
1789222580408487700,7.44048779296875,-0.399435818195343,-0.8749541640281677,0.06935324519872665
1789222580418482000,7.45048193359375,0.10346833616495132,-1.7047247886657715,-0.8497449159622192
1789222580428476000,7.460475830078125,0.664466917514801,-1.2798075675964355,-1.3761831521987915
1789222580438471000,7.470470947265625,1.0177565813064575,-0.2762710154056549,-1.2896184921264648
1789222580448465000,7.48046484375,1.0935403108596802,0.25080400705337524,-0.7675464749336243
1789222580458458600,7.490458740234375,0.8763179183006287,-0.027813522145152092,0.12149127572774887
1789222580468454000,7.500453857421875,0.3481302857398987,0.2560003399848938,0.45322659611701965
1789222580478447600,7.510447509765625,-0.3164045810699463,0.9524680972099304,0.678580105304718
1789222580488441600,7.520441650390625,-0.7064157128334045,0.8458404541015625,0.8348996639251709
1789222580498436600,7.5304365234375,-0.6142631769180298,0.058279551565647125,0.2798556089401245
1789222580508430600,7.5404306640625,-0.09384846687316895,-0.7605096101760864,-0.07811903953552246
1789222580518425600,7.550425537109375,0.5347331762313843,-0.8116031289100647,-0.15375733375549316
1789222580528419800,7.560419921875,0.9294463992118835,-0.10302518308162689,-0.47952505946159363
1789222580538413800,7.570413818359375,0.9686601161956787,0.2466886043548584,-0.5043590068817139
1789222580548408800,7.580408935546875,0.7264949083328247,-0.04259007051587105,-0.07475227117538452
1789222580558402800,7.59040283203125,0.2586398124694824,-0.057443320751190186,-0.05784305930137634
1789222580568396800,7.600396728515625,-0.24041473865509033,0.3828941285610199,-0.359017550945282
1789222580578391800,7.610391845703125,-0.5117040276527405,0.11951041966676712,0.2618739604949951
1789222580588385800,7.6203857421875,-0.42368948459625244,-0.3019912838935852,0.5322644114494324
1789222580598380800,7.630380859375,-0.09141965955495834,-0.1958203762769699,0.2733684182167053
1789222580608374800,7.640374755859375,0.2697739601135254,0.14961212873458862,0.22122186422348022
1789222580618368800,7.65036865234375,0.4923678934574127,0.26904237270355225,0.016034360975027084
1789222580628363800,7.66036376953125,0.4918600022792816,0.02057691477239132,-0.39022472500801086
1789222580638357800,7.670357666015625,0.26786285638809204,-0.2015341818332672,-0.7190132737159729
1789222580648351700,7.680351806640625,0.1219344288110733,-0.6950346827507019,-0.8142428398132324
1789222580658347000,7.690346923828125,0.1106167882680893,-1.0351645946502686,-0.6955159306526184
1789222580668340700,7.7003408203125,0.002031725598499179,-0.23483407497406006,-0.06698223203420639
1789222580678335700,7.710335693359375,-0.2670295536518097,1.331539511680603,0.4673727750778198
1789222580688329700,7.720329833984375,-0.34002256393432617,1.1977430582046509,0.6595180034637451
1789222580698323700,7.73032373046875,-0.2676580846309662,-0.4531909227371216,1.0481621026992798
1789222580708318700,7.740318603515625,-0.18098069727420807,-1.0436387062072754,0.44528692960739136
1789222580718312700,7.750312744140625,-0.04273814335465431,-0.7784206867218018,-0.0816916674375534
1789222580728306700,7.760306640625,0.13845215737819672,-0.8238491415977478,-0.08955597877502441
1789222580738301700,7.7703017578125,0.3037305772304535,-0.5297346711158752,-0.5432747602462769
1789222580748295700,7.780295654296875,0.2256685495376587,0.7431356310844421,-0.6681884527206421
1789222580758290700,7.790290771484375,0.05119021609425545,1.2325775623321533,-0.38119369745254517
1789222580768284700,7.80028466796875,-0.10502655059099197,0.5435248017311096,-0.6606540679931641
1789222580778279000,7.81027880859375,-0.2937980592250824,-0.5810636878013611,0.06806986778974533
1789222580788274000,7.82027392578125,-0.44655564427375793,-0.6250289678573608,0.8736814260482788
1789222580798268000,7.830267822265625,-0.284446120262146,-0.5351739525794983,0.7107729315757751
1789222580808262000,7.840261962890625,-0.05148902162909508,-0.5949743986129761,0.5907346606254578
1789222580818257000,7.8502568359375,0.08644434064626694,-0.1196659505367279,0.12790443003177643
1789222580828251000,7.8602509765625,0.17383651435375214,0.3991226255893707,-0.7103321552276611
1789222580838246000,7.870245849609375,0.2365771234035492,-0.11137206107378006,-0.8366424441337585
1789222580848239600,7.880239501953125,0.1930626630783081,-0.3556550443172455,-0.8606284856796265
1789222580858233600,7.890233642578125,0.06283622235059738,-0.24795973300933838,-0.4296312630176544
1789222580868228600,7.900228515625,-0.06515876203775406,-0.34412381052970886,0.4208867847919464
1789222580878222600,7.91022265625,-0.16709178686141968,-0.05667606368660927,0.4679589569568634
1789222580888216800,7.920216796875,-0.26634514331817627,0.2490854561328888,0.5273325443267822
1789222580898211800,7.9302119140625,-0.44990110397338867,0.5444628000259399,0.7325376272201538
1789222580908205800,7.940205810546875,-0.49022749066352844,0.3109043538570404,0.3016751706600189
1789222580918200800,7.950200927734375,-0.35390880703926086,-0.18463988602161407,-0.045701973140239716
1789222580928194800,7.96019482421875,-0.09498057514429092,-0.5722808241844177,-0.1741771250963211
1789222580938188800,7.970188720703125,0.15716245770454407,-0.5954423546791077,-0.2807919979095459
1789222580948183800,7.980183837890625,0.34933483600616455,-0.8149757385253906,-0.11676789820194244
1789222580958177800,7.990177734375,0.4473327696323395,-0.8836922645568848,0.11344107240438461
1789222580968171800,8.000171875,0.37642422318458557,-0.1794339418411255,0.01667112112045288
1789222580978166800,8.010166748046874,0.15960431098937988,0.7088767290115356,-0.15766765177249908
1789222580988160800,8.020160888671874,-0.13540390133857727,0.9958741664886475,-0.026456374675035477
1789222580998155800,8.03015576171875,-0.2675419747829437,0.5927333831787109,-0.345682829618454
1789222581008149800,8.040149658203125,-0.1430538296699524,-0.36117497086524963,-0.06967228651046753
1789222581018144000,8.05014404296875,0.0836019515991211,-0.5232682824134827,-0.1434040367603302
1789222581028138800,8.060138671875,0.36033686995506287,-0.5369694232940674,-0.21263743937015533
1789222581038132700,8.0701328125,0.4958055019378662,-0.4281894266605377,0.3832333981990814
1789222581048126700,8.080126708984375,0.49148398637771606,0.12631665170192719,0.29195383191108704
1789222581058121700,8.090121826171876,0.3269922435283661,0.40078815817832947,0.10415223240852356
1789222581068115700,8.10011572265625,-0.03478993847966194,0.4006060063838959,0.12125159054994583
1789222581078110700,8.11011083984375,-0.3181798458099365,-0.21044671535491943,0.2591540813446045
1789222581088104700,8.120104736328125,-0.37190911173820496,-0.7426688075065613,0.25160160660743713
1789222581098098700,8.1300986328125,-0.1493024080991745,-0.21575945615768433,-0.21419964730739594
1789222581108093700,8.14009375,0.226340189576149,0.4510526657104492,-0.2692280113697052
1789222581118087700,8.150087646484375,0.452375203371048,0.8673513531684875,-0.18615096807479858
1789222581128082000,8.16008203125,0.4996337890625,0.5510972142219543,-0.09916014224290848
1789222581138076700,8.17007666015625,0.39044976234436035,-0.12622451782226562,0.1638651043176651
1789222581148071000,8.18007080078125,0.24453118443489075,-0.6177846789360046,0.22740866243839264
1789222581158066000,8.19006591796875,0.13631123304367065,-0.6340235471725464,0.026606043800711632
1789222581168060000,8.200059814453125,0.08641930669546127,-0.30341100692749023,-0.1250484585762024
1789222581178054000,8.210053955078125,0.09251874685287476,0.06876201927661896,-0.07259484380483627
1789222581188049000,8.220048828125,0.17466768622398376,0.3199111521244049,-0.020652813836932182
1789222581198043000,8.23004296875,0.2555620074272156,0.35153886675834656,0.036133237183094025
1789222581208036600,8.24003662109375,0.31115734577178955,0.1112373098731041,0.008741559460759163
1789222581218031900,8.250031982421875,0.31653904914855957,-0.19003358483314514,-0.16936825215816498
1789222581228025600,8.260025634765626,0.27848729491233826,-0.4074210226535797,-0.2432909458875656
1789222581238020600,8.2700205078125,0.2319653183221817,-0.2371600866317749,-0.25311774015426636
1789222581248014600,8.2800146484375,0.239244282245636,0.33036911487579346,-0.26796168088912964
1789222581258008800,8.2900087890625,0.3132990598678589,0.7113713622093201,-0.11152226477861404
1789222581268003600,8.300003662109376,0.41717326641082764,0.4060817360877991,0.13170796632766724
1789222581277997800,8.309997802734374,0.40184569358825684,0.07509688287973404,0.2503286302089691
1789222581287992800,8.319992919921875,0.3039681315422058,0.02395273745059967,0.35542866587638855
1789222581297986800,8.32998681640625,0.20685410499572754,0.14132410287857056,0.3121621608734131
1789222581307980800,8.339980712890625,0.19384190440177917,0.1583036184310913,0.01877448707818985
1789222581317975800,8.349975830078124,0.205175518989563,0.08905317634344101,-0.03172623738646507
1789222581327969800,8.3599697265625,0.296328067779541,-0.04087552800774574,-0.23986905813217163
1789222581337963800,8.3699638671875,0.38395431637763977,-0.12246599793434143,-0.225216343998909
1789222581347958800,8.379958740234375,0.4247523546218872,-0.020671190693974495,-0.1298738420009613
1789222581357952800,8.389952880859376,0.4016188085079193,0.15152187645435333,0.008482168428599834
1789222581367947800,8.39994775390625,0.2523041367530823,0.44156941771507263,0.29773446917533875
1789222581377941800,8.409941650390625,0.08486881852149963,0.5932306051254272,0.3346427083015442
1789222581387936000,8.41993603515625,-0.03885605186223984,0.3069396913051605,0.33541369438171387
1789222581397931000,8.429930908203126,-0.11661849170923233,0.006955644115805626,0.05670003220438957
1789222581407925200,8.43992529296875,-0.06256457418203354,-0.37974441051483154,-0.21693630516529083
1789222581417919200,8.449919189453125,0.12190593034029007,-0.48082786798477173,-0.3086997866630554
1789222581427914200,8.459914306640625,0.33538520336151123,-0.013258014805614948,-0.5118502378463745
1789222581437908200,8.469908203125,0.4287915825843811,0.3780098855495453,-0.38486966490745544
1789222581447903200,8.4799033203125,0.3086603581905365,0.338804692029953,0.038349252194166183
1789222581457897200,8.489897216796875,0.105705127120018,-0.08895224332809448,0.20330092310905457
1789222581467891200,8.49989111328125,-0.11130015552043915,-0.3501891791820526,0.31598618626594543
1789222581477886200,8.50988623046875,-0.2923503816127777,0.07995528727769852,0.15872040390968323
1789222581487880200,8.519880126953124,-0.3042357861995697,0.34078794717788696,0.02479163184762001
1789222581497874200,8.529874267578125,-0.19506962597370148,0.2905668616294861,0.08121868968009949
1789222581507869200,8.539869140625,-0.0024373249616473913,0.3697444796562195,-0.07695283740758896
1789222581517863000,8.54986279296875,0.16008207201957703,0.3314514458179474,-0.057668887078762054
1789222581527858200,8.559858154296874,0.21845804154872894,-0.12308944016695023,0.11171241849660873
1789222581537852200,8.56985205078125,0.19317984580993652,-0.6468618512153625,0.11969178169965744
1789222581547846100,8.57984619140625,0.09156879782676697,-0.3809071481227875,-0.029766418039798737
1789222581557841200,8.589841064453125,-0.0033300165086984634,0.33513832092285156,-0.30462247133255005
1789222581567835100,8.599835205078126,-0.0669928789138794,0.5935709476470947,-0.184138685464859
1789222581577830100,8.609830078125,-0.1091025173664093,0.4272994101047516,0.08447493612766266
1789222581587824000,8.61982421875,-0.11720571666955948,0.24188879132270813,0.10750089585781097
1789222581597818000,8.629818115234375,-0.05271567404270172,-0.07381083816289902,0.3094337582588196
1789222581607813000,8.639813232421876,-0.020482106134295464,-0.06636011600494385,0.3048997223377228
1789222581617807000,8.64980712890625,0.0012101404136046767,-0.10585638880729675,-0.022472817450761795
1789222581627801000,8.659801025390625,-0.04051493480801582,-0.19011561572551727,0.01321061048656702
1789222581637796000,8.669796142578125,-0.10547608882188797,0.11420833319425583,-0.1884540617465973
1789222581647790000,8.6797900390625,-0.16224856674671173,0.3069618046283722,-0.2248711884021759
1789222581657785000,8.68978515625,-0.1602810174226761,0.05506804585456848,-0.21463534235954285
1789222581667779300,8.699779296875,-0.11274199187755585,-0.2234027236700058,-0.07860320061445236
1789222581677773300,8.709773193359375,-0.15318875014781952,-0.08605711907148361,0.4373466968536377
1789222581687768300,8.719768310546876,-0.21554987132549286,0.3363705575466156,0.31374168395996094
1789222581697762300,8.72976220703125,-0.2321014106273651,0.29815950989723206,0.11019548028707504
1789222581707756000,8.739756103515624,-0.19846434891223907,-0.19872747361660004,0.31542664766311646
1789222581717751300,8.749751220703125,-0.16646833717823029,-0.08000349253416061,-0.11938365548849106
1789222581727745000,8.7597451171875,-0.1710021048784256,0.10928494483232498,-0.38765424489974976
1789222581737740000,8.769739990234376,-0.18135806918144226,-0.3224155902862549,0.052020590752363205
1789222581747734000,8.779734130859374,-0.07636294513940811,-0.6990805864334106,-0.050039466470479965
1789222581757728000,8.78972802734375,0.11860308051109314,-0.6123453974723816,-0.22436092793941498
1789222581767723000,8.799722900390625,0.1362028419971466,0.1519423872232437,0.004246144089847803
1789222581777717000,8.809717041015626,-0.09299439191818237,0.9726974964141846,0.11686616390943527
1789222581787712000,8.8197119140625,-0.3707394599914551,0.6105488538742065,0.40151894092559814
1789222581797706200,8.829706298828125,-0.5407577753067017,-0.17936602234840393,0.5697276592254639
1789222581807700200,8.8397001953125,-0.4665522575378418,-0.5673113465309143,0.15880243480205536
1789222581817695200,8.8496953125,-0.25835511088371277,-0.1987738162279129,-0.5026375651359558
1789222581827689200,8.859689208984374,0.0015531554818153381,-0.2528487741947174,-0.4843869209289551
1789222581837683200,8.86968310546875,0.17233635485172272,-0.41238462924957275,-0.2578030526638031
1789222581847678200,8.87967822265625,0.12778645753860474,0.25015923380851746,-0.29190775752067566
1789222581857672200,8.889672119140625,-0.0578228197991848,0.6595296859741211,-0.19587230682373047
1789222581867667200,8.899667236328124,-0.2447381168603897,-0.09930688142776489,-0.009831591509282589
1789222581877661200,8.9096611328125,-0.4380013048648834,-0.7570091485977173,0.09848609566688538
1789222581887655200,8.9196552734375,-0.6094886660575867,-0.24995391070842743,0.20133072137832642
1789222581897650200,8.929650146484375,-0.5926007628440857,0.3355734646320343,0.10782100260257721
1789222581907644200,8.93964404296875,-0.43820610642433167,0.012416988611221313,0.0288766548037529
1789222581917639200,8.94963916015625,-0.28647518157958984,-0.47377341985702515,-0.027303526178002357
1789222581927633200,8.959633056640625,-0.240776926279068,-0.4106423854827881,0.0628223717212677
1789222581937627100,8.969627197265625,-0.29946473240852356,-0.0759110078215599,-0.051474642008543015
1789222581947622100,8.9796220703125,-0.4152616560459137,-0.14376595616340637,0.0276247039437294
1789222581957616000,8.9896162109375,-0.5911540985107422,-0.25165432691574097,0.22455960512161255
1789222581967610000,8.999610107421875,-0.7456443309783936,-0.14425304532051086,-0.014430338516831398
1789222581977605000,9.009605224609375,-0.7933173179626465,-0.5867407321929932,0.16043175756931305
1789222581987599000,9.01959912109375,-0.6353594064712524,-1.3696469068527222,0.4403936266899109
1789222581997594000,9.029593994140624,-0.368615061044693,-1.041479229927063,0.07451950758695602
1789222582007588000,9.039588134765625,-0.059189554303884506,0.08410821855068207,-0.4400772452354431
1789222582017582000,9.04958203125,0.13878823816776276,0.47898364067077637,-0.5070461630821228
1789222582027577000,9.0595771484375,-0.03138961270451546,0.5589735507965088,-0.39858680963516235
1789222582037571000,9.069571044921876,-0.3837015926837921,0.161856546998024,0.14017654955387115
1789222582047566000,9.079566162109375,-0.5410329103469849,-0.8241783380508423,0.5886291861534119
1789222582057560300,9.089560302734375,-0.3933824598789215,-1.5520881414413452,0.5962117314338684
1789222582067554300,9.09955419921875,-0.23896543681621552,-0.5310795903205872,0.03307672590017319
1789222582077549300,9.10954931640625,-0.16002988815307617,0.44836288690567017,0.12463327497243881
1789222582087543300,9.119543212890624,-0.09079408645629883,0.49462997913360596,0.4160478115081787
1789222582097537000,9.129537109375,0.01774517446756363,0.25127217173576355,-0.13654986023902893
1789222582107532300,9.1395322265625,0.10307498276233673,-0.33180350065231323,-0.2669645845890045
1789222582117526000,9.149526123046876,0.13493464887142181,-0.5681633353233337,-0.6309691667556763
1789222582127521000,9.15952099609375,0.19981883466243744,-0.912976861000061,-0.6957119703292847
1789222582137515000,9.169514892578125,0.1906205415725708,-0.7957913875579834,0.1133449375629425
1789222582147509000,9.179509033203125,0.15248169004917145,0.37718963623046875,0.3432766795158386
1789222582157504000,9.18950390625,0.14631007611751556,0.9459654688835144,0.564629316329956
1789222582167498000,9.199498046875,0.1278117597103119,0.3467821776866913,0.9330893754959106
1789222582177493000,9.209492919921875,0.20583465695381165,-0.4331043064594269,0.18975581228733063
1789222582187487200,9.2194873046875,0.30303603410720825,-0.8062746524810791,-0.25776976346969604
1789222582197481200,9.229481201171875,0.2664170265197754,-0.32958510518074036,-0.0762801244854927
1789222582207476200,9.239476318359374,0.3210512697696686,-0.2269418090581894,0.09880007803440094
1789222582217470200,9.24947021484375,0.4317362308502197,-0.15656937658786774,-0.000264718197286129
1789222582227464200,9.259464111328125,0.5293940901756287,0.19660787284374237,-0.18848256766796112
1789222582237459200,9.269459228515625,0.5604566335678101,0.5836322903633118,-0.5098829865455627
1789222582247453200,9.279453125,0.48915717005729675,0.5882342457771301,-0.84781414270401
1789222582257448200,9.2894482421875,0.4302150309085846,-0.12462981045246124,-0.46305152773857117
1789222582267442200,9.299442138671875,0.4016619324684143,-0.5060901045799255,0.35056546330451965
1789222582277436200,9.309436279296875,0.4499914050102234,-0.1578972190618515,0.625613272190094
1789222582287431200,9.31943115234375,0.48207077383995056,0.4964641034603119,0.3772657811641693
1789222582297425200,9.329425048828124,0.4597574770450592,0.5027853846549988,0.4142400622367859
1789222582307420200,9.339420166015625,0.39712125062942505,0.24021020531654358,0.12057195603847504
1789222582317414100,9.3494140625,0.3893269896507263,-0.04207368567585945,-0.27475273609161377
1789222582327408000,9.359408203125,0.4970012605190277,-0.2864386737346649,-0.2801288664340973
1789222582337403100,9.369403076171874,0.6669088006019592,-0.273200124502182,-0.3125714957714081
1789222582347397000,9.379397216796875,0.7486758232116699,0.13794881105422974,-0.43598368763923645
1789222582357392100,9.38939208984375,0.6869717240333557,0.607525646686554,-0.4188382625579834
1789222582367386000,9.39938623046875,0.5782670974731445,0.4739025831222534,-0.04002811014652252
1789222582377380000,9.409380126953126,0.4712599217891693,0.04248647391796112,0.22427944839000702
1789222582387374300,9.419374267578124,0.3561685085296631,-0.07007922232151031,0.24395939707756042
1789222582397368300,9.429368408203125,0.2715878486633301,0.04565377160906792,0.48831480741500854
1789222582407362600,9.439362548828125,0.26870736479759216,0.27128317952156067,0.4062814712524414
1789222582417357600,9.449357666015626,0.3361439108848572,0.44897833466529846,-0.037822745740413666
1789222582427351600,9.4593515625,0.4613814651966095,0.40374186635017395,-0.44490715861320496
1789222582437346600,9.4693466796875,0.5666854977607727,0.059247344732284546,-0.4535911977291107
1789222582447340500,9.479340576171875,0.5725204944610596,-0.1126256138086319,-0.26667189598083496
1789222582457334500,9.48933447265625,0.49903616309165955,-0.07516692578792572,0.12300235778093338
1789222582467329500,9.49932958984375,0.42121621966362,0.13946202397346497,0.2676903009414673
1789222582477323300,9.5093232421875,0.3412204384803772,0.44253453612327576,-0.052024319767951965
1789222582487318500,9.519318603515625,0.3015420138835907,0.3250207006931305,-0.4554106593132019
1789222582497312300,9.529312255859375,0.3347492218017578,-0.21553069353103638,-0.26776406168937683
1789222582507306200,9.53930615234375,0.4212505519390106,-0.17328177392482758,0.010498980060219765
1789222582517301200,9.54930126953125,0.5191606283187866,0.3874579668045044,0.15750227868556976
1789222582527295200,9.559295166015625,0.5130321383476257,0.8173603415489197,0.4646054804325104
1789222582537290200,9.569290283203125,0.3504381775856018,0.845945417881012,0.6830097436904907
1789222582547284500,9.579284423828126,0.1600104421377182,0.38316601514816284,0.42005932331085205
1789222582557278500,9.589278564453124,0.07145367562770844,-0.26823997497558594,0.18056072294712067
1789222582567273500,9.5992734375,0.13327603042125702,-0.5065862536430359,-0.13392291963100433
1789222582577267500,9.609267333984375,0.2910880446434021,-0.2276717722415924,-0.536325216293335
1789222582587261400,9.619261474609376,0.4954267740249634,0.28568315505981445,-0.808821439743042
1789222582597256400,9.62925634765625,0.6822707056999207,0.5009272694587708,-0.6204073429107666
1789222582607250400,9.63925048828125,0.6547011137008667,0.747245192527771,-0.3163702189922333
1789222582617245400,9.649245361328125,0.46596795320510864,0.602744996547699,0.010449711233377457
1789222582627239400,9.659239501953126,0.2783573269844055,-0.24630990624427795,0.7507531046867371
1789222582637233400,9.6692333984375,0.08797912299633026,-0.3040051758289337,0.9786765575408936
1789222582647228400,9.679228515625,-0.05422408878803253,0.4723438322544098,0.6753848195075989
1789222582657222400,9.689222412109375,-0.08336013555526733,0.9445132613182068,0.24466407299041748
1789222582667217400,9.699217529296876,-0.013032444752752781,0.7762006521224976,-0.31023508310317993
1789222582677211400,9.70921142578125,0.14033900201320648,0.1545533537864685,-0.8074374198913574
1789222582687205400,9.719205322265625,0.40111279487609863,-0.7141636610031128,-0.7882863283157349
1789222582697200400,9.729200439453125,0.701522946357727,-1.1039342880249023,-0.6936858296394348
1789222582707194400,9.7391943359375,0.7869347929954529,-0.25274917483329773,-0.4664321541786194
1789222582717189400,9.749189453125,0.6050425171852112,0.9893147945404053,0.032460737973451614
1789222582727183400,9.759183349609375,0.3274170160293579,1.3698168992996216,0.6095032691955566
1789222582737177300,9.76917724609375,0.11301550269126892,0.9799602031707764,0.6057649850845337
1789222582747172400,9.77917236328125,-0.05131618306040764,0.4942699074745178,0.4231211543083191
1789222582757166300,9.789166259765626,-0.15161988139152527,0.0453171469271183,0.590417742729187
1789222582767161300,9.799161376953125,-0.03621393069624901,-0.33267542719841003,0.3540627360343933
1789222582777155300,9.8091552734375,0.2568352520465851,-0.10621511936187744,-0.2521941661834717
1789222582787149300,9.8191494140625,0.5276464819908142,0.2564395070075989,-0.38106852769851685
1789222582797144300,9.829144287109376,0.6124061346054077,0.4092903137207031,-0.4726775288581848
1789222582807138600,9.839138671875,0.5523486733436584,0.14834658801555634,-0.5076832175254822
1789222582817132500,9.849132568359375,0.39521098136901855,-0.00038242992013692856,-0.20275869965553284
1789222582827127600,9.85912744140625,0.28839796781539917,0.21590858697891235,-0.16335643827915192
1789222582837121500,9.86912158203125,0.18800371885299683,0.6342951655387878,-0.040171921253204346
1789222582847116500,9.879116455078124,0.04837765172123909,0.898692786693573,0.47053074836730957
1789222582857110500,9.889110595703125,0.011333880946040154,1.0193672180175781,0.5447487831115723
1789222582867104300,9.899104248046875,0.13138945400714874,0.5794005393981934,0.5577521920204163
1789222582877099500,9.909099609375,0.22301843762397766,0.1714433878660202,0.3280250132083893
1789222582887093200,9.91909326171875,0.19772213697433472,-0.0087820403277874,-0.1128341406583786
1789222582897088300,9.929088134765625,0.16610881686210632,-0.37059298157691956,-0.20760565996170044
1789222582907082200,9.939082275390625,0.1658233255147934,-0.31731298565864563,-0.2387760877609253
1789222582917076200,9.949076171875,0.253437340259552,0.33738842606544495,-0.7836835980415344
1789222582927071200,9.9590712890625,0.30440568923950195,0.8005059957504272,-0.6018800139427185
1789222582937065500,9.9690654296875,0.15769748389720917,0.897960901260376,0.16058674454689026
1789222582947060200,9.979060302734375,-0.005372128449380398,0.4603132903575897,0.42890554666519165
1789222582957054500,9.989054443359375,-0.12106836587190628,0.10544759780168533,0.6314123272895813
1789222582967048400,9.99904833984375,-0.22616416215896606,0.19537748396396637,0.8095858097076416
1789222582977043500,10.00904345703125,-0.29202333092689514,0.15115489065647125,0.5303221940994263
1789222582987037400,10.019037353515625,-0.2534591555595398,-0.22721238434314728,0.08357984572649002
1789222582997032400,10.029032470703125,-0.18038788437843323,0.005249889567494392,-0.23412008583545685
1789222583007026400,10.0390263671875,-0.09610948711633682,0.3320985734462738,-0.3439810872077942
1789222583017020400,10.0490205078125,-0.08341899514198303,0.4318331778049469,-0.6264452338218689
1789222583027015400,10.059015380859375,-0.16195933520793915,-0.03381521999835968,-0.2917655408382416
1789222583037009400,10.069009521484375,-0.2627218961715698,-0.40175649523735046,0.1724545955657959
1789222583047004400,10.07900439453125,-0.33586934208869934,-0.15399782359600067,0.1085648238658905
1789222583056998400,10.088998291015624,-0.38438254594802856,0.23326468467712402,-0.05216600000858307
1789222583066992400,10.098992431640625,-0.3756532371044159,0.1034662052989006,0.09583544731140137
1789222583076987400,10.1089873046875,-0.3150447607040405,-0.017169399186968803,0.050275955349206924
1789222583086981400,10.1189814453125,-0.2539784908294678,0.17212888598442078,0.014799186028540134
1789222583096976600,10.1289765625,-0.20388361811637878,0.2909649908542633,-0.02472718432545662
1789222583106970400,10.138970458984375,-0.21108347177505493,0.15865515172481537,0.006040049251168966
1789222583116964400,10.14896435546875,-0.2695460021495819,0.000565389113035053,0.09282954037189484
1789222583126959400,10.15895947265625,-0.37329742312431335,0.032114528119564056,0.08127541840076447
1789222583136953300,10.168953369140626,-0.45612651109695435,-0.0570363886654377,0.18219004571437836
1789222583146948400,10.1789482421875,-0.46222570538520813,-0.12333977967500687,0.1330408751964569
1789222583156942300,10.1889423828125,-0.36597293615341187,-0.11747735738754272,-0.12431635707616806
1789222583166936300,10.198936279296875,-0.23224282264709473,-0.02670910954475403,-0.3057367503643036
1789222583176931300,10.208931396484376,-0.15805940330028534,0.1694984883069992,-0.4039756953716278
1789222583186925300,10.21892529296875,-0.1603555828332901,-0.01625833287835121,-0.11740226298570633
1789222583196920300,10.22892041015625,-0.22239898145198822,-0.3325449228286743,0.18376903235912323
1789222583206914300,10.238914306640625,-0.2902592420578003,-0.4235967993736267,0.3988720178604126
1789222583216908500,10.248908447265626,-0.40325185656547546,0.07355783879756927,0.3996824324131012
1789222583226903600,10.258903564453124,-0.5159328579902649,0.5563050508499146,0.26271897554397583
1789222583236897500,10.2688974609375,-0.5428885817527771,0.4295167624950409,0.03389378637075424
1789222583246891500,10.2788916015625,-0.5135514736175537,0.07346942275762558,-0.2602459490299225
1789222583256886500,10.288886474609376,-0.4241022765636444,-0.3087112307548523,-0.33125144243240356
1789222583266880500,10.298880615234374,-0.1919417381286621,-0.8658527731895447,-0.3564974069595337
1789222583276875500,10.30887548828125,0.11785739660263062,-1.1909494400024414,-0.4957551658153534
1789222583286869200,10.318869140625,0.2202807068824768,-0.48964613676071167,-0.33650317788124084
1789222583296863200,10.32886328125,-0.042328815907239914,0.8218110203742981,0.23567217588424683
1789222583306858200,10.338858154296876,-0.439152330160141,1.2492488622665405,0.5010926723480225
1789222583316852200,10.348852294921874,-0.7680756449699402,0.5952692031860352,0.34949034452438354
1789222583326847200,10.35884716796875,-0.8891072273254395,-0.31328973174095154,0.3121411204338074
1789222583336841500,10.368841552734375,-0.7770766019821167,-0.5185701847076416,0.06535717099905014
1789222583346835500,10.37883544921875,-0.4679645299911499,-0.47378966212272644,-0.4178025722503662
1789222583356830500,10.38883056640625,-0.09617047756910324,-0.8539292812347412,-0.16484248638153076
1789222583366824400,10.398824462890625,0.046614374965429306,-0.40315863490104675,0.15393976867198944
1789222583376819500,10.4088193359375,-0.07421750575304031,0.5154370069503784,-0.011328554712235928
1789222583386813400,10.4188134765625,-0.31721338629722595,0.32301053404808044,-0.00782383419573307
1789222583396807200,10.42880712890625,-0.5389223098754883,-0.6843298673629761,0.30158355832099915
1789222583406802200,10.43880224609375,-0.6879352331161499,-0.736638069152832,0.0316692478954792
1789222583416796200,10.448796142578125,-0.6405009031295776,-0.09965202212333679,-0.30123546719551086
1789222583426791200,10.458791259765626,-0.42174217104911804,0.13986974954605103,-0.1764485388994217
1789222583436785200,10.46878515625,-0.20655423402786255,0.04478877782821655,-0.010630007833242416
1789222583446779100,10.478779052734374,-0.08173081278800964,-0.28092142939567566,0.09902671724557877
1789222583456774100,10.488774169921875,0.0043532028794288635,-0.7154837846755981,0.10108906775712967
1789222583466768400,10.498768310546875,-0.05433940514922142,-0.6407355070114136,0.3637734353542328
1789222583476763100,10.50876318359375,-0.19061122834682465,-0.16098834574222565,0.39448073506355286
1789222583486757400,10.51875732421875,-0.23706501722335815,0.1475825309753418,0.11759480834007263
1789222583496751400,10.52875146484375,-0.2629924714565277,0.32813021540641785,0.12493900209665298
1789222583506746400,10.538746337890625,-0.27354657649993896,0.5892726182937622,-0.10456688702106476
1789222583516740400,10.548740234375,-0.23768658936023712,0.32501935958862305,-0.5418390035629272
1789222583526735400,10.5587353515625,-0.08909392356872559,-0.906406044960022,-0.27721136808395386
1789222583536729300,10.568729248046875,0.07464440912008286,-1.5142734050750732,0.10976111888885498
1789222583546723000,10.57872314453125,0.09979157149791718,-0.5051577091217041,0.14079546928405762
1789222583556718300,10.58871826171875,0.025977805256843567,0.5557020902633667,0.28643283247947693
1789222583566712000,10.598712158203124,-0.12554886937141418,0.5950748324394226,0.5026511549949646
1789222583576707000,10.60870703125,-0.2744792401790619,-0.0229782871901989,0.30797672271728516
1789222583586701000,10.618701171875,-0.34937557578086853,-0.4527173936367035,0.056477390229701996
1789222583596695300,10.6286953125,-0.26060283184051514,-0.5247519016265869,-0.13631363213062286
1789222583606690000,10.63868994140625,-0.07085313647985458,-0.5358261466026306,-0.13512346148490906
1789222583616684300,10.648684326171875,0.09449321776628494,-0.4777575135231018,0.12838433682918549
1789222583626679300,10.65867919921875,0.2360631227493286,-0.001674595638178289,0.056765809655189514
1789222583636673300,10.66867333984375,0.3491832911968231,0.05654636770486832,0.16015611588954926
1789222583646667300,10.678667236328126,0.30149778723716736,0.07855792343616486,-0.07053222507238388
1789222583656662300,10.688662353515625,0.06619419902563095,0.18382762372493744,-0.164247527718544
1789222583666656300,10.69865625,-0.16165654361248016,-0.15458931028842926,0.3477015197277069
1789222583676651300,10.7086513671875,-0.18598903715610504,-0.4414016306400299,0.39570072293281555
1789222583686645200,10.718645263671876,0.009029713459312916,-0.36168524622917175,0.390103816986084
1789222583696639200,10.72863916015625,0.25201359391212463,0.09969863295555115,0.25489673018455505
1789222583706634200,10.73863427734375,0.4442211389541626,0.13959172368049622,-0.012810870073735714
1789222583716628200,10.748628173828125,0.505162239074707,-0.24096547067165375,-0.050761446356773376
1789222583726623200,10.758623291015626,0.46758317947387695,-0.11556947231292725,-0.3898699879646301
1789222583736617200,10.7686171875,0.3838030695915222,0.035947080701589584,-0.5517734289169312
1789222583746611200,10.778611083984375,0.2823829650878906,-0.030428213998675346,-0.4677552282810211
1789222583756606500,10.7886064453125,0.1059647798538208,0.2090831845998764,-0.10038279742002487
1789222583766600200,10.79860009765625,-0.004710599314421415,0.30314549803733826,0.33150336146354675
1789222583776595200,10.80859521484375,0.096160888671875,-0.23696860671043396,0.5949704051017761
1789222583786589200,10.818589111328125,0.24770700931549072,-0.4753287136554718,0.6240806579589844
1789222583796583200,10.828583251953125,0.3165249526500702,0.018796058371663094,0.37033146619796753
1789222583806578200,10.838578125,0.34069952368736267,0.3878350853919983,-0.01984907127916813
1789222583816572200,10.848572265625,0.3731709122657776,0.17729435861110687,-0.4773756265640259
1789222583826567200,10.858567138671875,0.30768007040023804,-0.12494699656963348,-0.540205717086792
1789222583836561200,10.86856103515625,0.20817983150482178,-0.27426084876060486,-0.5458753108978271
1789222583846555100,10.87855517578125,0.2180471122264862,-0.728783369064331,-0.2862405478954315
1789222583856550100,10.888550048828124,0.3098295032978058,-0.6878880858421326,0.12583781778812408
1789222583866544000,10.898544189453125,0.37944212555885315,0.27670297026634216,0.1915997862815857
1789222583876539100,10.9085390625,0.3427533507347107,1.070184350013733,0.15688441693782806
1789222583886533400,10.918533447265625,0.2523406445980072,0.8085010647773743,0.18493789434432983
1789222583896527400,10.92852734375,0.1748354583978653,-0.12922988831996918,0.30404698848724365
1789222583906522400,10.9385224609375,0.12604714930057526,-0.5421152114868164,0.35727956891059875
1789222583916516400,10.948516357421875,0.1770477443933487,-0.2830367684364319,0.10094872117042542
1789222583926511400,10.958511474609375,0.36567384004592896,-0.12014904618263245,-0.11161042004823685
1789222583936505300,10.96850537109375,0.5389915704727173,0.13167467713356018,-0.40564844012260437
1789222583946500400,10.978500244140625,0.6093584299087524,0.4740264117717743,-0.6555163264274597
1789222583956494300,10.988494384765625,0.6123006939888,0.15509797632694244,-0.368427574634552
1789222583966488000,10.998488037109375,0.5580454468727112,-0.35138973593711853,-0.08298330008983612
1789222583976483300,11.0084833984375,0.4249859154224396,-0.21041955053806305,0.14364159107208252
1789222583986477000,11.01847705078125,0.2701958119869232,0.4658670425415039,0.3670746684074402
1789222583996472000,11.02847216796875,0.2629954218864441,0.6571517586708069,0.23565912246704102
1789222584006466000,11.038466064453125,0.31552228331565857,0.4257957935333252,0.0978677049279213
1789222584016460300,11.048460205078126,0.3808070123195648,0.28363385796546936,-0.04638001695275307
1789222584026455000,11.058455078125,0.5364171266555786,-0.14029745757579803,-0.1706572324037552
1789222584036449300,11.06844921875,0.6785122156143188,-0.4301031827926636,-0.18421991169452667
1789222584046444300,11.0784443359375,0.6518952250480652,0.08240938931703568,-0.21021582186222076
1789222584056438300,11.088438232421876,0.575996458530426,0.3861655592918396,-0.05949794873595238
1789222584066432300,11.098432373046874,0.4524998366832733,0.3569384217262268,0.06427033245563507
1789222584076427300,11.10842724609375,0.3040024936199188,0.2870109975337982,0.2880419194698334
1789222584086421200,11.118421142578125,0.19774210453033447,0.388607919216156,0.33810028433799744
1789222584096416300,11.128416259765626,0.21863514184951782,0.4172140061855316,0.07051225006580353
1789222584106410200,11.13841015625,0.39413851499557495,0.042632680386304855,-0.17188760638237
1789222584116404200,11.148404296875,0.599600613117218,-0.33169111609458923,-0.08916609734296799
1789222584126399200,11.158399169921875,0.6822310090065002,-0.019773704931139946,-0.1692555993795395
1789222584136393200,11.168393310546875,0.6204145550727844,0.2906230390071869,-0.18179669976234436
1789222584146388200,11.17838818359375,0.4309511184692383,0.19428212940692902,-0.027572505176067352
1789222584156382200,11.18838232421875,0.2515416741371155,0.48195013403892517,-0.6901091933250427
1789222584166376400,11.19837646484375,0.8025044202804565,0.8919613361358643,-1.3065718412399292
1789222584176371500,11.208371337890625,0.867833137512207,0.17077334225177765,-0.5289676785469055
1789222584186365200,11.218365234375,0.5206655859947205,0.4380926489830017,0.290428102016449
1789222584196360400,11.2283603515625,0.3666885197162628,0.07105500251054764,1.2099359035491943
1789222584206354200,11.238354248046875,0.3393080234527588,-0.48239514231681824,1.9026254415512085
1789222584216348200,11.24834814453125,0.841613233089447,1.2355579137802124,1.40401291847229
1789222584226343200,11.25834326171875,1.0196551084518433,1.8574501276016235,-0.9503961801528931
1789222584236337200,11.268337158203124,0.5694368481636047,-0.41097715497016907,-1.2812161445617676
1789222584246332200,11.278332275390625,0.09342209249734879,-1.5810915231704712,0.03167004510760307
1789222584256326100,11.288326171875,-0.09048675745725632,-0.48109471797943115,0.08847207576036453
1789222584266320100,11.298320068359375,0.4200739860534668,2.4734060764312744,-1.1281638145446777
1789222584276315100,11.308315185546874,0.914389967918396,0.9791974425315857,-0.703911542892456
1789222584286309000,11.31830908203125,0.6398846507072449,0.7633056640625,-0.021264009177684784
1789222584296304000,11.32830419921875,0.17716892063617706,0.6185756325721741,0.7931354641914368
1789222584306298400,11.33829833984375,-0.14416809380054474,0.12238024175167084,0.8211132884025574
1789222584316292400,11.348292236328126,0.00872158631682396,-0.5410781502723694,0.31043216586112976
1789222584326287400,11.358287353515625,0.10636159032583237,-0.23799578845500946,-0.6866492033004761
1789222584336281300,11.36828125,-0.060212474316358566,-0.0025454494170844555,-0.41404271125793457
1789222584346276400,11.3782763671875,-0.17923153936862946,-0.007032609544694424,0.13437911868095398
1789222584356270300,11.388270263671876,-0.0667518675327301,-0.23173841834068298,-0.2469746321439743
1789222584366265300,11.398265380859375,0.1519535779953003,-0.06599099934101105,-0.8298636078834534
1789222584376259300,11.40825927734375,0.40122970938682556,0.5131754279136658,-0.9645553827285767
1789222584386253000,11.418253173828125,0.3779800534248352,1.1840437650680542,-0.6856681108474731
1789222584396249300,11.428249267578124,0.021824073046445847,1.087741494178772,0.0033097765408456326
1789222584406243300,11.438243408203125,-0.4049656093120575,0.18553471565246582,0.4594099223613739
1789222584416238300,11.44823828125,-0.6100436449050903,-1.0776861906051636,0.5030897855758667
1789222584426232300,11.458232421875,-0.5918595790863037,-1.411656141281128,0.7780283689498901
1789222584436226000,11.46822607421875,-0.5806873440742493,-0.09684718400239944,1.3738864660263062
1789222584446221300,11.47822119140625,-0.5656239986419678,0.9510231018066406,2.3195199966430664
1789222584456215000,11.488215087890625,-0.44792237877845764,1.1300750970840454,2.317033290863037
1789222584466210000,11.4982099609375,-0.18022170662879944,1.8243521451950073,-0.31637686491012573
1789222584476204000,11.5082041015625,0.12010510265827179,0.4956691265106201,-2.184634208679199
1789222584486198300,11.5181982421875,0.24459296464920044,-1.974246621131897,-1.8489028215408325
1789222584496193300,11.528193359375,0.23890285193920135,-2.1934425830841064,-2.022366762161255
1789222584506187300,11.538187255859375,0.28607943654060364,-0.5291626453399658,-1.8663078546524048
1789222584516182300,11.548182373046876,0.4675309658050537,0.2184487134218216,0.07062064111232758
1789222584526176300,11.55817626953125,0.5117583870887756,0.9712228775024414,1.351489543914795
1789222584536170200,11.568170166015625,0.056290701031684875,2.476083755493164,0.9211011528968811
1789222584546165200,11.578165283203125,-0.5463573336601257,1.5428858995437622,1.3790864944458008
1789222584556159200,11.5881591796875,-0.8900108337402344,-0.734771192073822,1.6408454179763794
1789222584566154200,11.598154296875,-0.8293957114219666,-1.7682489156723022,0.6850212216377258
1789222584576148200,11.608148193359375,-0.3975926339626312,-0.9688540101051331,-0.3530837595462799
1789222584586142200,11.61814208984375,0.17485223710536957,0.14927762746810913,-0.6367596983909607
1789222584596137200,11.62813720703125,0.6493481993675232,1.0617916584014893,-0.9358212351799011
1789222584606131200,11.638131103515626,0.800220787525177,1.4132884740829468,-1.2941296100616455
1789222584616126200,11.648126220703125,0.6265605688095093,0.4647836685180664,-0.9322406053543091
1789222584626120400,11.658120361328125,0.2603945732116699,-0.760845422744751,-0.4298722743988037
1789222584636115200,11.668115234375,-0.12919872999191284,-1.1797600984573364,0.07403374463319778
1789222584646109400,11.678109375,-0.4668042063713074,-0.5912758111953735,1.0730671882629395
1789222584656103200,11.688103271484374,-0.6303670406341553,0.6096732020378113,1.7321186065673828
1789222584666098200,11.69809814453125,-0.5759032368659973,1.4934130907058716,1.5482726097106934
1789222584676092200,11.708092041015625,-0.39646852016448975,1.3250528573989868,0.8475398421287537
1789222584686087200,11.718087158203126,-0.13540789484977722,0.1818222552537918,-0.216343492269516
1789222584696081200,11.7280810546875,0.1431659460067749,-1.1866300106048584,-0.8918801546096802
1789222584706075100,11.7380751953125,0.40988418459892273,-1.7260040044784546,-1.0611461400985718
1789222584716070100,11.748070068359375,0.5862206220626831,-0.9241387248039246,-1.1098049879074097
1789222584726064000,11.758064208984376,0.5386602878570557,0.18529768288135529,-0.48608681559562683
1789222584736059100,11.76805908203125,0.2641637325286865,0.874718189239502,0.32888922095298767
1789222584746053000,11.77805322265625,-0.18612220883369446,1.017500400543213,0.8448430895805359
1789222584756047400,11.78804736328125,-0.565681517124176,0.7041448354721069,0.8214424252510071
1789222584766042000,11.7980419921875,-0.6253216862678528,-0.21840690076351166,0.6816384792327881
1789222584776036400,11.808036376953124,-0.3656786382198334,-0.855211615562439,0.1254791021347046
1789222584786031400,11.81803125,0.13976669311523438,-0.7143924236297607,-0.6669082641601562
1789222584796025300,11.828025390625,0.6460288166999817,-0.23777607083320618,-0.6269637942314148
1789222584806020400,11.838020263671876,0.9306991696357727,0.34477683901786804,-0.4756448268890381
1789222584816014300,11.848014404296874,0.8583626747131348,0.5883905291557312,-0.382960706949234
1789222584826008300,11.85800830078125,0.45035386085510254,0.34382954239845276,-0.032518792897462845
1789222584836003300,11.86800341796875,-0.058875035494565964,-0.03833220899105072,0.2947717308998108
1789222584845997300,11.877997314453125,-0.41416308283805847,-0.18151360750198364,0.40029042959213257
1789222584855992300,11.887992431640624,-0.4486995041370392,0.04368223249912262,0.16646167635917664
1789222584865986300,11.897986328125,-0.21937043964862823,0.22522033751010895,0.13333195447921753
1789222584875980000,11.90797998046875,0.16106106340885162,0.16263365745544434,0.1943279355764389
1789222584885975000,11.91797509765625,0.5292779803276062,-0.09143004566431046,0.037703704088926315
1789222584895969300,11.92796923828125,0.6347633600234985,-0.08253695070743561,-0.1587638109922409
1789222584905964000,11.937964111328125,0.4613913297653198,0.043175965547561646,-0.014225541613996029
1789222584915958300,11.947958251953125,0.17024870216846466,0.0324852392077446,0.10063446313142776
1789222584925952300,11.9579521484375,-0.057798583060503006,-0.0497094988822937,0.023319438099861145
1789222584935947300,11.967947265625,-0.13187441229820251,0.002924417145550251,0.08431354910135269
1789222584945941200,11.977941162109374,-0.030338730663061142,0.23915798962116241,0.07396396994590759
1789222584955936300,11.987936279296875,0.22060135006904602,0.35084402561187744,-0.15175117552280426
1789222584965930200,11.99793017578125,0.5047257542610168,0.16703931987285614,-0.23509639501571655
1789222584975924200,12.00792431640625,0.6458738446235657,0.008476574905216694,-0.1466570794582367
1789222584985919200,12.017919189453124,0.6955577731132507,-0.228375643491745,-0.10523507744073868
1789222584995913200,12.027913330078125,0.7126984000205994,-0.47206899523735046,-0.07653684914112091
1789222585005908200,12.037908203125,0.6506088972091675,-0.1301548033952713,-0.07551712542772293
1789222585015902200,12.047902099609376,0.47786855697631836,0.7556660771369934,0.051004063338041306
1789222585025897200,12.057897216796874,0.362716406583786,1.111207127571106,0.2111218273639679
1789222585035891200,12.06789111328125,0.39287883043289185,0.6876513361930847,0.20194298028945923
1789222585045885400,12.077885498046875,0.5720046758651733,0.14127324521541595,0.031020766124129295
1789222585055880200,12.087880126953126,0.7483876943588257,0.09896466135978699,0.0358424186706543
1789222585065874400,12.09787451171875,0.8938711285591125,0.17285805940628052,0.08533673733472824
1789222585075869400,12.107869384765625,0.9889339804649353,0.40264439582824707,0.01164706889539957
1789222585085863400,12.117863525390625,0.9605351090431213,0.9050947427749634,0.00048655952559784055
1789222585095857200,12.127857177734375,0.8382275700569153,1.1089335680007935,-0.08782439678907394
1789222585105852200,12.13785205078125,0.6672765612602234,0.6861615777015686,-0.12638883292675018
1789222585115846100,12.14784619140625,0.6000586748123169,-0.09112777560949326,0.017535584047436714
1789222585125841200,12.157841064453125,0.6686848402023315,-0.3237359821796417,0.097067691385746
1789222585135835100,12.167835205078125,0.7876565456390381,0.26037564873695374,0.04808150976896286
1789222585145830100,12.177830078125,0.8572494387626648,1.017032504081726,-0.16507656872272491
1789222585155824000,12.18782421875,0.8406571745872498,1.1226377487182617,-0.13368801772594452
1789222585165818000,12.197818115234375,0.749722957611084,0.7894344329833984,-0.04056047648191452
1789222585175813000,12.207813232421875,0.5798292756080627,0.49836239218711853,-0.06957268714904785
1789222585185807000,12.21780712890625,0.46439775824546814,-0.07654616981744766,0.12102176249027252
1789222585195802000,12.227802001953124,0.4401121437549591,-0.21441376209259033,0.33528292179107666
1789222585205796400,12.23779638671875,0.4864008128643036,0.7227467894554138,0.07482550293207169
1789222585215790300,12.247790283203125,0.6118417978286743,1.4084724187850952,-0.26032719016075134
1789222585225785300,12.257785400390626,0.7232889533042908,1.046419620513916,-0.31976014375686646
1789222585235779300,12.267779296875,0.6941015124320984,0.5822612643241882,-0.26620426774024963
1789222585245774300,12.2777744140625,0.5488154292106628,0.3121246099472046,0.002065015025436878
1789222585255768300,12.287768310546875,0.3807912766933441,0.1483639031648636,0.21325182914733887
1789222585265762300,12.29776220703125,0.28249746561050415,0.17944511771202087,0.27137717604637146
1789222585275757300,12.30775732421875,0.2958332598209381,0.4587973952293396,0.2734898626804352
1789222585285751300,12.317751220703125,0.3387146592140198,0.8248190879821777,0.027422569692134857
1789222585295746300,12.327746337890625,0.3182200491428375,0.8092063069343567,0.015562980435788631
1789222585305740000,12.337739990234375,0.24749235808849335,0.6522331833839417,0.056360743939876556
1789222585315735300,12.3477353515625,0.20336084067821503,0.6064736843109131,-0.20191209018230438
1789222585325729000,12.35772900390625,0.21520419418811798,0.18450193107128143,-0.04609905183315277
1789222585335723300,12.36772314453125,0.09828688949346542,0.26522740721702576,0.023673370480537415
1789222585345718300,12.37771826171875,-0.16126957535743713,0.5948889255523682,0.17252889275550842
1789222585355712300,12.387712158203126,-0.34328651428222656,0.38030311465263367,0.306075781583786
