time,seconds_elapsed,z,y,x
1789316070013618700,0.05861865234375,-0.29167876104116436,-0.542015457868576,1.4817719043143092
1789316070023651600,0.068651611328125,-0.8062158448755741,0.016324235074222086,1.652639196977019
1789316070033685800,0.078685791015625,-1.0939309629827738,0.6135850486941635,1.7418499506942926
1789316070043718700,0.08871875,-1.2780734784126282,0.7948202983751893,1.8257485694780944
1789316070053751800,0.098751708984375,-1.4371967033982276,0.8140301718883216,1.5680369599685071
1789316070063785700,0.10878564453125,-1.4377847324192523,0.7599073904260992,0.9900776436679065
1789316070073818600,0.118818603515625,-1.0117086068481207,0.6381383290618657,0.5299725533753633
1789316070083851500,0.1288515625,-0.7147539512306451,0.3744622581899166,0.1037368533283472
1789316070093884700,0.138884765625,-0.5313946951329708,0.0139729957729578,-0.2395956687130034
1789316070103918800,0.1489189453125,-0.5168126275509596,-0.3961804612621665,-0.23864348255470394
1789316070113951700,0.15895166015625,-0.5192284565210342,-0.813822374356538,-0.1320467097505927
1789316070123984600,0.168984619140625,-0.3308563406974077,-1.1324269901156425,-0.06715104373097419
1789316070134018600,0.1790185546875,-0.012006664136052132,-1.284433368833363,0.485322972048819
1789316070144051700,0.1890517578125,0.47345630090534685,-1.3188199148207902,1.2121114983357488
1789316070154084600,0.199084716796875,0.8595406078279018,-1.3018927454173563,1.6725706627629697
1789316070164117500,0.209117431640625,0.5606377407521009,-1.3534490373924373,1.9406569512926042
1789316070174151700,0.219151611328125,0.14644026902318,-1.2979165352627635,2.20425133523047
1789316070184184800,0.229184814453125,-0.34657354978919025,-0.9768424606502055,2.372720188449323
1789316070194217700,0.2392177734375,-0.7424871768087148,-0.7309212421774863,2.4516370732977983
1789316070204251600,0.249251708984375,-0.833456318500638,-0.5499655400902033,2.5204376378014683
1789316070214284500,0.259284423828125,-1.003343514084816,-0.44258769991099833,2.4672712802812455
1789316070224317400,0.2693173828125,-1.2542471971452236,-0.3321881738230586,2.3097116513505576
1789316070234350300,0.279350341796875,-1.405966283354163,-0.12059534140974283,2.1736460613474247
1789316070244384500,0.289384521484375,-1.22157885325253,-0.010787059213221073,2.0665970147311685
1789316070254417400,0.29941748046875,-0.9307382966011762,-0.1657099098995328,1.7867399166479705
1789316070264450600,0.309450439453125,-0.7343734284579754,-0.41821898232996463,1.4755077293530106
1789316070274484500,0.319484375,-0.49751872901618477,-0.5361959579348564,1.2399176430195569
1789316070284517600,0.329517578125,-0.10690554649233817,-0.2345806170299649,1.015778925026953
1789316070294550500,0.339550537109375,0.05354103605151176,0.13880056792497633,0.8961287555128336
1789316070304583400,0.34958349609375,-0.021495792493224142,0.33890520711839195,0.8839788835138082
1789316070314617300,0.359617431640625,-0.05271978279650211,0.6079241003230214,1.06238197850883
1789316070324650500,0.369650390625,-0.396709161311388,0.8323495263025165,1.3695795034602283
1789316070334683400,0.379683349609375,-0.5402145459264517,1.17112087790817,1.5226774768069387
1789316070344717600,0.389717529296875,-0.5609446147441863,1.527052038629353,1.8270675431221723
1789316070354750500,0.39975048828125,-0.10161328530311584,1.7365654344201087,2.2818282036468385
1789316070364783600,0.40978369140625,0.6923866365998983,1.65295483879745,2.648474819649756
1789316070374816500,0.41981640625,1.5825848330199717,1.3276517483130097,2.6835686371237037
1789316070384850400,0.429850341796875,2.23752232119143,0.9567635492175817,2.455810559590161
1789316070394883300,0.43988330078125,2.5101211187094448,0.6515463844284415,2.2450632380902764
1789316070404916500,0.44991650390625,1.8805559722036123,0.5267135515794158,2.0680779009386896
1789316070414950400,0.459950439453125,0.3943874403655529,0.6686226069137453,1.6950062203243375
1789316070424983600,0.469983642578125,-0.8139560837388038,0.9297492855638265,1.1665920023068785
1789316070435016400,0.480016357421875,-1.7454022363483905,0.9478229946538805,0.6626017391890286
1789316070445049600,0.490049560546875,-2.611321731558442,0.9314075741648673,0.4031774805426597
1789316070455083300,0.500083251953125,-3.163154234564304,1.0566299908533692,0.26744682158231736
1789316070465116400,0.510116455078125,-3.0942730060398578,1.3401722071900963,0.006170213067531585
1789316070475149300,0.5201494140625,-2.6196587672710416,1.7023144975110887,-0.4803294015452265
1789316070485183500,0.53018359375,-1.7683797918319701,1.805338818655908,-1.302732995633781
1789316070495216400,0.54021630859375,-0.6217600257128477,1.3266443248361348,-2.375030511218309
1789316070505249500,0.55024951171875,0.26748130837380885,0.5445245180800556,-3.3877594010248777
1789316070515282400,0.560282470703125,1.2549059533149003,0.04099193560183048,-4.143396859046817
1789316070525316400,0.57031640625,1.7061083368360994,-0.06931143663525581,-4.512399975048005
1789316070535349200,0.580349365234375,1.6385265004724263,0.19927754071950912,-4.6162838356316085
1789316070545382400,0.59038232421875,1.9706126752257347,0.534178772893548,-4.509064108623564
1789316070555416300,0.600416259765625,2.6958564562886953,0.5838751162156463,-4.3305557996883985
1789316070565449500,0.610449462890625,3.2397581662952897,0.5393412702232598,-4.278452102963626
1789316070575482400,0.620482421875,3.452310199129581,0.5738789151191711,-4.41358245794326
1789316070585515500,0.630515625,3.5014953780591487,0.681383596548438,-4.335164754788577
1789316070595549400,0.640549560546875,3.435971643269062,1.0693600008279085,-3.8693534156784413
1789316070605582600,0.65058251953125,3.248674463200569,1.330623749861121,-3.564470305149257
1789316070615615500,0.660615478515625,3.010350860249996,1.1381108809709548,-3.724379127554595
1789316070625649400,0.6706494140625,2.9081606518417593,0.7519178529769182,-3.9606089730963108
1789316070635682300,0.680682373046875,2.8216040658950803,0.31408465411663056,-4.063408837835491
1789316070645715500,0.690715576171875,2.532425889497995,-0.18200082722604274,-4.282697193187475
1789316070655748400,0.700748291015625,1.9428391176372766,-0.5200666609108447,-4.58493972608
1789316070665782500,0.710782470703125,1.1630857477515935,-0.29695991631448265,-4.635617773915827
1789316070675815400,0.7208154296875,0.7622375869393349,0.3212462163090706,-4.288830581375956
1789316070685848600,0.7308486328125,1.1343892300993204,0.5559802703350782,-3.886901639589667
1789316070695882200,0.74088232421875,1.9965806446969507,0.28959143337309357,-3.460384492252767
1789316070705915400,0.750915283203125,2.4599007515132425,-0.18742811297178266,-2.9043466465115544
1789316070715948300,0.7609482421875,2.6668805371731517,-0.5006453366041184,-2.294206039182842
1789316070725981400,0.7709814453125,2.7131682410955427,-0.6239636732369661,-2.040945271602273
1789316070736015400,0.781015380859375,2.8542694871783256,-0.7531576239049435,-1.9552067240402102
1789316070746048500,0.791048583984375,2.959640079188347,-0.9823486568510532,-1.6264169604837893
1789316070756081400,0.801081298828125,2.754382295015454,-1.22133627666831,-1.339490070144832
1789316070766115300,0.811115234375,2.3148481374561785,-1.3707546847194432,-1.3267869481772183
1789316070776148200,0.821148193359375,1.7359511019140481,-1.2846464270621538,-1.1616104145020245
1789316070786181400,0.831181396484375,1.2717109576433896,-1.0903951900720597,-0.9919558586299418
1789316070796214300,0.84121435546875,0.8260948498219252,-0.9425637589514255,-1.0092904397904872
1789316070806248400,0.85124853515625,0.3447510105371475,-0.7971902423769235,-0.8910603662073612
1789316070816281300,0.86128125,-0.032846623069047926,-0.6955179203629493,-0.7357371180266141
1789316070826314500,0.871314453125,-0.30805297273695464,-0.680816610315442,-0.6801689600616693
1789316070836348400,0.881348388671875,-0.572124180406332,-0.731910253214836,-0.6632458823114633
1789316070846381300,0.89138134765625,-0.7978069129705428,-0.7540133639514446,-0.5811491983830929
1789316070856414200,0.901414306640625,-0.9126590345531701,-0.7510586057990789,-0.3508686166346073
1789316070866447400,0.911447265625,-0.8712620252817869,-0.7095236493617296,-0.012197802793979645
1789316070876481500,0.9214814453125,-0.46377135771512984,-0.6024105975985526,0.29117841030359265
1789316070886514400,0.931514404296875,-0.14600596925914286,-0.5220090271502733,0.5997691431790589
1789316070896547600,0.941547607421875,-0.10009060578048229,-0.6279027662515639,0.6079378365874291
1789316070906581500,0.95158154296875,-0.22414543999433517,-0.8650058874964713,0.2386006663262844
1789316070916614700,0.96161474609375,-0.26330665303766726,-1.1064444075971842,-0.15139233847260475
1789316070926647600,0.9716474609375,-0.11174421869516372,-1.276958210647106,-0.477706359565258
1789316070936680400,0.981680419921875,0.0523497804403305,-1.3702239388436077,-0.66953709141016
1789316070946714400,0.99171435546875,0.26754560578167436,-1.3947551535099745,-0.7493325126588344
1789316070956747500,1.00174755859375,0.4559820190131664,-1.448404910632968,-0.7939619279801845
1789316070966780400,1.011780517578125,0.4591325919985771,-1.6030892763882874,-0.8361001110076903
1789316070976813600,1.0218134765625,0.2119219182372093,-1.4957032529026268,-0.7630588401943444
1789316070986847500,1.031847412109375,-0.07339958273172378,-1.332071026059985,-0.740026924175024
1789316070996880600,1.041880615234375,-0.2671604058563709,-1.3837602967649698,-0.7597931163966656
1789316071006913500,1.05191357421875,-0.32796120377779003,-1.4261077386289833,-0.5996943243771791
1789316071016947500,1.061947509765625,-0.4430278448939323,-1.37846335940063,-0.5091033683478832
1789316071026980400,1.07198046875,-0.6773585788160562,-1.3100941720515489,-0.6218751765251159
1789316071037013500,1.082013427734375,-0.9498673599630594,-1.227121874332428,-0.8507412153005599
1789316071047046400,1.09204638671875,-1.2752946613490581,-1.1296464194864033,-1.103110294738412
1789316071057080600,1.10208056640625,-1.4772224243164063,-0.9975245986729859,-1.3054472230285405
1789316071067113500,1.112113525390625,-1.5785376034557819,-0.8558990364551544,-1.402702897644043
1789316071077146600,1.122146728515625,-1.4090537279754876,-0.5408712562695145,-1.1594739869952202
1789316071087180300,1.13218017578125,-0.6123550685077905,-0.06626753889471292,-0.4819143326491117
1789316071097213400,1.14221337890625,0.3709194710165262,0.18383973309099674,0.19554332262724636
1789316071107246300,1.152246337890625,0.9261258343696593,0.2891109563797712,0.3785732006400823
1789316071117279500,1.162279541015625,0.8010434106737375,0.4706970653250813,-0.10400105722248554
1789316071127313400,1.1723134765625,0.3321142318040132,0.7960653300002217,-0.7968187787160277
1789316071137346600,1.1823466796875,-0.2772042454868555,1.1723133025631307,-1.2911051016822457
1789316071147379500,1.19237939453125,-0.7329764211416244,1.6304086604684591,-1.4861410593092441
1789316071157413400,1.202413330078125,-0.426780474448204,2.1104843795135615,-1.4584695007905364
1789316071167446300,1.2124462890625,0.4426315390527248,2.402688917994499,-1.2419906499013305
1789316071177479400,1.2224794921875,1.409692610400915,2.3350199878692623,-0.7227049102351069
1789316071187512300,1.23251220703125,2.6883529487907887,2.415113515281677,0.27433073587715623
1789316071197546500,1.24254638671875,3.773603177189827,2.8944232183903456,1.739713377057016
1789316071207579400,1.252579345703125,3.77357862727046,3.296674231737852,2.6195862865567205
1789316071217612800,1.26261279296875,3.1554338694453237,3.1815956079229712,2.6654545960232614
1789316071227646700,1.272646728515625,2.6704209862589834,2.8211116062030195,2.228292720553279
1789316071237679600,1.2826796875,2.3051088337302206,2.4329101609960198,1.642093253043294
1789316071247712800,1.292712646484375,1.8794518103539943,1.9947250799581406,1.0901704414054751
1789316071257745700,1.30274560546875,1.6884774030774832,1.395447811949253,0.6661084321357309
1789316071267779800,1.31277978515625,1.8205489550083875,0.6136369250118732,0.41261005640700454
1789316071277812700,1.322812744140625,1.8557009324103593,-0.15600275487750767,0.37105493396446104
1789316071287846000,1.332845947265625,1.627445134487748,-0.6019041093811393,0.5320477522142231
1789316071297878800,1.342878662109375,1.4301298337519168,-0.9191840524077415,0.7417325590491295
1789316071307912700,1.35291259765625,1.420472363090515,-1.3755541939556597,0.8447092416599392
1789316071317945600,1.362945556640625,1.5870552564322948,-1.706463433884084,0.8161604619152844
1789316071327978800,1.372978759765625,1.7780045292675495,-1.795435556539893,0.7685160826869308
1789316071338012700,1.3830126953125,1.804036796146631,-1.7627283419415354,0.7534872942507267
1789316071348045800,1.3930458984375,1.2842723330527543,-1.8045730949804186,0.645807694645971
1789316071358078700,1.40307861328125,0.5415998628050088,-1.818085779765248,0.47032793975174425
1789316071368111900,1.41311181640625,-0.08783902697265147,-1.6909630824133752,0.300679082968086
1789316071378145800,1.423145751953125,-0.6122305653452873,-1.3882614075765012,0.25276962306275963
1789316071388179000,1.433178955078125,-0.8780974242597818,-1.1619409616306424,0.46240313810184597
1789316071398211800,1.4432119140625,-0.6582032119691371,-1.2498343491390347,0.8138457552321254
1789316071408245800,1.453245849609375,-0.01573240666091442,-1.4055641322940586,1.0560763024933635
1789316071418278700,1.463278564453125,0.5987438917845487,-1.5467267531752587,1.0890670102082192
1789316071428311800,1.473311767578125,0.6726145991593598,-1.7184265511393546,0.9472897645600139
1789316071438344700,1.4833447265625,0.3150450235813856,-1.8655737993881105,0.779904468794167
1789316071448379000,1.49337890625,-0.10120178189277648,-1.7526868403986096,0.8684618731692433
1789316071458411800,1.503411865234375,-0.7031324870198965,-1.4328665652394295,1.0248286390535533
1789316071468445000,1.51344482421875,-1.1451087770342827,-1.1670239639833568,1.0768477262347935
1789316071478478800,1.523478759765625,-1.2960937037497757,-0.9028449120253323,1.089795762874186
1789316071488511700,1.53351171875,-1.2202724468290804,-0.5385694090679287,0.927731369870156
1789316071498544600,1.543544677734375,-0.9112988521158695,-0.25042028345763684,0.6450980850718915
1789316071508577800,1.553577880859375,-0.7834463791847228,-0.278076059885323,0.39387496079877016
1789316071518612000,1.563612060546875,-0.7808522710382938,-0.4790890460953116,0.2608833714134991
1789316071528644900,1.573644775390625,-0.8493728495568037,-0.6477487457111477,0.09570289221554994
1789316071538678000,1.583677978515625,-0.9670803605705499,-0.8265940315157174,-0.037901422240585084
1789316071548711000,1.5937109375,-1.029112161591649,-0.8970587298393249,0.009519523495435714
1789316071558744800,1.603744873046875,-1.0406968009233475,-0.745901661427319,-0.04874079616293311
1789316071568777700,1.61377783203125,-0.8787316305100917,-0.4592842754289508,-0.18061507195606827
1789316071578811000,1.623810791015625,-0.9039718702286481,-0.2308972523421049,-0.34620968491286036
1789316071588844800,1.6338447265625,-1.4615011235713957,-0.31609540941715236,-0.4276445439316332
1789316071598878000,1.6438779296875,-1.8213316298186777,-0.4232546384096145,-0.5024522398956119
1789316071608910800,1.653910888671875,-1.8138316294521093,-0.369847457870841,-0.7228647769719362
1789316071618944000,1.663944091796875,-1.540880949756503,-0.2975479453355074,-0.9782561268404125
1789316071628977700,1.673977783203125,-0.9027256695598364,-0.2520931851059198,-1.0644039858557284
1789316071639010800,1.6840107421875,-0.40955870601236816,-0.24521979220509527,-1.0305296271741389
1789316071649043700,1.694043701171875,-0.3113771487236023,-0.14957447539567947,-0.9123374013833702
1789316071659078000,1.704077880859375,-0.7639636800795793,0.25142566110789777,-0.7332993694856762
1789316071669110800,1.71411083984375,-1.289329031920433,0.7521627676486968,-0.7198289164073765
1789316071679144000,1.72414404296875,-1.5780296539336442,1.1452619217693805,-0.5513664929293096
1789316071689176800,1.7341767578125,-1.2045201664239167,1.3179893092155455,-0.32152152611911294
1789316071699211000,1.7442109375,-0.08013736655414104,1.2615852849483489,-0.28251126585379244
1789316071709243600,1.75424365234375,1.2046955229908227,0.9933300695925951,-0.3362561539143324
1789316071719276800,1.76427685546875,1.837133594584465,0.5176595997691155,-0.5174228684037924
1789316071729309700,1.774309814453125,2.081819133782387,0.05148877969682216,-0.8987569120593368
1789316071739344000,1.78434375,2.00243872307539,-0.09571429039239883,-0.9947567413948476
1789316071749376800,1.794376708984375,1.6145061579376458,0.30667759273052214,-0.733235510469228
1789316071759410000,1.804409912109375,1.2049871994137764,0.9211427852600812,-0.7654992190837859
1789316071769443800,1.81444384765625,0.9796686239868402,1.4990718525528908,-0.7152823590189218
1789316071779477000,1.82447705078125,0.7251970193117857,1.7102093424141407,-0.44146278753429646
1789316071789510000,1.834510009765625,0.7185656184732914,1.706383646646142,-0.17556173408925532
1789316071799542800,1.844542724609375,0.8005670253336429,1.5314865139454603,-0.3039183571502566
1789316071809576700,1.85457666015625,0.8024228823333979,0.9875003405258059,-0.5929574173375963
1789316071819609900,1.86460986328125,0.9820809458255767,0.360123351714015,-1.0237956427440047
1789316071829642800,1.874642822265625,1.3550345530182122,-0.3222492558717727,-1.5849787424191832
1789316071839677000,1.884677001953125,1.4271908576905727,-0.9092676385492086,-1.8499430995360016
1789316071849709800,1.894709716796875,1.1484732850313186,-0.9241162481129169,-1.8837702580749986
1789316071859743000,1.904742919921875,0.7315349901616572,-0.7396610134720802,-1.7381527036115527
1789316071869776000,1.91477587890625,0.20547697988152502,-0.7141805352568626,-1.6570312944561243
1789316071879809800,1.924809814453125,-0.3806429926514625,-0.6332336058855056,-1.6119737168505788
1789316071889842700,1.9348427734375,-0.8977864595919847,-0.4984498723864555,-1.7086790641069411
1789316071899875800,1.944875732421875,-1.2833973037838935,-0.4819675241410732,-1.9257371761888264
1789316071909908700,1.95490869140625,-1.4734464129090308,-0.6020084465384483,-2.1534207271814343
1789316071919943000,1.96494287109375,-1.5507073472440243,-0.5757341875970363,-2.2863021341904997
1789316071929975800,1.974975830078125,-1.2368003877818583,-0.4501052359342575,-2.080456905518472
1789316071940009000,1.985009033203125,-0.5453524933367967,-0.5039461317151784,-1.766940114417672
1789316071950042600,1.995042724609375,0.039675007784366605,-0.703521194076538,-1.6162904110059142
1789316071960075800,2.00507568359375,0.42657822987437244,-0.878984728488326,-1.4407216626539825
1789316071970108700,2.015108642578125,0.5342015692472457,-0.9011433688044548,-1.308868721909821
1789316071980141800,2.025141845703125,0.3114806090980768,-0.7545172218203544,-0.901517755074799
1789316071990175700,2.03517578125,0.05318564674258232,-0.5235977576464415,-0.2716720380619168
1789316072000209000,2.045208984375,-0.15290858825445175,-0.25752514702677726,0.3874424435332417
1789316072010241800,2.05524169921875,-0.681325728881359,0.11879589077234268,0.8656549990549683
1789316072020275700,2.065275634765625,-1.3471025909751653,0.4690028286278248,1.0940353001400829
1789316072030308600,2.07530859375,-1.4931810409486292,0.3263426626652479,0.9265636412650347
1789316072040341800,2.085341796875,-0.8721855698674916,0.040270635589957235,0.739748984016478
1789316072050374700,2.095374755859375,0.20962825434207916,-0.2982178074210882,0.13545622593313456
1789316072060408800,2.105408935546875,0.7649205424129962,-0.8322165475726128,-0.6259583541855216
1789316072070441700,2.115441650390625,0.8403133447885512,-1.1043880595892668,-1.1551073162183165
1789316072080475000,2.125474853515625,0.8631587983250617,-1.15391635286808,-1.6042212030276655
1789316072090507800,2.1355078125,0.8747089508652687,-1.0715087032943964,-1.8026333590894936
1789316072100542000,2.1455419921875,0.9393804527401923,-0.7285854927062988,-1.4674211612701415
1789316072110574800,2.155574951171875,0.972826210746169,-0.09773498256504536,-0.8819403634235262
1789316072120607700,2.165607666015625,0.8600356978684663,0.24108663792312143,-0.6561953792780637
1789316072130641700,2.1756416015625,0.7067004086345434,0.28979192438125606,-0.6280269771531224
1789316072140674800,2.1856748046875,0.6348918944865465,0.26262276242673394,-0.5909899166569114
1789316072150707700,2.195707763671875,1.0191390491098165,0.02377718142867088,-0.47263533991128204
1789316072160740900,2.205740966796875,1.4415800330489874,-0.06977437797188758,-0.5150339274406432
1789316072170774800,2.21577490234375,1.3989590349406003,-0.11452771193385124,-0.44330695409625764
1789316072180808000,2.225807861328125,1.0261018738597631,-0.12790858703255653,-0.35191724890470505
1789316072190840800,2.2358408203125,0.5183142642855644,0.021458383092284202,-0.24008330609947443
1789316072200874800,2.245874755859375,0.1423579681456089,0.07594108390808105,-0.039539983227849004
1789316072210907600,2.25590771484375,-0.054120297244191165,-0.028318331989645958,0.2858303272739053
1789316072220939800,2.265939697265625,0.40302842746078965,-0.014199205744266509,0.7933981566175818
1789316072230973000,2.275972900390625,0.9311264191359281,0.05099953487515449,1.0107572974726557
1789316072241006800,2.2860068359375,1.4000649503558873,0.0709761549770832,1.116905595856905
1789316072251040000,2.2960400390625,1.379737032598257,0.17267594951987267,0.9892501068025826
1789316072261073000,2.306072998046875,0.7707961564481258,-0.2258341237336397,0.5869704518824815
1789316072271106000,2.31610595703125,0.27024375882446766,-0.62669806663692,-0.21030454616844652
1789316072281140000,2.326139892578125,0.45631227388083934,-1.3768489099413155,-0.7355141229256987
1789316072291172900,2.3361728515625,0.9037924220085144,-1.3938134887456892,-0.916014482460916
1789316072301205800,2.346205810546875,0.45394028405249115,-0.929998291888833,-0.6370192619040608
1789316072311240000,2.356239990234375,-0.05772971991300582,-0.4537994142770767,-0.3873302153304219
1789316072321272800,2.36627294921875,-0.7440951965272427,-0.25640578760802746,-0.6947302771165966
1789316072331306000,2.376305908203125,-1.5062468587487936,-0.2268359942525625,-0.14068214388787745
1789316072341339000,2.3863388671875,-1.169200431239605,0.16277356418669223,0.4803270634576678
1789316072351373000,2.396373046875,-0.8387474106460809,0.2508183428645134,0.6984756011247635
1789316072361406000,2.406406005859375,-0.987695863097906,-0.07171966682076454,0.37365649476498364
1789316072371439000,2.416439208984375,-0.7708212908893823,-0.295609086227417,0.2896212439894676
1789316072381472000,2.426471923828125,0.69712067938447,-0.1633814669519663,1.1702955329999327
1789316072391506000,2.436505859375,2.4845529622107745,-0.0810936443656683,1.9364348035529255
1789316072401538800,2.446538818359375,2.4213053556591273,-0.30528643063306804,1.556978098076582
1789316072411572000,2.456572021484375,0.962443932941556,-0.6297071853250265,0.4967404381200671
1789316072421606000,2.46660595703125,-0.18408289419710636,-0.9457675234287977,0.0613973025098443
1789316072431639000,2.47663916015625,-0.21977263173758982,-0.9673960023909807,0.3635971653044224
1789316072441672000,2.486671875,0.5491331809192895,-1.1518325323313474,0.896058905147016
1789316072451705000,2.496705078125,1.0590946274012327,-2.6818068881481882,2.853901822909713
1789316072461738800,2.50673876953125,-1.514787892600894,-4.283301588821411,4.481671659307182
1789316072471772000,2.51677197265625,-3.254318022045493,0.3771896373271942,-2.064011089891195
1789316072481804800,2.5268046875,-0.6066325992077589,3.7585868098437785,-6.2781672462940215
1789316072491839000,2.5368388671875,-0.5190846641361713,1.9141425999850035,-3.3199776581749316
1789316072501871900,2.546871826171875,-1.2165478733479975,-0.14795973367542029,0.9571680383652448
1789316072511905000,2.556905029296875,-0.728553344002366,0.1862611150190234,2.0078975730031727
1789316072521938000,2.56693798828125,-0.16334288850724696,1.147536296442151,0.5641331816524267
1789316072531971800,2.576971923828125,-0.05958849952220916,1.6784890930265188,-0.7277905429363251
1789316072542004700,2.587004638671875,-0.39148412013947964,1.3613310228139162,-1.2291516265943645
1789316072552038000,2.597037841796875,-0.2950660653918981,0.9715361709356307,-1.0421610282570124
1789316072562070800,2.60707080078125,0.6157686763435601,0.8698568346589803,-0.7746651068359613
1789316072572105000,2.61710498046875,1.5698486855655909,1.0401228004276752,-1.1065507905811072
1789316072582137900,2.627137939453125,1.5709014094889162,1.2317588864833116,-1.6826462127059698
1789316072592171000,2.6371708984375,1.153200313553214,1.276805358172953,-2.0021578603073955
1789316072602205000,2.647204833984375,0.7237462359815836,1.252277066116035,-2.120943229685724
1789316072612237800,2.65723779296875,0.2398947977900505,1.4064578662633895,-2.14735894292444
1789316072622270700,2.667270751953125,-0.3210632609575987,1.6641168688029049,-2.0922335602909325
1789316072632303900,2.677303955078125,-0.7926935154795646,1.9914643245965242,-1.5292138928383587
1789316072642338000,2.687338134765625,-0.5835089132517576,1.940270143932104,-0.6929574222251772
1789316072652371000,2.697370849609375,-0.20039047039747238,1.6666227141439913,-0.5633475842326879
1789316072662403800,2.70740380859375,0.1439303320288658,1.4219430201649665,-0.7754813916549086
1789316072672437000,2.71743701171875,0.43398646030426025,1.0842962886750698,-0.8054802240774035
1789316072682471000,2.727470947265625,0.6635486646503209,0.7592801984384655,-0.660851972912252
1789316072692503800,2.73750390625,1.1186071390777825,0.46953678937405346,-0.48861529159247874
1789316072702536700,2.74753662109375,1.5405524484544992,0.17683862215727567,-0.5374032878980041
1789316072712571000,2.75757080078125,1.5691589497357605,0.1216010113209486,-0.8195362219586968
1789316072722604000,2.76760400390625,1.285205229988694,0.20783844831585882,-1.2037503510951995
1789316072732637000,2.777636962890625,0.9731044431656598,0.28044717293083665,-1.4032178614288568
1789316072742669800,2.787669921875,0.7846879036784171,0.1106274896249175,-1.3318746267050503
1789316072752704000,2.7977041015625,0.7180997545272112,-0.19857640671283006,-1.1262158605158328
1789316072762737200,2.807737060546875,0.6171878954917193,-0.22239275110810994,-0.9975640539005398
1789316072772770000,2.81777001953125,0.36099136672019955,-0.1384755737543106,-1.0531956324905156
1789316072782803000,2.827802978515625,0.16303718355894087,-0.19040157582461834,-1.1978691841021178
1789316072792836900,2.8378369140625,0.133390817835927,-0.38795886862277984,-1.313350543498993
1789316072802870000,2.8478701171875,0.3168137868195772,-0.6233271288990974,-1.4427671970069407
1789316072812903000,2.85790283203125,0.46993631008565423,-0.7357508542910218,-1.7116422978267072
1789316072822937000,2.86793701171875,0.548481439012289,-0.6987304526686668,-1.775000963537395
1789316072832970000,2.877969970703125,0.6031622927486896,-0.6232286369606852,-1.638941511014104
1789316072843003100,2.888003173828125,0.6179255621165036,-0.48471506928354496,-1.2974521326214075
1789316072853036000,2.8980361328125,0.5874661264449358,-0.21556495091468095,-0.7603624407172203
1789316072863070000,2.908070068359375,0.5814063880145549,0.07020429382175207,-0.3215595200419426
1789316072873102800,2.918102783203125,0.5655488936692475,0.2268096907675266,0.03272328895032406
1789316072883136000,2.928135986328125,0.4676455687999725,0.19346534730941056,0.1541854763224721
1789316072893170000,2.938169921875,0.5806891796559095,0.12023293783813714,0.17082681452184914
1789316072903203000,2.948203125,0.6309247444212436,0.06969926690906286,0.09909370369762181
1789316072913236000,2.958236083984375,0.3325836028814316,-0.07259323478490114,-0.07689794624149798
1789316072923269000,2.96826904296875,-0.023061142113804816,-0.2947118451267481,-0.4362085202679038
1789316072933302800,2.978302734375,-0.10808452714383601,-0.5130976986810565,-0.8268684645429253
1789316072943336000,2.9883359375,0.11352291880548,-0.45221915934830903,-1.1183261301793157
1789316072953368800,2.998368896484375,0.582251022145152,-0.2142035994336009,-0.8948077360421418
1789316072963402000,3.008402099609375,0.9288070362776517,-0.4623933473601937,-0.29855449202954765
1789316072973436000,3.018435791015625,0.6859007817119359,-0.8316475155130029,-0.3578052840299904
1789316072983469000,3.028468994140625,0.12583645693361759,-0.595308072116971,-1.1550927031710743
1789316072993502000,3.038501953125,0.06630874768793582,-0.49151773503571744,-1.6970860953383147
1789316073003536000,3.048535888671875,0.08848200105130671,-0.7671557541191577,-1.7189727868452667
1789316073013568800,3.05856884765625,-0.0045054947257041926,-0.8353855329975486,-1.454072142614424
1789316073023602000,3.068601806640625,-0.017921441137790678,-0.8213599302545189,-0.8490057698100805
1789316073033634800,3.078634765625,-0.0062444473475217815,-1.0934297354623674,-0.023156711442768572
1789316073043669000,3.0886689453125,0.25065759934484955,-1.4484879127413033,-0.10997282510846852
1789316073053702000,3.098701904296875,0.2272282084405422,-2.047209592694044,0.04261749097704887
1789316073063735000,3.108735107421875,0.4974515089988708,-1.682160767276585,0.3239487532660365
1789316073073768000,3.118767822265625,1.2224305016458035,-0.8130755015119909,-1.3002721584782004
1789316073083802000,3.128802001953125,0.7653092494696379,-0.3383902433335781,-2.3767791084513066
1789316073093834800,3.138834716796875,-0.027606968849897384,0.04085632652342319,-2.848967873638868
1789316073103868000,3.148867919921875,-0.6755576668739318,-0.021687515673041342,-2.9257869094252587
1789316073113901800,3.15890185546875,-1.9447353066474198,0.1632446888297796,-2.9358859863743185
1789316073123935000,3.16893505859375,-2.580084881773591,0.04120294800400734,-2.779048826499283
1789316073133968000,3.1789677734375,-1.3542764281272888,-0.28557985964417454,-2.450539341188967
1789316073144001000,3.1890009765625,1.3493231896340847,-0.46629590775668617,-1.3122358602553605
1789316073154035000,3.199034912109375,4.689372452718019,-1.2038619947761298,0.0769298026844859
1789316073164068000,3.209068115234375,7.306023854866623,-2.5796605188816786,-0.5318535448163747
1789316073174101000,3.21910107421875,5.2562639931678765,-2.588022689035535,-3.099078652755916
1789316073184134000,3.2291337890625,3.611295476949215,-2.0842571745842693,-3.98791432865113
1789316073194167800,3.239167724609375,3.043848056182265,-1.9005039507329462,-3.9664290575519203
1789316073204201000,3.249200927734375,1.3047569026768207,-0.9636381111621856,-3.4799171679794787
1789316073214233900,3.25923388671875,0.10152619154155254,-0.26176000811755656,-2.1778633867815134
1789316073224268500,3.2692685546875,0.21361118649840355,0.1602472605794668,-1.6699290622130036
1789316073234301400,3.279301513671875,1.3757073386907577,0.21617723759412763,-0.9546025717914104
1789316073244334300,3.289334228515625,2.2229829237073657,0.17961656243801116,0.340893166065216
1789316073254367200,3.2993671875,1.7460417032957076,0.6962450655937195,0.45114451585412024
1789316073264401400,3.3094013671875,0.2524374684989452,0.4401216020584106,-0.3348269978940487
1789316073274434300,3.319434326171875,-0.31505554497539995,-0.5764093103796243,-1.4922273934856056
1789316073284467500,3.329467529296875,0.07643266681730747,-1.1855220359653234,-2.1726640645727513
1789316073294500400,3.339500244140625,0.30193828924894334,-1.6060422809749841,-1.3982681300669908
1789316073304534500,3.349534423828125,0.8943155686110258,-2.5193986501425503,1.3875804395750164
1789316073314567400,3.3595673828125,2.598609549501538,-3.256135885122418,2.5455066126063466
1789316073324600600,3.3696005859375,0.6066203242480754,-5.195466117855906,0.08900953205674886
1789316073334633500,3.379633544921875,-5.423570524609088,-5.205079749375582,-1.407320328311622
1789316073344667400,3.38966748046875,-7.271342417585849,-2.515794488170743,0.48859804819673297
1789316073354700300,3.3997001953125,-7.752617867809533,-1.5303654009610415,0.7176587327614427
1789316073364733400,3.4097333984375,-6.161673787245154,-0.8776169472664594,1.3866367289841175
1789316073374767600,3.419767578125,-1.9328677587211132,0.08745207348167895,2.9325238164648413
1789316073384800500,3.429800537109375,3.802302617451548,0.39795653102397915,2.7666645612224934
1789316073394833400,3.43983349609375,1.8006547524929046,-1.811235767740011,1.566132879912853
1789316073404866600,3.449866455078125,-1.075858715197444,-3.3619460375934835,-0.649467824588716
1789316073414900500,3.459900390625,-0.7851298022270202,-2.7941940809220074,-2.595720257800817
1789316073424933400,3.469933349609375,-1.0524462754279373,-2.399341361132264,-2.184479590050876
1789316073434966300,3.47996630859375,-1.3683897091537713,-2.7589129241824146,-0.9914414793670177
1789316073445000400,3.49000048828125,-2.2574469188451767,-3.3869454542934894,0.15796324129551648
1789316073455033600,3.50003369140625,-4.850118894991279,-4.985880533611774,2.88747676025331
1789316073465066500,3.51006640625,-7.403093066999316,-5.502435971531272,6.394647845861315
1789316073475099400,3.520099365234375,-2.3426351390480993,0.17668167802989482,-1.2721788674160837
1789316073485133300,3.53013330078125,7.218553661206364,5.409087241226435,-4.988151401153207
1789316073495166500,3.54016650390625,4.305339817628264,0.6089800391167401,3.834226572717726
1789316073505199400,3.550199462890625,5.418517332872748,-3.013183453327417,4.23268725387156
1789316073515232300,3.560232177734375,5.235845474517345,-5.375744943594932,3.2105531145989894
1789316073525266400,3.570266357421875,4.3738720865845675,-4.612320192697644,1.4568867616437375
1789316073535299600,3.580299560546875,3.521496548080444,-2.9910663140654563,-0.3514801726616919
1789316073545332500,3.59033251953125,0.46455520156919955,-3.065767627045512,1.4616817408353089
1789316073555365400,3.600365478515625,-2.314347786718607,-3.09160174100399,2.3693815455459055
1789316073565399300,3.6103994140625,-3.5247856527537107,-1.342781805166602,1.731249500094354
1789316073575432400,3.620432373046875,-2.2178794630885124,0.25070786822736263,1.997400728908181
1789316073585465300,3.63046533203125,-0.35139351729154583,0.7894242845505476,3.5644448784470555
1789316073595499500,3.64049951171875,-1.3973638747036456,1.9091881924480198,4.955234050935506
1789316073605532400,3.650532470703125,-1.0300269383490086,1.2211597510576246,4.604743912224471
1789316073615565600,3.660565673828125,-0.6896312004119157,1.617664914229512,3.608439502996206
1789316073625598500,3.670598388671875,0.9927186596959828,3.446457965970039,2.534222417525947
1789316073635632600,3.680632568359375,2.4351427423536776,3.6900492801904674,3.317865780587494
1789316073645665300,3.690665283203125,2.291547341367602,3.302503668543696,3.508016888782382
1789316073655698400,3.700698486328125,2.3831577035725116,2.8696114332169294,2.062549200645089
1789316073665731300,3.7107314453125,1.9131839840859173,5.46386980177164,0.08111278745755553
1789316073675765500,3.720765625,1.1831927162349223,8.702949922674893,0.9886836320262402
1789316073685798400,3.73079833984375,0.5088982011646032,10.02326913614273,4.038235818134248
1789316073695831600,3.74083154296875,0.3442155884861946,9.033296560284494,3.7085005904212593
1789316073705865500,3.750865478515625,-0.8585632872283459,5.588225664758682,2.1522313712663945
1789316073715898600,3.760898681640625,-1.1692623905599118,3.757098617112636,0.9087892073825001
1789316073725931500,3.770931640625,0.3690624449729919,0.0748491970181465,-0.7759466710790991
1789316073735964400,3.78096435546875,-2.5889965025037527,-1.7787486256331204,-1.5960725294940172
1789316073745998300,3.790998291015625,-2.2750194004148243,-0.6462474012374878,-0.7729602756794541
1789316073756031500,3.801031494140625,-2.204672190991044,-1.7315046438992023,-1.2767016055375338
1789316073766064400,3.811064453125,-1.4416203650593757,-2.01088740246892,-1.7275247804827987
1789316073776097500,3.82109765625,-0.262682383659482,-1.6669839486718177,-1.5442723457604646
1789316073786131500,3.83113134765625,1.7471458651453255,0.12721359050571918,0.07086754350345581
1789316073796164600,3.84116455078125,4.960290749803185,2.840840096762776,2.1917785148873925
1789316073806197500,3.851197509765625,8.471630645528435,4.632518346595764,2.404952040620893
1789316073816230700,3.861230712890625,10.484247648268937,5.579672355946898,1.123970127415657
1789316073826264300,3.871264404296875,8.858004875308275,3.9708670399993657,-0.0481000505739823
1789316073836297500,3.88129736328125,6.103252577936649,2.5018641624957323,-0.1948434307295829
1789316073846330400,3.891330322265625,2.539843472278118,1.7695406523048878,0.8013270499207079
1789316073856364500,3.901364501953125,-2.5542928533911704,1.5582523557960986,1.3121024431340396
1789316073866397400,3.9113974609375,-6.529394754481316,-1.3718325430840252,0.2884252208716236
1789316073876430600,3.9214306640625,-6.975791783547401,-4.98033166731298,-2.139816272459924
1789316073886463500,3.93146337890625,-8.880070576643943,-7.768511017990112,-2.1895886036276817
1789316073896497400,3.941497314453125,-12.11056640907526,-9.360715912270546,0.9496166000723838
1789316073906530300,3.9515302734375,-13.715919538742304,-7.558399364045262,0.8785983595192431
1789316073916563500,3.9615634765625,-12.066738957786558,-5.4289352665126325,-0.2991747428197413
1789316073926596400,3.971596435546875,-6.431098046380281,-4.231078649631143,0.9947548416987061
1789316073936630500,3.981630615234375,-0.7812579292297362,0.8403121757447719,3.5267046381175517
1789316073946663400,3.991663330078125,-0.5857412023484706,4.066106114095449,4.7772307689130304
1789316073956696600,4.001696533203125,-3.2030268107473847,2.8418910671204327,3.4075808305650948
1789316073966730200,4.011730224609375,-3.2087399276971813,0.9606734161376953,1.8950985845580697
1789316073976763400,4.021763427734375,-0.35143209573626516,0.5450210694253445,2.111910028402507
1789316073986796300,4.03179638671875,4.33323027959466,1.8670342273294924,2.242804060986638
1789316073996829400,4.041829345703125,0.7964280258327722,-1.7106781289696693,0.2716229382231831
1789316074006863400,4.05186328125,3.953991893044114,5.585847245189547,0.004339782769978046
1789316074016896500,4.061896484375,9.33536285982728,3.0854940717786548,1.613308764846623
1789316074026929400,4.071929443359375,11.731152081435917,2.7659944068759676,3.77691624726057
1789316074036962600,4.081962646484375,7.751783170551061,3.9691438694685695,2.9999238665208217
1789316074046996500,4.09199658203125,3.1683035801514983,2.4474708935290574,-2.0275456918030974
1789316074057029400,4.102029296875,1.4451900402396916,0.5147884282469749,-4.743223285371065
1789316074067062300,4.112062255859375,-1.1154881302744148,-1.7171657374233007,-3.3040906454741954
1789316074077095400,4.122095458984375,1.133619999292493,-1.221099545302987,-3.269666397824883
1789316074087129300,4.13212939453125,0.3780389476329088,-0.5779787516534328,-1.9870102677971124
1789316074097162500,4.14216259765625,-1.3530574077263473,-1.4644430222421885,-1.8753882141768932
1789316074107195400,4.1521953125,-1.6197490270271897,-3.0291490842223165,-2.1785309107795356
1789316074117229600,4.1622294921875,-3.2929362142533063,-4.8480993718624115,-2.2934748022988436
1789316074127262500,4.172262451171875,-4.428358294531702,-4.2287130895435805,-2.531788468377292
1789316074137295400,4.18229541015625,-3.9481607026726007,-1.1815478716373442,-1.9303569449439644
1789316074147328300,4.192328369140625,-3.1335522925049064,1.263894146412611,-0.47949090489447116
1789316074157362400,4.202362548828125,-3.568348900148272,1.3842992259472608,0.35927696401774883
1789316074167395300,4.212395263671875,-4.665343342354894,1.253615913504362,1.6234046269252895
1789316074177428500,4.222428466796875,-3.357771674518287,2.1426339602291584,2.6480758834600446
1789316074187461400,4.23246142578125,-2.5044299213305115,3.0090836167931556,3.1730420068502423
1789316074197495600,4.24249560546875,-1.4347723988607526,2.7133459357500076,2.349010519298911
1789316074207528400,4.252528564453125,0.22692893323302268,1.746511074373126,2.4361443206116555
1789316074217561600,4.2625615234375,0.7537992828093468,2.1693962949484584,4.476053527164459
1789316074227595000,4.272594970703125,-0.4898493634320795,2.6974264820843934,4.67184819420427
1789316074237628000,4.2826279296875,-0.9620816755004227,2.179125077280402,1.9355726337656378
1789316074247661000,4.2926611328125,-1.0558096143811941,1.8324521587699651,0.38930502253472804
1789316074257694000,4.30269384765625,-1.8816747471004724,2.0746260074079035,0.6854042303666472
1789316074267728100,4.31272802734375,0.8929068708568811,1.0953875915318727,1.2004276364132762
1789316074277761000,4.322760986328125,4.042439407303929,-0.2117313641011715,1.0714765545904636
1789316074287794200,4.332794189453125,2.701241656458378,-2.3648194983273743,-0.9446855734109878
1789316074297827000,4.3428271484375,0.5711071123182774,-5.303440754884481,-3.314230931216478
1789316074307861000,4.352861083984375,1.1030395675897597,-5.219020011922717,-3.599120470508933
1789316074317894000,4.362893798828125,2.8760692310541867,-3.608876140847802,-2.0363789866000412
1789316074327927000,4.372927001953125,3.522003913080692,-1.5838894858777521,-1.3072750229775905
1789316074337961000,4.3829609375,2.3279466884821653,-0.36669571584165095,-1.0528948959782718
1789316074347994000,4.392994140625,1.427756236488372,-0.15923837579786776,-0.34211890846788884
1789316074358027000,4.403027099609375,2.190771675932407,0.3149310418128967,0.7352902510419488
1789316074368060200,4.41306005859375,2.784212785133719,-0.7286509591579436,0.6621668549031019
1789316074378094000,4.423093994140625,1.5175595492713152,1.212509411612153,0.5589075559586286
1789316074388127000,4.433126953125,0.964151175250858,2.737646264269948,0.770855485419929
1789316074398160000,4.443159912109375,2.3382634998351333,-1.9159382512301206,3.17820362739712
1789316074408193000,4.453193115234375,3.3960254173278805,-2.6142244672626256,6.649651365455985
1789316074418227000,4.46322705078125,3.9349768114507198,-1.1951093639999628,9.997649541717767
1789316074428260000,4.473260009765625,3.352337082248926,-1.1468676034003495,7.196539982318877
1789316074438293000,4.48329296875,-21.126910080993174,7.170394902715087,-10.321461809122562
1789316074448326100,4.493326171875,-22.425586786973476,6.064711542618275,-7.248294719475507
1789316074458360000,4.503360107421875,-16.80232488014698,-1.2802812175899743,1.4980781653404236
1789316074468393000,4.51339306640625,-9.064593031302094,-0.7084715099602937,1.7158461792573332
1789316074478425900,4.52342578125,-4.358806034877896,0.8299187920242548,-0.9991066071674227
1789316074488460000,4.5334599609375,0.28472631155475975,0.8906237283557653,-2.898304735998809
1789316074498493000,4.543492919921875,5.0242929741144176,-0.5156108505457639,-4.275890728043019
1789316074508526000,4.553526123046875,5.037833423689007,-0.8647375919491053,-4.424267810347676
1789316074518559000,4.56355908203125,7.60905578457117,-0.2633288648694754,-4.033228803627193
1789316074528593200,4.57359326171875,9.213825561392307,-0.43794075088798995,-2.714204306145012
1789316074538626000,4.5836259765625,7.424524562084675,-0.6191226629465818,-0.4095312334835529
1789316074548659200,4.5936591796875,5.685312412548065,-0.5076116684854031,1.318271925549209
1789316074558692000,4.603692138671875,3.8629245516747233,-0.9950918185681104,1.7000436299696564
1789316074568726000,4.61372607421875,2.458579732042551,-1.7442144878685473,1.045913951049745
1789316074578759000,4.623759033203125,2.693182268643379,-1.8519652530133723,0.1692871838644147
1789316074588792000,4.6337919921875,2.2185545858711,-2.030815507254004,0.01495031637251377
1789316074598825000,4.643824951171875,0.6236668822474777,-1.6362772602409124,0.8694988150015472
1789316074608859100,4.653859130859375,1.7498855192422866,-0.7732540709942579,2.447342590974271
1789316074618892000,4.66389208984375,2.1560576515562833,0.024004560443758965,2.524255734784901
1789316074628925200,4.67392529296875,0.8553530199449509,0.7988000156611204,1.3134046117737888
1789316074638959000,4.683958984375,0.16658172429800033,1.1648550955116748,-0.7020724565729498
1789316074648992000,4.693991943359375,2.5797873601317405,-1.3746335719794034,-2.6109678035542365
1789316074659025000,4.70402490234375,2.6754174793720242,-5.5388446709960695,-2.449900166502595
1789316074669058000,4.71405810546875,-1.6711708789676427,-4.371448074308037,3.3270804759174584
1789316074679092200,4.72409228515625,-1.910599812811613,-4.766151741015911,2.3666692178472877
1789316074689125000,4.734125,-3.384907810986042,-3.210916102692485,0.644475130867958
1789316074699158000,4.744157958984375,-4.4673172630012035,-2.362345217168331,-0.39938159539103507
1789316074709191200,4.754191162109375,-3.44958983425498,-2.5892998693645,0.3316463220313191
1789316074719225000,4.76422509765625,-1.9984370862185954,-3.049997810983658,0.04709375960826873
1789316074729258000,4.774258056640625,-1.0232406392097473,-2.8745091421306133,0.07701894227266311
1789316074739291000,4.784290771484375,-1.3068085745096205,-1.4460031101882458,1.3871309422418474
1789316074749324000,4.794323974609375,-2.0162322706282136,2.1359072823226453,1.9189976388007401
1789316074759358200,4.804358154296875,-2.864863361907005,1.6082926902502774,-0.6781359929293393
1789316074769391000,4.81439111328125,-2.174904244714975,-1.8117448863059282,-1.727049710316956
1789316074779424000,4.824424072265625,-2.011688051327318,-4.075436837020516,0.38055852923840283
1789316074789458000,4.8344580078125,-1.081974348533526,-8.975636982998251,-1.3795812575146555
1789316074799491000,4.844490966796875,-1.7332922579683363,-14.65006735152602,-1.4436352120131253
1789316074809524000,4.85452392578125,-2.348453323807567,-17.139657138860226,0.6879571297198533
1789316074819556900,4.864556884765625,-2.4472445374272764,-14.208780212819576,2.195909038820863
1789316074829591000,4.874591064453125,-3.4971465351998803,-7.2742428152024745,2.005594264496863
1789316074839624200,4.884624267578125,-2.8707003974974152,6.101202659669518,3.275644887712598
1789316074849657000,4.894656982421875,-4.671612339621782,22.253615770852566,3.8073841584995387
1789316074859690000,4.90468994140625,-6.001424188578128,14.97103650445938,-1.9979069248646497
1789316074869724200,4.91472412109375,6.24564327930808,11.19079783477783,-5.757521908712387
1789316074879757000,4.924757080078125,10.56029862229228,14.63197873712778,1.0991714939847588
1789316074889790000,4.9347900390625,3.579425882218778,9.898831440091133,-3.55678939525783
1789316074899822800,4.94482275390625,0.5125415261030197,5.962677986076474,-3.4376176569104193
1789316074909857000,4.95485693359375,0.13785495763793587,3.256956553855538,-0.23635522548705337
1789316074919890200,4.96489013671875,-1.669894575421512,0.4084954606950283,-1.8181933317929506
1789316074929923000,4.974923095703125,-2.616776489832997,-0.7970441119045019,-4.7610365899592635
1789316074939957200,4.984957275390625,-2.9789211182415483,-1.5973481023877858,-4.243042643669248
1789316074949990100,4.994990234375,-2.7917560401201245,-1.7994921384543179,-2.2861571727618575
1789316074960023000,5.00502294921875,-2.5776611617580056,-1.042745550146699,-1.7284692217260598
1789316074970056000,5.015055908203125,-0.48398295561671256,-0.7868623251080512,-1.1175821799442172
1789316074980090000,5.025090087890625,2.4719839880168437,-0.15200667097866535,3.424522320754826
1789316074990123000,5.035123046875,6.308164909672737,1.585909593528509,6.0118953137099735
1789316075000156200,5.04515625,9.513154544925689,3.50011239926815,2.99478913398087
1789316075010189000,5.05518896484375,9.51867476965189,5.552969057938456,0.10485650500804185
1789316075020223200,5.06522314453125,5.520643243873119,4.939249130818247,-3.29247239613384
1789316075030256000,5.075256103515625,0.6967088837131857,3.4325141962915655,-3.3573008421361443
1789316075040289300,5.085289306640625,0.10582447325736284,2.264423772120476,-3.184676622803509
1789316075050322200,5.095322265625,-1.3509902460634708,1.0639736316144466,-3.404448377758264
1789316075060356000,5.105356201171875,-2.9739836618393656,-1.470226866340637,-3.6994141976460813
1789316075070389000,5.115388916015625,-2.0067571707963943,-2.2381220406502482,-0.21564181554317474
1789316075080422100,5.125422119140625,-1.5654872754856943,-3.4046810174703594,1.1954124385997653
1789316075090455000,5.135455078125,-0.8812503353327512,-3.9369688620507715,2.652828046423197
1789316075100489200,5.1454892578125,-1.1289701276600361,-2.9733231521040198,3.9009412708580493
1789316075110522000,5.155522216796875,-0.8443354399114846,-1.9019173246622085,4.032716177929937
1789316075120555300,5.16555517578125,-1.992391668574512,-2.1414491343587634,1.9540195600822567
1789316075130589000,5.1755888671875,-4.603184407822788,-3.8125323350429534,0.67381725294739
1789316075140622000,5.1856220703125,-4.933855747342109,-5.373914221036434,0.13179945699125528
1789316075150655000,5.195655029296875,-4.807544950895011,-7.405392576113343,0.03137859634310007
1789316075160688000,5.205688232421875,-4.242333034095168,-6.669806264734268,-0.0591316956654191
1789316075170722000,5.21572216796875,-1.9575690692573784,-1.1742033540934325,-1.6640931956663727
1789316075180755200,5.225755126953125,-1.7264432688564062,3.997181630951166,-2.747319809283316
1789316075190788000,5.2357880859375,-1.8191966636165975,4.931494863429665,-3.2508196585357187
1789316075200821200,5.2458212890625,-1.3908546389400958,2.708388021081686,-2.4872698199540375
1789316075210855000,5.25585498046875,-0.6570590103700756,1.4316729715406893,-1.80183782479763
1789316075220888000,5.26588818359375,-0.7092462937250733,1.8595593614041803,-3.0632556442245837
1789316075230921200,5.275921142578125,-2.127910730610788,1.4254934061229227,-4.231528146964312
1789316075240954400,5.285954345703125,-3.9847371599197383,-0.3295499342739582,-3.91005075224787
1789316075250988300,5.29598828125,-5.984623860424756,-1.770243247616291,-2.5831533294335007
1789316075261021400,5.306021484375,-6.001265198624134,-2.73042449632287,-0.5615528097704052
1789316075271054300,5.316054443359375,-0.9927454015724361,-1.260341422367096,2.2154159955844284
1789316075281088300,5.326088134765625,2.4900340239703653,-1.7253519664883612,7.632483421909809
1789316075291121200,5.33612109375,8.54687439482212,1.6007880137085915,8.672163739266992
1789316075301154300,5.346154296875,12.710920658665895,3.043995940220356,4.849772858032584
1789316075311187200,5.356187255859375,8.118173181444407,-2.8050527440667152,3.420911436781287
1789316075321221400,5.366221435546875,8.025244722378254,-6.660798782414197,-6.2158139582335945
1789316075331254300,5.376254150390625,3.687803547090292,1.0962684660196305,-5.140686479920149
1789316075341287400,5.386287353515625,2.990999678570032,4.199091273739934,3.7272085057616233
1789316075351320300,5.3963203125,1.2847766293130813,3.806916833248734,5.159341496029496
1789316075361354200,5.406354248046875,-1.3604923800326882,3.4758237611860037,4.360119163303077
1789316075371387100,5.41638720703125,-1.748493480361998,3.240749515420198,1.03226215005517
1789316075381420300,5.426420166015625,0.5331798249840736,3.1522464715808627,0.23291268381774424
1789316075391453200,5.436453125,3.4109666736111044,2.053097481688857,0.8638369898475706
1789316075401487400,5.4464873046875,3.5444358173802493,0.21190204449295996,1.027728306017816
1789316075411520300,5.456520263671875,2.8111390782430767,-1.2584972558051346,0.567855124785006
1789316075421553400,5.466553466796875,2.089521086461842,-0.710298725387454,-0.05804740756005049
1789316075431587300,5.47658740234375,2.9476331227913497,1.35886200235188,-0.3123215899668634
1789316075441620200,5.4866201171875,1.832286446814239,1.67154906463027,1.3757779197089373
1789316075451653000,5.496653076171875,-1.4225886245921253,1.1939029108196497,-0.32985476243942974
1789316075461686300,5.506686279296875,-3.929347573392093,0.7693488802492618,-2.0830996751122175
1789316075471720200,5.51672021484375,-4.884162326629459,-0.24145137958228588,-2.3708362743988634
1789316075481753300,5.52675341796875,-4.286676910473406,-1.3322124803572892,-0.45340559265390035
1789316075491786200,5.5367861328125,-3.4819463357195257,-1.4115379460066557,1.6004703260615467
1789316075501819400,5.5468193359375,-2.270488478986919,-1.240480537599325,1.9061184296138582
1789316075511853300,5.556853271484375,-0.738943220591545,-2.2278964147120712,0.8945879558116197
1789316075521886500,5.566886474609375,0.521084605781734,-3.162365130013227,-0.283240310780704
1789316075531919400,5.57691943359375,1.263591656334698,-3.2191496780306097,-0.5998924772977828
1789316075541952300,5.5869521484375,2.4802172710940242,-2.9777491518527266,-0.4640649338342249
1789316075551986200,5.596986083984375,3.2628920813843605,-3.938230260288715,-0.8475685766138136
1789316075562019300,5.607019287109375,-1.29458476049155,-3.376964158505201,-1.0580996250145136
1789316075572052200,5.61705224609375,-1.0836176587611437,-0.22846622580289838,-2.2440657514855262
1789316075582086400,5.62708642578125,1.3504340734854339,-1.302514676707983,-2.23555935055539
1789316075592119300,5.637119384765625,0.5259542576447129,-1.5130916100770233,-1.0082907612286507
1789316075602152400,5.64715234375,-0.900044467651844,-0.4775871170997619,-0.6899800138495862
1789316075612185300,5.657185302734375,-1.363796536144614,1.412856042867899,0.344725876095891
1789316075622219300,5.66721923828125,-1.5243135535761714,3.4751433777064085,1.0582385950937867
1789316075632252200,5.677252197265625,-0.030024259124696254,5.116313670685887,0.8456770637787878
1789316075642285300,5.687285400390625,0.21953385454565286,6.644860624048113,0.43265871883183715
1789316075652318200,5.697318115234375,-1.7887667463004588,5.38747922053039,-1.3399439513921736
1789316075662352400,5.707352294921875,-0.46043578355163334,2.5908675570726394,-2.1415170850284397
1789316075672385300,5.71738525390625,0.31036738715916873,0.23238544507324693,-1.871268065506965
1789316075682418400,5.72741845703125,1.4428838091239333,-2.316462002393603,-1.779098461984098
1789316075692451300,5.737451416015625,1.3599693790718912,-4.909735451564193,-1.9596303857013582
1789316075702485200,5.7474853515625,2.0778540295436976,-5.970438683205843,-1.5618154551051555
1789316075712518100,5.75751806640625,1.9990467425495384,-4.421470873105526,-0.3246509101860225
1789316075722551300,5.76755126953125,0.03576777121275663,-0.5298486347347497,1.5707465111881493
1789316075732584200,5.777584228515625,-1.552059638635814,3.654382339003682,3.227084562683105
1789316075742618400,5.787618408203125,-1.1709823462203144,6.445058767193555,2.713376915410161
1789316075752651300,5.7976513671875,0.7650435842707752,6.408585770320892,-0.6632401832230389
1789316075762684400,5.807684326171875,1.1539023243427275,4.671160504201055,-1.9643197125613687
1789316075772718300,5.81771826171875,-1.1687176161587238,1.938699533614516,-2.585250301712751
1789316075782751200,5.827751220703125,-4.145619795793294,-0.9321171837389468,-2.2870222651585936
1789316075792784100,5.8377841796875,-5.28669420274496,-3.19195771972239,-0.9795303845599294
1789316075802817300,5.8478173828125,-2.9532229056224226,-3.4464036054342984,-1.1250963549666106
1789316075812851500,5.8578515625,0.2704641235768795,-3.2063755366533995,0.1980056210875511
1789316075822884400,5.86788427734375,2.632080441948771,-3.6124686123818157,0.44863545564264057
1789316075832917200,5.877917236328125,4.423730634731054,-2.21691324840486,0.2124713688135147
1789316075842950400,5.887950439453125,2.976919130769372,-1.3621300642371177,0.6709539724707603
1789316075852984300,5.897984375,-0.3455453757852316,-1.180612052091956,1.4578494691960513
1789316075863017200,5.908017333984375,-3.0074516316771507,-0.5395540361911058,1.9523709160923957
1789316075873050000,5.918050048828125,-3.5514608937114476,-0.389362890201807,0.38575229848921294
1789316075883083300,5.928083251953125,-1.5767156487256289,-0.434039067274332,-0.8645829859092831
1789316075893117400,5.938117431640625,0.2698275792390108,-0.6533008268803357,-2.1888909767523406
1789316075903150300,5.948150390625,0.19630173977911472,-1.2407283748805522,-2.072208571002632
1789316075913183200,5.958183349609375,-0.5995552081674337,-1.8180980547249317,-1.3926068894349037
1789316075923216400,5.96821630859375,-0.7944728001117706,-1.5896049409151076,-0.9227538737185299
1789316075933250300,5.978250244140625,-0.13680968636870383,-0.4819897359728813,-0.32953605187907814
1789316075943283200,5.988283203125,1.610928883972764,0.7976531837135553,0.988786873205006
1789316075953316000,5.998316162109375,2.817906380420923,1.3562930286467074,1.956398125781864
1789316075963350300,6.008350341796875,2.9201807599812746,1.1937591184347867,3.0806887173235413
1789316075973383400,6.018383544921875,3.7390208163693543,0.75413377546072,4.184540770339965
1789316075983416300,6.028416259765625,5.027510182595253,0.266869313955307,3.456781207063794
1789316075993449200,6.03844921875,4.471534588435292,0.1329074182331562,1.4461574239671229
1789316076003483400,6.0484833984375,0.6002981354892254,0.2572019064217806,-0.03866553848087787
1789316076013516500,6.0585166015625,0.24701953510344027,0.4439695096582174,-0.821258077315241
1789316076023549400,6.068549560546875,-0.07477174786776304,0.1492979965418577,-2.3947908582210538
1789316076033582300,6.078582275390625,-3.8598771468028423,0.2839087115615606,-3.402177510216832
1789316076043616300,6.0886162109375,-5.964194820380211,0.91478552518785,-1.5648628599770367
1789316076053649400,6.0986494140625,-5.0134319728821515,0.03669043901562691,0.4833411505818367
1789316076063682300,6.108682373046875,-2.3882810379356143,-0.822941354227066,0.7825440235175192
1789316076073715200,6.118715087890625,-0.8569006147131323,-0.660047963052988,1.1823365377970039
1789316076083749400,6.128749267578125,-0.98397713483572,-0.17731179262697697,1.9999125655986367
1789316076093782500,6.138782470703125,-1.1570692639410496,-0.18138240306675432,2.1976231492623683
1789316076103815400,6.1488154296875,-0.9347978011250495,-0.30373686310350895,1.76204372067824
1789316076113848300,6.158848388671875,-0.16055355004966257,-0.5773679262787104,0.9975976639091968
1789316076123882200,6.16888232421875,0.8855801812306046,-0.9256693227738142,0.14936886982098221
1789316076133915400,6.178915283203125,3.5896243278890845,-1.0087935961842536,-0.6020560850724578
1789316076143948300,6.1889482421875,0.80379884686172,-0.8766688527613877,-1.2314539121873675
1789316076153982500,6.198982421875,-1.2728157040148973,-0.9658084409385919,-1.026557947064191
1789316076164015400,6.209015380859375,2.747912806740403,-0.7231260582566261,0.6410870958648621
1789316076174048500,6.219048583984375,3.7849037388831377,0.16019874526262282,1.7762310898542404
1789316076184081400,6.229081298828125,3.237163473626971,1.1451748280078171,2.089373348554224
1789316076194115300,6.239115234375,1.4673407895103097,0.4823328503221273,1.143931257687509
1789316076204148200,6.249148193359375,-0.14770488213151692,0.10196224487125873,-0.04372530608847737
1789316076214181400,6.259181396484375,-0.9862707987308501,0.18124094876945018,-1.8351831911690533
1789316076224214000,6.269214111328125,-3.059298138770461,-0.12013444589972495,-3.4035233718678355
1789316076234248200,6.279248291015625,-4.366157274423539,-0.005942834052443504,-3.523056052482128
1789316076244281000,6.289281005859375,-4.371973559486865,-0.28683482814133165,-2.7488389816746115
1789316076254314200,6.299314208984375,-2.7098043176203963,-0.9520102172106504,-1.438315186034143
1789316076264347100,6.30934716796875,-0.45334290268123145,-1.573539356777072,-0.2552422967866063
1789316076274381000,6.319381103515625,0.6862175925761461,-1.119223809671402,0.5813511506959795
1789316076284414000,6.3294140625,0.8077101750865578,-0.10241524933576583,1.3103675821654497
1789316076294447000,6.339447021484375,0.9963798125520348,1.431654851362109,2.267569084408879
1789316076304481000,6.34948095703125,1.3321715638250111,2.5839912415623663,2.4530577537506817
1789316076314514200,6.35951416015625,1.1714420726865529,2.715609204506874,1.5738539756841956
1789316076324547000,6.369547119140625,-0.008135960182547568,0.8639163386940956,-0.5571972449094057
1789316076334580200,6.379580322265625,-0.8241869703739881,-1.0046464133769273,-2.6196771797105667
1789316076344614100,6.3896142578125,-0.48362113656699657,-1.0285971978068351,-2.971612841054797
1789316076354647000,6.39964697265625,-0.6233581085592508,-0.07526420755982399,-1.9035729829147456
1789316076364680000,6.409679931640625,-1.2059548754021525,-0.11928396655023098,-0.13411679402291773
1789316076374713000,6.419713134765625,-1.0893804600715637,-0.9824187994778155,0.5268111667349934
1789316076384747000,6.4297470703125,-1.0428206612095237,-1.5888661052465438,-0.04277443510442972
1789316076394780200,6.4397802734375,-1.2335513228580355,-1.8691981273651121,-0.12812281430512665
1789316076404813000,6.44981298828125,-1.1341489916026593,-2.1243834332674743,0.12979703112766147
1789316076414846200,6.45984619140625,-1.41414082198143,-2.358618890121579,0.7628466587483882
1789316076424880000,6.469880126953125,-1.8511667961120604,-2.6152263377815483,1.0801162265114486
1789316076434913300,6.479913330078125,-1.7915075694411993,-2.5935195328861473,0.4317304980710149
1789316076444946200,6.4899462890625,-1.6050275509744882,-1.7252192800194024,-0.20059271497130393
1789316076454980000,6.49997998046875,-1.2766615657880902,-0.6201438226878643,-0.3428646122686565
1789316076465013000,6.510012939453125,-0.7930003894716501,0.23720716614127157,-0.5068596810743212
1789316076475046100,6.520046142578125,-0.8422387598931789,0.9069295509904622,-0.41435865364000196
1789316076485079000,6.5300791015625,-1.338958739747107,1.1078905147522686,-0.23527356773018834
1789316076495113200,6.54011328125,-1.453395266266167,1.2219248902112245,-0.3688315588265657
1789316076505146000,6.55014599609375,-1.2849208600893616,1.1485726537525653,-0.2219651733458042
1789316076515179300,6.56017919921875,-1.27532856361866,0.9247159675717354,0.4357321349278092
1789316076525212200,6.570212158203125,-1.1922437454357742,0.7212497429907322,0.9854419466912746
1789316076535246000,6.58024609375,-1.05460009246096,0.5070031811982393,1.2731304690524936
1789316076545279000,6.590279052734375,-0.8268528285823762,0.31475042454898355,1.34301882879287
1789316076555312000,6.60031201171875,-0.539062307151407,0.18951544063985346,1.3304571611225604
1789316076565345000,6.610344970703125,-0.20862148845233022,0.09923954190909862,1.2474939234927296
1789316076575379200,6.620379150390625,0.22129984130486843,0.15003800125420091,1.1457532124176621
1789316076585412000,6.630412109375,0.5674912599086761,0.4346405402988195,1.0860615447819233
1789316076595445200,6.6404453125,0.8586147251546382,0.8833698117047548,1.0163821516171097
1789316076605478100,6.65047802734375,1.133349438722804,1.4966507628858088,1.0337671477906405
1789316076615512000,6.660511962890625,1.3880033411622046,2.2776596857905385,1.0326546565040946
1789316076625545000,6.670544921875,1.4500152684390544,2.7157868991613388,0.8659858384445309
1789316076635578000,6.680578125,1.38174544981122,2.3483231215566396,0.5695049378186464
1789316076645611000,6.690611083984375,1.2125064890027046,1.26956576230824,0.34860885500907896
1789316076655645200,6.700645263671875,0.9290554580807685,0.019172902503609656,0.08058072640746831
1789316076665678000,6.710677978515625,0.9134516462355852,-0.8315180439144373,0.08272446043789386
1789316076675711200,6.720711181640625,0.8914946659713983,-1.1434890668779611,0.33490020926073194
1789316076685744000,6.730744140625,1.619897787848115,-0.07666939818263054,0.9734640702582895
1789316076695778000,6.740778076171875,2.786656671154499,1.423318400171399,1.403673350111395
1789316076705811000,6.75081103515625,3.211301887139678,1.7408365358680487,1.3385080733701586
1789316076715844000,6.760843994140625,2.7954829516887663,1.1313175675690172,0.8996393939822912
1789316076725878000,6.7708779296875,2.1676830612897873,0.6850929724603891,0.600722206120193
1789316076735911200,6.7809111328125,1.5294810193419455,0.2484253102481365,0.44811800763979553
1789316076745944000,6.790944091796875,0.5140391077170148,-0.20164777698218822,0.04929682261049747
1789316076755977200,6.800977294921875,-0.023514073513075707,-0.26724165439903735,-0.1416586607698351
1789316076766011000,6.811010986328125,-0.029411826314777133,-0.039081718066334724,-0.23513941995650528
1789316076776044000,6.8210439453125,0.022224764354899524,-0.07598083139657974,-0.5062157571475953
1789316076786077000,6.831076904296875,-0.08431728258728981,-0.28685703997313977,-0.7082062100876122
1789316076796110000,6.841110107421875,-0.32639695013575254,-0.460333784481883,-0.7518347778033465
1789316076806144000,6.85114404296875,-0.5062156840823591,-0.2952612957030535,-0.5512547761831432
1789316076816177200,6.86117724609375,-0.548401724839583,0.13512626332640648,-0.20696517261266706
1789316076826210000,6.8712099609375,-0.3806042680762708,0.5805582467526197,0.1301847883362323
1789316076836243200,6.8812431640625,0.02565364282503724,0.9611889644443988,0.2159493471223861
1789316076846277000,6.891277099609375,0.49273923965469,1.138886541518569,0.2134828108783811
1789316076856310000,6.90131005859375,1.031405387095362,1.0150994183301925,0.12479666555710137
1789316076866343000,6.911343017578125,1.531294060113281,0.6469318763703108,-0.011876717613451182
1789316076876376000,6.9213759765625,1.7971067046225069,0.12233984698951243,-0.13607001044992356
1789316076886410000,6.931409912109375,2.126448695234209,-0.29357027387619017,-0.2448136956222355
1789316076896443100,6.941443115234375,2.413978519902378,-0.2787029596120119,-0.01099922239286825
1789316076906476000,6.95147607421875,2.4217373173356056,-0.3285474792331457,0.06876434241281822
1789316076916510200,6.96151025390625,2.6356816813111306,-0.2910246810466051,-0.4660093824328854
1789316076926543000,6.971543212890625,2.768633230946958,-0.2345171964049339,-0.5795551341246813
1789316076936576300,6.981576171875,2.82331057755202,-0.11168752007186412,-0.37976226429417725
1789316076946609000,6.99160888671875,3.0064725575119255,0.08273498183190822,-0.5700201938644052
1789316076956643000,7.00164306640625,3.118324035973847,0.3571732697367668,-0.8245864180203527
1789316076966676000,7.011676025390625,2.9052044323846697,0.7549322323620319,-0.9600568186093121
1789316076976709000,7.021709228515625,2.5426529767408965,1.2771294755607843,-1.1194266387671232
1789316076986742000,7.031741943359375,2.406073591996729,2.578031456375122,-0.7527888636577874
1789316076996776200,7.041776123046875,2.4842604090049862,3.9780806246399876,-0.22536263376437127
1789316077006809000,7.05180908203125,2.475448449257016,3.867802971366048,-0.1511070187252015
1789316077016842200,7.06184228515625,2.527581372076273,2.5013281559228897,-0.30789193695634604
1789316077026875100,7.071875244140625,2.226735554239154,0.4167565085619688,-0.6544112723402679
1789316077036909000,7.081908935546875,-1.3591931340023875,-2.1392010631710288,-2.2112813799977302
1789316077046942000,7.09194189453125,-4.521096199461818,-3.9212709421813488,-2.7823645269185304
1789316077056975000,7.10197509765625,-3.3372669388890266,-3.9496003800868986,-0.9742705643355846
1789316077067009300,7.11200927734375,-2.6522482007086277,-3.006478987252712,0.2871237280853092
1789316077077042200,7.122042236328125,-1.8144909701436758,-1.158024957230687,1.0288044838819652
1789316077087075000,7.132074951171875,-0.7602753469556569,0.4118459401667118,0.601211231746152
1789316077097108200,7.142108154296875,-0.12901274888217448,0.7240010875254869,-0.2742792248856276
1789316077107142100,7.15214208984375,0.43146600191593165,0.3625520401656627,-0.9087425917617976
1789316077117175000,7.162175048828125,0.5088473477602005,0.09534837968945503,-1.1988114333882927
1789316077127208000,7.1722080078125,0.5830301898241043,-1.1665998933523893,-1.8829623026929794
1789316077137241000,7.182240966796875,0.4445417565882206,-2.0158932479321954,-1.8350355993919074
1789316077147275300,7.192275146484375,0.33739421803355213,-2.212210769802332,-0.8402640988193452
1789316077157308200,7.20230810546875,0.16039689818322658,-1.7470634475588798,0.30982436632364985
1789316077167341000,7.212341064453125,-0.09730945062935352,-1.0264461572527885,0.9757350839301944
1789316077177374200,7.222374267578125,-0.3355114730268717,-0.2578308519750833,0.8551346279539167
1789316077187408100,7.232408203125,-0.6859469589412212,0.6131523563653231,0.17831410153731703
1789316077197441000,7.24244091796875,-1.0589853218078613,0.6610562633126974,-0.42040363289266824
1789316077207474000,7.252473876953125,-1.2307476636141539,-0.08124094388186931,-0.9215832225039601
1789316077217507000,7.262507080078125,-1.3548451679259539,-0.9458756599783897,-1.1915594164334238
1789316077227541500,7.27254150390625,-1.5903046136170624,-1.2421142762809991,-0.8847603892803192
1789316077237574700,7.28257470703125,-1.3907786510944367,-0.607801642987132,-0.3348904185190797
1789316077247607600,7.292607666015625,-0.8730190980821847,-0.11391630203723907,-0.11292670647799968
1789316077257640700,7.302640625,-0.10882453185617923,-0.21601123337745665,-0.2287444582223892
1789316077267674400,7.31267431640625,0.7402800221532583,-0.15209318021833895,-0.22138430471792817
1789316077277707500,7.32270751953125,1.4399123920977115,-0.3682096275359392,-0.07252557637616991
1789316077287740400,7.332740478515625,1.7733301077157257,-0.6546171701759099,0.20850246518254278
1789316077297774600,7.342774658203125,1.7312731732308864,-0.7686720039010048,0.5261139782510698
1789316077307807500,7.352807373046875,1.3589526032447814,-0.9310171135425567,0.6134076463006436
1789316077317840600,7.362840576171875,1.0077870494902132,-1.1282774692207573,0.208048876196146
1789316077327873500,7.37287353515625,0.8271715391427278,-1.1835860994666814,-0.2414057868748903
1789316077337907500,7.382907470703125,0.6913023484945297,-1.058277465799451,-0.24520664046257734
1789316077347940400,7.3929404296875,0.7476637026637792,-1.1890578088760375,-0.03227919844463467
1789316077357973500,7.402973388671875,0.7924398329794407,-1.3780074323266744,0.09335969009026884
1789316077368006400,7.41300634765625,0.6682686789095401,-1.443969558534026,0.23924101005643605
1789316077378040600,7.42304052734375,0.6152233174204826,-1.5957506040632723,0.1699300118125975
1789316077388073500,7.433073486328125,0.648249973231554,-1.8086767309069633,-0.20564166892394423
1789316077398106600,7.443106689453125,0.7008341469496489,-1.670925964295864,-0.6920600349940359
1789316077408139500,7.453139404296875,0.5680617532730102,-1.6218132660806177,-1.397610396810621
1789316077418173400,7.46317333984375,0.20186697269082068,-1.6650328146040438,-1.7495063106663524
1789316077428206300,7.473206298828125,-0.03461480178534984,-1.534008725899458,-1.3751659252904356
1789316077438239500,7.483239501953125,-0.2753168243050575,-1.2223854934602976,-0.4644022029645741
1789316077448272400,7.4932724609375,-0.6547492721229792,-0.9813982242584228,0.23616415989436207
1789316077458306600,7.503306640625,-0.9176853382825851,-1.0927642572909593,0.597887932542339
1789316077468339500,7.51333935546875,-0.848346429118514,-1.373556298136711,0.8927792258892208
1789316077478372600,7.52337255859375,-0.5252011011898517,-1.0042501075357197,0.9202559194229543
1789316077488406800,7.53340673828125,-0.42787119229435916,-0.7123451365232467,1.2568170476332305
1789316077498439400,7.543439453125,-0.028769582888484,-0.8592220433980226,0.6640824792660772
1789316077508472600,7.55347265625,-0.00637479572892189,-0.6015490123331546,0.3308683964613825
1789316077518505500,7.56350537109375,-0.3276969998836517,-0.2666331671118736,0.3390446886543184
1789316077528539600,7.57353955078125,-0.6134919635832309,0.11231120492815971,0.44147184762358666
1789316077538572500,7.583572509765625,-0.5914689323455095,0.26661387788951396,0.4077530448298901
1789316077548605700,7.593605712890625,0.12385668129324913,0.48149113880097866,0.23801848252415655
1789316077558638600,7.603638671875,0.5667541778057813,1.3813415451854467,0.4207463819157332
1789316077568672800,7.6136728515625,0.43989656113088127,2.5065970362365246,0.3134531147474423
1789316077578705700,7.62370556640625,0.18088146780729292,3.0056162329435345,-0.46488070719651875
1789316077588738600,7.633738525390625,0.25317279703617096,2.8973808991521595,-1.2135945765003562
1789316077598771500,7.643771484375,0.5053156665027141,2.210809086310863,-1.519664850987494
1789316077608805600,7.6538056640625,0.7159171497911214,1.6471932065308093,-1.3043211416080593
1789316077618838500,7.663838623046875,0.8356985444694757,1.0257657737731933,-0.997205449721217
1789316077628871700,7.67387158203125,0.7549293097525834,0.5269599275559187,-0.5130696781629697
1789316077638904600,7.683904541015625,0.7085743858128786,-0.14888766217529772,-0.3296508738977834
1789316077648938800,7.693938720703125,0.876940655440092,-1.3832868340343236,-0.551587040344812
1789316077658971600,7.7039716796875,0.8497294079095125,-2.084509688040614,-0.8682499109189957
1789316077669004800,7.7140048828125,0.5194330391824246,-1.9429571910589931,-0.9668049046300351
1789316077679037700,7.72403759765625,0.42599429250657556,-0.994521909725666,-0.7395680014263838
1789316077689071600,7.734071533203125,0.35553719296753405,0.9531360063701867,-0.0972397829266265
1789316077699104500,7.7441044921875,0.13426058640778063,2.016470755559206,0.26657360067805275
1789316077709137700,7.7541376953125,-0.33911446595489975,1.9533143344223498,0.3784881527051329
1789316077719171600,7.764171630859375,-1.438909937056899,0.794602563971281,0.36353418307080865
1789316077729204700,7.774204833984375,-2.4209108033835887,-0.025749358284473417,0.634513635758683
1789316077739237600,7.784237548828125,-2.7893881419450044,0.1673983013778925,0.984474124572426
1789316077749270800,7.794270751953125,-2.430333880767226,0.056821957418322556,1.2174490599714218
1789316077759304400,7.804304443359375,-1.6136732142448424,-0.9570511339873075,1.2664698421195149
1789316077769337600,7.814337646484375,-0.4007610670506954,-2.388727612659335,0.7815748862244188
1789316077779370500,7.82437060546875,0.5549754772067069,-2.9659347954183817,-0.07631515965117142
1789316077789403600,7.834403564453125,0.8035007406979798,-2.432659693366289,-0.8359588028408587
1789316077799437600,7.8444375,0.706247988691926,-1.5106991619825363,-1.407480779570341
1789316077809470700,7.854470703125,0.2987415390342474,-0.5649854145675898,-1.893003365844488
1789316077819503600,7.864503662109375,-0.005631868407130241,-0.02445698038637638,-2.302539860025048
1789316077829536800,7.874536865234375,-0.1644382825285196,0.45399289102256296,-2.469316230112314
1789316077839570400,7.8845703125,-0.20959318302869795,0.8845242424368858,-2.2531778632238506
1789316077849603600,7.894603515625,-0.4818815994232893,1.1697715091258287,-1.7534370742440222
1789316077859636500,7.904636474609375,-1.0689034892320632,1.228209085047245,-1.3158809387594461
1789316077869669600,7.914669677734375,-1.6629899105995893,1.030553592571616,-0.5932162874694913
1789316077879703600,7.92470361328125,-1.6828274144917725,0.6350748498380184,-0.0074949771315790704
1789316077889736700,7.93473681640625,-1.5988310344219208,0.04440086726248264,0.5392164747998118
1789316077899769600,7.94476953125,-1.5823036779910324,-0.8016109814286232,1.2055134152449667
1789316077909802800,7.954802734375,-1.744640019804239,-1.5071797556847333,1.7176736869454383
1789316077919836400,7.96483642578125,-1.9851479810565709,-1.8707301592379808,1.882434625557065
1789316077929869600,7.97486962890625,-2.2034119617968795,-1.7688707902193068,1.6892229607477782
1789316077939902500,7.98490234375,-2.3573960703283547,-1.2547539776235819,1.3020363916717468
1789316077949935600,7.994935546875,-2.30798234333992,-0.9683587099432944,0.7901840168766677
1789316077959969500,8.004969482421876,-1.8739917913824318,-0.903627002313733,0.4714044829420745
1789316077970002700,8.015002685546875,-1.4470815530747174,-0.9317238005071878,0.384826269685477
1789316077980035600,8.02503564453125,-1.1799077032148837,-1.15272275916934,0.6765973851852118
1789316077990069500,8.035069580078124,-1.2637351564586161,-1.3463333601683378,1.124723941457644
1789316078000102400,8.045102294921875,-1.4343869066745043,-1.4580518599003554,1.4761631245218216
1789316078010135600,8.055135498046875,-1.352618139526248,-1.583783687415719,1.6949591663122177
1789316078020168400,8.06516845703125,-1.0568547395199537,-1.5812737504214047,1.6649574112802743
1789316078030202600,8.07520263671875,-0.8251853337615728,-1.4616811563134193,1.4196063939109445
1789316078040235500,8.085235595703125,-0.6142103409856557,-1.507542159256339,1.0310080583408474
1789316078050268700,8.0952685546875,-0.3674813132613897,-1.64909407171607,0.731446508160606
1789316078060301600,8.105301513671876,-0.1817284400254488,-1.6677204462528228,0.5170297043677419
1789316078070335700,8.115335693359375,-0.005008183550834655,-1.6483008755117654,0.2708878471479751
1789316078080368600,8.12536865234375,0.03783434835374355,-1.6153350099772215,-0.005571909247664734
1789316078090401500,8.135401611328126,-0.05225450337231159,-1.4815478863000868,-0.3478527028795331
1789316078100434400,8.145434326171875,-0.16575813295543193,-1.2066601010620592,-0.7750082211852073
1789316078110468600,8.155468505859375,-0.3690595223635435,-0.8137585153400898,-1.1323506369438021
1789316078120501500,8.16550146484375,-0.5529635528624057,-0.468746808040142,-1.2540351618297398
1789316078130534700,8.17553466796875,-0.46134734543859957,-0.24860768107771872,-1.278017656572163
1789316078140567600,8.185567626953125,-0.10535831705033778,-0.17583645937740802,-1.1220596906844527
1789316078150601700,8.195601806640624,0.13803367520570753,-0.0693815792620182,-0.827881367912516
1789316078160634600,8.205634521484376,0.15960136389136315,0.03286591229140758,-0.5623769856348634
1789316078170667800,8.215667724609375,-0.0186567696750164,0.08537468268573284,-0.6388437739174813
1789316078180700400,8.225700439453124,-0.3557400220632553,0.06831950298845768,-0.8470839349020272
1789316078190734600,8.235734619140626,-0.7901800713539123,-0.13026187216043472,-0.7219949353348464
1789316078200767500,8.245767578125,-1.2418079868108034,-0.05956394960284233,-0.45319914682898665
1789316078210800600,8.255800537109375,-1.5858753989979624,-0.03207446965277195,-0.21701306736376136
1789316078220833500,8.26583349609375,-1.978685507044196,0.33062370098531246,0.032584136207960544
1789316078230867500,8.275867431640625,-2.0525585525065657,0.1179535947293043,-0.018996742219105363
1789316078240900400,8.285900390625,-1.9621295090407131,0.055799044111371036,-0.08375579451331869
1789316078250933500,8.29593359375,-1.8413310462743042,0.167637955352664,-0.1603822120707482
1789316078260966400,8.30596630859375,-1.7036872471690176,0.043806993022561073,-0.28775837272703647
1789316078271000300,8.316000244140625,-1.619595590031147,-0.1970551884949207,-0.35146724011488256
1789316078281033200,8.326033203125,-1.5729486974075435,-0.1448679051399231,-0.3055221025524661
1789316078291066400,8.33606640625,-1.5278060718670488,-0.16648878531754016,-0.220836315446347
1789316078301100300,8.346100341796875,-1.5298223801255226,-0.27951953669190405,-0.18047303313687443
1789316078311133400,8.356133544921875,-1.3414914730951188,-0.2722626974314451,-0.1226365649137646
1789316078321166300,8.366166259765626,-1.0632754202172159,-0.26179449490904805,-0.18151779294945297
1789316078331199500,8.376199462890625,-0.7189595862269401,-0.07116729363501072,-0.16450930193811655
1789316078341233200,8.386233154296875,-0.6369634400635957,0.2793389194279909,-0.2646416279684752
1789316078351266300,8.396266357421876,-0.40044747105687856,0.3961936130046844,-0.3016518004577607
1789316078361299200,8.40629931640625,-0.030652912417054173,0.4059188882052898,-0.27120105954930185
1789316078371332400,8.416332275390625,0.2416863573819399,0.37623452855944634,-0.2642553320646286
1789316078381366300,8.4263662109375,0.5714981574624777,0.4790647884368896,-0.25131430968791246
1789316078391399400,8.4363994140625,0.7153896187856793,0.6439122362881898,-0.14235482634045182
1789316078401432300,8.446432373046875,0.6570914513349533,0.6516156502723693,0.08687909589931368
1789316078411465500,8.456465576171874,0.7937573453187942,0.47282852439582346,0.2816902317944914
1789316078421499100,8.4664990234375,0.9649462711513042,0.3231388981878757,0.36864283132143316
1789316078431532300,8.4765322265625,1.1299135459899903,0.3165080818712711,0.5320247366648168
1789316078441565200,8.486565185546874,1.2642454440683126,0.31769699939489365,0.6674547321781515
1789316078451598300,8.496598388671876,1.3624486286669968,0.14638181683421134,0.601525923718512
1789316078461632300,8.50663232421875,1.454509072726965,-0.14292086272537707,0.5160469769407063
1789316078471665400,8.51666552734375,1.501956468078494,-0.34835283442139625,0.5761378730271012
1789316078481698300,8.5266982421875,1.8817153713718056,-0.6731698949545621,0.40121575201563536
1789316078491731500,8.5367314453125,2.2804873104318975,-1.2062123572945593,-0.036957638584449885
1789316078501765400,8.546765380859375,2.4538120792493223,-1.5532476793766021,-0.42082587689273054
1789316078511798300,8.55679833984375,2.652014391952753,-1.6600041727870702,-0.7273187607061118
1789316078521831200,8.5668310546875,3.048382484741509,-1.7738544238507747,-1.1883953263793139
1789316078531864300,8.5768642578125,3.5091359559401867,-2.089002323284745,-1.6364733673349021
1789316078541898200,8.586898193359374,3.739715812896192,-2.4402456184506414,-1.8348291170343756
1789316078551931400,8.596931396484376,3.5953479662328958,-2.9346804099768398,-1.7618391380168497
1789316078561964300,8.60696435546875,2.8355127642601725,-3.379672832942009,-1.1133603244654833
1789316078571998500,8.61699853515625,1.3677309529840946,-3.281436915117502,-0.09845474820695817
1789316078582031400,8.62703125,-0.08573416364789009,-2.5322844352006912,0.9170927061516791
1789316078592064300,8.637064208984375,-1.2526134584635495,-1.4776801049560309,1.513583923638612
1789316078602097200,8.64709716796875,-2.195563294123113,-0.4236971214801073,2.0186986607417463
1789316078612131300,8.65713134765625,-3.439479359129071,0.8449737378150224,2.480327745731175
1789316078622164200,8.667164306640625,-5.023277659592032,2.4008991119682785,2.347173366999626
1789316078632197400,8.677197265625,-6.515618742585182,4.165930177894235,1.3683454316206276
1789316078642230300,8.687230224609374,-7.379917943117022,5.7590019181370735,0.09958353304117917
1789316078652264400,8.697264404296876,-7.006779627007246,6.164040516376495,0.4266179042976349
1789316078662297300,8.70729736328125,-5.312698997095227,5.310653755003213,1.2720228000715375
1789316078672330500,8.71733056640625,-2.882250550037622,3.789824244150519,1.2011288434851914
1789316078682363400,8.72736328125,-0.8875210861653089,2.6192186222881078,1.283095252097398
1789316078692397300,8.737397216796875,0.19969605839252472,2.081214738148451,1.365751177343726
1789316078702430200,8.74743017578125,0.6332640010237693,1.8753712630420922,1.133837003044039
1789316078712463400,8.75746337890625,0.9267360752224921,1.830061464241147,0.9062848964113741
1789316078722496300,8.767496337890625,0.9809902279794216,1.7124848861306905,0.8979146890815347
1789316078732530400,8.777530517578125,0.7419131763130425,1.3819102849841116,0.8735828694447875
1789316078742563300,8.787563232421874,0.384467227114737,0.9309580768316984,0.8041611043028533
1789316078752596500,8.797596435546875,0.10172522124499082,0.5690373203068971,0.4606700306989252
1789316078762629400,8.80762939453125,0.09232640151977539,0.40393560543358326,-0.15337350235246122
1789316078772663300,8.817663330078124,0.2403337737292051,0.29864217031300067,-0.41710663717389107
1789316078782696200,8.8276962890625,0.5355038840174675,-0.12297814489305019,0.03974259312786162
1789316078792729300,8.837729248046875,0.9071537151351571,-1.218693653205037,0.8813074723474681
1789316078802762200,8.84776220703125,1.2521323969483376,-2.766405910286307,1.5862316650897264
1789316078812796400,8.85779638671875,1.504328457906842,-3.882632876229286,2.10737296949476
1789316078822829300,8.867829345703125,1.1121446650654077,-4.534292950165272,2.4554364655807612
1789316078832862500,8.877862548828125,0.29233810173273084,-4.908712538257241,2.271432627969235
1789316078842896100,8.887896240234374,-0.3772375681221485,-4.595228772643209,1.2519057485856115
1789316078852929300,8.89792919921875,-0.8642781577438116,-3.7861996239125726,0.12761157684735952
1789316078862962200,8.907962158203125,-1.236586452770233,-2.6983418433636426,-0.372481057777442
1789316078872995300,8.917995361328124,-1.2549638209819793,-1.498549289983511,-0.6436719247262924
1789316078883029200,8.928029296875,-0.8184826212525367,-0.45705695476830005,-0.9650768387284129
1789316078893062400,8.9380625,-0.3899468275696039,-0.032224107256531714,-1.28565575023517
1789316078903095300,8.94809521484375,-0.16299977415800093,-0.12604162411689757,-1.4211277582593262
1789316078913128400,8.95812841796875,0.03814472947716713,-0.3415688733696937,-1.3968641084879636
1789316078923162000,8.968162109375,0.012301847690343856,-0.5524754770845175,-0.9683771954480558
1789316078933195300,8.9781953125,-0.3073457012504339,-0.6248614988595247,-0.24498351749749853
1789316078943228200,8.988228271484376,-0.49992111398279665,-0.5831926869094372,0.5277049372369423
1789316078953261300,8.99826123046875,-0.7245856094151735,-0.4892535894960165,1.0510870428387076
1789316078963295200,9.008295166015625,-1.2368372126609086,-0.5273129787772893,1.7622500569052992
1789316078973328400,9.018328369140624,-1.970524412420392,-0.26536124747991563,2.3045798414200545
1789316078983361300,9.028361328125,-2.5761685851126908,0.35718963634967804,2.281227169013768
1789316078993394400,9.03839453125,-2.9110400066703557,1.3783248277127742,2.2392942993000147
1789316079003428000,9.048427978515624,-3.268855665963888,2.208687856373191,2.0602847628444434
1789316079013461200,9.058461181640626,-3.520767649284005,2.371050501671433,1.6746385550782084
1789316079023494100,9.068494140625,-3.543693766841292,1.7514304105967282,1.276798051649332
1789316079033527300,9.07852734375,-3.3670196875959633,0.8994371494084596,0.9551650279797613
1789316079043561200,9.088561279296876,-3.1653473606944083,-0.07962532537877559,0.9756889067009091
1789316079053594400,9.098594482421875,-2.9409768797725437,-0.5439934799432754,1.3402351894237101
1789316079063627300,9.108627197265625,-2.6328976035505534,-0.7067582763016224,1.5215702462173997
1789316079073660400,9.118660400390626,-2.167002677810192,-0.6945154653221368,1.3547539825111627
1789316079083694300,9.1286943359375,-1.8044395317286253,-0.5222001658082008,0.8101036460943519
1789316079093727200,9.138727294921875,-1.4943050765424966,-0.7729203089952469,0.17232399427704512
1789316079103760100,9.148760009765626,-1.2083996382057667,-0.8591022164106369,-0.3476438824344426
1789316079113793300,9.158793212890625,-0.9163578890711068,-0.6993588137000799,-0.7764973637644201
1789316079123827200,9.1688271484375,-0.7120166352212428,-1.0814116731494665,-0.6987414855193347
1789316079133860400,9.1788603515625,-0.7154968785524368,-1.4163222576737402,-0.0932439547561109
1789316079143893200,9.188893310546876,-0.6251864930301905,-1.159912378412485,0.3774268070839345
1789316079153926400,9.198926513671875,-0.4587041374534368,-0.9346388111710547,0.6916175519235431
1789316079163960300,9.208960205078125,-0.46606619065403937,-0.6137023914635181,1.0032171112261712
1789316079173993500,9.218993408203126,-0.5315981087505817,-0.07997019329369068,1.0493220789927988
1789316079184026400,9.2290263671875,-0.3981383173316717,0.3487994091451168,1.0440689807701855
1789316079194060300,9.239060302734375,-0.18505027792453765,0.9369991105616092,1.2092566203612833
1789316079204093200,9.24909326171875,0.028263971453905103,1.5466601176798342,1.3972307498432694
1789316079214126300,9.259126220703125,0.3023445319622755,1.911198363226652,1.3963304400026797
1789316079224159200,9.2691591796875,0.33528117140233515,1.8037807755589483,1.184596226357296
1789316079234192400,9.2791923828125,0.397999785643816,1.5326865373849867,0.622898966614902
1789316079244226300,9.289226318359376,0.656623833823204,0.9989724593937397,-0.06955401321947574
1789316079254259500,9.299259521484375,1.0593430492043494,0.13766308832764626,-0.5253195399377495
1789316079264292400,9.309292236328124,1.3123510110676289,-0.6682388682931661,-0.8377980740319937
1789316079274326300,9.319326171875,1.412324127948284,-1.3075123388648033,-0.6970555782590061
1789316079284359200,9.329359130859375,1.5389298156887292,-1.580471201866865,-0.030145035960152743
1789316079294392300,9.339392333984375,1.7193886741697788,-1.7717957377552984,0.7967386261519044
1789316079304425200,9.34942529296875,1.8989239880651234,-1.4105536111444235,1.7151254637673496
1789316079314459400,9.35945947265625,2.0604192028790713,-0.8998042291551828,2.4179895091094075
1789316079324492300,9.3694921875,2.1887691039383412,-0.4615080889582634,2.640902630829811
1789316079334525400,9.379525390625,2.4278058235943316,-0.3508089954018593,2.318459313690662
1789316079344558300,9.389558349609375,2.56339444373548,-0.3739432027518749,1.6490610462293027
1789316079354592300,9.39959228515625,2.452941433894634,-0.263905787974596,0.900861336992681
1789316079364625200,9.409625244140624,2.307144723471999,-0.8302426171511411,0.2054625129647553
1789316079374658300,9.419658203125,2.4146441442042588,-1.52029701141119,-0.3068060414157808
1789316079384691200,9.429691162109375,2.5071289511561394,-2.146241629332304,-0.40429873965755103
1789316079394725400,9.439725341796875,2.7939684554725885,-2.805347343099117,-0.23443580173179507
1789316079404758300,9.44975830078125,3.0471050121515986,-3.4144121378898618,-0.10843582479953766
1789316079414791400,9.45979150390625,3.290620338526368,-3.8961926150262354,-0.034263357999175785
1789316079424824300,9.46982421875,3.4592385370880363,-4.384339704585075,-0.03821691793054342
1789316079434858200,9.479858154296876,3.4365561651587484,-4.755498245054483,-0.11938508883714676
1789316079444891100,9.48989111328125,3.43653453784883,-3.5555098768413065,-0.013194704876840114
1789316079454924300,9.49992431640625,3.6152743174523114,-2.7010306440562006,-0.2796362949393689
1789316079464957200,9.509957275390626,3.8824265400022266,-1.9253174894720315,-0.43354529240801926
1789316079474991400,9.519991455078125,3.5541263135284185,-3.1111241875976323,-0.5438870969593524
1789316079485024300,9.530024169921875,2.347982345294952,0.4776666120767593,-0.019587109327688812
1789316079495057400,9.540057373046874,0.4099368916749954,2.5621383061945435,-0.10875818862169981
1789316079505090300,9.55009033203125,-0.7261234865069389,0.7805301994770765,0.2723022987894714
1789316079515124200,9.560124267578125,-2.2845734107017517,1.2054355277031659,0.44161257126852865
1789316079525157000,9.5701572265625,-4.508695567572117,1.7094862888365983,0.0660978814162314
1789316079535190300,9.580190185546876,-6.98746819281578,1.596159769386053,-0.3826693108472973
1789316079545223200,9.59022314453125,-10.001960975176095,2.7894430870026348,0.24639833446517584
1789316079555257300,9.60025732421875,-10.925253047424555,3.6842069839030502,1.5056326723732054
1789316079565290200,9.610290283203126,-10.468774184805154,2.550131057536602,1.6660110119864344
1789316079575323400,9.620323486328125,-11.171867508858442,3.931548590567708,0.9056868574529886
1789316079585356300,9.630356201171875,-9.456265367490053,4.008653457558155,0.764273038289696
1789316079595390200,9.64039013671875,-5.0672225997805596,3.203914699497819,1.3839675097748636
1789316079605423000,9.650423095703125,-1.8897914180606603,3.09956585175097,1.8877200186140835
1789316079615456300,9.660456298828125,0.2128197438597679,1.0054811106353998,1.1347610590863972
1789316079625490400,9.670490478515624,2.134258346071839,-0.7607394573360681,0.6329664063166827
1789316079635523300,9.6805234375,3.93579689566195,-1.5890730259954928,0.20714929700791834
1789316079645556200,9.69055615234375,5.283545967847108,-1.4310714985162019,0.01669204547330737
1789316079655589400,9.70058935546875,5.925983455407619,-1.4409393970578908,0.27087354462798685
1789316079665623600,9.71062353515625,5.797354152885079,-1.6526444576740265,0.5489842009026557
1789316079675656200,9.72065625,5.311904047325253,-1.6539450188785791,0.33735363029483706
1789316079685689000,9.730689208984375,4.523476957118511,-1.7210153985887764,-0.2344944183175452
1789316079695722200,9.74072216796875,3.514611464741826,-1.9997166046351194,-0.5648560890994966
1789316079705756400,9.75075634765625,2.452428223675489,-2.4910499230146406,-0.5215698320154101
1789316079715789300,9.760789306640625,1.6419371856987475,-2.8944454302221536,-0.2812914052026346
1789316079725822200,9.770822265625,0.9242840058952569,-3.135852386140823,0.18048945454871282
1789316079735855400,9.78085546875,0.4600450306683779,-3.111787035420537,0.5505527288610116
1789316079745889500,9.7908896484375,0.05110650238096714,-2.910985646134615,0.5863356611102819
1789316079755922400,9.80092236328125,-0.4486129515498876,-2.9018589213490484,0.4356039785034954
1789316079765955300,9.810955322265626,-0.993386183694005,-2.6369810734719037,0.20883019929956645
1789316079775988200,9.82098828125,-1.647805785471201,-2.0721827059090137,-0.005355864477343857
1789316079786022400,9.8310224609375,-2.1023826138615607,-1.750945841950178,-0.29254334198124704
1789316079796055300,9.84105517578125,-2.238060081329942,-1.482403626346588,-0.41515893717221913
1789316079806088200,9.851088134765625,-2.2465274654239415,-1.2476561283171177,-0.04673157523237168
1789316079816121300,9.861121337890625,-1.8564163872033357,-1.1504109750956297,0.4852323711559176
1789316079826155500,9.871155517578124,-1.4370955811113117,-1.1660849295675755,1.2215789993830024
1789316079836188400,9.8811884765625,-1.3723942686200141,-1.0359534057885407,1.9866876117140053
1789316079846221300,9.89122119140625,-1.3346546128123997,-1.1137380717366934,2.598015090739727
1789316079856254500,9.90125439453125,-1.4625176071375607,-0.9247568841040134,3.0533482904553413
1789316079866288400,9.911288330078126,-1.8053420335263013,-0.4323386930972338,3.190640207383036
1789316079876321300,9.9213212890625,-2.301917928734422,0.24043138888478277,2.997266045488417
1789316079886354200,9.931354248046874,-2.639717804959416,0.6016834523677825,2.501558749808371
1789316079896387300,9.94138720703125,-2.569720724147558,0.7190536942511796,1.9512118091851471
1789316079906421500,9.95142138671875,-2.238945631992817,0.7053431488066911,1.5483374032422899
1789316079916454400,9.961454345703125,-1.8569319355100393,0.9189707019180059,1.1997966450333595
1789316079926487300,9.9714873046875,-1.6185031186193226,1.299832890278101,0.8691698753081262
1789316079936520400,9.9815205078125,-1.435877437493205,1.2173019065856934,0.6022090106118471
1789316079946554400,9.991554443359375,-1.326282505786419,1.1651245601028204,0.4713092789392918
1789316079956587300,10.001587158203124,-1.467259833228588,1.0346481684088706,0.16041019605621695
1789316079966620200,10.0116201171875,-1.7296254060238598,0.8212672835350037,-0.06802497702129184
1789316079976653300,10.0216533203125,-1.9911171185940504,0.4619733683824539,-0.39805370778813953
1789316079986687500,10.0316875,-2.0084189665287733,0.07828677025139331,-0.7257134444013238
1789316079996720400,10.041720458984376,-1.6790402971684932,-0.535478749576211,-1.0592921227347105
1789316080006753300,10.051753173828125,-1.0295376935273408,-0.9315174642801284,-1.2284092837944627
1789316080016786400,10.061786376953124,-0.5209504580080508,-0.7200795301675796,-1.0148196515407413
1789316080026820400,10.0718203125,-0.25992957782000303,-0.8312123389661311,-1.1100799876205623
1789316080036853200,10.081853271484375,0.2534931150317192,-1.1468711105316878,-1.196983414243534
1789316080046886100,10.09188623046875,0.8040940304160118,-1.150740060919523,-1.144351309730485
1789316080056919300,10.101919189453126,1.1479676735967397,-1.0216367111444473,-1.1187624757699668
1789316080066953500,10.111953369140625,1.360318630900979,-0.9194020790725946,-1.0240439914818853
1789316080076986400,10.121986328125,1.4122875953301786,-0.9535784894406795,-1.0434145354494453
1789316080087019300,10.132019287109374,1.4561357971459625,-1.068693061351776,-1.0595978276830167
1789316080097052400,10.142052490234375,1.4418556351199745,-1.1084247677594423,-0.9340137380752712
1789316080107086300,10.15208642578125,1.4745827234625815,-1.0717489417910575,-0.6960615257203578
1789316080117119200,10.162119140625,1.5216028333127498,-1.1365484539598225,-0.33975013350993394
1789316080127152000,10.172152099609375,1.6331871852710842,-1.145087734246254,-0.048219402637332674
1789316080137186300,10.182186279296875,1.822366525824368,-1.0175222615629433,0.16052900013029575
1789316080147219500,10.192219482421875,2.0171949781805276,-0.8065490223526954,0.22842048696503042
1789316080157252400,10.20225244140625,2.4058012047961355,-0.8935247104942798,0.277808494990319
1789316080167285200,10.21228515625,2.9400153412640093,-1.1940303365916014,0.07221124972999096
1789316080177319200,10.222319091796875,3.2819624002963304,-1.5376280854403972,-0.16226064622849226
1789316080187352300,10.232352294921874,3.452458083167672,-1.5517618247330187,-0.35338162236884235
1789316080197385200,10.24238525390625,3.536474921503663,-1.1417121203333138,-0.6344562795482576
1789316080207418000,10.252418212890625,3.5485908912330864,-0.6300052914887666,-0.8509102882571518
1789316080217452300,10.262452392578124,3.2127386419445276,-0.17469196551740168,-0.5740745838217437
1789316080227485400,10.2724853515625,2.268119119507074,0.06546995877623557,-0.033388182599842546
1789316080237518600,10.2825185546875,1.0137123478859662,0.19109832591712475,0.5257943909078836
1789316080247551500,10.292551513671874,-0.4415808609560132,0.220218037417531,1.2834621857136488
1789316080257585400,10.30258544921875,-2.441934886711836,0.327763635379076,1.8470296963073312
1789316080267618300,10.312618408203125,-4.880862992823124,1.1442489453345537,1.7044212605319917
1789316080277651500,10.3226513671875,-6.9616615513861175,3.251397750684619,0.9617598962001502
1789316080287684400,10.332684326171876,-7.908013012182712,5.275947183281183,0.9817648656137287
1789316080297718500,10.342718505859375,-7.850328884977102,6.755327662414312,1.4638454947404562
1789316080307751400,10.35275146484375,-6.6364008387386795,6.632909489491581,2.829422630691528
1789316080317784600,10.36278466796875,-4.47808474073112,5.195699342089891,3.8724353073418136
1789316080327817500,10.3728173828125,-2.5373826351225373,2.853824666020274,2.7019375297680495
1789316080337851600,10.3828515625,-0.7182236731678246,1.4398282209455966,1.4564751121029258
1789316080347884500,10.392884521484374,0.20318916120529174,1.1318670181453228,0.23653934988230466
1789316080357917400,10.40291748046875,0.20787030475884674,0.8383493512392044,-0.1569372592486441
1789316080367950300,10.412950439453125,0.3076081515789032,0.46848786484301086,-0.008578297122567892
1789316080377984500,10.422984619140625,0.6492939293265342,0.24650106418728826,0.1119027702577412
1789316080388017400,10.433017333984376,0.8278940081983804,0.19303484693765638,0.2175838895216584
1789316080398050600,10.443050537109375,0.6360726287037134,-0.06387304497361183,-0.024077479549497363
1789316080408083500,10.45308349609375,0.3975841905802488,-0.4968792620688677,-0.5465031246766447
1789316080418117600,10.46311767578125,0.2601613407492637,-0.9189595960021019,-1.0574206297744064
1789316080428150500,10.473150634765625,0.35469022074937817,-1.3379787887990473,-1.4643877849236129
1789316080438183400,10.483183349609375,0.8029930834367871,-1.8461317245543003,-1.7047668590992688
1789316080448216300,10.49321630859375,1.540291751691699,-2.4482465540766714,-1.5898118616640566
1789316080458250500,10.50325048828125,2.230011799430847,-3.0730992851078507,-1.1254413690119982
1789316080468283400,10.513283447265625,2.7462346443951127,-3.834205822190642,-0.5739982306499034
1789316080478316500,10.523316650390624,3.1272049693048,-4.631784187102317,-0.07080547458529472
1789316080488349400,10.533349365234375,3.1915742733627557,-5.037888953268528,0.5130179114431143
1789316080498383600,10.543383544921875,3.0019278998196124,-4.98613187802434,0.92337843535766
1789316080508416500,10.55341650390625,2.3488450996041297,-4.7757753094077104,1.0922186061069368
1789316080518449700,10.56344970703125,1.5231483091890812,-4.413383428239822,1.211527853228897
1789316080528482600,10.573482666015625,0.7177379354774952,-3.8111680609524248,1.3312629245474934
1789316080538516500,10.5835166015625,-0.22343056972324846,-2.593834005662799,1.355812551653385
1789316080548549400,10.59354931640625,-1.2178402512460946,-1.3147650864720344,1.0891821610204875
1789316080558582500,10.60358251953125,-2.2891040398687124,-0.4963754041999578,0.8054035786446183
1789316080568615400,10.613615478515625,-3.545378358927369,0.6566957300156354,0.7187972352720796
1789316080578649600,10.623649658203124,-4.554574106171727,1.9624135866791008,0.8169032431066036
1789316080588682500,10.6336826171875,-5.398640666013955,2.613673263120651,0.5690383432202041
1789316080598715600,10.643715576171875,-5.7763575420856474,3.4070629441708324,0.4224435412224382
1789316080608748500,10.65374853515625,-5.802949196413159,3.8627772521585224,0.252818960363511
1789316080618782500,10.663782470703126,-5.021985866215825,3.79157605625391,0.1630393755160272
1789316080628815400,10.6738154296875,-3.890926657322049,3.5559628813058137,0.040941484056226905
1789316080638848500,10.6838486328125,-2.6538340085953473,2.993899491664767,-0.1364537856031209
1789316080648881400,10.69388134765625,-1.5092425334334372,2.7082377989560364,-0.22785905368998646
1789316080658915600,10.70391552734375,-0.8749924439817667,2.772119027236104,-0.05651552181765437
1789316080668948500,10.713948486328125,-0.7853004826188087,2.8504519747167825,-0.16976499397661535
1789316080678981600,10.723981689453124,-0.6065116031765937,2.9670681833624837,-0.378031750707142
1789316080689014500,10.7340146484375,-0.6381009196609259,3.1961604321092367,-0.4553069327631965
1789316080699048400,10.74404833984375,-0.5773100586116313,2.6393776132196187,-0.5683889759333804
1789316080709081300,10.754081298828124,-0.41767654601633547,2.004775641590357,-0.7230704556118697
1789316080719114500,10.764114501953125,-0.09454875374436378,1.1625474030911922,-1.062526866872236
1789316080729147400,10.7741474609375,0.3728396254241466,-0.15395429791510104,-1.2975728363916277
1789316080739181600,10.784181640625,0.7911918787449598,-0.8870791876167058,-1.125108264600113
1789316080749214500,10.79421435546875,0.8784493064373731,-1.3653694845497608,-0.9178129832502454
1789316080759247600,10.80424755859375,0.8466197514563798,-1.674247802194953,-0.7827227410852908
1789316080769281300,10.81428125,1.1652759512722493,-2.5491408774554727,-0.6916293884918093
1789316080779314400,10.824314453125,1.6447627645134926,-3.6687025407791136,-0.5149715297289192
1789316080789347300,10.834347412109375,2.0872803217977283,-3.588296294155717,0.2067876606212929
1789316080799380500,10.84438037109375,2.3234739269822833,-2.5707056435316797,1.2234824949167669
1789316080809414400,10.854414306640624,2.69705940233767,-1.9085709373325108,1.931556676122546
1789316080819447600,10.864447509765625,3.596783551993966,-2.316483045181632,1.8484515458039938
1789316080829480400,10.87448046875,4.378844614300132,-2.5350924783587456,1.5282032544910906
1789316080839513600,10.884513671875,4.38226056022346,-1.5783102244406937,1.2880297858901322
1789316080849547300,10.89454736328125,4.32653282778263,-1.3130004148870706,0.902791062946245
1789316080859580400,10.904580322265625,5.235749612927436,-3.006656097385287,-0.07815166349648497
1789316080869613300,10.91461328125,5.9682245142877095,-4.265609864786267,-0.8056018776956945
1789316080879646500,10.924646484375,5.784097780948877,-3.34554026171565,-1.169390766179934
1789316080889680400,10.934680419921875,5.441411886247992,-0.9385948553204536,-1.2295965938828886
1789316080899713500,10.944713623046875,5.077261763235926,0.3015934213340282,-1.0096594922985882
1789316080909746400,10.954746337890626,4.006329398524761,0.20598434488177297,-1.010193160783872
1789316080919779600,10.964779541015625,3.012812866449356,-1.3595879785388707,-1.3391810041956602
1789316080929813500,10.9748134765625,1.836557256001234,-2.6609078925043343,-1.4564057001285253
1789316080939846400,10.984846435546874,-0.28611528169512745,-2.0249322944343087,-1.4831762181542814
1789316080949879300,10.99487939453125,-2.2203666037291288,-1.0768816285043954,-1.304693628182262
1789316080959912400,11.004912353515625,-3.8505449625730512,-0.9434101466476916,-1.2295410643033682
1789316080969946400,11.0149462890625,-5.493167792448401,-1.5216788211584091,-1.0480364230964332
1789316080979979500,11.0249794921875,-7.874357410818338,-1.188835106036067,-0.7962788266204297
1789316080990012400,11.035012451171875,-10.36525535814166,2.8378800779134035,1.83575324614197
1789316081000045600,11.045045654296874,-9.147403416457772,1.932737410339713,2.3911618540689346
1789316081010079500,11.05507958984375,-7.847866878777742,1.9978157394498586,1.2080862614076584
1789316081020112600,11.065112548828125,-6.829546160313487,1.9767548312425611,-0.6025325069451705
1789316081030145300,11.075145263671875,-3.409525534892082,1.2412620433658361,-1.0691143555037677
1789316081040178400,11.085178466796876,-0.4260480685204267,-0.2883236053943634,-1.7214010369054973
1789316081050212400,11.09521240234375,0.7410685421824454,-0.41703240289390087,-1.6254022304832934
1789316081060245500,11.10524560546875,1.5202917507141827,-0.6953104150921106,-1.1951172550454736
1789316081070278400,11.1152783203125,2.2021230910301206,-0.4616255778580904,-0.42287550289891657
1789316081080311600,11.1253115234375,2.3160236109763384,0.2649006442308426,0.630608445013687
1789316081090345500,11.135345458984375,2.0990029082953927,0.768220168480277,1.0401953542072326
1789316081100378600,11.145378662109374,1.8974416405528782,0.9514882391631603,0.8614445417530834
1789316081110411500,11.15541162109375,1.7483844670295714,0.8305401387929916,0.2610394387580454
1789316081120444400,11.1654443359375,1.4217898754298686,0.5318646507322788,-0.37600861084908244
1789316081130478300,11.175478271484375,0.8639631004452705,0.5730296048134566,-0.889310453800112
1789316081140511500,11.185511474609376,0.47928047701418397,0.1937444565117359,-1.5883086174942551
1789316081150544400,11.19554443359375,0.6023585751503706,-0.578093902465701,-2.0669573724761605
1789316081160577500,11.20557763671875,0.8433844227969646,-1.3004133205145596,-2.1821572845831514
1789316081170611500,11.215611572265624,0.5799561892062425,-1.8428017033487558,-1.9198934185966847
1789316081180644600,11.22564453125,0.1808212620526552,-2.3239918133765456,-1.5616792615048587
1789316081190677500,11.235677490234375,0.05426350510716438,-2.6900170826107264,-0.9620775838471949
1789316081200710700,11.245710693359374,-0.05699731398522854,-2.8432465733826158,-0.21602000120580195
1789316081210744300,11.255744384765626,-0.2702273922115564,-3.145785751134157,0.33690015090629455
1789316081220777500,11.265777587890625,-0.4192465718120336,-3.84739555863142,0.5830509403511881
1789316081230810600,11.275810546875,-0.6098246732473374,-4.36847811858654,0.6664844258412719
1789316081240843800,11.28584375,-0.6126683722406625,-4.715056344550848,0.5295667490534484
1789316081250877700,11.295877685546875,-0.5281412462949753,-4.804697452509403,0.3592532908812165
1789316081260910800,11.305910888671875,-0.47132864122688767,-4.807697218847275,0.4837320495955646
1789316081270943700,11.31594384765625,-0.690048549041152,-4.434478823238611,0.8435479427956044
1789316081280977000,11.325976806640625,-0.9333137000471353,-3.600190730088949,1.071721030870825
1789316081291010600,11.336010498046875,-1.2582085019916296,-2.039758107644319,1.50197794925794
1789316081301043700,11.346043701171874,-1.6089783344268798,-0.575684503236413,1.9278329794242977
1789316081311076600,11.35607666015625,-2.026812116831541,0.9858855988055467,1.9594995989285409
1789316081321109800,11.36610986328125,-2.572055889096856,2.6176357370108363,1.5030958473719656
1789316081331143700,11.376143798828124,-3.212688957583904,3.626123043724894,0.8410603637635707
1789316081341176800,11.3861767578125,-3.3081033882468938,3.9923908895432945,0.2860116751901805
1789316081351209700,11.396209716796875,-2.575580556091666,4.142073501488566,-0.2053513076752424
1789316081361243000,11.406242919921874,-1.8826088130801915,4.515055165731907,-0.4779745089821517
1789316081371276500,11.416276611328126,-1.6589111168533563,5.074042801189423,-0.848734551653266
1789316081381309700,11.426309814453125,-1.7600334037691354,6.317393925788998,-0.7735765809468924
1789316081391342600,11.436342529296875,-2.294953350418806,7.88309952020049,0.4053172690503299
1789316081401375700,11.446375732421876,-2.654274738100171,8.856775041252375,1.3553349972695112
1789316081411409700,11.45640966796875,-1.7553280025571583,7.696790182125568,1.3139638530917466
1789316081421442800,11.46644287109375,-0.43600715247690675,5.711140096765757,0.3547922198191285
1789316081431475700,11.476475830078124,0.29528350753486154,4.989325121107697,-0.5309041351370513
1789316081441508900,11.4865087890625,0.2997761427789926,4.129204083043336,-1.5751941382467747
1789316081451542500,11.49654248046875,0.28670915593504903,3.042945554384589,-2.2479262263059616
1789316081461575700,11.50657568359375,0.7685860791832209,2.0824305436789987,-2.1149572871439157
1789316081471608600,11.516608642578126,1.1438842036753891,0.9567635492175817,-1.6076047079861162
1789316081481641700,11.526641845703125,0.9910784912735223,-0.3300865253686905,-1.245117988141626
1789316081491675600,11.536675537109375,0.8453428633883595,-1.685978571999073,-1.1207985116422177
1789316081501708800,11.546708740234376,0.8877402818739414,-2.710159122407436,-1.0731640692859887
1789316081511741700,11.55674169921875,1.102822709968686,-3.7580630782306192,-0.9300264950700103
1789316081521774800,11.56677490234375,1.5519178920775651,-4.587622389292717,-0.9083573918364941
1789316081531808500,11.57680859375,2.152554758001864,-5.527976070979237,-1.106034365491569
1789316081541841700,11.586841552734375,2.7580554305702445,-6.509307075220346,-1.202236001009494
1789316081551874600,11.59687451171875,3.3364638058125973,-7.225977673727273,-1.2384713897339998
1789316081561907700,11.60690771484375,3.9721372060656543,-7.76174517711699,-1.2604327539123594
1789316081571941600,11.616941650390626,4.515010157546401,-8.135907575577496,-1.249372138454765
1789316081581974800,11.626974853515625,4.899270171651244,-8.377149696323276,-1.0899883628368376
1789316081592007700,11.637007568359374,5.139262000074982,-8.241288104459644,-0.7131209432013332
1789316081602040800,11.647040771484376,5.497495007997751,-7.575518256628513,-0.22861630179807543
1789316081612074500,11.657074462890625,5.504391197252273,-6.310622824218869,0.2528719143934548
1789316081622107600,11.667107666015625,4.700790795572102,-4.33740727301836,0.4426018745668232
1789316081632140500,11.677140625,3.5478193223387002,-1.741212383443117,0.7909590929023921
1789316081642173700,11.687173583984375,1.5892024975940584,0.24678806443512438,1.3619881715483964
1789316081652207600,11.69720751953125,-1.2271008315443992,1.5943062504738568,1.7330816839575767
1789316081662240800,11.70724072265625,-3.486884084382653,4.044073145985603,2.466386021879315
1789316081672273700,11.717273681640625,-5.308923570209742,6.509110091343522,3.1005013790354132
1789316081682306800,11.727306884765625,-9.352945278269052,7.83257753970921,3.485683476421237
1789316081692340700,11.7373408203125,-12.272258023244142,8.968207709780335,2.9085674790769813
1789316081702373600,11.74737353515625,-11.155406203401087,8.990081103414296,0.3885789002172649
1789316081712406500,11.757406494140625,-7.659158662867545,6.655825085654854,-0.03455298859551549
1789316081722439700,11.767439697265624,-3.9953935784906145,4.998336110559106,1.0735942773967981
1789316081732473600,11.7774736328125,-2.2358833218127487,4.049454839023947,1.2800024006485937
1789316081742506800,11.7875068359375,-1.3723849162697792,4.3962130977302785,0.8856127683259546
1789316081752539600,11.79753955078125,-1.334238433226943,5.468264237338304,0.8343306171171366
1789316081762572800,11.80757275390625,-1.326058633902669,4.8310839396536345,0.809389725671336
1789316081772606700,11.817606689453125,-0.8695593130171299,3.3266718951165672,0.5478429219130426
1789316081782639600,11.8276396484375,-0.362628028011322,2.138244200837612,0.23023550049774347
1789316081792672500,11.837672607421876,-0.06523907262980938,1.206405249518156,-0.3240513368576765
1789316081802705700,11.84770556640625,0.03813245451748371,-0.010418518161773681,-0.7628509695973247
1789316081812739600,11.857739501953125,0.0382113649725914,-1.2851818491131066,-0.8564002639755606
1789316081822772700,11.867772705078124,0.22233692926764487,-2.096929024630785,-0.8214389137748629
1789316081832805600,11.8778056640625,0.6054278995931148,-2.1936206356227395,-0.7956868520766496
1789316081842838800,11.8878388671875,0.8926736466228962,-2.0368992110818622,-0.6405345034833997
1789316081852872700,11.897872802734375,0.8703378961741923,-1.9995985312134026,-0.306145897006616
1789316081862905900,11.90790576171875,0.7130220128715038,-1.6933616679877042,0.43947161371707916
1789316081872938800,11.917938720703125,0.8296767999619244,-1.7703671662569045,0.855349585878849
1789316081882971600,11.9279716796875,1.1575035637050866,-2.5578303798675535,0.7894196814406663
1789316081893005600,11.938005615234376,1.719754000350833,-3.164236184582114,0.7456097658086568
1789316081903038700,11.948038818359375,2.3104028484851122,-3.6138767256140705,0.4018992773003876
1789316081913071600,11.958071533203125,3.1063135724455115,-3.8439725984454154,-0.24641550479568539
1789316081923104800,11.968104736328126,3.5811949377179144,-3.2275305528849363,-0.5052249925445765
1789316081933138700,11.978138671875,3.337158217817545,-1.6371826846480368,-0.3652122723508626
1789316081943171800,11.988171875,2.576379012992978,-0.4226689474761486,-0.5536157696934416
1789316081953204700,11.998204833984374,2.498682025328278,0.03688917645812034,-0.9910030148845166
1789316081963238000,12.00823779296875,2.956138793069124,-0.17743921839892862,-1.739867983096838
1789316081973271600,12.018271484375,2.7937966060370205,-0.1467056419610977,-2.5152523441180583
1789316081983304700,12.0283046875,2.06400232206285,0.5861176344454289,-2.545022043959796
1789316081993337600,12.038337646484376,1.5855694017887114,0.5696165814995765,-1.9758437077470123
1789316082003370800,12.048370849609375,1.5259107596397399,0.6187853938162327,-0.9134599026072769
1789316082013404700,12.05840478515625,1.6054881542235613,-0.2297340537816286,-0.5066203924257308
1789316082023437800,12.068437744140626,1.990021140050888,-1.2175526664763687,-0.39260903251618146
1789316082033470700,12.078470703125,1.1476479401230812,-0.3148527158796787,-0.18880447935890404
1789316082043503900,12.08850390625,-0.2874205190747976,1.7053975582182406,-0.14682714031576177
1789316082053537500,12.09853759765625,-1.8181401403009891,2.0451491530328987,-0.07592995059271343
1789316082063570700,12.10857080078125,-2.771356226170063,0.12188742704689502,0.2703238748559728
1789316082073603600,12.118603515625,-3.0824247473359105,-0.555946952587366,1.737323851571977
1789316082083636700,12.12863671875,-3.424426751425862,0.12135025143027305,3.174261027251184
1789316082093670700,12.138670654296876,-3.000194207894802,-0.17868512680679557,3.182776634401083
1789316082103703800,12.148703857421875,-2.0947025807529687,-0.15264789149165153,2.1753569569185376
1789316082113736700,12.15873681640625,-1.3918196845799684,0.1678925146356225,0.9316456937696784
1789316082123769900,12.168769775390626,-1.2395435490101576,0.37680005348771806,0.4340545571044087
1789316082133803500,12.178803466796875,-1.0640116255372762,0.39955373708754777,0.4073878282466903
1789316082143836700,12.188836669921875,-0.7027905417144298,-0.06856441766023635,0.6103565881669522
1789316082153869600,12.19886962890625,0.10007540821135044,-0.7207341946840286,0.10202555589843541
1789316082163902700,12.20890283203125,0.7611094596922398,-1.1729483855962752,-0.8291454695641994
1789316082173936600,12.2189365234375,1.1651777515947819,-1.3553303210943937,-1.3617531937487422
1789316082183969800,12.2289697265625,1.301410514858365,-1.238464521601796,-1.222633476871997
1789316082194002700,12.239002685546875,0.995735961690545,-1.3370400466442107,-0.8422894671671092
1789316082204035800,12.249035888671875,0.5159621482014656,-1.4096855961382389,-0.5932576423931867
1789316082214069500,12.259069580078124,0.23292378973364827,-1.350243811610341,-0.5302258705493063
1789316082224102700,12.2691025390625,0.22905483934581278,-1.334866794258356,-0.5775654946774244
1789316082234135600,12.279135498046875,0.4876362174272537,-1.701506395998597,-0.640409488864243
1789316082244168400,12.28916845703125,0.8363502863764762,-2.3643624022096392,-0.8291592788938432
1789316082254202600,12.29920263671875,1.245025779813528,-2.9286960748702286,-0.8344422607980668
1789316082264235500,12.309235595703125,1.1439753890901803,-2.8165216480642554,-0.6958742595199495
1789316082274268700,12.3192685546875,0.803252318894863,-2.5709452975064515,-0.525293017257005
1789316082284301600,12.329301513671876,0.4285924923062324,-2.5579683270335196,-0.2188449954986572
1789316082294335500,12.33933544921875,0.04134966299831867,-2.136689957132935,0.25768252954557536
1789316082304368400,12.349368408203125,0.013234160104393959,-1.441834300071001,0.4263172408506274
1789316082314401500,12.359401611328124,0.22344284468293188,-1.2038134794592856,0.2547333243511617
1789316082324434400,12.369434326171875,0.0023860183537006375,-0.9504021974921226,0.026830723780393598
1789316082334468600,12.379468505859375,-0.576969282349944,-0.6936059492617845,-0.29993352529779077
1789316082344501500,12.38950146484375,-1.2023153498560188,-0.2199041491627693,-0.557514786425978
1789316082354534700,12.39953466796875,-1.7963707915633915,-0.06666881317198275,-0.683171210617572
1789316082364567600,12.409567626953125,-2.400530863177776,0.012881693404912948,-0.553227026104182
1789316082374601700,12.419601806640625,-2.408369886240363,-0.2241080305933952,-0.1927370330348611
1789316082384634400,12.42963427734375,-1.829829993572831,-0.5957061315238475,0.29172742248848077
1789316082394667500,12.43966748046875,-1.1617238117486237,-0.894302124607563,0.6173283268757164
1789316082404700400,12.449700439453125,-0.5684820245116948,-0.9718781162410974,0.7430271289043128
1789316082414734600,12.459734619140624,-0.42504385991394517,-0.6048667585790157,0.9413071830190718
1789316082424767500,12.469767578125,-0.6063222180843353,-0.1636813266813755,0.955604003918916
1789316082434800600,12.479800537109375,-0.7941776165574789,0.45536067224442955,0.829650642607361
1789316082444833500,12.48983349609375,-0.7185889993488788,0.671454323208332,0.7127068094424903
1789316082454867700,12.49986767578125,-0.41893619068861004,0.5043588041692972,0.5159564491130412
1789316082464900600,12.509900634765625,-0.15507833350896835,0.31074644960463044,0.30872064286544915
1789316082474933500,12.51993359375,-0.13251871117651462,0.17645839066803454,0.1480322143897414
1789316082484966400,12.52996630859375,-0.19875731623768805,0.42533670538067814,-0.07675766098797321
1789316082495000600,12.54000048828125,-0.34189503658413883,0.3856540988117456,-0.41454058607816696
1789316082505033500,12.550033447265625,-0.5677051949203014,0.41921559215188026,-0.8364983165450394
1789316082515066600,12.560066650390626,-0.7431628841131925,0.884883723399043,-1.1050351253211497
1789316082525099500,12.570099609375,-0.6691577367037534,1.3026736666619776,-1.3551068876020609
1789316082535133700,12.5801337890625,-0.2675491129130125,1.7643857537597416,-1.2892952757813037
1789316082545166600,12.59016650390625,0.309695479246974,2.102394888821244,-0.8641836113281548
1789316082555199700,12.60019970703125,0.7033043364554643,1.975366007232666,-0.06576894172281027
1789316082565232600,12.610232666015625,0.9845844530791044,1.297175069245696,0.5376351969577372
1789316082575266600,12.6202666015625,0.9684627548396587,0.43308337398469443,0.7574443613134324
1789316082585299500,12.630299560546876,0.5301829812556504,-0.05905190842747688,0.9809517956651747
1789316082595332600,12.64033251953125,0.06813070241808891,-0.3967746277630329,1.3842993720777332
1789316082605365500,12.650365478515624,-0.0231271930873394,-0.5790151089638471,1.6848437227502464
