time,seconds_elapsed,z,y,x
1789316070006094600,0.051094482421875,9.459790034484863,1.107617543029785,2.9385832626342774
1789316070016127500,0.06112744140625,8.807519719696044,1.6279074913024902,3.1413422157287596
1789316070026160600,0.07116064453125,8.48460177078247,2.328510752105713,3.2323218788146972
1789316070036193500,0.081193603515625,8.26777688293457,2.6415526191711423,3.368342460632324
1789316070046227700,0.091227783203125,8.088361396026611,2.7269956909179687,3.2410008598327633
1789316070056260600,0.101260498046875,8.004863613128661,2.729389892578125,2.7199627235412596
1789316070066293800,0.111293701171875,8.328978662872315,2.6755203552246094,2.237082176208496
1789316070076327700,0.12132763671875,8.689156375122069,2.512265729522705,1.846976943206787
1789316070086360600,0.131360595703125,8.850764987182616,2.240074928283691,1.4911387214660643
1789316070096393500,0.1413935546875,8.890718227386474,1.9346645790100097,1.4576198982238768
1789316070106426600,0.151426513671875,8.819191452789306,1.5982792457580566,1.6645687042236328
1789316070116460800,0.161460693359375,8.922591036987304,1.3383587280273437,1.7841291496276854
1789316070126493700,0.17149365234375,9.170690184020996,1.2394482719421387,2.311751340484619
1789316070136526600,0.181526611328125,9.54433528060913,1.2695254302978516,3.155108875274658
1789316070146560800,0.191560791015625,10.004770187377929,1.374571028137207,3.7939118057250973
1789316070156594000,0.201593994140625,9.78734674911499,1.4312836799621582,4.166509439086914
1789316070166626800,0.211626708984375,9.331101695251464,1.5031097297668456,4.5322237426757805
1789316070176659700,0.22165966796875,8.820089278411865,1.8418892646789549,4.799925415802002
1789316070186693600,0.231693603515625,8.329876488494872,2.173186919403076,4.959289463806152
1789316070196726800,0.241726806640625,8.161683821868897,2.390909632873535,5.0848354133605955
1789316070206759700,0.251759765625,8.015936795806883,2.5477298416137693,5.0939633071899415
1789316070216793600,0.261793701171875,7.75062932434082,2.661454420471191,4.999242704010009
1789316070226826500,0.271826416015625,7.5260232810974115,2.883815899658203,4.878934070587158
1789316070236859400,0.281859375,7.603834835052489,3.078494422149658,4.847809449005126
1789316070246892500,0.291892578125,7.860762600708007,3.0172926422119137,4.668693237304687
1789316070256926500,0.301926513671875,8.053046921539305,2.8214170188903807,4.4099698204040525
1789316070266959400,0.31195947265625,8.199991048431396,2.6906337532043456,4.227112668609619
1789316070276992300,0.3219921875,8.5432597114563,2.9505542709350583,4.056525800323486
1789316070287026400,0.3320263671875,8.741679174041748,3.436876483154297,3.953126216125488
1789316070297059600,0.3420595703125,8.637082489013672,3.7310640121459957,3.953275853729248
1789316070307092500,0.352092529296875,8.593687583923339,4.070292459869385,4.111143525695801
1789316070317125400,0.36212548828125,8.2483239944458,4.358494484710693,4.452167624664306
1789316070327159300,0.3721591796875,8.017283534240722,4.718522559356689,4.669441425323486
1789316070337192400,0.3821923828125,7.9204680046081535,5.1158103973388664,4.930559043884277
1789316070347225300,0.392225341796875,8.24248812789917,5.3868040977478024,5.384559533691406
1789316070357259500,0.402259521484375,8.972121083831787,5.397877280426025,5.79052635269165
1789316070367292400,0.41229248046875,9.85752678527832,5.131073432922363,5.926098021697998
1789316070377325600,0.42232568359375,10.570400329589843,4.8217725059509275,5.740846668243408
1789316070387358500,0.4323583984375,10.90513964920044,4.568735317993164,5.530156922149658
1789316070397392400,0.442392333984375,10.502913770294189,4.512621216583252,5.4044613349914545
1789316070407425300,0.45242529296875,9.030629386901856,4.717325458526611,5.134964010620117
1789316070417458400,0.46245849609375,7.609221788787841,5.125836116790771,4.6918870658874505
1789316070427492400,0.472492431640625,6.556072333526611,5.335179124450684,4.2226235404968255
1789316070437525500,0.482525390625,5.580135881805419,5.3944356155395505,3.952527665710449
1789316070447558400,0.492558349609375,4.850802201080322,5.56068299331665,3.864241479492187
1789316070457591600,0.502591552734375,4.71762473373413,5.846191541290283,3.6852749053955076
1789316070467625500,0.51262548828125,5.086930339813232,6.241085177612304,3.295768222808838
1789316070477658600,0.52265869140625,5.7885810638427735,6.459107166290283,2.6159645889282226
1789316070487691500,0.53269140625,6.8964978820800775,6.14786095046997,1.6307506057739256
1789316070497725400,0.542725341796875,7.771728226470946,5.406406623840332,0.685040950012207
1789316070507758300,0.55275830078125,8.660725230407714,4.834790977478027,-0.05581482620239257
1789316070517791500,0.56279150390625,9.240870220184325,4.677671493530273,-0.3939958106994629
1789316070527824400,0.572824462890625,9.108291303253173,4.893149642944335,-0.4400841926574707
1789316070537858600,0.582858642578125,9.236381092071532,5.29896682434082,-0.2763806541442871
1789316070547891500,0.592891357421875,9.82505542526245,5.433640667724609,-0.011222820281982421
1789316070557924600,0.602924560546875,10.409390267944335,5.422417847442627,0.16998831787109375
1789316070567958300,0.612958251953125,10.59179850692749,5.4692544174194335,0.1466448516845703
1789316070577991400,0.622991455078125,10.613196684265136,5.593303990936279,0.19632453613281248
1789316070588024300,0.6330244140625,10.47747537765503,5.962160684204101,0.6730699417114258
1789316070598057500,0.643057373046875,10.2655885307312,6.376207933807373,1.1086650062561034
1789316070608091400,0.65309130859375,9.951648838043212,6.3347583175659175,1.0857704528808594
1789316070618124500,0.66312451171875,9.78106196975708,6.019621524047851,0.8227075454711914
1789316070628157400,0.673157470703125,9.677213472747802,5.635052882385254,0.7118260810852051
1789316070638191400,0.68319140625,9.451111053466796,5.168033921051025,0.5201403106689453
1789316070648224300,0.693224365234375,8.932766394042968,4.758775074768066,0.2102408332824707
1789316070658257400,0.70325732421875,8.176348307037353,4.798578677368163,0.06479308242797852
1789316070668290300,0.713290283203125,7.6484268409729,5.355679476165771,0.3446154014587402
1789316070678324500,0.723324462890625,7.824849575805664,5.684134016418457,0.7722796730041503
1789316070688357400,0.733357421875,8.703521585083008,5.478831224060058,1.1902175003051758
1789316070698390500,0.743390625,9.284265125274658,4.977395613861083,1.7196353424072264
1789316070708424400,0.753424560546875,9.562441430664062,4.585345092010498,2.365920153045654
1789316070718457300,0.763457275390625,9.60149684524536,4.432116185760497,2.7391163368225095
1789316070728490200,0.773490234375,9.696217448425292,4.346224201202392,2.8375778800964353
1789316070738523400,0.7835234375,9.772382988739013,4.17533805770874,3.1274259185791013
1789316070748557300,0.793557373046875,9.599252281188964,3.9918823554992673,3.515585862731933
1789316070758590500,0.803590576171875,9.11652137145996,3.86888024520874,3.5984850952148437
1789316070768623400,0.813623291015625,8.47218184967041,3.9641993988037107,3.750067987823486
1789316070778657500,0.823657470703125,7.884106066894531,4.216937311553955,4.007145391082763
1789316070788690400,0.8336904296875,7.36112264175415,4.435557850646973,4.0541315986633295
1789316070798723600,0.8437236328125,6.815843213653564,4.62903927230835,4.170400016784668
1789316070808756200,0.853756103515625,6.329371363830566,4.787206219482422,4.368520204162597
1789316070818790400,0.863790283203125,5.995529869842529,4.855440966796874,4.483741159057617
1789316070828823300,0.8738232421875,5.668272430419922,4.842272857666015,4.524592224884033
1789316070838856400,0.8838564453125,5.386654460144043,4.827309097290039,4.630535648345947
1789316070848889300,0.893889404296875,5.194519776916503,4.837484454345703,4.846462710571289
1789316070858923500,0.903923583984375,5.150227046203613,4.8618753837585444,5.214271940612793
1789316070868956400,0.913956298828125,5.472247169494628,4.94806664352417,5.547365246582031
1789316070878989600,0.923989501953125,5.86055675125122,5.041590145874023,5.864596966552734
1789316070889023500,0.9340234375,5.988197627258301,4.976497788238525,5.9771244445800775
1789316070899056400,0.944056396484375,5.917269403076172,4.745307690429687,5.649418092346191
1789316070909089300,0.95408935546875,5.866093342590331,4.478054930114745,5.221454545593262
1789316070919122400,0.964122314453125,6.018873336029053,4.267065908813477,4.854094228363037
1789316070929156600,0.974156494140625,6.226719967651367,4.133589166259766,4.604498705291748
1789316070939189500,0.984189453125,6.466589046478271,4.0638580429077145,4.474762902832031
1789316070949222400,0.994222412109375,6.731896517944335,4.007145391082763,4.4087727195739745
1789316070959256300,1.00425634765625,6.836792478179931,3.826083890533447,4.323329647827149
1789316070969289500,1.01428955078125,6.688202337646484,3.817105634307861,4.352060067749023
1789316070979322400,1.024322265625,6.433818411254882,3.984999025726318,4.383783239746093
1789316070989355300,1.034355224609375,6.244077929687499,3.948487450408935,4.337694857788086
1789316070999389400,1.044389404296875,6.199934836578369,3.847930980682373,4.438849877929687
1789316071009422600,1.054422607421875,6.155642105865478,3.8513726455688473,4.558111048126221
1789316071019455500,1.06445556640625,5.994482406616211,3.8813001663208007,4.46294153213501
1789316071029489400,1.074489501953125,5.780949546051025,3.923049057769775,4.218882600402832
1789316071039522300,1.084522216796875,5.532251848602295,3.969137439727783,3.9266403602600097
1789316071049555500,1.094555419921875,5.362263530731201,4.0255508163452145,3.653102820587158
1789316071059588400,1.10458837890625,5.353584549713134,4.084657669830322,3.4680011047363277
1789316071069622500,1.11462255859375,5.493794984436035,4.240131140136718,3.5371336776733395
1789316071079655400,1.124655517578125,6.271760886383056,4.6258968826293945,4.065354418945312
1789316071089688600,1.1346884765625,7.358429164886474,4.862174658966064,4.720467848205566
1789316071099722500,1.144722412109375,8.181286347961425,4.917390934753418,4.969614458465576
1789316071109755400,1.15475537109375,8.303989183044433,5.0094180610656736,4.515464331054687
1789316071119788300,1.164788330078125,8.009801654052733,5.24105707168579,3.69664736328125
1789316071129821400,1.174821533203125,7.542333779907226,5.538686265563965,2.991704611968994
1789316071139855400,1.18485546875,7.122301026153564,5.8728270347595215,2.5821464904785154
1789316071149888500,1.194888427734375,7.346158881378173,6.255450387573242,2.414103461456299
1789316071159921400,1.20492138671875,8.263287754821777,6.504896273040771,2.448969023132324
1789316071169955600,1.21495556640625,9.337536112213135,6.359448522186279,2.7373206855773926
1789316071179988500,1.224988525390625,10.64357311782837,6.247369956970214,3.456479009246826
1789316071190021600,1.235021728515625,11.989114450836182,6.5391632843017575,4.738873273468017
1789316071200054500,1.245054443359375,12.354379841613769,6.967575743865966,5.693411547851563
1789316071210088400,1.25508837890625,11.890203994750976,6.915202582550048,5.748627823638916
1789316071220121900,1.265121826171875,11.41510460281372,6.5385647338867185,5.2265422241210935
1789316071230154800,1.27515478515625,11.126603302764892,6.1170356040954585,4.4819455078125
1789316071240188000,1.28518798828125,10.761337911987304,5.66303511428833,3.7562031295776364
1789316071250221800,1.295221923828125,10.537031143951415,5.080495922851562,3.1566052513122558
1789316071260255000,1.3052548828125,10.656741226959229,4.298789080810547,2.7322330070495604
1789316071270288000,1.315287841796875,10.805630642700194,3.456479009246826,2.5125650047302246
1789316071280321800,1.32532177734375,10.651653548431396,2.8923452430725094,2.5348610076904294
1789316071290354700,1.335354736328125,10.465354731750487,2.551919694519043,2.6499323249816893
1789316071300387800,1.345387939453125,10.420313813018797,2.1000141311645506,2.7091888160705566
1789316071310420700,1.355420654296875,10.577283659362791,1.7036241188049315,2.643797183227539
1789316071320455000,1.365454833984375,10.765378127288818,1.5758336051940918,2.55386498336792
1789316071330487800,1.37548779296875,10.868478436279297,1.6416741508483885,2.533813544464111
1789316071340521000,1.38552099609375,10.454131911468505,1.6798317398071287,2.461089669036865
1789316071350554600,1.3955546875,9.689483756256102,1.713649838256836,2.314744092559814
1789316071360587800,1.405587890625,8.98888049545288,1.8692729461669921,2.1785738731384274
1789316071370620700,1.41562060546875,8.399009061431885,2.207154655456543,2.116324629974365
1789316071380653800,1.42565380859375,8.01234549331665,2.5445874519348144,2.3027730842590333
1789316071390687700,1.435687744140625,8.071901259613037,2.573467509460449,2.6795605705261227
1789316071400721000,1.445720947265625,8.616133224487305,2.4582465545654295,2.9939491760253905
1789316071410753800,1.45575390625,9.255983618164063,2.372953120422363,3.1000422370910643
1789316071420787000,1.465786865234375,9.46846901550293,2.2691046234130856,3.0123546012878415
1789316071430820600,1.475820556640625,9.129539842987061,2.1613655487060544,2.825606871795654
1789316071440853800,1.485853759765625,8.712499841308594,2.251148110961914,2.8389246185302732
1789316071450886700,1.49588671875,8.12173058166504,2.611924373626709,3.0123546012878415
1789316071460920800,1.5059208984375,7.5719620254516595,2.9435213035583496,3.0725089179992673
1789316071470953700,1.51595361328125,7.3478048950195305,3.247734552001953,3.1176994743347164
1789316071480987000,1.52598681640625,7.312640058135986,3.6406828994750975,3.0187890182495116
1789316071491019800,1.536019775390625,7.564330507659911,4.0429087783813475,2.7856536315917966
1789316071501053700,1.5460537109375,7.71232209777832,4.164713787841797,2.5483283920288082
1789316071511086600,1.556086669921875,7.679102549743652,4.043956241607666,2.427271570587158
1789316071521119700,1.56611962890625,7.598896794128417,3.9345711532592773,2.3075614875793455
1789316071531154000,1.57615380859375,7.440131296539306,3.816357446289062,2.1582231590270995
1789316071541186800,1.586186767578125,7.329549107360839,3.7618893585205075,2.1842601020812986
1789316071551219700,1.5962197265625,7.24620096206665,3.923797245788574,2.208351756286621
1789316071561252900,1.6062529296875,7.325957804870605,4.270507573699951,2.0970213790893553
1789316071571287000,1.616287109375,7.351545835113525,4.612728773498535,1.9716250671386717
1789316071581320000,1.62631982421875,6.84352617034912,4.683208084869385,1.880795041656494
1789316071591352600,1.6363525390625,6.33311230392456,4.587739293670654,1.8400936134338377
1789316071601386800,1.64638671875,6.253505098724365,4.652532376098632,1.661276676940918
1789316071611420000,1.656419921875,6.415113710784912,4.758625437164306,1.4012065216064453
1789316071621452800,1.666452880859375,6.972813059997558,4.838083004760742,1.2696750679016113
1789316071631485700,1.676485595703125,7.52078596496582,4.887463414001465,1.299901863861084
1789316071641519900,1.686519775390625,7.727884408569335,4.958092362976074,1.3853449356079102
1789316071651553000,1.696552978515625,7.357082426452636,5.31153638305664,1.5887024391174316
1789316071661586000,1.7065859375,6.827365309143066,5.814468369293213,1.631199518585205
1789316071671618800,1.716618896484375,6.442048479461669,6.227917068481445,1.7292121490478514
1789316071681652700,1.72665283203125,6.661267568969726,6.412569871520995,1.9843442634582518
1789316071691686000,1.736685791015625,7.649623941802978,6.3621419990539545,2.0588637901306153
1789316071701718800,1.74671875,9.018359103393554,6.101922206115722,2.028487356567383
1789316071711753000,1.7567529296875,9.860968450164794,5.626673176574707,1.868075845336914
1789316071721785900,1.766785888671875,10.172065028381347,5.1051861274719235,1.5523405014038085
1789316071731819000,1.776819091796875,10.216657034301758,4.811447511291504,1.3009493270874022
1789316071741852000,1.786851806640625,9.873837284088134,5.078251358795166,1.6045640251159667
1789316071751885800,1.7968857421875,9.423877009582519,5.667374604797363,1.6935983993530273
1789316071761918700,1.806918701171875,9.149441644287108,6.284480082702636,1.7586907569885253
1789316071771951900,1.816951904296875,8.873060990142822,6.590937895202637,2.043600754547119
1789316071781985800,1.82698583984375,8.779088574981689,6.608595132446289,2.4060230308532713
1789316071792019000,1.83701904296875,8.876502655029297,6.489184324645996,2.405125205230713
1789316071802051800,1.8470517578125,8.88682764968872,6.007800153350829,2.133832229614258
1789316071812085000,1.8570849609375,9.005939182281494,5.37573091506958,1.7741034301757812
1789316071822118700,1.86711865234375,9.351302771759032,4.721216036224365,1.1953051788330078
1789316071832151800,1.87715185546875,9.541192890930175,4.065354418945312,0.8680477394104004
1789316071842184700,1.887184814453125,9.277082520294188,3.9420530334472654,0.7911340110778808
1789316071852217900,1.8972177734375,8.869768962860107,4.185513414764404,0.936581761932373
1789316071862251800,1.907251708984375,8.313865264892577,4.291756113433838,1.064970825958252
1789316071872285000,1.917284912109375,7.71875651473999,4.3926118583679195,1.1212345649719238
1789316071882317800,1.92731787109375,7.136666236114501,4.567089304351806,1.0673650276184081
1789316071892351700,1.937351806640625,6.701220809173583,4.664802659606933,0.8493430389404296
1789316071902384600,1.947384521484375,6.449530359649658,4.579808500671386,0.6091746849060058
1789316071912417800,1.957417724609375,6.32084202041626,4.58399835357666,0.4321533996582031
1789316071922450700,1.96745068359375,6.476165853118896,4.7387236358642575,0.5756558616638183
1789316071932484900,1.97748486328125,7.0850412628173824,4.778227963256835,0.9320926338195801
1789316071942517800,1.987517822265625,7.6930188468933105,4.6264954330444334,1.1465233200073242
1789316071952551000,1.997551025390625,8.093299436950684,4.460397692871093,1.3459902458190918
1789316071962583800,2.007583740234375,8.263736667633056,4.420743727874756,1.4954782119750976
1789316071972618000,2.017617919921875,8.086266469573975,4.544194750976562,1.8344073844909667
1789316071982651000,2.02765087890625,7.791929302978515,4.787505494689941,2.4353520011901852
1789316071992683800,2.037683837890625,7.5978493309021,5.038747031402588,3.118746937561035
1789316072002717700,2.0477177734375,7.16360100479126,5.400870032501221,3.6361937713623043
1789316072012750800,2.057750732421875,6.4652423080444335,5.7906759902954095,3.960159183502197
1789316072022783700,2.06778369140625,6.155193193054199,5.786336499786376,3.847182792663574
1789316072032817000,2.07781689453125,6.597970862579345,5.441421823120117,3.6899136711120604
1789316072042850800,2.087850830078125,7.672219219970703,5.161000953674316,3.179948717498779
1789316072052884000,2.097884033203125,8.454973525238037,4.58399835357666,2.3591864608764648
1789316072062916900,2.107916748046875,8.632443723297119,4.197334785461425,1.7350480155944823
1789316072072950800,2.11795068359375,8.70771143798828,4.059518552398681,1.216852993774414
1789316072082983700,2.127983642578125,8.763226988983154,4.057872538757324,0.8882488159179687
1789316072093016800,2.138016845703125,8.839991079711913,4.274847064208984,1.05973350982666
1789316072103049700,2.1480498046875,8.929624004364014,4.835688803100585,1.6672621810913084
1789316072113084000,2.158083984375,8.850615349578858,5.273977344512939,1.9910779556274414
1789316072123116800,2.16811669921875,8.725667950439453,5.314379497528076,2.055122850036621
1789316072133150000,2.17814990234375,8.602665840148925,5.313332034301758,2.0828058067321775
1789316072143183600,2.18818359375,8.8865283744812,5.069722015380859,2.2049100914001465
1789316072153216800,2.198216796875,9.367014720153808,4.930409406280518,2.211943058776855
1789316072163249700,2.208249755859375,9.445275186920165,4.886715225982666,2.255188326263428
1789316072173282800,2.21828271484375,9.126547090911865,4.846313072967529,2.371007831573486
1789316072183316700,2.228316650390625,8.611943371582031,4.9726072105407715,2.488622988128662
1789316072193350000,2.238349853515625,8.201637062072754,5.063137960815429,2.6939257804870604
1789316072203382800,2.2483828125,7.907299895477294,4.993556475067138,2.962974192047119
1789316072213416000,2.258416015625,8.215403721618651,4.926518828582763,3.5066076065063476
1789316072223449000,2.268448974609375,8.768015392303466,5.0662803504943845,3.806930277252197
1789316072233482000,2.27848193359375,9.201814805603027,5.053261878967285,3.9749733062744137
1789316072243515100,2.28851513671875,9.362974504852295,5.268141477966308,3.911526962280273
1789316072253548800,2.298548828125,8.7846251663208,4.990264447784424,3.639785073852539
1789316072263582000,2.30858203125,8.201337786865233,4.618564640045165,2.879775684356689
1789316072273614800,2.31861474609375,8.163180197906494,3.9419033958435055,2.2514473861694335
1789316072283648000,2.32864794921875,8.687510361480712,3.6707600578308104,1.9632453613281249
1789316072293682000,2.338681884765625,8.445995269012451,4.122515983581542,2.1691467041015624
1789316072303715000,2.348715087890625,7.7781626434326165,4.641608831024169,2.5082255142211913
1789316072313748000,2.358748046875,7.266850951385497,4.97978981552124,2.3850737663269044
1789316072323781000,2.368781005859375,6.253954011535644,4.96078583984375,2.7166706962585447
1789316072333814800,2.378814697265625,6.374262644958495,5.306598342132568,3.5235166557312008
1789316072343848000,2.388847900390625,6.787860981750488,5.491400782775878,3.916165727996826
1789316072353880800,2.398880859375,6.692392190551757,5.212625926971436,3.7831378982543944
1789316072363915000,2.4089150390625,6.707954501342773,4.8786347953796385,3.5966894439697263
1789316072373948000,2.418947998046875,7.838167322540283,4.9157449211120605,4.346224201202392
1789316072383981000,2.42898095703125,9.711031571197509,5.0769046203613275,5.335328762054443
1789316072394014000,2.439013916015625,10.207678778076172,4.918139122772216,5.3208139144897455
1789316072404048000,2.4490478515625,8.8489693359375,4.6267947082519525,4.343231449127197
1789316072414080800,2.459080810546875,7.523479441833496,4.265719170379638,3.7377977043151853
1789316072424114000,2.469114013671875,7.171382160186767,4.163516687011718,3.9351697036743163
1789316072434146800,2.479146728515625,7.82110863571167,4.054580511474609,4.518008170318604
1789316072444181000,2.489180908203125,8.531438340759276,3.075352032470703,5.767332524108887
1789316072454214000,2.4992138671875,6.944980465698242,0.6872855140686035,8.63783067703247
1789316072464247000,2.5092470703125,4.058171813964844,3.9778164207458495,3.725976333618164
1789316072474281000,2.519281005859375,6.200533386993408,8.462156130218505,-2.0337246726989746
1789316072484313900,2.52931396484375,7.294533908081054,7.5899185379028316,-0.5476736297607422
1789316072494346800,2.5393466796875,6.303932971191406,4.952106858825683,4.112490264129638
1789316072504380000,2.5493798828125,6.708702689361572,4.789450783538818,6.047454118347168
1789316072514413800,2.559413818359375,7.296329559326171,5.669918444061279,4.985027131652831
1789316072524447000,2.569447021484375,7.57794752960205,6.374711557769775,3.521571366882324
1789316072534480000,2.57947998046875,7.286154202270508,6.185120713806152,2.8465561363220213
1789316072544514000,2.58951416015625,7.229291912841797,5.729923123168945,2.8890532157897946
1789316072554547000,2.599546875,7.982717247772216,5.50950693283081,3.1962592163085937
1789316072564579800,2.609579833984375,9.111732968139648,5.608417388916015,2.9707553474426267
1789316072574612700,2.61961279296875,9.39769042892456,5.77795679397583,2.308608950805664
1789316072584647000,2.62964697265625,9.072378278350829,5.855020159912109,1.8382979621887205
1789316072594679800,2.6396796875,8.700528833007812,5.782745197296142,1.59603468170166
1789316072604713000,2.649712890625,8.27974789123535,5.872228484344482,1.4796166259765624
1789316072614745900,2.659745849609375,7.792976766204833,6.064063892364501,1.429338391113281
1789316072624780000,2.669780029296875,7.291690793609619,6.366481489562988,1.7661726371765136
1789316072634813000,2.67981298828125,7.365013219451904,6.382343075561523,2.6186580657958984
1789316072644846000,2.68984619140625,7.810484365844726,6.070348671722412,2.902370962524414
1789316072654880000,2.6998798828125,8.186822939300537,5.776161142730713,2.693027954864502
1789316072664913000,2.709912841796875,8.538770583343505,5.4129906784057615,2.580500476837158
1789316072674945800,2.71994580078125,8.790012120056153,5.0209401565551754,2.684498611450195
1789316072684979000,2.72997900390625,9.210942699432373,4.6909892402648925,2.8426655586242675
1789316072695013000,2.74001318359375,9.72285294189453,4.349665866088867,2.826355059814453
1789316072705046000,2.7500458984375,9.89598364944458,4.188506166839599,2.540247961425781
1789316072715079000,2.760078857421875,9.709984107971191,4.237886576080322,2.0890905860900877
1789316072725112000,2.770112060546875,9.41654476699829,4.293252489471436,1.7450737350463865
1789316072735146000,2.78014599609375,9.24461116027832,4.1849148643493645,1.6762404373168944
1789316072745179000,2.790178955078125,9.188197783660888,3.8334161331176757,1.77485161819458
1789316072755211800,2.800211669921875,9.164405404663086,3.7172973526000974,1.863586717224121
1789316072765246000,2.810245849609375,8.958504061889649,3.794809631347656,1.7727566917419433
1789316072775279000,2.820279052734375,8.755595471191405,3.7701194267272946,1.5719430274963377
1789316072785312000,2.83031201171875,8.696488617706299,3.5966894439697263,1.3845967475891112
1789316072795345000,2.840344970703125,8.860491431427002,3.3444004440307613,1.2328642173767088
1789316072805378800,2.85037890625,9.059060531616211,3.182043643951416,0.9308955329895019
1789316072815412000,2.860411865234375,9.159467363739013,3.1865327720642087,0.7710825721740722
1789316072825444900,2.87044482421875,9.223212982940673,3.2523733177185057,0.8515876029968261
1789316072835479000,2.88047900390625,9.258527457427977,3.368492098236084,1.126920793914795
1789316072845512000,2.890511962890625,9.21872385482788,3.6137481307983395,1.6466121917724608
1789316072855545000,2.900545166015625,9.217975666809082,3.9100305862426756,2.1185691940307616
1789316072865578000,2.910577880859375,9.200916979980468,4.121468520355224,2.504484574127197
1789316072875612000,2.92061181640625,9.11038622970581,4.122665621185303,2.6714801399230956
1789316072885644800,2.930644775390625,9.16246011581421,4.063558767700195,2.703652224731445
1789316072895678000,2.940677978515625,9.270498465728759,4.0249522659301755,2.640654793548584
1789316072905710800,2.9507109375,9.051129738616943,3.9261914474487303,2.4884733505249024
1789316072915745000,2.9607451171875,8.666261821746826,3.724629595184326,2.1525369300842283
1789316072925778000,2.97077783203125,8.518270231628417,3.47952320022583,1.7274164978027342
1789316072935811000,2.98081103515625,8.665513633728027,3.4479496658325193,1.358559804534912
1789316072945845000,2.990844970703125,9.114276807403565,3.6918589599609373,1.3808558074951172
1789316072955878100,3.000878173828125,9.536404487609863,3.6127006675720215,1.924938134765625
1789316072965910800,3.010910888671875,9.477297634124755,3.1835400199890134,2.0724808120727536
1789316072975944000,3.02094384765625,8.877699755859375,3.3258453811645508,1.3672387855529784
1789316072985977900,3.030977783203125,8.667907835388183,3.582773146820068,0.7211036125183105
1789316072996011000,3.041010986328125,8.683769421386717,3.3993174446105954,0.6374561920166015
1789316073006044000,3.0510439453125,8.548048114776611,3.303100465393066,0.9361328491210937
1789316073016077000,3.0610771484375,8.468141634368896,3.402010921478271,1.5031097297668456
1789316073026111000,3.071111083984375,8.407538404846191,3.232920429229736,2.447622284698486
1789316073036144000,3.08114404296875,8.597877436828613,2.958634701538086,2.634818927001953
1789316073046177000,3.091177001953125,8.648454946899413,2.418293314361572,2.57286895904541
1789316073056211000,3.1012109375,8.62511148071289,2.4781483558654784,3.1606454666137695
1789316073066243800,3.111243896484375,9.411906001281737,3.5474586723327635,1.9641431869506836
1789316073076277000,3.121277099609375,9.082254360198974,4.1554362564086915,0.7115268058776855
1789316073086310000,3.131309814453125,8.1464207862854,4.768351881408691,0.29448680419921874
1789316073096344000,3.141343994140625,7.370998723602295,4.904372463226318,0.3366846084594726
1789316073106377000,3.151376953125,6.0808233039855955,5.1419969779968255,0.4691138877868652
1789316073116410000,3.16141015625,4.92232897567749,5.258265396118164,0.865054987335205
1789316073126443000,3.171443115234375,5.54197829284668,4.971110834503174,1.2355576942443847
1789316073136477000,3.181476806640625,7.857620211029052,4.854992053985596,2.30456873550415
1789316073146509800,3.191509765625,11.080814196014403,4.314800304412842,3.719541916656494
1789316073156543000,3.20154296875,14.364312135314941,3.0617350105285643,3.735403502655029
1789316073166577000,3.211576904296875,13.363835116577148,2.6089316215515135,1.1095628318786621
1789316073176610000,3.221610107421875,11.148600030517578,3.2980127868652342,-0.42706572113037106
1789316073186643000,3.231642822265625,10.630704283905029,3.501968840789795,-0.512658430480957
1789316073196676000,3.241676025390625,9.05217720184326,4.365228176879882,-0.27623101654052734
1789316073206709800,3.251709716796875,7.442824773406982,5.314978047943115,1.0631751747131346
1789316073216743400,3.261743408203125,7.081749235534668,5.853523783874511,1.8945617012023925
1789316073226776300,3.2717763671875,7.964162184906005,6.153696817016601,2.4699182876586914
1789316073236809500,3.2818095703125,8.867973311614989,6.128408061981201,3.8908769729614257
1789316073246843400,3.291843505859375,8.666710734558105,6.687603787231445,4.349216953277588
1789316073256876500,3.30187646484375,7.115118421173095,6.852953339385986,3.812167593383789
1789316073266909400,3.311909423828125,6.027851592254638,6.015581308746338,2.7404630752563475
1789316073276943400,3.321943359375,6.137535955810547,5.374234539031982,1.9710265167236327
1789316073286976300,3.331976318359375,6.150704064941406,5.12643466720581,2.399139701080322
1789316073297009400,3.342009521484375,6.312761589813232,4.460846605682373,5.021089794158935
1789316073307042300,3.352042236328125,7.505822204589843,3.831171569061279,7.075763731384277
1789316073317076500,3.362076416015625,7.249193714141845,2.114678616333008,5.392939239501953
1789316073327109400,3.372109375,1.304390991973877,1.1707646118164061,3.0576947952270506
1789316073337142500,3.382142578125,-1.5263035583496092,3.4024598342895507,4.790498246765137
1789316073347175400,3.392175537109375,-1.9208979194641111,4.73094248046875,5.466411302947998
1789316073357209300,3.402209228515625,-0.867598826599121,4.987870246124268,5.881954928588867
1789316073367242200,3.4122421875,2.985419832611084,5.883600942230224,7.258471245574951
1789316073377275400,3.422275390625,8.838195428466797,6.491578526306152,7.695562686157226
1789316073387308300,3.432308349609375,9.32736075515747,4.966172793579101,6.389675318145752
1789316073397342500,3.442342529296875,5.298667549133301,2.89204596786499,4.463390444946289
1789316073407375400,3.452375244140625,5.422268209838867,3.3016040893554686,1.9219453826904296
1789316073417408500,3.462408447265625,5.161898779296875,3.948038537597656,1.7539023536682128
1789316073427442400,3.4724423828125,4.910806880187988,3.8328175827026363,2.756175023651123
1789316073437475300,3.482475341796875,4.325574211883545,3.3056443046569823,3.723881407165527
1789316073447508200,3.49250830078125,2.2780828796386716,1.947832688140869,5.712265885925293
1789316073457541400,3.502541259765625,-0.3895066825866699,0.5722141967773438,9.608230537414551
1789316073467575600,3.512575439453125,1.812560294342041,4.2706572113037105,4.82057540512085
1789316073477608400,3.5226083984375,13.57272921142578,11.247211211395262,-3.027467999267578
1789316073487641300,3.532641357421875,12.21252339324951,8.034491858673094,4.624250868988037
1789316073497674500,3.542674560546875,12.547861263275145,3.5488054107666014,6.887220350646972
1789316073507708700,3.552708740234375,13.053636363983154,1.0149918663024902,5.1219455390930175
1789316073517741600,3.562741455078125,12.119448803710936,0.9469067565917968,3.6035727737426755
1789316073527774200,3.572774169921875,11.293299593353272,3.075950582885742,1.0173860679626465
1789316073537808400,3.582808349609375,8.696338980102539,3.4389714096069333,1.9994576614379882
1789316073547841500,3.592841552734375,5.417629444122314,3.385401147460937,3.400364907836914
1789316073557874400,3.60287451171875,3.6884172950744625,4.784812017822265,2.8254572341918944
1789316073567907300,3.6129072265625,4.178480447387695,6.870012026214599,2.7635072662353513
1789316073577941500,3.62294140625,6.391919882202148,7.452551217651367,4.068047895812988
1789316073587974700,3.632974609375,5.759850643920898,8.67613790359497,5.716605376434326
1789316073598007600,3.643007568359375,5.638195272064209,8.37581523284912,5.8165632957458495
1789316073608040400,3.65304052734375,6.311863764190673,8.019528098297119,4.905719201660156
1789316073618074400,3.663074462890625,7.403918996429443,9.789292037963866,3.797952021026611
1789316073628107500,3.673107421875,9.534758473968505,10.31107836227417,4.086453321075439
1789316073638140400,3.683140380859375,9.562441430664062,9.925162982177733,4.8141409881591795
1789316073648174600,3.693174560546875,9.814880068206786,9.247454274749755,3.5767876426696774
1789316073658207500,3.70320751953125,9.368062183380127,10.792761808776854,1.554585065460205
1789316073668240600,3.71324072265625,8.972719634246825,14.429554130554198,1.2639888389587401
1789316073678273500,3.7232734375,7.974786454772949,16.10863768234253,4.337844495391845
1789316073688307500,3.733307373046875,7.961767983245849,15.938499726867676,4.744110589599609
1789316073698340400,3.74334033203125,6.86986238861084,12.900557095336913,3.0488661766052245
1789316073708373500,3.75337353515625,6.092794312286377,10.332775814819335,1.5114894355773925
1789316073718406400,3.763406494140625,7.5266218315124505,8.047510330200195,0.04474164352416992
1789316073728440600,3.773440673828125,5.47808303604126,4.399794463348388,-1.7227777320861815
1789316073738473500,3.783473388671875,4.786906944274902,5.993434943389892,-0.7160159339904785
1789316073748506600,3.793506591796875,4.902576811981201,5.20319875793457,-1.00870708694458
1789316073758540300,3.803540283203125,5.42675733795166,4.73079284286499,-1.415422093963623
1789316073768573400,3.813573486328125,6.462399193572998,4.968267720031738,-1.3253402565002441
1789316073778606300,3.8236064453125,8.11514652709961,6.360645623016357,-0.02858078231811523
1789316073788639500,3.833639404296875,11.046547184753416,9.126247815704344,2.319532495880127
1789316073798673400,3.84367333984375,14.47339794845581,11.20426521911621,3.0419828468322754
1789316073808706600,3.85370654296875,17.102231371307372,12.656498163604736,2.0115783073425293
1789316073818739500,3.863739501953125,16.091878270721434,11.700613150787353,0.6040870063781738
1789316073828772600,3.873772705078125,13.308469203186034,10.155604891967773,0.11507131729125976
1789316073838806300,3.88380615234375,9.943269132232665,9.296685046386719,0.7930792999267577
1789316073848839400,3.89383935546875,5.101744462585449,9.236381092071532,1.5055039314270018
1789316073858872300,3.903872314453125,0.37020343170166015,7.197419103240966,0.7357680976867675
1789316073868905500,3.913905517578125,-0.7734767738342284,3.3654993461608886,-1.4468459907531737
1789316073878939400,3.923939453125,-1.9747674568176268,0.5556044227600098,-2.624344294738769
1789316073888972500,3.93397265625,-5.308393993377686,-1.562216583251953,0.604535919189453
1789316073899005400,3.94400537109375,-7.4794859863281244,-0.5683236190795898,1.8631378044128417
1789316073909039600,3.95403955078125,-6.834099001312255,1.907580172729492,0.8556278182983398
1789316073919072500,3.964072509765625,-2.120215207672119,2.822314844512939,1.9303250885009764
1789316073929105400,3.97410546875,4.27110612411499,6.865971810913085,4.706401913452148
1789316073939138300,3.98413818359375,5.917867953491211,11.24885722503662,6.795342861938476
1789316073949172500,3.99417236328125,3.412186278533935,10.683376720428466,6.246322493743896
1789316073959205400,4.004205322265625,2.3931541969299315,8.677933554840088,4.806060557556152
1789316073969238500,4.014238525390625,4.731541030883789,7.651120317840576,4.811148236083984
1789316073979271400,4.024271484375,8.986037380981445,9.332747708892821,5.66902061843872
1789316073989305600,4.0343056640625,7.617302219390869,5.3938370651245116,4.1754876953124995
1789316073999338500,4.04433837890625,7.5637319572448725,11.39654953994751,3.5314474487304683
1789316074009371400,4.054371337890625,13.542502415466307,11.965022796630858,4.843021045684814
1789316074019405300,4.0644052734375,16.345663646697997,9.601646482849121,7.2264487983703605
1789316074029438500,4.0744384765625,14.464270054626464,11.738471464538573,7.206247721862793
1789316074039471400,4.084471435546875,8.022670487976074,10.683675995635985,3.369090648651123
1789316074049504500,4.09450439453125,6.834996826934814,9.021651130676268,-1.1496657096862792
1789316074059538400,4.104538330078125,3.178751616668701,6.594379560089111,0.5515642074584961
1789316074069571600,4.114571533203125,4.403385765838623,6.634482437896728,0.2953846298217773
1789316074079604500,4.1246044921875,4.816984102630615,7.596352954864502,1.615936483001709
1789316074089637600,4.1346376953125,2.4513632247924804,7.1303814567565915,1.9617489852905272
1789316074099671300,4.14467138671875,2.062754367828369,5.761347019958496,1.6623241401672362
1789316074109704400,4.154704345703125,0.520289948272705,3.901351605224609,1.5580267303466795
1789316074119737300,4.1647373046875,-1.1236287666320801,3.70951619720459,1.4125789794921875
1789316074129770500,4.1747705078125,-1.177947216796875,6.410774220275878,1.7501614135742187
1789316074139804400,4.184804443359375,-0.4964975692749023,9.35938320236206,3.3342250869750973
1789316074149837600,4.194837646484375,-0.6874351516723632,9.945064783477783,4.330063339996338
1789316074159870500,4.204870361328125,-2.1164742675781247,9.665990652465819,5.627870277404785
1789316074169904400,4.214904296875,-1.4290391159057616,10.307187784576415,6.777087074279785
1789316074179937300,4.224937255859375,-0.3751414726257324,11.32008472442627,7.632714892578124
1789316074189970400,4.234970458984375,0.34012627334594725,11.323975302124023,7.141155364227295
1789316074200003300,4.24500341796875,1.9541174674987791,10.3422029838562,6.7037646484375
1789316074210037500,4.25503759765625,2.7482442306518555,10.436175399017333,8.524555010986328
1789316074220070100,4.265070068359375,1.6027683738708496,11.190049646759032,9.450362865447998
1789316074230103000,4.27510302734375,0.5633855781555176,10.997166775512694,7.1416042770385735
1789316074240136200,4.28513623046875,0.2711433380126953,10.474332987976073,4.885368487548828
1789316074250170000,4.295170166015625,-0.6581061813354492,10.854711776733398,4.870853639984131
1789316074260203000,4.305203125,0.7237970893859863,10.187028788757324,5.334430936431884
1789316074270236000,4.31523583984375,4.614374787139893,8.97705912475586,5.413439591217041
1789316074280270000,4.32527001953125,4.1115924385070795,7.180210778808593,3.8449382286071776
1789316074290303000,4.335302978515625,1.7700632148742674,4.134786267089844,1.3108254089355469
1789316074300336000,4.345336181640625,1.6002245346069335,3.286191416168213,0.4144961624145508
1789316074310369000,4.355369140625,3.412335916137695,4.7566801483154295,1.8148048583984373
1789316074320403200,4.3654033203125,4.50109912109375,6.638522653198242,2.9314006576538083
1789316074330436000,4.37543603515625,3.6733038970947263,8.234258059692383,3.228730576324463
1789316074340469200,4.38546923828125,2.5014918220520017,8.42160433959961,3.83072265625
1789316074350502000,4.395501953125,2.9937995384216305,9.00863265914917,5.031414788818359
1789316074360536000,4.4055361328125,4.0997710678100585,7.961767983245849,5.341912816619873
1789316074370569000,4.41556884765625,3.238307382965088,9.056666329956053,5.223998384857177
1789316074380602000,4.42560205078125,2.428468671417236,11.047744285583496,5.462371087646484
1789316074390635000,4.435635009765625,3.248931652832031,8.299350417327881,6.937498585510253
1789316074400669200,4.445669189453125,4.804264906311035,5.103240838623047,10.666617308807373
1789316074410702000,4.4557021484375,4.8389808303833,7.442675135803222,13.790451924896239
1789316074420735200,4.4657353515625,5.348945783996582,7.31608172302246,13.289614865112304
1789316074430769000,4.475768798828125,-13.300688047790526,13.096283081054686,-1.8320131828308104
1789316074440802000,4.485802001953125,-22.672341533660887,17.098939344024657,-5.8098296035766595
1789316074450835000,4.4958349609375,-17.1724114074707,8.38299783782959,4.295945966339111
1789316074460868000,4.5058681640625,-9.121459412384032,7.696759786987304,6.205770703124999
1789316074470902000,4.515902099609375,-3.691559684753418,9.21154124984741,3.7128082244873046
1789316074480935200,4.52593505859375,1.2161048057556152,9.852888019561767,1.5206173294067382
1789316074490968000,4.535968017578125,6.438307539367675,8.416666298675537,0.07975684280395508
1789316074501001200,4.546001220703125,7.537844651794433,7.611017440032959,-0.3564367721557617
1789316074511035000,4.556034912109375,9.126247815704344,8.119934930419921,0.11477204208374023
1789316074521068000,4.566068115234375,11.710638870239258,8.084021905517577,1.1764508407592773
1789316074531101000,4.576100830078125,10.2786070022583,7.778611556243896,3.505560143280029
1789316074541135000,4.586135009765625,8.332420327758788,7.882310415649414,5.560533355712891
1789316074551168000,4.59616796875,6.415113710784912,7.583633758544922,6.344035848999023
1789316074561201200,4.606201171875,4.523844036865234,6.824971107482909,5.942558158111572
1789316074571234000,4.616234130859375,4.198831161499023,6.593781009674072,5.044732535552979
1789316074581268000,4.62626806640625,4.142717060089111,6.466589046478271,4.704306986999511
1789316074591300900,4.63630078125,2.15792388381958,6.68431175994873,5.206640422821045
1789316074601334000,4.646333984375,2.6789620201110838,7.502679814910889,6.852055513763427
1789316074611367000,4.656366943359375,3.489100006866455,8.394071020507813,7.285854927062988
1789316074621401000,4.666401123046875,2.2999299697875975,9.177274238586426,6.355109031677245
1789316074631434000,4.67643408203125,1.1668740341186523,9.768791686248779,4.363282888031006
1789316074641467100,4.686467041015625,1.933916390991211,8.703521585083008,2.7465982170104977
1789316074651500000,4.6965,4.568136767578125,3.1944635650634763,1.0583867713928221
1789316074661534000,4.706533935546875,-0.8689455650329589,4.20137500076294,7.076212644195556
1789316074671566800,4.71656689453125,-1.6463129165649413,3.8666356811523435,7.48232910079956
1789316074681600000,4.72660009765625,-2.9325977584838867,5.021987619781494,5.543624306488037
1789316074691633000,4.7366328125,-4.580107775878906,6.261735166931152,4.276792353057861
1789316074701667000,4.7466669921875,-4.153341329956055,6.227318518066406,4.585943642425537
1789316074711700000,4.756699951171875,-2.7486931434631345,5.731868412017822,4.772841009521484
1789316074721733000,4.766733154296875,-1.7655740867614744,5.729474210357665,4.360140498352051
1789316074731767300,4.776767333984375,-1.7604864082336424,6.674734953308105,5.52866054611206
1789316074741800200,4.78680029296875,-2.48323603439331,10.109965422821045,6.519710395812988
1789316074751833000,4.7968330078125,-3.6309564552307125,10.841543667602538,4.520851284790039
1789316074761866000,4.806865966796875,-3.2091280502319335,7.851933982086181,2.410063246154785
1789316074771900200,4.816900146484375,-3.1000422370910643,5.161898779296875,4.528183527374267
1789316074781933000,4.82693310546875,-2.403628829193115,1.3106757713317871,3.4358290199279784
1789316074791966000,4.836966064453125,-2.8362311416625974,-4.704157349395752,2.644246096038818
1789316074801999000,4.8469990234375,-3.8329672203063962,-8.236652261352539,4.101865994262695
1789316074812033300,4.857033203125,-3.941753758239746,-6.578368336486816,6.054786360931396
1789316074822066200,4.867066162109375,-4.77553448638916,-0.40940848388671874,5.653607945251465
1789316074832099000,4.87709912109375,-4.864269585418701,10.48944638595581,6.108955173492431
1789316074842133000,4.887133056640625,-5.5261167068481445,29.249363131713867,7.448660639953613
1789316074852166100,4.897166259765625,-8.646509658050537,27.550527416229247,3.109768681335449
1789316074862199000,4.907198974609375,0.29014731369018554,18.99469814605713,-3.132812872314453
1789316074872232000,4.91723193359375,9.133280783081053,23.882760110473633,3.0909143432617188
1789316074882266000,4.92726611328125,3.041533934020996,20.329764846801755,1.1400889030456542
1789316074892299300,4.93729931640625,-1.6062100387573242,15.709105280303953,-1.4037503608703612
1789316074902332200,4.947332275390625,-1.9131167640686033,13.061866432189941,2.4512135871887204
1789316074912365000,4.957364990234375,-3.4389714096069333,9.965415497589111,1.9135656768798828
1789316074922399000,4.96739892578125,-4.897938046264648,8.490287999725341,-1.1448773063659667
1789316074932432100,4.97743212890625,-5.170577760314941,7.559542104339599,-1.5420155067443846
1789316074942465000,4.987465087890625,-5.114164383697509,7.168539045715332,0.45295302658081055
1789316074952498000,4.997497802734375,-4.969464820861816,7.754370264434814,1.474229672241211
1789316074962532000,5.007531982421875,-3.2809541000366207,8.201038511657714,1.7169418655395507
1789316074972565200,5.017565185546875,-0.42272623062133785,8.557475283813476,5.240009608459473
1789316074982598100,5.02759814453125,3.21780703125,10.186729513549803,9.235932179260253
1789316074992631000,5.037631103515625,6.47975715560913,11.901576452636718,6.976404362487792
1789316075002665000,5.0476650390625,7.688380081176757,14.188188675689696,4.152593141937255
1789316075012698000,5.057697998046875,4.316147042846679,14.25597451019287,0.5186439346313476
1789316075022731000,5.06773095703125,-1.1620856307983398,12.613252896118164,-0.41045594711303707
1789316075032765200,5.07776513671875,-2.9390321754455564,11.321730738067627,0.11701660614013672
1789316075042798000,5.087798095703125,-3.6795886764526364,10.25960302658081,-0.029478607940673827
1789316075052831200,5.097831298828125,-6.23764351272583,7.7033438415527336,-0.7055413017272949
1789316075062864100,5.107864013671875,-5.571905813598632,6.507739387512206,2.230647759246826
1789316075072898000,5.11789794921875,-5.309890369415283,5.437231970214843,4.219331513214111
1789316075082931000,5.127930908203125,-4.702062422943115,4.511274478149414,5.5181859138488765
1789316075092964000,5.137964111328125,-4.898237321472168,5.166088632202148,6.798485251617431
1789316075102997000,5.1479970703125,-4.887463414001465,6.292710150909423,7.292887894439697
1789316075113031200,5.15803125,-5.449352616119384,6.564900952148437,5.606921012878417
1789316075123064000,5.16806396484375,-8.263587030029296,4.9832314804077145,3.7288194480895993
1789316075133097200,5.17809716796875,-9.05292538986206,3.531297811126709,3.1440356925964354
1789316075143130000,5.188130126953125,-8.917503358459472,1.506102481842041,2.6933272300720215
1789316075153164000,5.1981640625,-8.640224878692626,1.1736077262878417,2.7287913421630856
1789316075163197000,5.208197021484375,-6.469731436157226,5.806387938690185,1.2994529510498045
1789316075173230000,5.21822998046875,-5.451746817779541,11.700762788391113,-0.13407529296874998
1789316075183264000,5.228263916015625,-5.657049610137939,13.859285222625731,-0.7674912696838379
1789316075193297200,5.238297119140625,-5.147832844543457,12.114211487579345,-0.43499651412963863
1789316075203330000,5.248330078125,-4.397699536895752,10.363451523590088,0.628178660583496
1789316075213363200,5.25836328125,-3.8781577766418454,10.598831474304198,-0.22909517135620117
1789316075223397400,5.2683974609375,-5.006275671386718,10.607211180114746,-1.467795255279541
1789316075233430300,5.27843017578125,-6.535272706604004,9.06639277420044,-1.5366285530090331
1789316075243463200,5.288463134765625,-8.246079430389404,7.508366043853759,-0.19572598571777342
1789316075253496300,5.298496337890625,-8.98214680328369,6.446238332366943,1.769763939666748
1789316075263530200,5.3085302734375,-4.506785350036621,7.302165425872802,4.406378517913818
1789316075273563400,5.3185634765625,-0.3978863883972168,7.664288426971435,9.102305799102783
1789316075283596300,5.32859619140625,5.558588066864013,9.491962119293213,12.21297230606079
1789316075293629400,5.33862939453125,10.739490821838379,12.970288218688964,8.856750491333008
1789316075303663400,5.348663330078125,7.639747859954833,8.277952239990235,6.621763241577148
1789316075313696500,5.358696533203125,6.919392435455322,2.2086510314941403,-0.7662941688537597
1789316075323729200,5.368729248046875,3.09001651763916,8.405593115997315,-4.532373380279541
1789316075333762300,5.37876220703125,1.4501380180358885,13.372663735198973,4.835239890289307
1789316075343796200,5.388796142578125,0.21487959899902342,13.210606210327148,7.669675380706787
1789316075353829400,5.398829345703125,-2.5424925254821775,12.925546575164795,7.277624858856201
1789316075363862300,5.4088623046875,-3.865737855529785,12.565219225311278,4.125209460449218
1789316075373896400,5.418896484375,-2.3026234466552733,12.593201457214354,2.493112116241455
1789316075383929300,5.428929443359375,0.8400655075073241,11.6699374420166,2.947561518859863
1789316075393962500,5.43896240234375,1.2517185554504393,10.012102429962157,3.257909909057617
1789316075403995400,5.448995361328125,0.5995978782653808,8.168716789245606,2.8847137252807618
1789316075414029300,5.459029296875,-0.5861304939270019,8.13370158996582,2.235885075378418
1789316075424062200,5.469062255859375,-0.1188122573852539,10.065074141693115,1.7280150482177734
1789316075434095400,5.479095458984375,-0.6151601890563965,10.782436814117432,3.09001651763916
1789316075444128300,5.489128173828125,-3.91362188873291,10.345495011138915,2.4875755249023435
1789316075454162400,5.499162353515625,-6.7663131668090815,9.841814836883545,0.3206733848571777
1789316075464195300,5.5091953125,-8.278401152801512,9.015964901733398,-0.337732071685791
1789316075474228500,5.519228515625,-7.851634706878662,7.810185090637207,1.0628758995056151
1789316075484261400,5.529261474609375,-7.07366880493164,7.48262837600708,3.3988685317993164
1789316075494295300,5.53929541015625,-5.913528462982177,7.811382191467285,4.105457296752929
1789316075504328200,5.549328125,-4.303727121734619,7.116614797210693,3.259256647491455
1789316075514361300,5.559361328125,-2.9535470230102536,6.031592532348633,2.0254946044921875
1789316075524395300,5.569395263671875,-2.061257991790771,5.811774892425537,1.392976453399658
1789316075534428400,5.579428466796875,-1.0957961723327636,6.013187107086181,1.5095441467285156
1789316075544461300,5.58946142578125,0.296881005859375,5.689820245361328,1.1984475685119629
1789316075554494500,5.599494384765625,-3.375225790405273,4.839878656005859,0.7059902145385741
1789316075564528000,5.609528076171875,-4.976797063446044,8.586056066131592,-0.044592005920410155
1789316075574561300,5.619561279296875,-2.3274632888793945,8.066364668273925,-0.9253589416503906
1789316075584594200,5.62959423828125,-2.426673020172119,7.512555896759033,0.5779004257202148
1789316075594627300,5.63962744140625,-4.0614638412475585,8.150161726379395,0.8463502868652343
1789316075604661200,5.6496611328125,-4.669740700531006,9.937133990478515,1.7579425689697266
1789316075614694400,5.6596943359375,-5.046528186798096,11.985074235534666,2.6732757911682126
1789316075624727300,5.669727294921875,-4.096179765319824,13.75169578552246,2.6044424934387207
1789316075634760400,5.679760498046875,-2.831891651153564,15.381099652862549,2.2884078742980956
1789316075644794000,5.689794189453125,-5.155913275146484,15.04800634689331,0.8827122245788573
1789316075654827300,5.6998271484375,-4.192696019744873,12.164938635253906,-0.3321954803466797
1789316075664860200,5.709860107421875,-3.3713352127075193,9.906607919311522,-0.04713584518432617
1789316075674893300,5.719893310546875,-2.110788038635254,7.3180270118713375,0.22789807052612304
1789316075684927200,5.72992724609375,-1.983596075439453,4.670937801361084,0.12300211029052734
1789316075694960400,5.73996044921875,-1.4833575660705565,3.030011838531494,0.3767874862670898
1789316075704993300,5.7499931640625,-1.1887211242675781,3.8893805969238278,1.4112322410583495
1789316075715027500,5.76002734375,-2.8568811309814452,7.312041507720947,3.137302000427246
1789316075725060400,5.770060302734375,-4.875642043304443,11.621903771209716,4.807706571197509
1789316075735093200,5.78009326171875,-5.074061505889892,14.941614010620116,4.944176065826416
1789316075745126100,5.790126220703125,-3.3182138633728027,15.589395197296142,1.7586907569885253
1789316075755160300,5.800160400390625,-2.359036823272705,14.201057509613037,-0.26710312271118164
1789316075765193200,5.810193115234375,-4.051138846588135,11.597063928985595,-0.9102455436706542
1789316075775226400,5.820226318359375,-7.24021545791626,8.777442561340331,-0.9941922393798828
1789316075785259300,5.83025927734375,-8.855703028106689,6.1550435554504395,0.2597708801269531
1789316075795293400,5.84029345703125,-7.599495344543457,5.398026918029784,0.5804442649841308
1789316075805326300,5.850326416015625,-4.037521824645996,5.805490113067626,1.1605892547607422
1789316075815359200,5.860359130859375,-1.7381904052734374,5.306299066925049,2.2842180213928223
1789316075825392000,5.87039208984375,0.29089550170898437,6.212504395294189,1.6813281158447264
1789316075835426300,5.88042626953125,-0.20440496673583983,7.417984931182861,2.192789445495605
1789316075845459200,5.890459228515625,-3.596390168762207,7.51405227279663,2.8459575859069823
1789316075855492400,5.900492431640625,-6.474968752288818,8.093000161743163,3.7585973312377927
1789316075865526300,5.9105263671875,-7.80195502243042,8.353369592285155,2.5297733291625977
1789316075875559400,5.920559326171875,-6.30094021911621,8.326734098815917,1.18108960647583
1789316075885592300,5.93059228515625,-4.118625405883789,8.134898690795898,-0.15562310791015624
1789316075895625500,5.94062548828125,-3.774608554840088,7.660547486877441,-0.4068646446228027
1789316075905659100,5.9506591796875,-4.582501977539062,6.975207261657714,0.2723404388427734
1789316075915692300,5.9606923828125,-4.864419223022461,6.972214509582519,0.8626607856750488
1789316075925725200,5.97072509765625,-4.565293653106689,7.894580699157714,1.343296768951416
1789316075935758300,5.98075830078125,-2.886958289337158,9.222614432525635,2.5368062965393063
1789316075945792300,5.990792236328125,-1.5083470458984374,10.00955859069824,3.678541213226318
1789316075955825400,6.000825439453125,-1.1730091758728027,9.941772756195068,4.543895475769043
1789316075965858300,6.0108583984375,-0.7969698776245117,9.535506661987304,6.0245595649719235
1789316075975891500,6.020891357421875,0.8051999458312988,9.05980871963501,5.66258620147705
1789316075985925000,6.030925048828125,0.45190556335449217,8.694094416046141,3.8679824195861814
1789316075995958300,6.040958251953125,-2.5406968742370606,8.82936680984497,2.1534347557067868
1789316076005991200,6.0509912109375,-4.735880521392822,8.929025453948974,1.2975076622009276
1789316076016024300,6.0610244140625,-3.7783494949340817,8.777143286132812,0.1562216583251953
1789316076026058200,6.071058349609375,-7.423970435333252,8.629002058410643,-1.348982997894287
1789316076036091400,6.08109130859375,-10.147524461364746,9.356540087890625,-0.1258452247619629
1789316076046124300,6.091124267578125,-9.903016616821288,8.86812294921875,2.213439434814453
1789316076056158200,6.101158203125,-7.420977683258056,7.831583267974853,2.8335376647949215
1789316076066191000,6.111191162109375,-5.370194323730469,7.771129676055907,3.0713118171691893
1789316076076224300,6.121224365234375,-5.2079871612548825,8.31236888885498,3.87531466217041
1789316076086257200,6.131257080078125,-5.4029649589538575,8.434772448730468,4.274847064208984
1789316076096291300,6.141291259765625,-5.284003063964843,8.352022853851318,3.952677303314209
1789316076106324200,6.15132421875,-4.521749110412597,8.1464207862854,3.21765739364624
1789316076116357400,6.161357421875,-3.6643256408691403,7.811980741882324,2.399139701080322
1789316076126390300,6.171390380859375,-1.1140519599914551,7.631817066955566,1.5497966621398924
1789316076136424200,6.181424072265625,-1.9752163696289062,7.790582564544677,0.9271545928955077
1789316076146457000,6.19145703125,-5.691017346191406,7.733570637512207,0.8189666053771972
1789316076156490200,6.201490234375,-2.2776339668273926,7.83951406097412,2.1911434318542478
1789316076166523100,6.211523193359375,-0.32097266006469727,8.547299926757812,3.574692716217041
1789316076176557300,6.221557373046875,-0.7338228088378905,9.665392102050781,4.0711902854919435
1789316076186590200,6.231590087890625,-2.188599592590332,9.4105592628479,3.4139819297790526
1789316076196623400,6.241623291015625,-4.201524638366699,8.639626328277588,2.194136183929443
1789316076206656300,6.25165625,-4.8695069015502925,8.888174388122557,0.6625953094482422
1789316076216690200,6.261690185546875,-6.891260565948486,8.46559779510498,-1.1581950531005858
1789316076226723000,6.27172314453125,-8.441057228088379,8.572588681793212,-1.571194839477539
1789316076236756000,6.281755859375,-8.738985697174071,8.417564124298096,-0.9545382743835449
1789316076246790100,6.2917900390625,-7.435193255615234,7.887098818969726,0.263661457824707
1789316076256823000,6.301822998046875,-5.024830734252929,7.188291209411621,1.5722423027038572
1789316076266856200,6.311856201171875,-3.488950369262695,7.371896549224853,2.4794950942993164
1789316076276889000,6.32188916015625,-3.1425393165588376,8.342446047210693,3.178751616668701
1789316076286923300,6.33192333984375,-3.0009821434020996,9.770886612701416,4.113687364959716
1789316076296956200,6.3419560546875,-2.614767488098144,11.162815602874755,4.533271205902099
1789316076306989300,6.3519892578125,-2.5520693321228025,11.633276229095458,3.895066825866699
1789316076317022200,6.362022216796875,-3.500472464752197,10.27247186050415,2.0316297462463377
1789316076327056100,6.37205615234375,-4.534318669128417,8.135946154022216,-0.26605565948486326
1789316076337089000,6.382089111328125,-4.388571643066406,7.644685900878906,-1.0811316871643066
1789316076347122200,6.3921220703125,-4.254346712493896,8.544606449890136,-0.2790741310119629
1789316076357155000,6.402155029296875,-4.885518125152587,8.859743243408202,1.4493898300170898
1789316076367189200,6.412189208984375,-4.892401454925537,8.060678439331054,2.5770588119506836
1789316076377222100,6.42222216796875,-4.741716387939453,7.3472063446044915,2.161066273498535
1789316076387255300,6.43225537109375,-4.891204354095459,7.043292371368408,1.9621978981018064
1789316076397288200,6.4422880859375,-4.828805473327637,6.759130561828613,2.204610816192627
1789316076407322000,6.452322021484375,-4.872350016021728,6.555773058319091,2.80929637298584
1789316076417355000,6.46235498046875,-5.327397969055175,6.3046811592102046,3.3756747032165526
1789316076427388200,6.47238818359375,-5.275473720550536,6.214000771331786,2.9550433990478515
1789316076437422000,6.482422119140625,-4.96707061920166,6.932111631774902,2.226158631134033
1789316076447455200,6.492455322265625,-4.563797277069091,8.096441826629638,2.0335750350952146
1789316076457488100,6.502488037109375,-3.8986581283569333,9.073725016784667,1.8828899681091307
1789316076467521300,6.512521240234375,-3.6112042915344236,9.8442090385437,1.8987515541076658
1789316076477555000,6.522554931640625,-3.890428060150146,10.22773021697998,2.141912660217285
1789316076487588000,6.532588134765625,-3.9791631591796874,10.355670368194579,2.0796634170532227
1789316076497621000,6.54262109375,-3.631405368041992,10.409090992736816,2.1378724449157716
1789316076507654100,6.552654052734375,-3.4100913520812988,10.217105947113037,2.7473464050292966
1789316076517688000,6.56268798828125,-3.1618425674438475,10.04936219329834,3.3933319404602047
1789316076527721200,6.57272119140625,-2.840121719360351,9.874884747314452,3.766228849029541
1789316076537754000,6.582754150390625,-2.433855625152588,9.692626145935058,3.888782046508789
1789316076547787300,6.592787353515625,-1.9589058708190916,9.597606267547606,3.8892309593200682
1789316076557821000,6.602821044921875,-1.4480430915832518,9.507973342895507,3.816955996704101
1789316076567854000,6.61285400390625,-0.8541314422607421,9.541342528533935,3.6948517120361326
1789316076577887000,6.622886962890625,-0.3033154228210449,9.79961703262329,3.615543782043457
1789316076587921200,6.632921142578125,0.1457470260620117,10.217854135131835,3.5085528953552245
1789316076597954000,6.6429541015625,0.5608417388916015,10.802787528228759,3.468599655151367
1789316076607987200,6.6529873046875,0.9543886367797851,11.591676975250243,3.446453289794922
1789316076618020000,6.66302001953125,1.176001927947998,12.186187174987792,3.2748189582824705
1789316076628054000,6.673053955078125,1.219995383453369,12.056301734924316,2.9186814613342285
1789316076638087000,6.6830869140625,1.1655272956848144,11.137826123046874,2.6295816108703614
1789316076648120000,6.6931201171875,0.9584288520812988,9.865607215881347,2.27284556350708
1789316076658153000,6.703153076171875,0.9639654434204101,8.930072917175293,2.150890916442871
1789316076668187100,6.713187255859375,1.041328084564209,8.439261576843261,2.248454634094238
1789316076678220000,6.723219970703125,1.546803910064697,9.131784407043456,2.724152576446533
1789316076688253200,6.733253173828125,2.736722135162353,10.7635824760437,3.1726164749145505
1789316076698286000,6.7432861328125,3.312976547241211,11.444732848358154,3.1202433135986327
1789316076708320300,6.7533203125,2.9747955627441405,10.972626208496093,2.620154441833496
1789316076718353200,6.763353271484375,2.212840884399414,10.465654006958006,2.127248175048828
1789316076728386000,6.773385986328125,1.4859014053344726,10.083629204559326,1.8727146110534667
1789316076738419000,6.7834189453125,0.40357261734008787,9.602993221282958,1.408987677001953
1789316076748453000,6.793453125,-0.42975919799804685,9.431358889770507,1.024119760131836
1789316076758486000,6.803486083984375,-0.6370072792053222,9.645639938354492,0.8512883277893066
1789316076768519200,6.813519287109375,-0.6706757400512695,9.70414824142456,0.529268204498291
1789316076778553000,6.823552978515625,-0.8617629600524902,9.492411032104492,0.20679916839599607
1789316076788586200,6.833586181640625,-1.1849801841735839,9.294290844726563,0.07915829238891602
1789316076798619100,6.843619140625,-1.5068506698608397,9.348758932495116,0.1822586013793945
1789316076808652300,6.85365234375,-1.6696563827514648,9.725546418762207,0.47330374069213865
1789316076818686000,6.86368603515625,-1.661127039337158,10.18268929824829,0.8014590057373047
1789316076828719000,6.873718994140625,-1.374571028137207,10.571447792816162,0.9177274238586425
1789316076838752000,6.883751953125,-0.9859621711730956,10.809521220397949,0.8658031753540039
1789316076848785200,6.89378515625,-0.5461772537231445,10.75759697189331,0.7586626510620117
1789316076858819000,6.903819091796875,-0.08678981018066406,10.426149679565428,0.5526116706848144
1789316076868852200,6.913852294921875,0.12210428466796874,9.922918418121338,0.37618893585205077
1789316076878885000,6.923885009765625,0.31169512863159177,9.42866541290283,0.15726912155151365
1789316076888918300,6.933918212890625,0.5175964714050293,9.305663302612304,0.20096330184936523
1789316076898952000,6.943951904296875,0.3416226493835449,9.290100991821289,0.3963900123596191
1789316076908985000,6.953985107421875,0.388159944152832,9.240421307373046,-0.20874445724487303
1789316076919018000,6.96401806640625,0.31962592163085934,9.25089593963623,-0.5446808776855468
1789316076929051100,6.974051025390625,0.1949777976989746,9.30805750427246,-0.4390367294311523
1789316076939085000,6.9840849609375,0.131531453704834,9.411008175659179,-0.6322188758850097
1789316076949118200,6.9941181640625,0.08708908538818359,9.609577275848388,-1.0223241088867188
1789316076959151000,7.004151123046875,-0.24331074371337888,9.89583401184082,-1.2740145584106444
1789316076969184300,7.014184326171875,-0.7962216896057128,10.288333446502685,-1.5824176597595214
1789316076979218000,7.024218017578125,-1.2074258247375487,11.263820985412597,-1.4884452445983887
1789316076989251000,7.0342509765625,-1.3721768264770506,12.728773126220702,-1.0024223075866698
1789316076999284000,7.044283935546875,-1.6166846710205076,12.933178092956542,-0.8988730857849121
1789316077009318100,7.054318115234375,-1.8602946899414061,11.661108823394775,-1.068113215637207
1789316077019351000,7.06435107421875,-2.136226431274414,9.606135610961914,-1.3569137908935547
1789316077029384200,7.07438427734375,-4.985326406860351,6.978499288940429,-2.5918729347229004
1789316077039417000,7.0844169921875,-9.239224206542968,4.739771099090576,-3.948038537597656
1789316077049451000,7.094450927734375,-8.84178673095703,4.257040189361572,-2.372204932403564
1789316077059484000,7.10448388671875,-7.972691528320312,4.886266313171387,-1.0357914932250976
1789316077069517000,7.11451708984375,-7.445967163085937,6.49935968170166,-0.1801636749267578
1789316077079550000,7.124550048828125,-6.381445249938965,8.208969304656982,-0.33039982910156246
1789316077089584000,7.134584228515625,-5.862352402496337,8.756642934417725,-1.2684779670715332
1789316077099617000,7.144616943359375,-5.300612837982177,8.352322129058837,-1.9984101982116698
1789316077109650200,7.154650146484375,-5.279364298248291,8.07639038772583,-2.3464672645568845
1789316077119683000,7.16468310546875,-5.287145453643799,6.928370691680907,-2.986168020629883
1789316077129717000,7.174717041015625,-5.4902036819458,5.777208605957031,-3.2607530235290527
1789316077139750000,7.18475,-5.734561888885498,5.339518614959717,-2.4781483558654784
1789316077149783000,7.194782958984375,-5.976376256561279,5.56711741027832,-1.3202525779724121
1789316077159816000,7.20481591796875,-6.358251421356201,6.152649353790283,-0.5545569595336913
1789316077169850000,7.21485009765625,-6.705111386871337,6.771999395751953,-0.5195417602539062
1789316077179883000,7.224883056640625,-7.134870584869384,7.573907314300537,-1.1680711349487305
1789316077189916200,7.234916259765625,-7.633911993408202,7.779509381866455,-1.852663172149658
1789316077199950300,7.244950439453125,-7.955932116699218,7.078157933044433,-2.371756019592285
1789316077209983200,7.254983154296875,-8.1464207862854,6.083367143249512,-2.7852047187805176
1789316077220016000,7.26501611328125,-8.481609018707275,5.492747521209717,-2.6144682128906247
1789316077230049500,7.275049560546875,-8.489390174102782,5.843198789215087,-2.085948196411133
1789316077240083500,7.28508349609375,-8.110956674194336,6.438457176971435,-1.731456713104248
1789316077250116600,7.29511669921875,-7.461679111480713,6.323236222076416,-1.8136077575683593
1789316077260149500,7.3051494140625,-6.672041476440429,6.2864253715515135,-1.846976943206787
1789316077270182700,7.3151826171875,-5.962011046600342,6.130502988433838,-1.7172411407470702
1789316077280216600,7.325216552734375,-5.5829789962768555,5.732018049621582,-1.4616601135253906
1789316077290249500,7.33524951171875,-5.594950004577637,5.52881018371582,-1.1290157203674316
1789316077300282400,7.345282470703125,-5.962609597015381,5.317821162414551,-0.9403227020263671
1789316077310315500,7.3553154296875,-6.417358274841308,5.065083249664307,-1.2198457458496093
1789316077320349400,7.365349365234375,-6.67189183883667,4.856189154815674,-1.7272668601989745
1789316077330382600,7.375382568359375,-6.885574337005615,4.94133295135498,-1.8308160820007322
1789316077340415500,7.38541552734375,-6.921038449096679,4.814739538574218,-1.6160861206054686
1789316077350448600,7.39544873046875,-6.887220350646972,4.554669383239746,-1.4630068519592285
1789316077360482600,7.405482666015625,-7.033266651916503,4.4187984390258785,-1.296759474182129
1789316077370515700,7.415515625,-7.14384884109497,4.248810121154785,-1.2804489753723143
1789316077380548400,7.42554833984375,-7.176619476318359,3.9824551864624023,-1.5688006378173827
1789316077390581500,7.43558154296875,-7.13726478652954,3.978714246368408,-1.9984101982116698
1789316077400615400,7.445615478515625,-7.24021545791626,4.079420353698731,-2.6364649406433105
1789316077410648600,7.455648681640625,-7.5971011428833,3.984400475311279,-3.094954558563232
1789316077420681500,7.465681396484375,-7.895328887176513,4.077325427246094,-2.8464064987182613
1789316077430715600,7.475715576171875,-8.106317908477783,4.354753544616699,-1.9418471839904785
1789316077440748500,7.48574853515625,-8.450933309936524,4.675127654266357,-1.0726023437499999
1789316077450781700,7.49578173828125,-8.782081327056884,4.688744676208496,-0.5753565864562988
1789316077460814600,7.505814697265625,-8.788665381622314,4.412364022064208,-0.15158289260864258
1789316077470848500,7.5158486328125,-8.422651802825927,4.619911378479004,-0.1301847152709961
1789316077480881400,7.52588134765625,-8.335562717437744,5.130774157714844,0.3799298759460449
1789316077490914600,7.53591455078125,-7.912686849212646,5.019294142913818,-0.004189852905273437
1789316077500947500,7.545947509765625,-7.738209403228759,5.251980616760253,-0.3920505218505859
1789316077510981600,7.555981689453125,-7.962965084075927,5.632808318328857,-0.4176385520935058
1789316077521014500,7.5660146484375,-8.259247539520263,6.08456424407959,-0.2346317626953125
1789316077531047700,7.576047607421875,-8.281543542480469,6.386532928466797,-0.17971476211547852
1789316077541080600,7.58608056640625,-7.664886977386474,6.570138268280029,-0.3413233741760254
1789316077551114500,7.596114501953125,-7.005284420013427,7.353491123962402,-0.17986439971923826
1789316077561147400,7.6061474609375,-6.984185517883301,8.570643392944335,-0.12479776153564452
1789316077571180500,7.6161806640625,-7.235726329803466,9.299378523254394,-0.7519289588928222
1789316077581213400,7.62621337890625,-7.218218730163573,9.369558559417724,-1.5550339782714844
1789316077591247600,7.63624755859375,-6.959345675659179,8.818742539978027,-1.9870377403259276
1789316077601280500,7.646280517578125,-6.711695441436767,8.210465680694579,-1.8333599212646483
1789316077611313700,7.656313720703125,-6.539013646697998,7.653215244293213,-1.532887612915039
1789316077621347600,7.66634765625,-6.562207475280761,7.103745963287353,-1.0371382316589355
1789316077631380500,7.67638037109375,-6.637624827575683,6.5972226745605465,-0.6937199310302734
1789316077641413400,7.686413330078125,-6.481103894042969,5.43319175491333,-0.8119336380004882
1789316077651446500,7.696446533203125,-6.394762996673584,4.5790603126525875,-1.0769418342590331
1789316077661480700,7.706480712890625,-6.660818656158447,4.512321941375732,-1.209071838378906
1789316077671513600,7.716513671875,-6.823025818634033,5.304653053283691,-1.0299556266784666
1789316077681546500,7.72654638671875,-6.823923644256592,7.063194172668457,-0.4025251541137695
1789316077691579600,7.73657958984375,-7.0281789733886715,8.564508251190185,0.09756371765136718
1789316077701613600,7.746613525390625,-7.36097300415039,8.679280293273925,0.2748842781066894
1789316077711646500,7.756646484375,-8.366388063812256,7.800757921600342,0.24839842224121092
1789316077721679400,7.766679443359375,-9.439289682769775,6.6711436508178705,0.4337994132995605
1789316077731712500,7.77671240234375,-10.002076710510254,6.723217536926269,0.7625532287597656
1789316077741746700,7.78674658203125,-9.798569569396973,6.7924997474670405,1.0079588989257813
1789316077751779600,7.796779541015625,-9.084199649047852,6.002862112426757,1.0953472595214844
1789316077761812500,7.8068125,-7.917175977325439,4.592378059387206,0.7471405555725097
1789316077771845600,7.816845703125,-6.7927990226745605,3.7208886550903317,-0.09352350234985352
1789316077781879600,7.826879638671875,-6.375310108184814,4.088398609924316,-0.9196727127075195
1789316077791912400,7.836912353515625,-6.374561920166015,4.944475341033935,-1.5695488258361816
1789316077801945300,7.8469453125,-6.72276862411499,5.966649812316894,-2.0795137794494627
1789316077811978500,7.856978515625,-7.06065033340454,6.596773761749267,-2.5445874519348144
1789316077822012700,7.8670126953125,-7.24635059967041,7.0844427124023435,-2.7896938468933103
1789316077832045600,7.877045654296875,-7.2815154365539545,7.560739205169678,-2.6824036849975585
1789316077842078500,7.887078369140625,-7.44357296142578,7.908197721099853,-2.1835119140624997
1789316077852111600,7.897111572265625,-7.934683576965331,8.065915755462646,-1.7510592391967772
1789316077862145500,7.9071455078125,-8.55508108215332,7.964012547302246,-1.0694599540710448
1789316077872178400,7.917178466796875,-8.670302037048339,7.660248211669922,-0.395192911529541
1789316077882211300,7.92721142578125,-8.519616970062255,7.171531797790527,0.12090718383789062
1789316077892245500,7.93724560546875,-8.44629454421997,6.414515160369873,0.8084919731140137
1789316077902278700,7.947278564453125,-8.506149585723877,5.671564457702637,1.3718775512695311
1789316077912311600,7.9573115234375,-8.70771143798828,5.268141477966308,1.6633716033935546
1789316077922344400,7.967344482421875,-8.871414976501464,5.288342554473877,1.5324387001037596
1789316077932378600,7.977378662109375,-9.009829759979247,5.788132151031494,1.2132616912841796
1789316077942411800,7.987411865234375,-8.972121083831787,6.242132640838623,0.7145195579528808
1789316077952444700,7.997444580078125,-8.546102825927735,6.3694742416381835,0.37065234451293944
1789316077962477600,8.0074775390625,-8.01892954788208,6.468983248138428,0.21487959899902342
1789316077972511500,8.017511474609375,-7.612513816070556,6.335805780792236,0.45295302658081055
1789316077982544600,8.027544677734374,-7.530961322021484,6.196193896484375,0.9056067779541015
1789316077992577500,8.03757763671875,-7.63585728225708,6.138882694244384,1.3066355560302734
1789316078002610400,8.0476103515625,-7.5528084121704095,6.0896519226074215,1.5755343299865723
1789316078012644600,8.05764453125,-7.193229250335693,6.101174018096923,1.6138415565490722
1789316078022677800,8.067677734375,-6.853851165008544,6.289268486022949,1.4145242683410644
1789316078032710700,8.077710693359375,-6.570437543487548,6.361393811035156,1.0417769973754882
1789316078042743600,8.08774365234375,-6.238092425537109,6.270563785552978,0.6868366012573242
1789316078052777500,8.097777587890626,-5.9676972755432125,6.277447115325927,0.4709095390319824
1789316078062810600,8.107810546875,-5.703736542510986,6.356006857299804,0.2237082176208496
1789316078072843500,8.117843505859375,-5.539434453582763,6.427383994293213,-0.043544542694091797
1789316078082876400,8.12787646484375,-5.52282467956543,6.5948284729003905,-0.3597287994384765
1789316078092910600,8.13791064453125,-5.54781415939331,6.879888108062744,-0.7607575775146483
1789316078102943700,8.14794384765625,-5.64373186340332,7.32266577758789,-1.159990704345703
1789316078112976600,8.1579765625,-5.7614966575622555,7.735515926361083,-1.3245920684814452
1789316078123010600,8.168010498046876,-5.680243438720702,8.05708713684082,-1.3564648780822752
1789316078133043500,8.17804345703125,-5.276072270965576,8.192658805847168,-1.250072541809082
1789316078143076600,8.18807666015625,-4.904971013641357,8.336759818267822,-0.9522937103271484
1789316078153109500,8.198109619140626,-4.765059854125976,8.486696697235107,-0.6332663391113281
1789316078163143700,8.208143798828125,-4.825962358856201,8.579472011566162,-0.5855319435119628
1789316078173176600,8.218176513671875,-5.077353533172607,8.66341870727539,-0.7872434333801269
1789316078183209700,8.228209716796876,-5.416581980895995,8.443301792144775,-0.7023989120483398
1789316078193242600,8.23824267578125,-5.853074871063232,8.566453540039062,-0.3904045082092285
1789316078203276500,8.248276611328125,-6.131999364471435,8.532635441589354,-0.12779051361083985
1789316078213309400,8.258309326171876,-6.506243011474609,8.958504061889649,0.20739771881103514
1789316078223342300,8.26834228515625,-6.603058541107178,8.847024047088622,0.24765023422241209
1789316078233375200,8.278375244140625,-6.507290474700928,8.774449809265136,0.22176292877197265
1789316078243409400,8.288409423828124,-6.353911930847167,8.831910649108886,0.17268179473876952
1789316078253442300,8.2984423828125,-6.187963828277588,8.8619878074646,0.10893617553710937
1789316078263475500,8.308475341796875,-6.0598740394592285,8.565854989624023,0.047884033203124995
1789316078273508400,8.31850830078125,-5.979219371032714,8.59997236328125,0.1249473991394043
1789316078283542300,8.328542236328126,-5.8831520294189446,8.624064017486571,0.2651578338623047
1789316078293575200,8.3385751953125,-5.858611462402344,8.535029643249512,0.3687070556640625
1789316078303608300,8.3486083984375,-5.673809021759033,8.523507547760008,0.4969464820861816
1789316078313641200,8.35864111328125,-5.379322217559814,8.551340142059326,0.5213374114990235
1789316078323675400,8.36867529296875,-4.990713360595703,8.675389715576172,0.5864297691345215
1789316078333708300,8.378708251953125,-4.818031565856933,9.049633362579344,0.5689221694946289
1789316078343741400,8.388741455078126,-4.619312828063965,9.226205735015869,0.5621884773254394
1789316078353774300,8.3987744140625,-4.224119916534423,9.278129983520508,0.6310217750549316
1789316078363808500,8.40880859375,-3.90060341720581,9.236830004882812,0.7082347785949706
1789316078373841400,8.41884130859375,-3.5615246070861812,9.318532136535644,0.757166275024414
1789316078383874300,8.428874267578125,-3.296815686035156,9.4879219039917,0.8872013526916503
1789316078393908200,8.438908203125,-3.323151904296875,9.567529109191893,1.122431665802002
1789316078403941400,8.44894140625,-3.2097266006469725,9.42911432571411,1.3775637802124023
1789316078413974300,8.458974365234376,-3.0187890182495116,9.249698838806152,1.4787188003540037
1789316078424007400,8.46900732421875,-2.8651111991882323,9.21303762588501,1.6358382843017578
1789316078434041300,8.479041259765625,-2.7201123611450195,9.22500863418579,1.8011878364562988
1789316078444074500,8.489074462890626,-2.6617536956787107,9.093028267669677,1.7745523429870604
1789316078454107400,8.499107421875,-2.5999533653259275,8.786271179962158,1.6521487831115722
1789316078464140300,8.509140380859375,-2.620902629852295,8.54266116104126,1.6823755790710448
1789316078474174200,8.51917431640625,-2.389562894439697,8.253860585784912,1.585260774230957
1789316078484207400,8.529207275390625,-2.0028993263244628,7.715763762664794,1.1538555625915528
1789316078494240300,8.539240234375,-1.8595465019226074,7.267299864196777,0.7215525253295898
1789316078504273400,8.5492734375,-1.7480664871215819,7.091774954986572,0.3877110313415527
1789316078514307300,8.559307373046876,-1.458816999053955,6.982988417053222,-0.04668693237304687
1789316078524340500,8.569340576171875,-1.037437506866455,6.688950525665283,-0.565630142211914
1789316078534373400,8.579373291015624,-0.7778162643432617,6.31395869064331,-0.8476970252990722
1789316078544406500,8.589406494140626,-0.8768763580322265,5.841253500366211,-0.8613140472412109
1789316078554440200,8.599440185546875,-1.501613353729248,5.289988568115234,-0.36212300109863277
1789316078564473300,8.609473388671875,-2.9255647911071776,5.194519776916503,0.6531681404113769
1789316078574506200,8.61950634765625,-4.472967251586914,5.753416226959228,1.7223288192749022
1789316078584539400,8.629539306640625,-5.7894788894653315,6.752696144866943,2.4741081405639647
1789316078594573300,8.6395732421875,-6.778733087921142,7.762450695037841,2.978386865234375
1789316078604606500,8.6496064453125,-7.959523419189453,8.935010958099365,3.5329438247680662
1789316078614639400,8.659639404296875,-9.524583116912842,10.403404763793946,3.625120588684082
1789316078624672500,8.669672607421875,-11.075726517486572,12.115707863616942,2.850596351623535
1789316078634706200,8.6797060546875,-12.185438986968993,13.850157328796385,1.497124225616455
1789316078644739300,8.6897392578125,-12.120945179748535,14.61345874557495,1.308131932067871
1789316078654772200,8.699772216796875,-10.692953527069092,14.07790576171875,2.256834339904785
1789316078664805400,8.709805419921874,-8.307430847930908,12.654552874755858,2.289455337524414
1789316078674839300,8.71983935546875,-6.049997957611084,11.358092675781249,2.266860059356689
1789316078684872400,8.72987255859375,-4.7098435783386225,10.716296993255614,2.3795371749877927
1789316078694905300,8.7399052734375,-4.118775043487549,10.468946034240721,2.2102970451354977
1789316078704939300,8.749939208984374,-3.7906197784423825,10.417470698547362,1.9214964698791503
1789316078714972200,8.75997216796875,-3.636941959381103,10.344447547912598,1.8764555511474608
1789316078725005300,8.77000537109375,-3.819200560760498,10.069563269805908,1.8210896377563475
1789316078735038200,8.7800380859375,-4.173392768859863,9.63456675567627,1.7568951057434081
1789316078745072400,8.790072265625,-4.509628464508056,9.225607184600829,1.4401122985839843
1789316078755105300,8.800105224609375,-4.627542896270752,9.000701866149901,0.8083423355102538
1789316078765138400,8.810138427734374,-4.532373380279541,8.890269314575194,0.33952772293090816
1789316078775171300,8.82017138671875,-4.345775288391113,8.572439044189453,0.594959112548828
1789316078785205200,8.830205322265625,-3.998466410064697,7.624634461975098,1.3690344367980956
1789316078795238100,8.840238037109375,-3.71565133895874,6.0996776420593255,2.1083938369750976
1789316078805271300,8.850271240234376,-3.4070986000061034,4.8044145439147945,2.6397569679260253
1789316078815304200,8.86030419921875,-3.6490626052856445,4.07313557434082,3.00053323059082
1789316078825338400,8.87033837890625,-4.447828134155273,3.578583293914795,2.953247747802734
1789316078835371300,8.880371337890624,-5.210531000518799,3.706074532318115,2.058265239715576
1789316078845404400,8.890404296875,-5.7523687637329095,4.399644825744629,0.7799111907958984
1789316078855437300,8.900437255859375,-6.205770703124999,5.418826544952393,0.06673837127685546
1789316078865471500,8.910471435546874,-6.3797992362976075,6.580762538146972,-0.2904465888977051
1789316078875504000,8.920504150390625,-6.086509532928466,7.676857985687255,-0.6645405982971191
1789316078885537300,8.930537353515625,-5.653159032440185,8.244283779144286,-1.082029512786865
1789316078895570200,8.940570068359374,-5.446958414459228,8.226027991485596,-1.3208511283874511
1789316078905604400,8.950604248046876,-5.287145453643799,7.962067258453368,-1.4119804290771483
1789316078915637200,8.96063720703125,-5.24779076385498,7.753921351623535,-1.123030216217041
1789316078925670400,8.97067041015625,-5.570559075164795,7.597998968505859,-0.49320554199218747
1789316078935703300,8.980703369140626,-5.833771620178222,7.5971011428833,0.3016694091796875
1789316078945737500,8.990737548828125,-6.0221653633117675,7.700351089477539,0.8354267417907715
1789316078955770400,9.000770263671875,-6.496965480041504,7.651868505859374,1.477372061920166
1789316078965803300,9.01080322265625,-7.204152795410156,7.801356472015381,2.1130326026916504
1789316078975836200,9.020836181640625,-7.912237936401366,8.309525774383545,2.1760300338745115
1789316078985870300,9.030870361328125,-8.29336491317749,9.254936154937743,2.0603601661682127
1789316078995903200,9.0409033203125,-8.683619783782959,10.159345832061767,1.926135235595703
1789316079005936400,9.050936279296875,-8.978854776000976,10.526556511688232,1.5020622665405272
1789316079015969300,9.06096923828125,-9.10380217514038,10.032902056884765,1.0567407577514647
1789316079026003500,9.07100341796875,-8.947580516815185,9.220369868469238,0.647332273864746
1789316079036036400,9.081036376953126,-8.758588223266601,8.218546111297607,0.5147533569335937
1789316079046069500,9.091069580078125,-8.534431092834472,7.606977224731445,0.7893383598327637
1789316079056103200,9.101103271484375,-8.26119282836914,7.4131965278625485,1.004217958831787
1789316079066136300,9.11113623046875,-7.810783641052246,7.343615042114258,0.8731354179382323
1789316079076169200,9.121169189453125,-7.396886029052734,7.562385218811035,0.36795886764526364
1789316079086202400,9.131202392578125,-7.082048510742187,7.388207048034667,-0.34835634155273437
1789316079096236300,9.141236328125,-6.769754831695556,7.209988661956786,-0.9301473449707031
1789316079106269400,9.15126953125,-6.470479624176025,7.3855135711669915,-1.4567220726013184
1789316079116302300,9.16130224609375,-6.213851133728027,7.15671767501831,-1.5857096870422362
1789316079126335500,9.17133544921875,-6.184372525787353,6.697779144287109,-1.1004349380493164
1789316079136369200,9.181369140625,-6.126462773132324,6.848464211273193,-0.5886743331909179
1789316079146402300,9.19140234375,-5.967996550750732,7.113771682739257,-0.3098994773864746
1789316079156435200,9.201435302734374,-5.914426288604736,7.346158881378173,0.004489128112792969
1789316079166468400,9.21146826171875,-6.015132395935058,7.867346655273437,0.07227496261596679
1789316079176502300,9.221502197265625,-5.935674828338622,8.304288458251953,0.02259527816772461
1789316079186535400,9.231535400390625,-5.70762712020874,8.83505303878784,0.10669161148071288
1789316079196568300,9.241568359375,-5.516539900207519,9.47430488204956,0.2883516624450683
1789316079206601500,9.2516015625,-5.223399834442138,9.920374578857421,0.31049802780151364
1789316079216635100,9.26163525390625,-5.1331683593749995,9.9208234916687,0.11686696853637694
1789316079226668300,9.271668212890624,-5.105036489868164,9.662997900390625,-0.37065234451293944
1789316079236701200,9.281701171875,-4.910806880187988,9.216329653167724,-1.1100117446899413
1789316079246734300,9.291734375,-4.543446562957763,8.385242401885986,-1.648407843017578
1789316079256768300,9.301768310546874,-4.247463382720947,7.535899362945556,-1.99826056060791
1789316079266801400,9.311801513671876,-4.182969575500488,6.801777278900146,-2.0165163482666015
1789316079276834300,9.321834228515625,-4.1094975120544435,6.414964073181152,-1.4348749824523925
1789316079286867500,9.331867431640624,-3.99652112121582,6.16701456375122,-0.6132149002075195
1789316079296901000,9.341901123046876,-3.8802527030944822,6.3156047042846675,0.28745383682250975
1789316079306934300,9.351934326171875,-3.7696705139160156,6.800280902862548,1.096095447540283
1789316079316967200,9.36196728515625,-3.7205893798828122,7.20804337310791,1.4287398406982421
1789316079327000300,9.372000244140626,-3.565115909576416,7.378630241394043,1.2407950103759764
1789316079337034200,9.3820341796875,-3.449296404266357,7.254580667877197,0.5934627365112304
1789316079347067400,9.3920673828125,-3.556736203765869,7.364115393829345,-0.15113397979736326
1789316079357100300,9.402100341796874,-3.8057331764221187,6.9241808387756345,-0.8889970039367675
1789316079367133400,9.412133544921875,-3.7880759391784666,6.141127258300781,-1.4814122772216796
1789316079377167000,9.4221669921875,-3.7397429931640622,5.506813455963134,-1.6971897018432616
1789316079387200300,9.4322001953125,-3.55613765335083,4.780472527313232,-1.5689502754211424
1789316079397233200,9.442233154296876,-3.3171664001464842,4.123264171600342,-1.4232032493591307
1789316079407266300,9.452266357421875,-3.1377509132385253,3.569455400085449,-1.3350667007446289
1789316079417300200,9.46230029296875,-3.001281418609619,3.0397382827758785,-1.2873323051452636
1789316079427333400,9.47233349609375,-3.046471974945068,2.454655252075195,-1.3757681289672852
1789316079437366300,9.4823662109375,-3.1747114013671873,3.3075895935058592,-1.2337620429992675
1789316079447400400,9.492400390625,-3.1482255455017087,3.958812445068359,-1.4586673614501953
1789316079457433300,9.502433349609374,-2.852541640472412,5.296871897888184,-1.5499462997436522
1789316079467466200,9.51246630859375,-3.220949420928955,3.8715737220764157,-1.7573440185546874
1789316079477499100,9.5224990234375,-4.2414778785705565,5.823596263122559,-1.2773065856933592
1789316079487533300,9.532533203125,-6.297797829437256,9.44243207244873,-1.205929448699951
1789316079497566200,9.542566162109376,-7.808539076995849,7.419780582427978,-1.0327987411499022
1789316079507599400,9.552599365234375,-9.284564400482177,7.226149523162841,-0.6603507453918457
1789316079517632300,9.56263232421875,-11.584045457458496,7.6990043510437,-0.982520506286621
1789316079527666400,9.57266650390625,-14.091373146057128,7.4971432235717765,-1.361851831817627
1789316079537699300,9.58269921875,-17.201590740203855,7.954435740661621,-1.1496657096862792
1789316079547732500,9.592732421875,-18.978686922454834,9.478195459747313,0.32082302246093747
1789316079557765000,9.60276513671875,-18.461539363861082,8.175300843811035,0.8291419624328613
1789316079567799300,9.61279931640625,-19.07041477355957,9.088988052368164,0.19183540802001953
1789316079577832200,9.622832275390625,-18.25189708099365,9.90840357055664,-0.0757166275024414
1789316079587865300,9.632865234375,-14.086584742736816,8.94488703994751,0.3511994560241699
1789316079597898200,9.642898193359375,-10.359411308288573,9.14929200668335,1.1751041023254394
1789316079607932400,9.652932373046875,-8.064419379425049,7.516745749664306,0.6051344696044921
1789316079617965300,9.66296533203125,-6.0339867340087885,5.650615193176269,0.05835866546630859
1789316079627998500,9.67299853515625,-4.115034103393555,4.628889634704589,-0.3247136001586914
1789316079638031400,9.68303125,-2.5611972259521485,4.711938504791259,-0.5578489868164063
1789316079648065300,9.693065185546875,-1.6690578323364256,4.891054716491699,-0.3268085266113281
1789316079658098200,9.70309814453125,-1.6135422813415525,4.700266771697998,0.06838438491821289
1789316079668131300,9.71313134765625,-1.9820996994018554,4.707748651885986,0.0613514175415039
1789316079678164200,9.723164306640625,-2.697367445373535,4.698022207641602,-0.4008791404724121
1789316079688198400,9.733198486328124,-3.6267666023254392,4.502296221923828,-0.7483376564025879
1789316079698231300,9.743231201171875,-4.721515311431885,4.050390658569336,-0.6796539962768554
1789316079708264400,9.753264404296875,-5.562029731750488,3.6330513816833494,-0.3987842140197754
1789316079718297300,9.76329736328125,-6.295553265380859,3.370437387084961,0.11611878051757812
1789316079728331300,9.773331298828126,-6.791751559448242,3.3282395828247067,0.6419453201293945
1789316079738364200,9.7833642578125,-7.175123100280762,3.5615246070861812,0.8403647827148437
1789316079748397300,9.793397216796874,-7.652317418670654,3.601926760101318,0.7951742263793945
1789316079758430200,9.80343017578125,-8.164975849151611,3.7825393478393554,0.6361094535827636
1789316079768464400,9.81346435546875,-8.774749084472656,4.3339539176940916,0.4739022911071777
1789316079778497300,9.823497314453125,-9.320028512573241,4.733187044525146,0.2602197929382324
1789316079788530400,9.833530517578126,-9.452906704711914,5.041739783477783,0.06838438491821289
1789316079798564000,9.843564208984375,-9.474903432464599,5.33712441329956,0.3564367721557617
1789316079808597200,9.85359716796875,-9.121459412384032,5.5535003883361815,0.8984241729736328
1789316079818630100,9.863630126953124,-8.579920924377442,5.588515587615967,1.599326708984375
1789316079828663300,9.873663330078125,-8.348431551361083,5.805490113067626,2.450914311981201
1789316079838696200,9.8836962890625,-8.237998999786376,5.839008936309814,3.130867583465576
1789316079848730400,9.89373046875,-8.200140686035155,6.028150867462158,3.700537940979004
1789316079858763300,9.90376318359375,-8.410531156921387,6.530783578491211,3.967192150878906
1789316079868796400,9.91379638671875,-8.777143286132812,7.287500940704345,3.893869725036621
1789316079878830000,9.923830078125,-9.083301823425293,7.8541785461425775,3.4907460205078125
1789316079888863200,9.93386328125,-8.992471797943114,8.109909210968016,2.9267618919372556
1789316079898896100,9.943896240234375,-8.578723823547362,8.221239588165282,2.513612467956543
1789316079908929300,9.95392919921875,-8.045565041351319,8.44000976486206,2.1493945404052734
1789316079918963200,9.963963134765624,-7.633313442993163,8.997709114074706,1.8456302047729491
1789316079928996400,9.973996337890625,-7.308749480438232,9.073126466369628,1.4975731384277342
1789316079939029200,9.984029296875,-6.996755076599121,9.1424086769104,1.3887866004943847
1789316079949062400,9.9940625,-6.955155822753905,9.136722447967529,1.0544961936950683
1789316079959096300,10.004096435546876,-7.041347082519531,9.035417790222168,0.8167220413208007
1789316079969129200,10.014129150390625,-7.181557517242431,8.826374057769774,0.5213374114990235
1789316079979162000,10.024162109375,-7.113921320343017,8.515876029968261,0.19767127456665037
1789316079989195300,10.0341953125,-6.749104842376709,8.061426627349853,-0.09980828170776367
1789316079999229400,10.0442294921875,-5.9953802322387695,7.6199956962585444,-0.33399113159179683
1789316080009262300,10.054262451171875,-5.277718284606934,7.7581112045288085,-0.15128361740112303
1789316080019295200,10.064295166015626,-4.874594580078124,7.913435037231445,-0.13602058181762694
1789316080029328400,10.074328369140625,-4.320187258148193,7.5990464317321775,-0.2747346405029297
1789316080039362300,10.0843623046875,-3.6418800003051754,7.581239556884765,-0.2163759750366211
1789316080049395200,10.094395263671874,-3.155258512878418,7.745990558624267,-0.1649006393432617
1789316080059428000,10.104427978515625,-2.833388027191162,7.879317663574218,-0.055365913391113276
1789316080069461200,10.114461181640625,-2.690334477996826,7.928548435211181,0.01840542526245117
1789316080079495400,10.124495361328124,-2.6026468421936033,7.815422406768798,0.004489128112792969
1789316080089528300,10.1345283203125,-2.570923670196533,7.768436199188232,0.15981296081542967
1789316080099561200,10.144561279296875,-2.546832015991211,7.793724954223633,0.4070142822265625
1789316080109594400,10.154594482421874,-2.48323603439331,7.760355768585205,0.8004115425109862
1789316080119628500,10.164628662109376,-2.4129063606262204,7.702296378326416,1.152957736968994
1789316080129661400,10.174661376953125,-2.2225673286437986,7.800009733581542,1.4233528869628906
1789316080139694300,10.1846943359375,-2.0382138008117674,8.008006002807617,1.5122376235961914
1789316080149727200,10.194727294921876,-1.7049708572387694,8.022969763183593,1.6277578536987303
1789316080159761400,10.204761474609375,-1.1602899795532227,7.754220626831054,1.4597148246765135
1789316080169794300,10.214794189453125,-0.762253953552246,7.396736391448974,1.2324153045654296
1789316080179827200,10.2248271484375,-0.5714660087585449,7.266402038574219,1.029207438659668
1789316080189860400,10.2348603515625,-0.5093664031982421,7.568669998168945,0.7830535804748535
1789316080199894500,10.24489453125,-0.5166986457824707,8.060379164123535,0.5174468338012695
1789316080209927400,10.254927490234374,-0.8014590057373047,8.505999948120117,0.7101800674438477
1789316080219960300,10.264960205078125,-1.6958429634094236,8.728660702514649,1.2747627464294433
1789316080229993500,10.274993408203125,-2.9912556991577146,8.846575134277343,1.8912696739196777
1789316080240027400,10.28502734375,-4.481197319793701,8.809165733337402,2.6714801399230956
1789316080250060500,10.295060546875,-6.395361547088623,8.830114997863769,3.407846788024902
1789316080260093400,10.305093505859375,-8.852859913635253,9.29548794555664,3.5275568710327145
1789316080270126600,10.315126708984375,-11.176282987213135,11.131840618896483,2.8981811096191405
1789316080280160500,10.325160400390626,-12.449848632812499,13.24711778564453,2.6861446250915524
1789316080290193700,10.335193603515625,-12.62806701889038,14.904653522491454,3.157054164123535
1789316080300226600,10.3452265625,-11.72724864425659,15.273510215759277,4.1766847961425775
1789316080310259500,10.355259521484374,-9.643694649505616,14.113968424224852,5.664980403137207
1789316080320293400,10.36529345703125,-7.57809716720581,11.941080780029296,4.770895720672607
1789316080330326500,10.375326416015625,-5.683385828399658,10.160094020080566,3.4720413200378415
1789316080340359400,10.385359375,-4.4391491531372065,9.723750767517089,2.140715559387207
1789316080350392600,10.395392578125,-4.3077673370361325,9.463830249786376,1.4885948822021484
1789316080360426500,10.405426513671875,-4.302230745697021,9.09721812057495,1.5631144088745117
1789316080370459600,10.415459716796875,-4.022857339477539,8.799888201904297,1.6443676277160644
1789316080380492500,10.425492431640626,-3.796006732177734,8.732252005004883,1.725022296142578
1789316080390526500,10.4355263671875,-3.946691799163818,8.533832542419432,1.5141829124450683
1789316080400559400,10.445559326171875,-4.258985478210449,8.122628407287598,0.9316437210083007
1789316080410592500,10.455592529296876,-4.461445156097412,7.672518495178222,0.2796726814270019
1789316080420625400,10.46562548828125,-4.501847309112549,7.254431030273437,-0.2599205177307129
1789316080430659600,10.47565966796875,-4.1858126899719235,6.760327662658691,-0.6600514701843261
1789316080440692500,10.4856923828125,-3.5494039611816404,6.1465142120361325,-0.7372644737243652
1789316080450725600,10.4957255859375,-2.862716997528076,5.52252540435791,-0.39698856277465816
1789316080460758500,10.505758544921875,-2.3523031311035156,4.778976151275635,0.10773907470703124
1789316080470792400,10.51579248046875,-1.9651906501770018,3.9369653549194332,0.5488707305908203
1789316080480825300,10.525825439453126,-1.8634370796203612,3.378667455291748,1.0869675537109373
1789316080490858500,10.5358583984375,-2.0305822830200193,3.3176153129577637,1.513733999633789
1789316080500891400,10.545891357421874,-2.5966613380432126,3.484610878753662,1.6825252166748046
1789316080510925600,10.555925537109376,-3.4735376960754394,3.7741596420288084,1.7778443702697753
1789316080520958500,10.56595849609375,-4.284423870849609,4.2779894538879395,1.8682254829406737
1789316080530991600,10.57599169921875,-5.254674093627929,5.306598342132568,1.9162591537475584
1789316080541024500,10.5860244140625,-6.274304725646973,6.644059244537353,1.6859668815612792
1789316080551058400,10.596058349609375,-7.381772631072997,7.483675839233398,1.3593079925537108
1789316080561091300,10.60609130859375,-8.732401642608641,8.4268416557312,1.143380930328369
1789316080571124500,10.61612451171875,-9.83897172241211,9.787496386718749,1.223885961151123
1789316080581157400,10.626157470703125,-10.857405253601074,10.485406170654297,0.9886556480407714
1789316080591191600,10.636191650390625,-11.367519844818114,11.225064846038817,0.7498340324401855
1789316080601224400,10.646224365234374,-11.575665751647948,11.755230876159667,0.5398924743652344
1789316080611257600,10.656257568359376,-11.00075807800293,11.805958023834227,0.3919008842468262
1789316080621290500,10.66629052734375,-9.916484001159667,11.595866828155517,0.24435820693969726
1789316080631324400,10.676324462890625,-8.712200566101073,11.083208397674559,0.05057751007080078
1789316080641357300,10.686357421875,-7.521085240173339,10.6624274559021,-0.1131260284423828
1789316080651390500,10.696390380859375,-6.750601218414306,10.672153900146483,0.014514847564697266
1789316080661423400,10.70642333984375,-6.623259617614746,10.736049156951903,-0.0004489128112792969
1789316080671457500,10.71645751953125,-6.516867281341552,10.746823064422607,-0.2527379127502441
1789316080681490400,10.726490478515625,-6.552780306243896,11.013177999114989,-0.3628711891174316
1789316080691523600,10.736523681640625,-6.604106004333496,10.590302130889892,-0.5009866973876953
1789316080701556500,10.746556396484374,-6.5212067718505855,9.858274973297119,-0.6688800888061524
1789316080711590700,10.756590576171876,-6.322488034057617,9.090334790802002,-1.0012252067565917
1789316080721623300,10.766623291015625,-5.9376201171875,7.753921351623535,-1.3322235862731933
1789316080731656400,10.776656494140624,-5.565770671844482,6.793547210693359,-1.2464812393188476
1789316080741689300,10.786689453125,-5.450250441741943,6.211307294464111,-1.0232219345092772
1789316080751723500,10.7967236328125,-5.606771375274658,5.822997712707519,-0.8544307174682617
1789316080761756400,10.80675634765625,-5.410596476745605,5.110722718811035,-0.7525275093078613
1789316080771789600,10.81678955078125,-5.022885445404053,3.8447885910034176,-0.6212953308105469
1789316080781822500,10.826822509765625,-4.575169734954834,3.548356497955322,-0.04369418029785156
1789316080791856600,10.836856689453125,-4.355651370239258,4.374804983520508,0.968454571533203
1789316080801889500,10.8468896484375,-4.13089568939209,5.212775564575195,1.8309657196044922
1789316080811922400,10.85692236328125,-3.426401850891113,4.923226801300048,1.9330185653686522
1789316080821955300,10.866955322265625,-2.5758617111206052,4.46862776107788,1.6412252380371093
1789316080831989500,10.876989501953124,-2.504634211730957,5.003133281707763,1.3418003929138183
1789316080842022400,10.8870224609375,-2.740163800048828,5.768828900146484,1.1022305892944335
1789316080852055600,10.8970556640625,-2.1766285842895505,4.140322858428955,0.17642273483276366
1789316080862088400,10.90708837890625,-1.3108254089355469,2.612074011230469,-0.6265326469421386
1789316080872122600,10.91712255859375,-1.451185481262207,2.684049698638916,-1.0666168395996094
1789316080882155500,10.927155517578125,-1.904437783050537,4.920832599639892,-1.1941080780029296
1789316080892188700,10.937188720703125,-2.3237223487854,6.40329234008789,-0.9811737678527831
1789316080902221600,10.9472216796875,-3.3584663787841795,6.4549173133850095,-0.8876502655029296
1789316080912255500,10.95725537109375,-4.5988124763488765,5.060145208740234,-1.1763012031555176
1789316080922288400,10.967288330078125,-5.712714798736572,3.207930949401855,-1.3685855239868163
1789316080932321500,10.977321533203124,-7.774870616149902,3.320308789825439,-1.3928268157958983
1789316080942354400,10.9873544921875,-9.969156437683106,4.1554362564086915,-1.2580033348083495
1789316080952388600,10.997388671875,-11.651980929565429,4.44363828125,-1.1182418128967284
1789316080962421500,11.00742138671875,-13.432818051910399,3.8147114326477047,-0.8895955543518066
1789316080972454700,11.01745458984375,-15.493627130889891,3.3906384635925293,-0.9077017044067383
1789316080982487600,11.027487548828125,-18.463933565521238,7.071723516082764,1.4041992736816404
1789316080992521500,11.037521484375,-18.07293050689697,7.504625103759765,2.793734062194824
1789316081002554400,11.047554443359376,-16.37693790588379,6.8578913803100585,1.950975077819824
1789316081012587500,11.05758740234375,-15.60301221923828,7.242460021972656,0.030526071166992186
1789316081022620400,11.067620361328125,-12.591705081176757,6.947673942565918,-0.49949032135009763
1789316081032654600,11.077654541015624,-9.104849638366698,5.40730444946289,-1.0959458099365234
1789316081042687500,11.0876875,-7.480234174346923,5.20918426208496,-1.092354507446289
1789316081052720600,11.097720703125,-6.617423751068115,5.0860325141906735,-0.6040870063781738
1789316081062753500,11.10775341796875,-5.773467665863037,5.227589687347412,0.14484920043945312
1789316081072787500,11.117787353515626,-5.431695378875732,6.00136573638916,1.2942156349182128
1789316081082820400,11.1278203125,-5.530007284545898,6.691195089721679,1.9752163696289062
1789316081092853500,11.137853515625,-5.695955387115478,7.000047103881836,1.9569605819702147
1789316081102886400,11.147886474609376,-5.7697267257690426,7.057956856536864,1.5037082801818846
1789316081112920600,11.157920654296875,-5.983409223937988,6.775291423034668,0.879120922088623
1789316081122953500,11.167953369140625,-6.450877098083495,6.823624369049072,0.4364928901672363
1789316081132986600,11.177986572265626,-6.867468186950683,6.674136402893066,-0.17223288192749023
1789316081143019500,11.18801953125,-6.785616417694091,6.003011750030518,-0.6727706665039062
1789316081153053400,11.198053466796875,-6.424241604614258,5.341164628601074,-0.8164227661132812
1789316081163086300,11.20808642578125,-6.462099918365478,4.8323967758178705,-0.550965657043457
1789316081173119500,11.218119384765625,-6.7936968482971185,4.4288241584777825,-0.15248071823120116
1789316081183152400,11.22815234375,-6.883329772949218,4.137330106353759,0.4408323806762695
1789316081193186600,11.2381865234375,-6.826168208312988,4.030488857269287,1.2315174789428711
1789316081203219500,11.248219482421876,-6.916399683380127,3.960159183502197,1.891718586730957
1789316081213252600,11.258252685546875,-6.928669966888427,3.4229601860046386,2.2501006477355956
1789316081223286300,11.268286376953125,-6.982838779449462,2.9516017341613767,2.40048643951416
1789316081233319700,11.278319580078126,-6.907122151947021,2.675819630432129,2.359036823272705
1789316081243352600,11.2883525390625,-6.7091516021728514,2.616263864135742,2.2008698760986327
1789316081253385700,11.2983857421875,-6.494571278381347,2.6836007858276365,2.2780828796386716
1789316081263419600,11.308419677734374,-6.571036093902587,3.004423808288574,2.6464906600952145
1789316081273452800,11.318452880859375,-6.735787095642089,3.7392940803527828,2.925864066314697
1789316081283485700,11.328485595703125,-6.975207261657714,5.200654918670654,3.2947207595825194
1789316081293518800,11.338518798828124,-7.266402038574219,6.793846485900879,3.812766143798828
1789316081303552500,11.348552490234376,-7.579443905639648,8.30009860534668,3.9897874290466304
1789316081313585700,11.358585693359375,-8.014290782165526,10.054000959014893,3.678541213226318
1789316081323618600,11.36861865234375,-8.566453540039062,11.307365528106688,3.024475247192383
1789316081333651700,11.378651611328126,-8.783876978302002,11.864765602111815,2.443432431793213
1789316081343685600,11.388685546875,-8.100482041931151,12.115109313201904,1.9099743743896482
1789316081353718800,11.39871875,-7.238120531463623,12.431143932342529,1.5695488258361816
1789316081363751700,11.408751708984376,-6.836942115783691,13.024157756042479,1.214309154510498
1789316081373784800,11.418784912109375,-6.8213798049926755,14.044835851287841,1.0763432838439941
1789316081383817700,11.428817626953125,-7.183951718902588,15.697134272003172,2.0593127029418943
1789316081393851600,11.4388515625,-7.626280475616455,16.948403914642334,3.221697608947754
1789316081403884500,11.448884521484375,-6.935104383850097,16.487969007873534,3.421314172363281
1789316081413917700,11.458917724609375,-5.4804772377014155,14.456638536834715,2.5610475883483885
1789316081423951600,11.46895166015625,-4.4945150665283204,13.525593366241454,1.5277999343872068
1789316081433984800,11.47898486328125,-4.293252489471436,12.871976313018799,0.46671968612670894
1789316081444017700,11.489017578125,-4.317044868469238,11.789797162628172,-0.4312555740356445
1789316081454050800,11.49905078125,-3.8989574035644528,10.874613578033447,-0.5023334358215332
1789316081464084700,11.509084716796876,-3.3515830490112304,9.81936919631958,-0.060603229522705075
1789316081474117600,11.51911767578125,-3.3803134689331054,8.601768014526368,0.35673604736328124
1789316081484150500,11.529150634765625,-3.5339912879943847,7.244854223632812,0.4773439559936523
1789316081494183700,11.53918359375,-3.527407233428955,6.159383045959473,0.48108489608764643
1789316081504217600,11.549217529296875,-3.351283773803711,5.139004225921631,0.5593453628540038
1789316081514250800,11.559250732421875,-2.945765867614746,4.255693450927734,0.5749076736450195
1789316081524283600,11.56928369140625,-2.369810730743408,3.4008138206481933,0.3612251754760742
1789316081534316800,11.57931689453125,-1.7471686614990234,2.390909632873535,0.16909049224853515
1789316081544350700,11.589350830078125,-1.1480196960449218,1.6304513305664061,0.09232640151977539
1789316081554384000,11.5993837890625,-0.4993406837463379,1.061678798675537,0.03127425918579101
1789316081564416800,11.609416748046876,0.09711480484008789,0.6748655929565429,0.008080430603027343
1789316081574449700,11.61944970703125,0.5493196434020996,0.39444472351074217,0.09965864410400391
1789316081584483600,11.629483642578125,0.805050308227539,0.41793782730102536,0.4173392768859863
1789316081594516700,11.639516845703126,1.1122563087463377,0.934037922668457,0.8828618621826171
1789316081604549600,11.649549560546875,1.2521674682617188,2.0150199722290036,1.4127286170959472
1789316081614582800,11.659582763671875,0.5235819755554199,3.7563527671813963,1.7310078002929687
1789316081624616700,11.66961669921875,-0.6744166801452637,6.159682321166992,2.026392430114746
1789316081634649900,11.67964990234375,-2.5752631607055663,8.351424303436279,2.718316709899902
1789316081644682800,11.689682861328125,-5.387103372955322,9.511415007781983,3.170371910858154
1789316081654716000,11.6997158203125,-8.149563175964355,11.592425163269043,3.967790701293945
1789316081664749600,11.70974951171875,-9.866355403900146,14.105588718414305,4.7472529792785645
1789316081674782700,11.71978271484375,-13.538761475372313,15.604807870483398,5.209034624481201
1789316081684815600,11.729815673828124,-17.36020660018921,16.668731233215333,4.936843823242187
1789316081694848800,11.739848876953126,-17.107468687438963,17.334917845153807,2.683301510620117
1789316081704882700,11.749882568359375,-14.125041606903075,15.231162773895262,1.236006607055664
1789316081714915800,11.759915771484375,-10.153659603118896,13.418153566741942,2.30471837310791
1789316081724948700,11.76994873046875,-7.982567610168457,12.241104175567626,2.633322550964355
1789316081734982000,11.77998193359375,-6.9992989158630365,12.196212894439697,2.235885075378418
1789316081745015600,11.790015625,-6.85025986251831,13.283778998565673,2.020706201171875
1789316081755048700,11.800048583984376,-7.011269924163818,13.102418222808836,2.000355487060547
1789316081765081600,11.81008154296875,-6.711845079040527,11.578359228515625,1.7326538139343262
1789316081775114800,11.82011474609375,-6.265925019836425,10.245088179016113,1.40464818649292
1789316081785148700,11.830148681640624,-5.962310321807861,9.247603912353515,0.8511386901855468
1789316081795181800,11.840181884765625,-5.875520511627197,8.092700886535644,0.30735563812255856
1789316081805214700,11.850214599609375,-5.925798746490478,6.739677673339843,0.09187748870849609
1789316081815248000,11.860247802734374,-5.851279219818115,5.735908627319335,0.08589198455810547
1789316081825281500,11.870281494140626,-5.549310535430908,5.450549716949463,0.0757166275024414
1789316081835314700,11.880314697265625,-5.250633878326416,5.550806911468506,0.17971476211547852
1789316081845347600,11.89034765625,-5.264101262664795,5.574150377655029,0.41374797439575195
1789316081855380700,11.900380615234376,-5.484816728210449,5.736207902526855,1.057339308166504
1789316081865414700,11.91041455078125,-5.529857646942139,5.824194813537598,1.5831658477783201
1789316081875447800,11.92044775390625,-5.309142181396484,5.072265854644775,1.506102481842041
1789316081885480700,11.930480712890626,-4.8707040023803705,4.329165514373779,1.3486837226867674
1789316081895513900,11.940513916015625,-4.375702809143066,3.806930277252197,1.0184335311889647
1789316081905547500,11.950547607421875,-3.698443014526367,3.4008138206481933,0.266205297088623
1789316081915580700,11.96058056640625,-3.1796494422912596,3.6545991966247557,-0.2371756019592285
1789316081925613600,11.970613525390625,-3.3412580543518065,4.98622423248291,-0.22161329116821288
1789316081935646700,11.980646728515625,-4.193593845367431,6.289567761230469,-0.34760815353393554
1789316081945680600,11.9906806640625,-4.612130223083496,6.817938140106201,-0.795473501586914
1789316081955713800,12.0007138671875,-4.285022421264649,6.6340335250854485,-1.4579191734313963
1789316081965746700,12.01074658203125,-4.312106827545166,6.3447840370178215,-2.314893730163574
1789316081975779800,12.02077978515625,-5.092018018341064,6.949469593811035,-2.5287258659362792
1789316081985813500,12.0308134765625,-5.814019456481933,6.950367419433594,-2.0693384223937987
1789316081995846700,12.0408466796875,-6.049549044799805,6.8499605873107905,-1.0365396812438965
1789316082005879600,12.050879638671875,-6.19933628616333,6.117185241699218,-0.3956418243408203
1789316082015912700,12.06091259765625,-5.88659369430542,4.81399135055542,-0.3124433166503906
1789316082025946600,12.070946533203125,-6.525396624755859,4.891653266906738,-0.11731588134765625
1789316082035979800,12.080979736328125,-8.034342221069336,6.815244663238525,-0.036062662506103516
1789316082046012700,12.0910126953125,-9.702651865386962,7.477540697479248,-0.024091654205322263
1789316082056045800,12.1010458984375,-10.963498314666747,5.853823059082031,0.21338322296142576
1789316082066079700,12.111079833984375,-11.419893006134032,4.354603907012939,1.3893851509094237
1789316082076112600,12.121112548828124,-11.84950256652832,4.99280828704834,3.0952538337707516
1789316082086145500,12.1311455078125,-11.6829559135437,4.819079029083252,3.5042134048461913
1789316082096178700,12.1411787109375,-10.831667585754394,4.611382035064697,2.7168203338623047
1789316082106212600,12.151212646484375,-10.057143348693847,4.974552499389648,1.4772224243164063
1789316082116245800,12.161245849609376,-9.79378116607666,5.070619841003418,0.8207622566223144
1789316082126278700,12.171278564453125,-9.680804775238036,5.257517208099365,0.718260498046875
1789316082136311800,12.181311767578125,-9.381379930114745,4.84556488494873,0.9882067352294921
1789316082146345700,12.191345703125,-8.655787189483641,4.250456134796142,0.7154173835754394
1789316082156378600,12.201378662109375,-7.883507516479492,3.759495156860351,-0.1548749198913574
1789316082166411500,12.21141162109375,-7.397634217071532,3.5529952636718747,-0.8131307388305664
1789316082176444700,12.221444580078124,-7.146691955566406,3.680636139678955,-0.7739256866455078
1789316082186478600,12.231478515625,-7.303063251495361,3.7089176467895504,-0.36496611557006836
1789316082196511700,12.24151171875,-7.765293809509277,3.643526013946533,-0.031124621582031248
1789316082206544600,12.251544677734374,-8.059780613708496,3.737348791503906,0.11791443176269531
1789316082216577800,12.261577880859376,-8.107365371704102,3.8612487274169918,0.12449848632812499
1789316082226611700,12.27161181640625,-7.82709413986206,3.6917093223571773,0.131531453704834
1789316082236644600,12.28164453125,-7.4411787597656245,3.170371910858154,0.00029927520751953123
1789316082246677800,12.291677734375,-6.938546048736572,2.6222493682861328,-0.004189852905273437
1789316082256710700,12.301710693359375,-6.813000099182129,2.6478373985290524,0.1927332336425781
1789316082266744600,12.31174462890625,-7.071424240875244,3.0337527786254883,0.4330512252807617
1789316082276777500,12.321777587890624,-7.349600546264648,3.1809961807250975,0.7695861961364746
1789316082286810600,12.331810546875,-7.671620669555663,3.518877890014648,1.298555125427246
1789316082296843500,12.341843505859375,-7.7407532424926755,4.364479988861084,1.661276676940918
1789316082306877700,12.351877685546874,-7.414543266296386,4.790498246765137,1.605761125946045
1789316082316910600,12.36191064453125,-7.42486826095581,5.128379956054687,1.4651017784118652
1789316082326943700,12.37194384765625,-7.845649202728271,5.446060588836669,1.2147580673217773
1789316082336976600,12.3819765625,-8.402001813507079,6.005854864501953,1.0015244819641114
1789316082347010600,12.392010498046876,-8.864830921936035,6.332214478302002,0.8928875816345214
1789316082357043500,12.40204345703125,-9.430461064147948,6.539911472320556,1.014542953491211
1789316082367076600,12.41207666015625,-9.485378064727783,6.4992100440979,1.365592771911621
1789316082377109500,12.422109619140626,-8.895207355499267,6.266224295043945,1.8701707717895506
1789316082387143700,12.432143798828125,-8.080131327819824,6.05882657623291,2.290802075958252
1789316082397176600,12.442176513671875,-7.32910019454956,6.010643267822266,2.461987494659424
1789316082407209700,12.452209716796874,-6.939443874359131,6.392518432617187,2.671031227111816
1789316082417242600,12.46224267578125,-6.95919603805542,6.899939546966553,2.7736826232910157
1789316082427275800,12.47227587890625,-7.062146709442138,7.604134110260009,2.690933028411865
1789316082437309400,12.482309326171874,-6.9439330024719235,8.065317205047608,2.5966613380432126
1789316082447342600,12.492342529296875,-6.553229219055176,8.039579537200927,2.4621371322631833
1789316082457375500,12.50237548828125,-6.120477268981933,7.95518392868042,2.2375310890197753
1789316082467409700,12.51240966796875,-5.932532438659668,7.831283992767333,2.0967221038818358
1789316082477442600,12.522442626953126,-5.87986000213623,8.108263197326659,1.8778022895812987
1789316082487475700,12.532475830078125,-5.916970127868652,8.244283779144286,1.5809212837219238
1789316082497508600,12.542508544921875,-6.0604725898742675,8.218695748901366,1.119738188934326
1789316082507541800,12.552541748046876,-6.199785198974609,8.673893339538573,0.8316858016967773
1789316082517575400,12.562575439453125,-6.1641714492797846,9.145102153778076,0.5514145698547362
1789316082527608600,12.572608642578125,-5.7900774398803705,9.61466495437622,0.5366004470825195
1789316082537641500,12.582641357421876,-5.180154566955566,10.051307482147216,0.881664761352539
1789316082547674600,12.592674560546875,-4.67976641998291,10.077344425201415,1.6367361099243163
1789316082557708500,12.60270849609375,-4.3357495689392085,9.559448678588867,2.376245147705078
1789316082567741700,12.61274169921875,-4.210053981781005,8.671648775482177,2.691681216430664
1789316082577774600,12.622774658203125,-4.553771557617187,8.103774069213866,2.9173347229003905
1789316082587807700,12.632807861328125,-5.062090497589111,7.720252890777587,3.321805165863037
1789316082597841400,12.64284130859375,-5.26694437713623,7.5062711174011225,3.697245913696289
1789316082607874600,12.65287451171875,-5.111620544433594,7.089231115722656,3.84987626953125
1789316082617907500,12.662907470703125,-4.91589455871582,6.2858268211364745,3.706074532318115
1789316082627940600,12.672940673828125,-4.880131171417236,5.659892724609374,3.5411738929748533
1789316082637974500,12.682974609375,-4.959888014221191,5.543624306488037,3.1563059761047363
1789316082648007700,12.693007568359375,-5.147533569335937,6.0722939605712885,2.043600754547119
1789316082658040600,12.70304052734375,-5.559036979675293,7.198765841674804,1.0040683212280272
1789316082668073700,12.71307373046875,-6.228066706085205,8.8489693359375,0.4918588035583496
1789316082678107400,12.723107421875,-6.534374880981445,10.537031143951415,0.35628713455200195
1789316082688140500,12.733140625,-6.739378398132324,11.718120750427245,0.732326432800293
1789316082698173400,12.74317333984375,-7.012018112182616,12.049119129943847,1.7235259201049804
1789316082708206600,12.75320654296875,-6.947075392150879,11.405228520965576,2.931101382446289
1789316082718240500,12.763240478515625,-6.422146678161621,10.164882423400877,3.253420780944824
1789316082728273700,12.773273681640624,-5.792172366333007,9.194632200622559,2.814234413909912
1789316082738306600,12.783306640625,-5.354632012939453,8.660725230407714,2.2737433891296384
1789316082748339700,12.793339599609375,-5.301211388397216,8.265981231689453,2.1356278808593747
1789316082758373400,12.803373291015625,-5.558588066864013,8.142380570983887,2.351704580688476
1789316082768406500,12.813406494140626,-5.805041200256348,8.158391794586182,2.5020903724670407
1789316082778439400,12.823439453125,-6.194547882843017,8.185326563262938,2.4672248107910155
1789316082788472600,12.83347265625,-6.797288150787353,8.122628407287598,2.4597429306030274
1789316082798506500,12.843506591796874,-7.413346165466308,8.027608528900146,2.4672248107910155
1789316082808539600,12.85353955078125,-7.812280017089844,7.874229985046386,2.326415825653076
1789316082818572500,12.863572509765625,-7.786542349243164,7.784148147583007,2.082656169128418
1789316082828605700,12.873605712890624,-7.563432682037353,7.508814956665039,1.6226701751708983
1789316082838639600,12.8836396484375,-6.913855844116211,7.095815170288086,1.052251629638672
1789316082848672500,12.893672607421875,-6.29480507736206,6.7839704040527335,0.7257423782348632
1789316082858705400,12.903705322265624,-5.922057806396484,6.725761376190185,0.6652887863159179
1789316082868738600,12.913738525390626,-5.810128878784179,6.972663422393798,0.7603086647033691
1789316082878772500,12.9237724609375,-5.965452711486816,7.377433140563965,0.6786065330505371
1789316082888805600,12.9338056640625,-6.337002881622314,7.8161705947875975,0.3113958534240722
1789316082898838500,12.943838623046876,-6.5683426170349115,8.526799575042723,0.053420624542236325
1789316082908871700,12.95387158203125,-6.8016276412963865,9.07836378250122,-0.13467384338378904
