time,seconds_elapsed,z,y,x
1789316070013618700,0.05861865234375,1.0154204368591309,0.1864090859889984,0.5393385887145996
1789316070023651600,0.068651611328125,0.8404688835144043,0.02192351408302784,0.5511816740036011
1789316070033685800,0.078685791015625,0.6353362798690796,-0.07503152638673782,0.5483587384223938
1789316070043718700,0.08871875,0.4402429461479187,-0.13431191444396973,0.5139700174331665
1789316070053751800,0.098751708984375,0.29774171113967896,-0.16362905502319336,0.47189101576805115
1789316070063785700,0.10878564453125,0.22851964831352234,-0.15032081305980682,0.5121418833732605
1789316070073818600,0.118818603515625,0.2184651494026184,-0.1996992826461792,0.6229453086853027
1789316070083851500,0.1288515625,0.24387197196483612,-0.32365480065345764,0.7955107092857361
1789316070093884700,0.138884765625,0.2828015387058258,-0.48570016026496887,0.9518857002258301
1789316070103918800,0.1489189453125,0.35285311937332153,-0.6845282316207886,1.046664834022522
1789316070113951700,0.15895166015625,0.48024383187294006,-0.8566749095916748,1.0931923389434814
1789316070123984600,0.168984619140625,0.5899993777275085,-0.9645228385925293,1.0989017486572266
1789316070134018600,0.1790185546875,0.6561277508735657,-0.9815303087234497,1.1125078201293945
1789316070144051700,0.1890517578125,0.6933513283729553,-0.8528634309768677,1.1521258354187012
1789316070154084600,0.199084716796875,0.7460001111030579,-0.7590498328208923,1.137277603149414
1789316070164117500,0.209117431640625,0.7795925140380859,-0.7265030741691589,1.077561616897583
1789316070174151700,0.219151611328125,0.7832069396972656,-0.6492021679878235,0.9385259747505188
1789316070184184800,0.229184814453125,0.8038998246192932,-0.508574366569519,0.7703766822814941
1789316070194217700,0.2392177734375,0.8149492740631104,-0.2752039432525635,0.6114626526832581
1789316070204251600,0.249251708984375,0.8026237487792969,-0.12448781728744507,0.5175413489341736
1789316070214284500,0.259284423828125,0.7260112762451172,-0.12184542417526245,0.47203460335731506
1789316070224317400,0.2693173828125,0.5684599876403809,-0.2639937400817871,0.4519113600254059
1789316070234350300,0.279350341796875,0.4189205765724182,-0.4408593475818634,0.4632524251937866
1789316070244384500,0.289384521484375,0.3666555881500244,-0.541965901851654,0.5348361730575562
1789316070254417400,0.29941748046875,0.39713066816329956,-0.5797873139381409,0.6267696022987366
1789316070264450600,0.309450439453125,0.47396644949913025,-0.5974181890487671,0.7277894616127014
1789316070274484500,0.319484375,0.5121678709983826,-0.5048877000808716,0.8568236231803894
1789316070284517600,0.329517578125,0.4819726049900055,-0.3918379247188568,0.9764487743377686
1789316070294550500,0.339550537109375,0.4454673230648041,-0.30855581164360046,1.0574713945388794
1789316070304583400,0.34958349609375,0.4016897678375244,-0.2548976540565491,1.0626839399337769
1789316070314617300,0.359617431640625,0.3138731122016907,-0.27320608496665955,0.9423710703849792
1789316070324650500,0.369650390625,0.2278694212436676,-0.2786160707473755,0.7210925221443176
1789316070334683400,0.379683349609375,0.15525966882705688,-0.2611081898212433,0.44626760482788086
1789316070344717600,0.389717529296875,0.0746675357222557,-0.13864947855472565,0.20891651511192322
1789316070354750500,0.39975048828125,-0.022934919223189354,0.002744392491877079,0.0806719958782196
1789316070364783600,0.40978369140625,-0.11316265165805817,0.018302492797374725,0.15808939933776855
1789316070374816500,0.41981640625,-0.18950694799423218,-0.14988304674625397,0.44665250182151794
1789316070384850400,0.429850341796875,-0.27170687913894653,-0.3422054946422577,0.8455531597137451
1789316070394883300,0.43988330078125,-0.3460375666618347,-0.5405511260032654,1.2140744924545288
1789316070404916500,0.44991650390625,-0.4294195771217346,-0.7622576951980591,1.4168680906295776
1789316070414950400,0.459950439453125,-0.4784656763076782,-0.9411331415176392,1.4793857336044312
1789316070424983600,0.469983642578125,-0.45608970522880554,-1.0224937200546265,1.3989224433898926
1789316070435016400,0.480016357421875,-0.41267484426498413,-0.9835774302482605,1.1820071935653687
1789316070445049600,0.490049560546875,-0.3734332025051117,-0.8396210670471191,0.8432451486587524
1789316070455083300,0.500083251953125,-0.34267687797546387,-0.7050307989120483,0.493406742811203
1789316070465116400,0.510116455078125,-0.34652066230773926,-0.6299336552619934,0.20899184048175812
1789316070475149300,0.5201494140625,-0.3327758312225342,-0.7073618769645691,0.049256499856710434
1789316070485183500,0.53018359375,-0.2623501420021057,-0.9002266526222229,0.050034381449222565
1789316070495216400,0.54021630859375,-0.1457233875989914,-1.1690431833267212,0.19238166511058807
1789316070505249500,0.55024951171875,-0.01184927299618721,-1.3805710077285767,0.43960365653038025
1789316070515282400,0.560282470703125,0.12046455591917038,-1.4406955242156982,0.6294955611228943
1789316070525316400,0.57031640625,0.228646919131279,-1.4083168506622314,0.6541804671287537
1789316070535349200,0.580349365234375,0.30167534947395325,-1.2262685298919678,0.5805574059486389
1789316070545382400,0.59038232421875,0.3290122151374817,-1.0003578662872314,0.527722954750061
1789316070555416300,0.600416259765625,0.3160404860973358,-0.8937523365020752,0.5541422963142395
1789316070565449500,0.610449462890625,0.2743847668170929,-0.9160891771316528,0.6400814056396484
1789316070575482400,0.620482421875,0.20883797109127045,-0.9651113152503967,0.729636549949646
1789316070585515500,0.630515625,0.06705765426158905,-0.9442734122276306,0.777803361415863
1789316070595549400,0.640549560546875,-0.0967017188668251,-0.7830581665039062,0.7389990091323853
1789316070605582600,0.65058251953125,-0.19049005210399628,-0.5667275786399841,0.6495577692985535
1789316070615615500,0.660615478515625,-0.20171475410461426,-0.34988951683044434,0.5740590691566467
1789316070625649400,0.6706494140625,-0.11555047333240509,-0.09877864271402359,0.5299251675605774
1789316070635682300,0.680682373046875,0.07839902490377426,0.2063668817281723,0.4595646858215332
1789316070645715500,0.690715576171875,0.3575732111930847,0.4156847298145294,0.36105987429618835
1789316070655748400,0.700748291015625,0.5869190692901611,0.4328565299510956,0.21925774216651917
1789316070665782500,0.710782470703125,0.7164743542671204,0.40842387080192566,0.04498597979545593
1789316070675815400,0.7208154296875,0.8251180052757263,0.41351714730262756,-0.07149749249219894
1789316070685848600,0.7308486328125,0.930697500705719,0.4812760353088379,-0.046190932393074036
1789316070695882200,0.74088232421875,0.9735378623008728,0.5403848886489868,0.08790268748998642
1789316070705915400,0.750915283203125,0.9355342388153076,0.5323687195777893,0.2914651930332184
1789316070715948300,0.7609482421875,0.8771494626998901,0.4438716173171997,0.5504024624824524
1789316070725981400,0.7709814453125,0.8364075422286987,0.3136943280696869,0.8356025218963623
1789316070736015400,0.781015380859375,0.8056901097297668,0.18716168403625488,1.1219096183776855
1789316070746048500,0.791048583984375,0.8066344857215881,0.12424585223197937,1.3718339204788208
1789316070756081400,0.801081298828125,0.8313251733779907,0.09502910822629929,1.5568010807037354
1789316070766115300,0.811115234375,0.8370827436447144,0.03051834926009178,1.6403473615646362
1789316070776148200,0.821148193359375,0.8388620018959045,-0.016616936773061752,1.645898461341858
1789316070786181400,0.831181396484375,0.836544930934906,-0.01702108234167099,1.5713660717010498
1789316070796214300,0.84121435546875,0.79986172914505,0.027255568653345108,1.4261294603347778
1789316070806248400,0.85124853515625,0.7525327801704407,0.0960439071059227,1.2655307054519653
1789316070816281300,0.86128125,0.7239437699317932,0.13335932791233063,1.1408824920654297
1789316070826314500,0.871314453125,0.7094260454177856,0.12701646983623505,1.0456476211547852
1789316070836348400,0.881348388671875,0.7091019749641418,0.07145681232213974,0.9495764970779419
1789316070846381300,0.89138134765625,0.7343671917915344,0.0455147922039032,0.822859525680542
1789316070856414200,0.901414306640625,0.7447497844696045,0.09432893246412277,0.6569416522979736
1789316070866447400,0.911447265625,0.6962128281593323,0.218210369348526,0.4909711182117462
1789316070876481500,0.9214814453125,0.5832040309906006,0.38046902418136597,0.346526563167572
1789316070886514400,0.931514404296875,0.4641178250312805,0.5472737550735474,0.2283567637205124
1789316070896547600,0.941547607421875,0.3848448395729065,0.6472285389900208,0.1253102719783783
1789316070906581500,0.95158154296875,0.37068289518356323,0.6769653558731079,0.05211067199707031
1789316070916614700,0.96161474609375,0.398123562335968,0.7110413312911987,0.029813887551426888
1789316070926647600,0.9716474609375,0.45338383316993713,0.7578884363174438,0.013909208588302135
1789316070936680400,0.981680419921875,0.5122745633125305,0.8164010047912598,0.009189820848405361
1789316070946714400,0.99171435546875,0.5871438384056091,0.9143049716949463,0.02431735210120678
1789316070956747500,1.00174755859375,0.6454351544380188,0.9809058308601379,0.04320795461535454
1789316070966780400,1.011780517578125,0.6517351269721985,0.9378430843353271,0.053411856293678284
1789316070976813600,1.0218134765625,0.6569793820381165,0.8497281074523926,0.059201568365097046
1789316070986847500,1.031847412109375,0.6840527653694153,0.7986899018287659,0.06294961273670197
1789316070996880600,1.041880615234375,0.7001675367355347,0.8008784651756287,0.0694730281829834
1789316071006913500,1.05191357421875,0.7008877396583557,0.8543870449066162,0.06543046236038208
1789316071016947500,1.061947509765625,0.7000323534011841,0.9413384795188904,0.03792506828904152
1789316071026980400,1.07198046875,0.7135776877403259,1.0294510126113892,-0.011124036274850368
1789316071037013500,1.082013427734375,0.7516710162162781,1.1571080684661865,-0.11406240612268448
1789316071047046400,1.09204638671875,0.8016389608383179,1.2981032133102417,-0.2814265191555023
1789316071057080600,1.10208056640625,0.8628096580505371,1.4092248678207397,-0.48717647790908813
1789316071067113500,1.112113525390625,0.8807843327522278,1.4531201124191284,-0.6754468679428101
1789316071077146600,1.122146728515625,0.8386270403862,1.4661568403244019,-0.752189576625824
1789316071087180300,1.13218017578125,0.7125847339630127,1.4987642765045166,-0.6994078755378723
1789316071097213400,1.14221337890625,0.5302979946136475,1.579803466796875,-0.5883867740631104
1789316071107246300,1.152246337890625,0.3931666910648346,1.712051510810852,-0.5278149843215942
1789316071117279500,1.162279541015625,0.34519171714782715,1.8767375946044922,-0.5626640915870667
1789316071127313400,1.1723134765625,0.3797145187854767,2.0650720596313477,-0.6983330249786377
1789316071137346600,1.1823466796875,0.46433165669441223,2.158003330230713,-0.9020973443984985
1789316071147379500,1.19237939453125,0.5801587104797363,2.1379196643829346,-1.0718199014663696
1789316071157413400,1.202413330078125,0.703241229057312,2.103705644607544,-1.1912341117858887
1789316071167446300,1.2124462890625,0.7980414628982544,2.0600836277008057,-1.248071551322937
1789316071177479400,1.2224794921875,0.7696066498756409,1.9967230558395386,-1.1716614961624146
1789316071187512300,1.23251220703125,0.5934209823608398,1.9280210733413696,-0.9511056542396545
1789316071197546500,1.24254638671875,0.3389569818973541,1.8994139432907104,-0.7351323366165161
1789316071207579400,1.252579345703125,0.09964510053396225,1.9429720640182495,-0.6189470887184143
1789316071217612800,1.26261279296875,-0.08424563705921173,1.9626344442367554,-0.5751290321350098
1789316071227646700,1.272646728515625,-0.22245840728282928,1.9021836519241333,-0.5374780297279358
1789316071237679600,1.2826796875,-0.29440104961395264,1.7061257362365723,-0.5036654472351074
1789316071247712800,1.292712646484375,-0.27673831582069397,1.5065723657608032,-0.4765095114707947
1789316071257745700,1.30274560546875,-0.15424436330795288,1.3766453266143799,-0.4347676634788513
1789316071267779800,1.31277978515625,0.048149727284908295,1.3214017152786255,-0.37414970993995667
1789316071277812700,1.322812744140625,0.25439557433128357,1.303297519683838,-0.3139617443084717
1789316071287846000,1.332845947265625,0.4350873529911041,1.287804126739502,-0.2609236240386963
1789316071297878800,1.342878662109375,0.6025370359420776,1.1847693920135498,-0.1498173326253891
1789316071307912700,1.35291259765625,0.7441100478172302,1.0069586038589478,0.026409026235342026
1789316071317945600,1.362945556640625,0.8486236929893494,0.7523355484008789,0.2802998721599579
1789316071327978800,1.372978759765625,0.9564163088798523,0.5208982229232788,0.5776413679122925
1789316071338012700,1.3830126953125,1.0628501176834106,0.35740965604782104,0.8267614841461182
1789316071348045800,1.3930458984375,1.1579670906066895,0.231761634349823,0.9861969351768494
1789316071358078700,1.40307861328125,1.2525399923324585,0.12817426025867462,1.0650023221969604
1789316071368111900,1.41311181640625,1.3364704847335815,0.08007992804050446,1.0536842346191406
1789316071378145800,1.423145751953125,1.396923542022705,0.13719435036182404,0.9605202674865723
1789316071388179000,1.433178955078125,1.3968348503112793,0.1992315948009491,0.8461549878120422
1789316071398211800,1.4432119140625,1.3574389219284058,0.2336590737104416,0.8209327459335327
1789316071408245800,1.453245849609375,1.3254474401474,0.30074697732925415,0.8853115439414978
1789316071418278700,1.463278564453125,1.3299012184143066,0.423706978559494,0.97107994556427
1789316071428311800,1.473311767578125,1.3324388265609741,0.5365132093429565,1.0131416320800781
1789316071438344700,1.4833447265625,1.3356513977050781,0.6249293684959412,1.0173158645629883
1789316071448379000,1.49337890625,1.3242157697677612,0.6708033680915833,0.9726664423942566
1789316071458411800,1.503411865234375,1.2948445081710815,0.6598966717720032,0.8979831337928772
1789316071468445000,1.51344482421875,1.2217459678649902,0.5715866088867188,0.8540481328964233
1789316071478478800,1.523478759765625,1.097485065460205,0.35595792531967163,0.8654538989067078
1789316071488511700,1.53351171875,0.9823684096336365,0.13979223370552063,0.9398940205574036
1789316071498544600,1.543544677734375,0.90633225440979,0.03477180749177933,0.9983168244361877
1789316071508577800,1.553577880859375,0.8497238159179688,0.016276421025395393,1.0080102682113647
1789316071518612000,1.563612060546875,0.7988084554672241,0.0958215743303299,0.972671627998352
1789316071528644900,1.573644775390625,0.7780430316925049,0.21668973565101624,0.9255222082138062
1789316071538678000,1.583677978515625,0.7492331862449646,0.2408376783132553,0.9069386720657349
1789316071548711000,1.5937109375,0.6823592782020569,0.14362472295761108,0.9497717022895813
1789316071558744800,1.603744873046875,0.6096475124359131,-0.010750195942819118,1.0428215265274048
1789316071568777700,1.61377783203125,0.5310502648353577,-0.0562957301735878,1.106687068939209
1789316071578811000,1.623810791015625,0.5064836740493774,0.016003232449293137,1.0323604345321655
1789316071588844800,1.6338447265625,0.515766978263855,0.12494628876447678,0.8500461578369141
1789316071598878000,1.6438779296875,0.5358320474624634,0.23155608773231506,0.6616227030754089
1789316071608910800,1.653910888671875,0.5726150274276733,0.2848682403564453,0.5299946069717407
1789316071618944000,1.663944091796875,0.6203668117523193,0.29580157995224,0.5157917141914368
1789316071628977700,1.673977783203125,0.6615018248558044,0.3275047242641449,0.5560036301612854
1789316071639010800,1.6840107421875,0.6586935520172119,0.3407294750213623,0.5796383619308472
1789316071649043700,1.694043701171875,0.621572732925415,0.34141087532043457,0.506098210811615
1789316071659078000,1.704077880859375,0.6203135848045349,0.37040790915489197,0.28426459431648254
1789316071669110800,1.71411083984375,0.613552987575531,0.40808430314064026,-0.03837206959724426
1789316071679144000,1.72414404296875,0.5837942957878113,0.43614310026168823,-0.33346256613731384
1789316071689176800,1.7341767578125,0.5490700602531433,0.39915916323661804,-0.47437018156051636
1789316071699211000,1.7442109375,0.5320788025856018,0.3559030294418335,-0.43583983182907104
1789316071709243600,1.75424365234375,0.571080207824707,0.38607922196388245,-0.33341091871261597
1789316071719276800,1.76427685546875,0.6793445944786072,0.4587547481060028,-0.22599764168262482
1789316071729309700,1.774309814453125,0.8265856504440308,0.4424385726451874,-0.11128779500722885
1789316071739344000,1.78434375,0.9127817749977112,0.20794005692005157,0.04318566992878914
1789316071749376800,1.794376708984375,0.9227889776229858,-0.14503790438175201,0.20077255368232727
1789316071759410000,1.804409912109375,0.8534008264541626,-0.3117629885673523,0.2737378478050232
1789316071769443800,1.81444384765625,0.7892128229141235,-0.35203662514686584,0.2146112024784088
1789316071779477000,1.82447705078125,0.6781912446022034,-0.250418096780777,0.11935604363679886
1789316071789510000,1.834510009765625,0.5532284379005432,-0.03153165057301521,0.02825162187218666
1789316071799542800,1.844542724609375,0.471582293510437,0.11922910064458847,-0.03229347988963127
1789316071809576700,1.85457666015625,0.41720426082611084,0.15947210788726807,0.011229269206523895
1789316071819609900,1.86460986328125,0.4445765018463135,0.23473809659481049,0.14405949413776398
1789316071829642800,1.874642822265625,0.5273425579071045,0.2403121143579483,0.31552448868751526
1789316071839677000,1.884677001953125,0.5705350041389465,0.15820632874965668,0.5430284738540649
1789316071849709800,1.894709716796875,0.5752651691436768,0.06817405670881271,0.7440340518951416
1789316071859743000,1.904742919921875,0.562475860118866,0.06643394380807877,0.8348345160484314
1789316071869776000,1.91477587890625,0.5314606428146362,0.20208516716957092,0.8120551705360413
1789316071879809800,1.924809814453125,0.4983828365802765,0.36778679490089417,0.711058497428894
1789316071889842700,1.9348427734375,0.45984044671058655,0.48998722434043884,0.5866901874542236
1789316071899875800,1.944875732421875,0.46754708886146545,0.47097569704055786,0.5159792900085449
1789316071909908700,1.95490869140625,0.4783937335014343,0.30252236127853394,0.49458077549934387
1789316071919943000,1.96494287109375,0.45786741375923157,0.05007997527718544,0.514097273349762
1789316071929975800,1.974975830078125,0.437032550573349,-0.08929192274808884,0.5536289215087891
1789316071940009000,1.985009033203125,0.44858455657958984,-0.11073382943868637,0.5733703970909119
1789316071950042600,1.995042724609375,0.49457046389579773,-0.06236489489674568,0.5707746148109436
1789316071960075800,2.00507568359375,0.5480462312698364,0.043696559965610504,0.5446825623512268
1789316071970108700,2.015108642578125,0.5654063820838928,0.13426385819911957,0.4788115918636322
1789316071980141800,2.025141845703125,0.5247026681900024,0.2175329178571701,0.39483681321144104
1789316071990175700,2.03517578125,0.4433289170265198,0.25876444578170776,0.3096213638782501
1789316072000209000,2.045208984375,0.28559866547584534,0.21144835650920868,0.20617300271987915
1789316072010241800,2.05524169921875,0.0806267112493515,0.07044602930545807,0.05947880819439888
1789316072020275700,2.065275634765625,-0.059376731514930725,-0.029656603932380676,-0.12764102220535278
1789316072030308600,2.07530859375,-0.1680334359407425,-0.11302578449249268,-0.2806592583656311
1789316072040341800,2.085341796875,-0.2271614670753479,0.021880099549889565,-0.353406697511673
1789316072050374700,2.095374755859375,-0.1680055558681488,0.33205491304397583,-0.42990949749946594
1789316072060408800,2.105408935546875,-0.04746449738740921,0.5822010636329651,-0.5161498188972473
1789316072070441700,2.115441650390625,0.11491161584854126,0.7325407862663269,-0.5476858615875244
1789316072080475000,2.125474853515625,0.28442659974098206,0.6991660594940186,-0.5204814076423645
1789316072090507800,2.1355078125,0.3973901867866516,0.5092903971672058,-0.4197997748851776
1789316072100542000,2.1455419921875,0.4206225275993347,0.3186272382736206,-0.28677114844322205
1789316072110574800,2.155574951171875,0.4238242208957672,0.18198980391025543,-0.20241986215114594
1789316072120607700,2.165607666015625,0.4333588778972626,0.15550068020820618,-0.17732089757919312
1789316072130641700,2.1756416015625,0.4411541819572449,0.164841428399086,-0.17478133738040924
1789316072140674800,2.1856748046875,0.4746306538581848,0.20348788797855377,-0.10693039000034332
1789316072150707700,2.195707763671875,0.5238136649131775,0.19471941888332367,0.039167433977127075
1789316072160740900,2.205740966796875,0.5663461685180664,0.18342868983745575,0.1689978688955307
1789316072170774800,2.21577490234375,0.6101925373077393,0.16588249802589417,0.23713302612304688
1789316072180808000,2.225807861328125,0.6263155937194824,0.14501184225082397,0.23829257488250732
1789316072190840800,2.2358408203125,0.622748613357544,0.1463957130908966,0.19790658354759216
1789316072200874800,2.245874755859375,0.5864729285240173,0.14801225066184998,0.12357881665229797
1789316072210907600,2.25590771484375,0.48413947224617004,0.10776855051517487,0.13907964527606964
1789316072220939800,2.265939697265625,0.383348673582077,-0.007906920276582241,0.26011204719543457
1789316072230973000,2.275972900390625,0.25433269143104553,-0.14233684539794922,0.4357815682888031
1789316072241006800,2.2860068359375,0.16718581318855286,-0.1985761523246765,0.5579383969306946
1789316072251040000,2.2960400390625,0.16108903288841248,-0.10402540862560272,0.5495982766151428
1789316072261073000,2.306072998046875,0.2681047022342682,0.11778928339481354,0.43296167254447937
1789316072271106000,2.31610595703125,0.4626648724079132,0.3699224591255188,0.34744593501091003
1789316072281140000,2.326139892578125,0.6642768383026123,0.5852810740470886,0.3846670687198639
1789316072291172900,2.3361728515625,0.7600736618041992,0.45042479038238525,0.5196791887283325
1789316072301205800,2.346205810546875,0.7923069596290588,0.06238679587841034,0.6981943249702454
1789316072311240000,2.356239990234375,0.862394392490387,-0.25320693850517273,0.7049949169158936
1789316072321272800,2.36627294921875,0.8838445544242859,-0.3888308107852936,0.49768248200416565
1789316072331306000,2.376305908203125,0.8722398281097412,-0.384577214717865,0.29716920852661133
1789316072341339000,2.3863388671875,0.8451858162879944,-0.36744484305381775,0.15680783987045288
1789316072351373000,2.396373046875,0.8626697063446045,-0.3557890057563782,0.0306171253323555
1789316072361406000,2.406406005859375,0.8928188681602478,-0.411500483751297,-0.05644001439213753
1789316072371439000,2.416439208984375,0.8226453065872192,-0.4144443869590759,0.02805088646709919
1789316072381472000,2.426471923828125,0.6986876726150513,-0.30700820684432983,0.29801204800605774
1789316072391506000,2.436505859375,0.6474440693855286,-0.24438349902629852,0.5231192111968994
1789316072401538800,2.446538818359375,0.7258459329605103,-0.16852281987667084,0.5356195569038391
1789316072411572000,2.456572021484375,0.8676813840866089,-0.024780571460723877,0.3641543686389923
1789316072421606000,2.46660595703125,0.9656782746315002,0.09747769683599472,0.19362281262874603
1789316072431639000,2.47663916015625,1.0065081119537354,0.12102845311164856,0.19043296575546265
1789316072441672000,2.486671875,0.7399424314498901,0.04951192066073418,0.34117215871810913
1789316072451705000,2.496705078125,0.27045926451683044,0.025431720539927483,0.1195203959941864
1789316072461738800,2.50673876953125,0.549077033996582,-0.43956419825553894,-0.21733352541923523
1789316072471772000,2.51677197265625,1.34798264503479,-0.14476574957370758,-0.04431706294417381
1789316072481804800,2.5268046875,1.7792844772338867,0.6047266125679016,-0.07167625427246094
1789316072491839000,2.5368388671875,1.5021336078643799,0.7660723924636841,-0.23034220933914185
1789316072501871900,2.546871826171875,1.1004564762115479,0.618740439414978,-0.22173061966896057
1789316072511905000,2.556905029296875,0.8783556222915649,0.41852977871894836,-0.07400886714458466
1789316072521938000,2.56693798828125,0.7815385460853577,0.27481842041015625,0.05532089248299599
1789316072531971800,2.576971923828125,0.7390671372413635,0.23967546224594116,0.06542376428842545
1789316072542004700,2.587004638671875,0.6793374419212341,0.3663026690483093,-0.026152491569519043
1789316072552038000,2.597037841796875,0.5863646268844604,0.5944497585296631,-0.10128472000360489
1789316072562070800,2.60707080078125,0.5619794130325317,0.9511293172836304,-0.10387676954269409
1789316072572105000,2.61710498046875,0.6004499197006226,1.2716001272201538,-0.06327977776527405
1789316072582137900,2.627137939453125,0.6577246785163879,1.4548842906951904,-0.009716684930026531
1789316072592171000,2.6371708984375,0.70895916223526,1.4711629152297974,0.03398393839597702
1789316072602205000,2.647204833984375,0.749602735042572,1.418906331062317,0.023556865751743317
1789316072612237800,2.65723779296875,0.777634859085083,1.3089704513549805,-0.061188966035842896
1789316072622270700,2.667270751953125,0.7454947829246521,1.0942102670669556,-0.1937568634748459
1789316072632303900,2.677303955078125,0.629811704158783,0.8625075221061707,-0.3035030663013458
1789316072642338000,2.687338134765625,0.5202974677085876,0.6519633531570435,-0.38741153478622437
1789316072652371000,2.697370849609375,0.4815559387207031,0.5320524573326111,-0.4346228241920471
1789316072662403800,2.70740380859375,0.4681248366832733,0.456255167722702,-0.4503469169139862
1789316072672437000,2.71743701171875,0.4509422481060028,0.40144050121307373,-0.41935640573501587
1789316072682471000,2.727470947265625,0.4154913127422333,0.4487760663032532,-0.35969629883766174
1789316072692503800,2.73750390625,0.3983648717403412,0.5906111001968384,-0.2816148102283478
1789316072702536700,2.74753662109375,0.4015428423881531,0.8109554052352905,-0.22254589200019836
1789316072712571000,2.75757080078125,0.43615037202835083,0.9962248802185059,-0.1877802312374115
1789316072722604000,2.76760400390625,0.4651913642883301,1.1312440633773804,-0.15746226906776428
1789316072732637000,2.777636962890625,0.5136587023735046,1.212964415550232,-0.1269807368516922
1789316072742669800,2.787669921875,0.5368255376815796,1.2783540487289429,-0.08864001929759979
1789316072752704000,2.7977041015625,0.5246790051460266,1.2444339990615845,-0.042654749006032944
1789316072762737200,2.807737060546875,0.5180708765983582,1.148668646812439,0.015057014301419258
1789316072772770000,2.81777001953125,0.5347900986671448,1.0296952724456787,0.05520588532090187
1789316072782803000,2.827802978515625,0.5798587799072266,0.9443255066871643,0.07150069624185562
1789316072792836900,2.8378369140625,0.6563401222229004,0.9074088931083679,0.0938216894865036
1789316072802870000,2.8478701171875,0.7792289853096008,0.8811871409416199,0.130929633975029
1789316072812903000,2.85790283203125,0.9225090742111206,0.7988314032554626,0.1917637139558792
1789316072822937000,2.86793701171875,1.0430498123168945,0.6712020635604858,0.26786965131759644
1789316072832970000,2.877969970703125,1.1139147281646729,0.5473272204399109,0.33216097950935364
1789316072843003100,2.888003173828125,1.1067670583724976,0.474018931388855,0.3568418323993683
1789316072853036000,2.8980361328125,1.0239839553833008,0.4237770438194275,0.33923858404159546
1789316072863070000,2.908070068359375,0.9204171299934387,0.4293012320995331,0.3164168894290924
1789316072873102800,2.918102783203125,0.7990361452102661,0.4255501925945282,0.2816118001937866
1789316072883136000,2.928135986328125,0.6725122928619385,0.3902614414691925,0.2855924367904663
1789316072893170000,2.938169921875,0.563456654548645,0.36119145154953003,0.32033783197402954
1789316072903203000,2.948203125,0.48892834782600403,0.33969786763191223,0.3125568628311157
1789316072913236000,2.958236083984375,0.4457799196243286,0.3793841600418091,0.22558341920375824
1789316072923269000,2.96826904296875,0.434317946434021,0.46666768193244934,0.10434488207101822
1789316072933302800,2.978302734375,0.4193400740623474,0.5249888300895691,0.027601126581430435
1789316072943336000,2.9883359375,0.3798070549964905,0.587897777557373,0.05646419897675514
1789316072953368800,2.998368896484375,0.32290858030319214,0.6471394300460815,0.16955503821372986
1789316072963402000,3.008402099609375,0.24058867990970612,0.5534984469413757,0.287109911441803
1789316072973436000,3.018435791015625,0.21064095199108124,0.2808118164539337,0.3823258876800537
1789316072983469000,3.028468994140625,0.3206055462360382,-0.0332142673432827,0.5245378613471985
1789316072993502000,3.038501953125,0.4505697786808014,-0.3563733398914337,0.6611180305480957
1789316073003536000,3.048535888671875,0.5315834283828735,-0.6583694219589233,0.750098466873169
1789316073013568800,3.05856884765625,0.5521354079246521,-0.7427225112915039,0.7917174696922302
1789316073023602000,3.068601806640625,0.5269306898117065,-0.6117264032363892,0.7357290387153625
1789316073033634800,3.078634765625,0.5160170793533325,-0.2683833837509155,0.6611540913581848
1789316073043669000,3.0886689453125,0.52740478515625,-0.02933325804769993,0.6556219458580017
1789316073053702000,3.098701904296875,0.39120787382125854,-0.1615591198205948,0.8134258985519409
1789316073063735000,3.108735107421875,0.35977911949157715,-0.6014779210090637,1.20374596118927
1789316073073768000,3.118767822265625,0.3189309537410736,-1.125797152519226,1.6053825616836548
1789316073083802000,3.128802001953125,0.2689804434776306,-1.6335269212722778,1.8235865831375122
1789316073093834800,3.138834716796875,0.18078596889972687,-1.9627203941345215,1.865320086479187
1789316073103868000,3.148867919921875,0.06225825473666191,-2.4273884296417236,1.6999080181121826
1789316073113901800,3.15890185546875,-0.13353034853935242,-3.00317120552063,1.3144407272338867
1789316073123935000,3.16893505859375,-0.2566157877445221,-2.908259391784668,0.8588871955871582
1789316073133968000,3.1789677734375,-0.3418737053871155,-2.0759620666503906,0.43436628580093384
1789316073144001000,3.1890009765625,-0.4382064938545227,-0.46476292610168457,0.21317259967327118
1789316073154035000,3.199034912109375,-0.29385486245155334,1.5144368410110474,0.24870236217975616
1789316073164068000,3.209068115234375,0.0708775520324707,2.1931185722351074,0.7074568867683411
1789316073174101000,3.21910107421875,0.4711424708366394,2.1780521869659424,1.132870078086853
1789316073184134000,3.2291337890625,0.7886626124382019,1.7010438442230225,1.4019566774368286
1789316073194167800,3.239167724609375,0.8574438691139221,0.7734957933425903,1.5473411083221436
1789316073204201000,3.249200927734375,0.7932502627372742,-0.14224041998386383,1.6780216693878174
1789316073214233900,3.25923388671875,0.7035138607025146,-0.8590176105499268,1.7456587553024292
1789316073224268500,3.2692685546875,0.5735697150230408,-1.0057634115219116,1.7462856769561768
1789316073234301400,3.279301513671875,0.39933210611343384,-0.7012548446655273,1.727460265159607
1789316073244334300,3.289334228515625,0.1256726235151291,-0.5011656880378723,1.7018182277679443
1789316073254367200,3.2993671875,-0.08137651532888412,-0.7798900008201599,1.6907198429107666
1789316073264401400,3.3094013671875,-0.10330125689506531,-1.1907002925872803,1.7048543691635132
1789316073274434300,3.319434326171875,-0.08183465152978897,-1.7188695669174194,1.7668520212173462
1789316073284467500,3.329467529296875,-0.14797185361385345,-2.384108304977417,1.92752206325531
1789316073294500400,3.339500244140625,-0.3098956048488617,-3.1032354831695557,2.214160680770874
1789316073304534500,3.349534423828125,-0.42313826084136963,-2.4686436653137207,2.230273723602295
1789316073314567400,3.3595673828125,0.15145756304264069,-0.48054802417755127,0.5442348122596741
1789316073324600600,3.3696005859375,0.7217466235160828,-0.5996459126472473,-0.7481229901313782
1789316073334633500,3.379633544921875,0.9205871820449829,-0.5839827060699463,-2.25927472114563
1789316073344667400,3.38966748046875,0.7712546586990356,-0.8510130643844604,-3.3854868412017822
1789316073354700300,3.3997001953125,0.07298372685909271,-0.46113795042037964,-3.81300687789917
1789316073364733400,3.4097333984375,-1.11419677734375,-0.027764135971665382,-3.263235569000244
1789316073374767600,3.419767578125,-1.9961493015289307,-0.9150153994560242,-2.015756845474243
1789316073384800500,3.429800537109375,-2.228705406188965,-0.9129629135131836,-0.885221540927887
1789316073394833400,3.43983349609375,-2.1737005710601807,-0.06999091058969498,-0.018602296710014343
1789316073404866600,3.449866455078125,-1.911436676979065,0.17632964253425598,0.5074071884155273
1789316073414900500,3.459900390625,-1.6364600658416748,0.21772782504558563,0.620940625667572
1789316073424933400,3.469933349609375,-1.5632697343826294,0.4152664840221405,0.41406384110450745
1789316073434966300,3.47996630859375,-1.6773664951324463,0.3153891861438751,-0.33047205209732056
1789316073445000400,3.49000048828125,-1.9666054248809814,0.24317355453968048,-1.497295618057251
1789316073455033600,3.50003369140625,-2.5651707649230957,0.576469361782074,-2.9528708457946777
1789316073465066500,3.51006640625,-2.8028571605682373,1.6540553569793701,-3.818681478500366
1789316073475099400,3.520099365234375,-2.4777278900146484,2.187915563583374,-3.2180070877075195
1789316073485133300,3.53013330078125,-2.1458120346069336,2.7845876216888428,-2.2372612953186035
1789316073495166500,3.54016650390625,-1.8044353723526,3.7851452827453613,-1.4191488027572632
1789316073505199400,3.550199462890625,-1.4389642477035522,4.47611665725708,-0.30460575222969055
1789316073515232300,3.560232177734375,-0.3761342763900757,3.985568046569824,1.3887827396392822
1789316073525266400,3.570266357421875,1.085131287574768,3.8238766193389893,2.6257271766662598
1789316073535299600,3.580299560546875,1.9627832174301147,3.854621171951294,2.7392728328704834
1789316073545332500,3.59033251953125,2.377443790435791,3.8756279945373535,2.4538326263427734
1789316073555365400,3.600365478515625,2.804600477218628,3.389831304550171,2.1744797229766846
1789316073565399300,3.6103994140625,3.302781105041504,3.2723193168640137,2.050419807434082
1789316073575432400,3.620432373046875,3.6101269721984863,3.411161422729492,1.8102436065673828
1789316073585465300,3.63046533203125,3.407836437225342,3.3692195415496826,1.1245450973510742
1789316073595499500,3.64049951171875,3.405306577682495,3.263636589050293,0.23665979504585266
1789316073605532400,3.650532470703125,3.606577157974243,2.962128162384033,-0.6565849184989929
1789316073615565600,3.660565673828125,3.6894264221191406,2.835439920425415,-1.130290150642395
1789316073625598500,3.670598388671875,3.3449625968933105,2.609726905822754,-1.0905203819274902
1789316073635632600,3.680632568359375,2.95003604888916,2.521925210952759,-0.8765050172805786
1789316073645665300,3.690665283203125,2.767702341079712,2.6706857681274414,-0.7074337005615234
1789316073655698400,3.700698486328125,2.748041868209839,3.157007932662964,-0.5896876454353333
1789316073665731300,3.7107314453125,2.5318732261657715,3.1295337677001953,-0.34608882665634155
1789316073675765500,3.720765625,1.7190439701080322,2.868696451187134,0.220882385969162
1789316073685798400,3.73079833984375,1.1160317659378052,2.8145899772644043,0.6523045897483826
1789316073695831600,3.74083154296875,0.9322606921195984,2.8491275310516357,0.7024472951889038
1789316073705865500,3.750865478515625,0.8875744342803955,3.0863304138183594,0.6709982752799988
1789316073715898600,3.760898681640625,1.0487428903579712,3.304729700088501,0.732568621635437
1789316073725931500,3.770931640625,1.3001348972320557,2.820631742477417,0.67495197057724
1789316073735964400,3.78096435546875,1.4955024719238281,1.789146900177002,0.9049220681190491
1789316073745998300,3.790998291015625,1.6327346563339233,0.9598811864852905,1.0402542352676392
1789316073756031500,3.801031494140625,1.8859227895736694,0.48575568199157715,1.0347758531570435
1789316073766064400,3.811064453125,2.191056251525879,0.2702942490577698,0.9715703725814819
1789316073776097500,3.82109765625,2.2588438987731934,0.5008151531219482,0.8225706815719604
1789316073786131500,3.83113134765625,2.071824550628662,1.122911810874939,0.7172152400016785
1789316073796164600,3.84116455078125,1.779545783996582,1.5960091352462769,1.0466405153274536
1789316073806197500,3.851197509765625,1.517612099647522,1.8897967338562012,1.68960702419281
1789316073816230700,3.861230712890625,1.42671799659729,2.038905382156372,2.0890190601348877
1789316073826264300,3.871264404296875,1.4223954677581787,2.4067797660827637,2.0955750942230225
1789316073836297500,3.88129736328125,1.3484408855438232,2.9634547233581543,1.7677005529403687
1789316073846330400,3.891330322265625,1.2324663400650024,3.369908332824707,1.107548475265503
1789316073856364500,3.901364501953125,1.2541141510009766,3.194819450378418,0.61647629737854
1789316073866397400,3.9113974609375,1.568566083908081,2.9782066345214844,0.6788613796234131
1789316073876430600,3.9214306640625,2.119049549102783,2.060103178024292,0.8393000960350037
1789316073886463500,3.93146337890625,2.3848721981048584,0.28982943296432495,0.817897379398346
1789316073896497400,3.941497314453125,2.685845136642456,-1.664795160293579,0.4380999803543091
1789316073906530300,3.9515302734375,3.1156938076019287,-3.0048635005950928,-0.06681163609027863
1789316073916563500,3.9615634765625,3.45270037651062,-2.59098744392395,-0.38971149921417236
1789316073926596400,3.971596435546875,3.3381741046905518,-1.6364802122116089,-0.3031632900238037
1789316073936630500,3.981630615234375,2.9156477451324463,-1.0632859468460083,-0.22053605318069458
1789316073946663400,3.991663330078125,2.6384799480438232,-1.2397466897964478,-0.3401346206665039
1789316073956696600,4.001696533203125,2.6934986114501953,-1.500144600868225,-0.3459053635597229
1789316073966730200,4.011730224609375,2.5918478965759277,-1.4878877401351929,0.08548013120889664
1789316073976763400,4.021763427734375,2.2724878787994385,-2.112069845199585,1.7648353576660156
1789316073986796300,4.03179638671875,2.134936571121216,-2.2390289306640625,1.83817720413208
1789316073996829400,4.041829345703125,1.6098637580871582,-2.2000114917755127,2.166285276412964
1789316074006863400,4.05186328125,1.3342297077178955,-0.39292681217193604,2.4902493953704834
1789316074016896500,4.061896484375,0.9260414838790894,1.418772578239441,2.555651903152466
1789316074026929400,4.071929443359375,0.7092998027801514,1.7814059257507324,2.5280134677886963
1789316074036962600,4.081962646484375,0.9527058005332947,1.8456368446350098,2.541189670562744
1789316074046996500,4.09199658203125,0.7818578481674194,0.056479986757040024,3.8050520420074463
1789316074057029400,4.102029296875,0.6030363440513611,0.334338903427124,3.178438425064087
1789316074067062300,4.112062255859375,0.5315155386924744,0.7817839980125427,2.9694483280181885
1789316074077095400,4.122095458984375,0.425324946641922,1.4189294576644897,2.620931386947632
1789316074087129300,4.13212939453125,0.39401018619537354,1.584031343460083,2.4522762298583984
1789316074097162500,4.14216259765625,0.4938253164291382,1.4930604696273804,2.5375614166259766
1789316074107195400,4.1521953125,0.8063960671424866,1.3852990865707397,2.436721086502075
1789316074117229600,4.1622294921875,1.2467689514160156,1.0456982851028442,2.346543073654175
1789316074127262500,4.172262451171875,1.4482088088989258,0.6248801350593567,2.505625009536743
1789316074137295400,4.18229541015625,1.4651052951812744,0.4773775339126587,2.7346198558807373
1789316074147328300,4.192328369140625,1.408745288848877,0.6481494903564453,2.5553064346313477
1789316074157362400,4.202362548828125,1.3405340909957886,0.7836623191833496,2.0516669750213623
1789316074167395300,4.212395263671875,1.3202612400054932,0.7893289923667908,1.8822976350784302
1789316074177428500,4.222428466796875,1.1418192386627197,0.9981793165206909,1.7114131450653076
1789316074187461400,4.23246142578125,1.1772509813308716,1.5622879266738892,1.6575219631195068
1789316074197495600,4.24249560546875,1.0640647411346436,1.9712588787078857,2.060669183731079
1789316074207528400,4.252528564453125,0.48677629232406616,2.010878562927246,2.622671604156494
1789316074217561600,4.2625615234375,-0.1772848516702652,1.692575216293335,3.0244271755218506
1789316074227595000,4.272594970703125,-0.4345334470272064,1.2891368865966797,3.421424150466919
1789316074237628000,4.2826279296875,-0.5023751258850098,1.0394492149353027,3.4080350399017334
1789316074247661000,4.2926611328125,-0.5821053385734558,0.7293287515640259,2.507594347000122
1789316074257694000,4.30269384765625,-0.6869975328445435,0.7815768718719482,1.8406809568405151
1789316074267728100,4.31272802734375,-0.7847509980201721,0.7960061430931091,1.652339220046997
1789316074277761000,4.322760986328125,-0.4936562180519104,0.9679372310638428,1.1613340377807617
1789316074287794200,4.332794189453125,0.08919762074947357,0.9208506941795349,0.45854613184928894
1789316074297827000,4.3428271484375,0.6426828503608704,1.056603193283081,-0.031565457582473755
1789316074307861000,4.352861083984375,0.8202030658721924,1.1607245206832886,-0.021831337362527847
1789316074317894000,4.362893798828125,0.7012518048286438,1.0751399993896484,0.2679578959941864
1789316074327927000,4.372927001953125,0.7150784134864807,1.0095082521438599,0.3735855221748352
1789316074337961000,4.3829609375,0.827285885810852,1.0761899948120117,0.2179650366306305
1789316074347994000,4.392994140625,0.9379047751426697,1.8053635358810425,-0.17822358012199402
1789316074358027000,4.403027099609375,1.3052446842193604,2.1495654582977295,-0.4753756523132324
1789316074368060200,4.41306005859375,1.4005275964736938,1.9048826694488525,-0.3831900656223297
1789316074378094000,4.423093994140625,1.3679189682006836,1.5025326013565063,-0.18585076928138733
1789316074388127000,4.433126953125,0.7713304758071899,1.181430459022522,0.17267489433288574
1789316074398160000,4.443159912109375,-0.4101905822753906,0.8516692519187927,0.7778591513633728
1789316074408193000,4.453193115234375,-1.8727245330810547,-0.37154483795166016,1.6221723556518555
1789316074418227000,4.46322705078125,-2.9054906368255615,-0.6832637786865234,3.062626361846924
1789316074428260000,4.473260009765625,-1.2232214212417603,2.7697176933288574,1.2999048233032227
1789316074438293000,4.48329296875,-0.3659070134162903,0.4978581964969635,-0.8851405382156372
1789316074448326100,4.493326171875,-0.5819218754768372,-0.5333728790283203,-2.131895065307617
1789316074458360000,4.503360107421875,-0.6797229051589966,-0.32189276814460754,-2.8755040168762207
1789316074468393000,4.51339306640625,-0.5414544939994812,-0.09122573584318161,-3.1181857585906982
1789316074478425900,4.52342578125,-0.19452936947345734,-0.6837037801742554,-3.0003349781036377
1789316074488460000,4.5334599609375,0.21298620104789734,-0.7012348771095276,-2.57985782623291
1789316074498493000,4.543492919921875,0.6536542773246765,-0.4588460326194763,-2.126939296722412
1789316074508526000,4.553526123046875,1.0338943004608154,-0.6650612950325012,-1.2094801664352417
1789316074518559000,4.56355908203125,1.2579433917999268,-0.6507048606872559,-0.1486356109380722
1789316074528593200,4.57359326171875,1.223101258277893,-0.15057896077632904,0.6872336864471436
1789316074538626000,4.5836259765625,1.0559357404708862,0.15451864898204803,1.3413349390029907
1789316074548659200,4.5936591796875,0.7789633274078369,-0.014428287744522095,1.8339194059371948
1789316074558692000,4.603692138671875,0.5260674953460693,-0.3065713346004486,2.1418025493621826
1789316074568726000,4.61372607421875,0.3735368251800537,-0.2282826453447342,2.36250376701355
1789316074578759000,4.623759033203125,0.32155364751815796,0.5264592170715332,2.426090955734253
1789316074588792000,4.6337919921875,0.25238123536109924,1.4226996898651123,2.168149948120117
1789316074598825000,4.643824951171875,0.059619076550006866,1.9567155838012695,2.006333112716675
1789316074608859100,4.653859130859375,-0.10688255727291107,1.7810909748077393,1.9943960905075073
1789316074618892000,4.66389208984375,-0.22119347751140594,1.304449439048767,2.030898332595825
1789316074628925200,4.67392529296875,-0.19572220742702484,0.9016096591949463,2.041343927383423
1789316074638959000,4.683958984375,0.06811919808387756,0.04017765447497368,2.4350459575653076
1789316074648992000,4.693991943359375,0.2577645182609558,0.11865968257188797,2.5099356174468994
1789316074659025000,4.70402490234375,-0.1426684409379959,0.13069792091846466,2.2481186389923096
1789316074669058000,4.71405810546875,-0.3708480894565582,0.004690992645919323,2.1450130939483643
1789316074679092200,4.72409228515625,-0.35076841711997986,-0.30794021487236023,1.9462145566940308
1789316074689125000,4.734125,-0.17553962767124176,-0.6999050378799438,1.6061770915985107
1789316074699158000,4.744157958984375,-0.1773771345615387,-0.7231459021568298,1.2277480363845825
1789316074709191200,4.754191162109375,-0.16770294308662415,-0.5632965564727783,1.0030659437179565
1789316074719225000,4.76422509765625,-0.10515710711479187,-0.8809289336204529,0.9776087403297424
1789316074729258000,4.774258056640625,-0.1289479285478592,-1.0084937810897827,0.8847192525863647
1789316074739291000,4.784290771484375,-0.29455867409706116,-0.4388396143913269,0.5871161222457886
1789316074749324000,4.794323974609375,-0.17141571640968323,-0.4278903007507324,0.6463834643363953
1789316074759358200,4.804358154296875,-0.06724558770656586,-0.09145737439393997,0.735464334487915
1789316074769391000,4.81439111328125,-0.3638692796230316,-0.31372666358947754,0.8670042753219604
1789316074779424000,4.824424072265625,-0.38338610529899597,-1.052470326423645,1.3930864334106445
1789316074789458000,4.8344580078125,-0.34538599848747253,-1.3772441148757935,1.812453269958496
1789316074799491000,4.844490966796875,-0.9871847033500671,-0.7839792966842651,1.6994779109954834
1789316074809524000,4.85452392578125,-2.2020177841186523,0.17827561497688293,1.0335851907730103
1789316074819556900,4.864556884765625,-3.3161110877990723,0.9763752222061157,-0.041410237550735474
1789316074829591000,4.874591064453125,-2.9857070446014404,-0.5333929061889648,0.13376903533935547
1789316074839624200,4.884624267578125,-1.5102230310440063,-2.8411242961883545,1.0642510652542114
1789316074849657000,4.894656982421875,0.040895767509937286,-4.858074188232422,0.6316639184951782
1789316074859690000,4.90468994140625,0.4846497178077698,-4.732640266418457,0.0038026156835258007
1789316074869724200,4.91472412109375,-0.24274958670139313,-2.0626938343048096,0.3197299540042877
1789316074879757000,4.924757080078125,-0.10103863477706909,-0.4180610179901123,0.4349406659603119
1789316074889790000,4.9347900390625,-0.11008112877607346,0.3569742441177368,0.2268972098827362
1789316074899822800,4.94482275390625,-0.0993332788348198,0.09786958992481232,0.1988769918680191
1789316074909857000,4.95485693359375,0.12394215166568756,-0.3012394607067108,0.062182798981666565
1789316074919890200,4.96489013671875,0.5280613303184509,-0.7022199630737305,-0.11717037111520767
1789316074929923000,4.974923095703125,0.7173260450363159,-0.9608312845230103,-0.45313745737075806
1789316074939957200,4.984957275390625,0.7023144960403442,-0.8026172518730164,-0.7172434329986572
1789316074949990100,4.994990234375,0.6583036184310913,-0.7672867178916931,-0.9112280607223511
1789316074960023000,5.00502294921875,0.6050905585289001,-0.7682054042816162,-0.8892226815223694
1789316074970056000,5.015055908203125,0.1840493381023407,-0.4794577360153198,-0.5961519479751587
1789316074980090000,5.025090087890625,-0.22268615663051605,-0.21468114852905273,0.03253815695643425
1789316074990123000,5.035123046875,-0.3656923174858093,0.26318609714508057,0.9409115314483643
1789316075000156200,5.04515625,-0.28640392422676086,0.5715500116348267,1.689070701599121
1789316075010189000,5.05518896484375,-0.06346672028303146,0.37240201234817505,1.9704477787017822
1789316075020223200,5.06522314453125,0.10679270327091217,-0.09565754979848862,1.9082785844802856
1789316075030256000,5.075256103515625,0.3316226303577423,-0.39477795362472534,1.9561457633972168
1789316075040289300,5.085289306640625,0.5756261348724365,-0.7837907075881958,1.7784115076065063
1789316075050322200,5.095322265625,0.8071160912513733,-1.1551285982131958,1.5467168092727661
1789316075060356000,5.105356201171875,0.7427135109901428,-1.5360958576202393,1.3260865211486816
1789316075070389000,5.115388916015625,0.59536212682724,-1.492044448852539,1.156684398651123
1789316075080422100,5.125422119140625,0.34103861451148987,-1.5749722719192505,1.153576135635376
1789316075090455000,5.135455078125,-0.014326915144920349,-1.4058079719543457,1.0366910696029663
1789316075100489200,5.1454892578125,-0.35953161120414734,-1.2420989274978638,0.9501782655715942
1789316075110522000,5.155522216796875,-0.5236595869064331,-0.8569117188453674,0.7470145225524902
1789316075120555300,5.16555517578125,-0.6055552959442139,-0.6358060240745544,0.38681530952453613
1789316075130589000,5.1755888671875,-0.6277934908866882,-0.7904648780822754,-0.014046082273125648
1789316075140622000,5.1856220703125,-0.6272305846214294,-1.3703967332839966,-0.35617125034332275
1789316075150655000,5.195655029296875,-0.6711799502372742,-1.5090614557266235,-0.8921182751655579
1789316075160688000,5.205688232421875,-0.6039196252822876,-1.3213447332382202,-1.2374379634857178
1789316075170722000,5.21572216796875,-0.41114726662635803,-1.087700366973877,-1.460747480392456
1789316075180755200,5.225755126953125,-0.11324097216129303,-1.0344678163528442,-1.5837098360061646
1789316075190788000,5.2357880859375,0.1096738651394844,-0.9420379400253296,-1.6552295684814453
1789316075200821200,5.2458212890625,0.30732157826423645,-0.689200758934021,-1.57390558719635
1789316075210855000,5.25585498046875,0.593925952911377,-0.3004053235054016,-1.4912238121032715
1789316075220888000,5.26588818359375,0.9452179670333862,-0.03744228929281235,-1.5777024030685425
1789316075230921200,5.275921142578125,1.2040263414382935,0.0001290548825636506,-1.970969319343567
1789316075240954400,5.285954345703125,1.3313446044921875,0.07210969924926758,-2.6699235439300537
1789316075250988300,5.29598828125,1.3025652170181274,0.3964337110519409,-3.3563942909240723
1789316075261021400,5.306021484375,1.0407719612121582,0.7809436917304993,-3.3795838356018066
1789316075271054300,5.316054443359375,0.2817276418209076,0.9799633622169495,-3.169102907180786
1789316075281088300,5.326088134765625,-0.37922152876853943,0.7194110751152039,-2.465283155441284
1789316075291121200,5.33612109375,-0.7301220297813416,-0.1246563047170639,-1.3959811925888062
1789316075301154300,5.346154296875,-1.1424448490142822,-0.21639496088027954,-0.7447053790092468
1789316075311187200,5.356187255859375,-0.6630393862724304,-0.316815584897995,-0.23552685976028442
1789316075321221400,5.366221435546875,-0.3388712406158447,-0.8518487215042114,0.039158277213573456
1789316075331254300,5.376254150390625,-0.5642271637916565,-0.8711311221122742,0.535673201084137
1789316075341287400,5.386287353515625,-0.8725867867469788,-0.6089237332344055,0.907237708568573
1789316075351320300,5.3963203125,-1.0346205234527588,-0.33090484142303467,1.0276200771331787
1789316075361354200,5.406354248046875,-0.9037196636199951,0.0031525129452347755,1.0957446098327637
1789316075371387100,5.41638720703125,-0.7148965001106262,0.1700911670923233,1.315327763557434
1789316075381420300,5.426420166015625,-0.5741848945617676,0.14274612069129944,1.602737545967102
1789316075391453200,5.436453125,-0.4931028187274933,0.012987594120204449,1.7721433639526367
1789316075401487400,5.4464873046875,-0.41594281792640686,-0.010889018885791302,1.7744673490524292
1789316075411520300,5.456520263671875,-0.33879292011260986,0.039370425045490265,1.8208340406417847
1789316075421553400,5.466553466796875,-0.21523535251617432,-0.001554133603349328,2.0836522579193115
1789316075431587300,5.47658740234375,-0.20544183254241943,-0.232452854514122,2.25520920753479
1789316075441620200,5.4866201171875,0.019608816131949425,-0.17953485250473022,2.0274250507354736
1789316075451653000,5.496653076171875,0.27521660923957825,-0.0655725821852684,1.4530898332595825
1789316075461686300,5.506686279296875,0.37354639172554016,-0.015327260829508305,0.6640215516090393
1789316075471720200,5.51672021484375,0.17099781334400177,0.022984707728028297,-0.1027163490653038
1789316075481753300,5.52675341796875,-0.13323628902435303,-0.12237079441547394,-0.5646525621414185
1789316075491786200,5.5367861328125,-0.3308369815349579,-0.1566467434167862,-0.7003867030143738
1789316075501819400,5.5468193359375,-0.39594241976737976,-0.03602168709039688,-0.6607582569122314
1789316075511853300,5.556853271484375,-0.34614691138267517,0.08776097744703293,-0.45903071761131287
1789316075521886500,5.566886474609375,-0.3316704034805298,0.20276138186454773,-0.21714700758457184
1789316075531919400,5.57691943359375,-0.376634418964386,0.008622266352176666,0.06525032222270966
1789316075541952300,5.5869521484375,-0.6043753027915955,-0.5309261083602905,0.2856189012527466
1789316075551986200,5.596986083984375,-0.9001941680908203,-0.9175046682357788,-0.006508017890155315
1789316075562019300,5.607019287109375,-0.4655272662639618,-0.9118234515190125,0.12665580213069916
1789316075572052200,5.61705224609375,-0.27708837389945984,-0.4373648166656494,0.42262914776802063
1789316075582086400,5.62708642578125,-0.1764153689146042,0.13479743897914886,0.608505368232727
1789316075592119300,5.637119384765625,-0.0724887102842331,0.4782639741897583,0.5769618153572083
1789316075602152400,5.64715234375,-0.09534254670143127,0.4452858865261078,0.44604480266571045
1789316075612185300,5.657185302734375,-0.12444077432155609,0.20379844307899475,0.2712663412094116
1789316075622219300,5.66721923828125,-0.12028536945581436,-0.005817309021949768,0.31935474276542664
1789316075632252200,5.677252197265625,-0.10790619999170303,0.09761986881494522,0.28333762288093567
1789316075642285300,5.687285400390625,0.11330723017454147,0.5731865167617798,-0.028721485286951065
1789316075652318200,5.697318115234375,0.3980436325073242,0.7953149080276489,-0.2065599262714386
1789316075662352400,5.707352294921875,0.6328933835029602,0.9155653119087219,-0.3151087760925293
1789316075672385300,5.71738525390625,0.7094669342041016,0.8759017586708069,-0.21532462537288666
1789316075682418400,5.72741845703125,0.7173582911491394,0.6931374669075012,-0.14304673671722412
1789316075692451300,5.737451416015625,0.7036597728729248,0.19770744442939758,-0.04671540856361389
1789316075702485200,5.7474853515625,0.6288384795188904,-0.9013287425041199,0.150145024061203
1789316075712518100,5.75751806640625,0.39702606201171875,-2.5415849685668945,0.25451192259788513
1789316075722551300,5.76755126953125,0.03364475071430206,-4.1203436851501465,0.01104251854121685
1789316075732584200,5.777584228515625,-0.05688195303082466,-4.789322376251221,-0.39038294553756714
1789316075742618400,5.787618408203125,0.33575132489204407,-4.151200294494629,-0.46937739849090576
1789316075752651300,5.7976513671875,0.5945349335670471,-3.5158913135528564,-0.2685028612613678
1789316075762684400,5.807684326171875,0.7133176922798157,-2.9573769569396973,-0.21046173572540283
1789316075772718300,5.81771826171875,0.7738449573516846,-2.195331335067749,-0.3589947521686554
1789316075782751200,5.827751220703125,0.8036467432975769,-1.6138274669647217,-0.4146105945110321
1789316075792784100,5.8377841796875,0.8831753730773926,-1.8023779392242432,-0.2089623659849167
1789316075802817300,5.8478173828125,0.8313176035881042,-1.89850914478302,-0.07136617600917816
1789316075812851500,5.8578515625,0.9230427742004395,-1.9226361513137817,0.1703609675168991
1789316075822884400,5.86788427734375,0.9580278396606445,-1.9520924091339111,0.5177969932556152
1789316075832917200,5.877917236328125,0.9244259595870972,-1.2582124471664429,0.7218829989433289
1789316075842950400,5.887950439453125,0.7532051801681519,-0.4365830421447754,0.7943087220191956
1789316075852984300,5.897984375,0.561692476272583,-0.19577281177043915,0.5914179086685181
1789316075863017200,5.908017333984375,0.5110617280006409,-0.4436848759651184,0.28080227971076965
1789316075873050000,5.918050048828125,0.5334304571151733,-0.7334849834442139,0.13043701648712158
1789316075883083300,5.928083251953125,0.6244116425514221,-0.6634767651557922,0.09367479383945465
1789316075893117400,5.938117431640625,0.6695769429206848,-0.6143097281455994,-0.0073793865740299225
1789316075903150300,5.948150390625,0.6944319009780884,-0.6492763161659241,-0.19454482197761536
1789316075913183200,5.958183349609375,0.7239919304847717,-0.7429527044296265,-0.3593185842037201
1789316075923216400,5.96821630859375,0.7307685613632202,-0.9104329347610474,-0.39935144782066345
1789316075933250300,5.978250244140625,0.6012946963310242,-1.0886825323104858,-0.24688281118869781
1789316075943283200,5.988283203125,0.40680116415023804,-0.8372851014137268,-0.009348511695861816
1789316075953316000,5.998316162109375,0.12434178590774536,-0.14243946969509125,0.14694122970104218
1789316075963350300,6.008350341796875,-0.22867494821548462,0.39141902327537537,0.4721336364746094
1789316075973383400,6.018383544921875,-0.5551566481590271,0.8530428409576416,0.8525323867797852
1789316075983416300,6.028416259765625,-0.6951208114624023,1.4090849161148071,1.1701236963272095
1789316075993449200,6.03844921875,-0.6980558633804321,1.9138569831848145,0.9810336828231812
1789316076003483400,6.0484833984375,-0.6621976494789124,2.0700631141662598,1.052115797996521
1789316076013516500,6.0585166015625,-0.40806496143341064,2.1823885440826416,0.9790868759155273
1789316076023549400,6.068549560546875,-0.09654808044433594,1.6460022926330566,0.5424237847328186
1789316076033582300,6.078582275390625,-0.011195636354386806,0.37976181507110596,-0.023491818457841873
1789316076043616300,6.0886162109375,0.02663838490843773,-0.48991119861602783,-0.3976406455039978
1789316076053649400,6.0986494140625,0.044906340539455414,-0.3219349980354309,-0.4768521189689636
1789316076063682300,6.108682373046875,-0.005893354304134846,0.073647640645504,-0.3682427704334259
1789316076073715200,6.118715087890625,-0.11313512176275253,0.25114038586616516,-0.3052781820297241
1789316076083749400,6.128749267578125,-0.2000047117471695,0.26220935583114624,-0.36484062671661377
1789316076093782500,6.138782470703125,-0.26516425609588623,0.22329549491405487,-0.47131621837615967
1789316076103815400,6.1488154296875,-0.2906210124492645,0.23707829415798187,-0.5092377066612244
1789316076113848300,6.158848388671875,-0.2582412362098694,0.2565934360027313,-0.41353195905685425
1789316076123882200,6.16888232421875,-0.24104082584381104,0.3798547685146332,0.000519775552675128
1789316076133915400,6.178915283203125,-0.05052519962191582,0.5114633440971375,-0.14121657609939575
1789316076143948300,6.1889482421875,0.03201377019286156,0.13630938529968262,-0.3142969608306885
1789316076153982500,6.198982421875,-0.08547185361385345,-0.23570652306079865,0.03918279707431793
1789316076164015400,6.209015380859375,-0.2192440927028656,-0.13728949427604675,0.3133831322193146
1789316076174048500,6.219048583984375,-0.34666064381599426,0.15945935249328613,0.5171850323677063
1789316076184081400,6.229081298828125,-0.39811038970947266,0.4976891875267029,0.5619597434997559
1789316076194115300,6.239115234375,-0.41685187816619873,0.616557776927948,0.6471462845802307
1789316076204148200,6.249148193359375,-0.4180327355861664,1.0231260061264038,0.6785269975662231
1789316076214181400,6.259181396484375,-0.3413003981113434,1.4887953996658325,0.5400795936584473
1789316076224214000,6.269214111328125,-0.21871131658554077,1.3012619018554688,0.19506138563156128
1789316076234248200,6.279248291015625,-0.06972768902778625,0.6697036027908325,-0.33982282876968384
1789316076244281000,6.289281005859375,0.11191865056753159,0.08346845954656601,-0.7823888063430786
1789316076254314200,6.299314208984375,0.20218384265899658,-0.13052478432655334,-0.9489991068840027
1789316076264347100,6.30934716796875,0.1747504472732544,-0.16412502527236938,-0.8680055737495422
1789316076274381000,6.319381103515625,0.08035150915384293,-0.10032527148723602,-0.7475286722183228
1789316076284414000,6.3294140625,-0.10757989436388016,-0.1551971584558487,-0.5701671838760376
1789316076294447000,6.339447021484375,-0.2829810082912445,-0.21835295855998993,-0.38660722970962524
1789316076304481000,6.34948095703125,-0.36272284388542175,-0.13198143243789673,-0.2505752742290497
1789316076314514200,6.35951416015625,-0.3972259759902954,0.3025071620941162,-0.30308961868286133
1789316076324547000,6.369547119140625,-0.2960126996040344,0.46932128071784973,-0.3118751347064972
1789316076334580200,6.379580322265625,-0.08409778773784637,0.2877245843410492,-0.12698116898536682
1789316076344614100,6.3896142578125,0.10435603559017181,0.16100500524044037,-0.05278633162379265
1789316076354647000,6.39964697265625,0.1941210776567459,0.08340528607368469,-0.09955570101737976
1789316076364680000,6.409679931640625,0.25232115387916565,0.005630485713481903,-0.14767611026763916
1789316076374713000,6.419713134765625,0.3656868636608124,-0.010452344082295895,-0.23820653557777405
1789316076384747000,6.4297470703125,0.4865832030773163,0.04375389963388443,-0.33560922741889954
1789316076394780200,6.4397802734375,0.5868362784385681,0.07636404782533646,-0.39962950348854065
1789316076404813000,6.44981298828125,0.6086516976356506,0.07831333577632904,-0.49566152691841125
1789316076414846200,6.45984619140625,0.5407118201255798,0.03633046895265579,-0.6836655139923096
1789316076424880000,6.469880126953125,0.44607067108154297,-0.056068286299705505,-1.012014627456665
1789316076434913300,6.479913330078125,0.37256234884262085,-0.25053203105926514,-1.3811407089233398
1789316076444946200,6.4899462890625,0.31628158688545227,-0.3820846378803253,-1.6724451780319214
1789316076454980000,6.49997998046875,0.2606883645057678,-0.3129143714904785,-1.8276845216751099
1789316076465013000,6.510012939453125,0.14715203642845154,-0.0778580978512764,-1.8406747579574585
1789316076475046100,6.520046142578125,0.05515313893556595,0.34358125925064087,-1.7837119102478027
1789316076485079000,6.5300791015625,0.04256938025355339,0.792089581489563,-1.6961493492126465
1789316076495113200,6.54011328125,0.08811050653457642,1.1202516555786133,-1.628458023071289
1789316076505146000,6.55014599609375,0.09579246491193771,1.284627079963684,-1.643733263015747
1789316076515179300,6.56017919921875,0.06743992120027542,1.270667314529419,-1.710072636604309
1789316076525212200,6.570212158203125,0.025717034935951233,1.1039873361587524,-1.811457633972168
1789316076535246000,6.58024609375,-0.018595566973090172,0.8368832468986511,-1.9199100732803345
1789316076545279000,6.590279052734375,-0.05768696963787079,0.5332695841789246,-1.9927634000778198
1789316076555312000,6.60031201171875,-0.09654302150011063,0.2890731692314148,-2.020127534866333
1789316076565345000,6.610344970703125,-0.13836532831192017,0.1396133452653885,-1.9578344821929932
1789316076575379200,6.620379150390625,-0.20861391723155975,0.07000977545976639,-1.8173271417617798
1789316076585412000,6.630412109375,-0.2821415960788727,0.11550018191337585,-1.62063467502594
1789316076595445200,6.6404453125,-0.3671984374523163,0.35898473858833313,-1.4110047817230225
1789316076605478100,6.65047802734375,-0.47491371631622314,0.6916790008544922,-1.1587727069854736
1789316076615512000,6.660511962890625,-0.5995781421661377,1.0386457443237305,-0.8952488899230957
1789316076625545000,6.670544921875,-0.6794995069503784,1.2353777885437012,-0.6686204671859741
1789316076635578000,6.680578125,-0.7293773293495178,1.2144557237625122,-0.5550376772880554
1789316076645611000,6.690611083984375,-0.7015858292579651,1.0215481519699097,-0.5726474523544312
1789316076655645200,6.700645263671875,-0.6658190488815308,0.8175997734069824,-0.7126679420471191
1789316076665678000,6.710677978515625,-0.7038718461990356,0.6170177459716797,-0.9385398626327515
1789316076675711200,6.720711181640625,-0.8709801435470581,-0.10013608634471893,-0.7603988647460938
1789316076685744000,6.730744140625,-1.0131672620773315,-0.9261214137077332,-0.15968824923038483
1789316076695778000,6.740778076171875,-1.1351431608200073,-1.087040662765503,0.4368313252925873
1789316076705811000,6.75081103515625,-1.1974093914031982,-0.7659372687339783,0.8401428461074829
1789316076715844000,6.760843994140625,-1.2014738321304321,-0.5243131518363953,1.153355360031128
1789316076725878000,6.7708779296875,-1.1968393325805664,-0.4117978811264038,1.3257107734680176
1789316076735911200,6.7809111328125,-1.163726568222046,-0.2993312478065491,1.2623485326766968
1789316076745944000,6.790944091796875,-1.111494779586792,-0.3840767741203308,1.135778784751892
1789316076755977200,6.800977294921875,-1.0396658182144165,-0.6206560134887695,1.0669249296188354
1789316076766011000,6.811010986328125,-0.8954939842224121,-0.8249483108520508,1.0667393207550049
1789316076776044000,6.8210439453125,-0.6890034079551697,-0.9505829811096191,1.1032112836837769
1789316076786077000,6.831076904296875,-0.4688616693019867,-0.9155037999153137,1.088421106338501
1789316076796110000,6.841110107421875,-0.3087199330329895,-0.7228480577468872,1.0225168466567993
1789316076806144000,6.85114404296875,-0.2520173490047455,-0.4880463182926178,0.9368975758552551
1789316076816177200,6.86117724609375,-0.29488304257392883,-0.3012079894542694,0.86651611328125
1789316076826210000,6.8712099609375,-0.37195882201194763,-0.09760172665119171,0.8220962285995483
1789316076836243200,6.8812431640625,-0.4797012507915497,0.19756974279880524,0.7758341431617737
1789316076846277000,6.891277099609375,-0.6160069108009338,0.4503316283226013,0.7681003212928772
1789316076856310000,6.90131005859375,-0.7152983546257019,0.5510566830635071,0.8392490744590759
1789316076866343000,6.911343017578125,-0.7687191367149353,0.47283706068992615,0.9682755470275879
1789316076876376000,6.9213759765625,-0.7792492508888245,0.3295222520828247,1.1678251028060913
1789316076886410000,6.931409912109375,-0.809359610080719,0.13688421249389648,1.428968906402588
1789316076896443100,6.941443115234375,-0.8495603203773499,0.107089564204216,1.6602855920791626
1789316076906476000,6.95147607421875,-0.8763986825942993,0.036201175302267075,1.850843071937561
1789316076916510200,6.96151025390625,-0.9141958951950073,-0.09596911072731018,1.9986416101455688
1789316076926543000,6.971543212890625,-0.9343820214271545,-0.3093377351760864,2.1017770767211914
1789316076936576300,6.981576171875,-0.90872722864151,-0.5393832325935364,2.1759045124053955
1789316076946609000,6.99160888671875,-0.8684474229812622,-0.7919358611106873,2.2329630851745605
1789316076956643000,7.00164306640625,-0.8489791750907898,-1.0397834777832031,2.226773262023926
1789316076966676000,7.011676025390625,-0.8332918882369995,-1.2568566799163818,2.1190381050109863
1789316076976709000,7.021709228515625,-0.7666758894920349,-1.343651533126831,2.158027410507202
1789316076986742000,7.031741943359375,-0.6896643042564392,-1.1226047277450562,2.434375762939453
1789316076996776200,7.041776123046875,-0.5380353927612305,-0.7703337669372559,2.79860782623291
1789316077006809000,7.05180908203125,-0.3706943690776825,-0.506099283695221,3.0615620613098145
1789316077016842200,7.06184228515625,-0.30453187227249146,-0.39168983697891235,3.16391921043396
1789316077026875100,7.071875244140625,-0.09494070708751678,-0.6188645958900452,2.7243053913116455
1789316077036909000,7.081908935546875,0.11073868721723557,-1.0325525999069214,2.0708818435668945
1789316077046942000,7.09194189453125,0.10759201645851135,-1.1658982038497925,1.6676011085510254
1789316077056975000,7.10197509765625,-0.018344607204198837,-1.0586535930633545,1.4302730560302734
1789316077067009300,7.11200927734375,-0.1444963961839676,-0.865792989730835,1.3774458169937134
1789316077077042200,7.122042236328125,-0.17628921568393707,-0.7153371572494507,1.3828881978988647
1789316077087075000,7.132074951171875,-0.14003409445285797,-0.565395176410675,1.4158456325531006
1789316077097108200,7.142108154296875,-0.10296769440174103,-0.3574720621109009,1.4303816556930542
1789316077107142100,7.15214208984375,-0.13497737050056458,-0.2587042450904846,1.4286141395568848
1789316077117175000,7.162175048828125,-0.19756938517093658,-0.17610925436019897,1.427754521369934
1789316077127208000,7.1722080078125,-0.2580679655075073,-0.1291077584028244,1.4037895202636719
1789316077137241000,7.182240966796875,-0.34450164437294006,-0.14958959817886353,1.4105345010757446
1789316077147275300,7.192275146484375,-0.45663875341415405,-0.13593655824661255,1.5079967975616455
1789316077157308200,7.20230810546875,-0.5718388557434082,-0.10148856043815613,1.5892274379730225
1789316077167341000,7.212341064453125,-0.6468108296394348,-0.09075948596000671,1.6087422370910645
1789316077177374200,7.222374267578125,-0.6052172780036926,-0.05699673295021057,1.5914567708969116
1789316077187408100,7.232408203125,-0.51619553565979,0.022658444941043854,1.4952242374420166
1789316077197441000,7.24244091796875,-0.44065016508102417,0.06976336985826492,1.383780598640442
1789316077207474000,7.252473876953125,-0.37326422333717346,0.11868586391210556,1.3032995462417603
1789316077217507000,7.262507080078125,-0.32053256034851074,0.12344599515199661,1.2411587238311768
1789316077227541500,7.27254150390625,-0.29292169213294983,0.17972366511821747,1.1902384757995605
1789316077237574700,7.28257470703125,-0.28233882784843445,0.25413239002227783,1.0787949562072754
1789316077247607600,7.292607666015625,-0.2939639985561371,0.30544838309288025,0.9218226075172424
1789316077257640700,7.302640625,-0.3055325150489807,0.38900426030158997,0.7856945991516113
1789316077267674400,7.31267431640625,-0.3095923662185669,0.3905690014362335,0.7237973809242249
1789316077277707500,7.32270751953125,-0.30603837966918945,0.3719870448112488,0.7454736232757568
1789316077287740400,7.332740478515625,-0.3290306627750397,0.3831159770488739,0.8172489404678345
1789316077297774600,7.342774658203125,-0.3952062129974365,0.42431509494781494,0.8599034547805786
1789316077307807500,7.352807373046875,-0.46232104301452637,0.48129141330718994,0.8428289890289307
1789316077317840600,7.362840576171875,-0.46350187063217163,0.5020581483840942,0.7780420184135437
1789316077327873500,7.37287353515625,-0.41132596135139465,0.4571053981781006,0.7214369773864746
1789316077337907500,7.382907470703125,-0.3439919054508209,0.4084521234035492,0.682407796382904
1789316077347940400,7.3929404296875,-0.26244232058525085,0.355830579996109,0.6713224649429321
1789316077357973500,7.402973388671875,-0.1834777295589447,0.3082151412963867,0.6601731181144714
1789316077368006400,7.41300634765625,-0.12099634855985641,0.3063156306743622,0.6195100545883179
1789316077378040600,7.42304052734375,-0.07892319560050964,0.33005478978157043,0.5447908043861389
1789316077388073500,7.433073486328125,-0.064815953373909,0.3444656729698181,0.510625958442688
1789316077398106600,7.443106689453125,-0.002318749437108636,0.41080260276794434,0.4725020229816437
1789316077408139500,7.453139404296875,0.13411754369735718,0.4527219831943512,0.33492228388786316
1789316077418173400,7.46317333984375,0.3253205120563507,0.46985676884651184,0.1346142441034317
1789316077428206300,7.473206298828125,0.5002350807189941,0.4528455436229706,-0.03069533407688141
1789316077438239500,7.483239501953125,0.6146426200866699,0.4636949896812439,-0.15279406309127808
1789316077448272400,7.4932724609375,0.6483951210975647,0.47220340371131897,-0.22832007706165314
1789316077458306600,7.503306640625,0.6207438111305237,0.47512462735176086,-0.26565492153167725
1789316077468339500,7.51333935546875,0.5608622431755066,0.5197268128395081,-0.34456363320350647
1789316077478372600,7.52337255859375,0.4097653925418854,0.5115357637405396,-0.518652617931366
1789316077488406800,7.53340673828125,0.2962682247161865,0.5537658333778381,-0.6294629573822021
1789316077498439400,7.543439453125,0.23814445734024048,0.5307926535606384,-0.6515450477600098
1789316077508472600,7.55347265625,0.25162574648857117,0.5187475681304932,-0.6879475116729736
1789316077518505500,7.56350537109375,0.2761766314506531,0.4458584785461426,-0.7749156951904297
1789316077528539600,7.57353955078125,0.28086942434310913,0.37106946110725403,-0.885619044303894
1789316077538572500,7.583572509765625,0.2536684274673462,0.3402652144432068,-0.9110096096992493
1789316077548605700,7.593605712890625,0.18150396645069122,0.3094385862350464,-0.8479971289634705
1789316077558638600,7.603638671875,0.06974627822637558,0.28979483246803284,-0.7097287178039551
1789316077568672800,7.6136728515625,-0.012331252917647362,0.24011360108852386,-0.5861032605171204
1789316077578705700,7.62370556640625,-0.032738521695137024,0.20817190408706665,-0.489045649766922
1789316077588738600,7.633738525390625,0.024819713085889816,0.1883663684129715,-0.42193666100502014
1789316077598771500,7.643771484375,0.09042588621377945,0.18370716273784637,-0.3612685203552246
1789316077608805600,7.6538056640625,0.16433413326740265,0.18955275416374207,-0.27406758069992065
1789316077618838500,7.663838623046875,0.22455406188964844,0.19861389696598053,-0.22051751613616943
1789316077628871700,7.67387158203125,0.2626185715198517,0.2171715795993805,-0.23784106969833374
1789316077638904600,7.683904541015625,0.293940007686615,0.2782890200614929,-0.31321412324905396
1789316077648938800,7.693938720703125,0.3085697591304779,0.3232737183570862,-0.371597021818161
1789316077658971600,7.7039716796875,0.32983511686325073,0.34108811616897583,-0.4021778404712677
1789316077669004800,7.7140048828125,0.40076330304145813,0.33837807178497314,-0.3980589509010315
1789316077679037700,7.72403759765625,0.413622111082077,0.2895476818084717,-0.3068222403526306
1789316077689071600,7.734071533203125,0.3184160888195038,0.2095898687839508,-0.18812836706638336
1789316077699104500,7.7441044921875,0.1184459924697876,0.12277666479349136,-0.02064136229455471
1789316077709137700,7.7541376953125,-0.013109051622450352,0.05120823159813881,0.07834481447935104
1789316077719171600,7.764171630859375,-0.10404641181230545,-0.05085315555334091,0.10966012626886368
1789316077729204700,7.774204833984375,-0.1358761489391327,-0.18683749437332153,0.06672895699739456
1789316077739237600,7.784237548828125,-0.09261976182460785,-0.320167601108551,0.02597806602716446
1789316077749270800,7.794270751953125,0.028707927092909813,-0.3907175064086914,-0.07609778642654419
1789316077759304400,7.804304443359375,0.13371610641479492,-0.40097519755363464,-0.23144610226154327
1789316077769337600,7.814337646484375,0.1344519853591919,-0.39926671981811523,-0.3371405303478241
1789316077779370500,7.82437060546875,0.05019328370690346,-0.3940945863723755,-0.34824004769325256
1789316077789403600,7.834403564453125,-0.06053624674677849,-0.3419286906719208,-0.2538783550262451
1789316077799437600,7.8444375,-0.1230664774775505,-0.24478748440742493,-0.1726042926311493
1789316077809470700,7.854470703125,-0.1341811716556549,-0.1403585523366928,-0.14896900951862335
1789316077819503600,7.864503662109375,-0.11330092698335648,0.0012300056405365467,-0.16937148571014404
1789316077829536800,7.874536865234375,-0.0877712070941925,0.14380939304828644,-0.24058304727077484
1789316077839570400,7.8845703125,-0.06981857120990753,0.17141813039779663,-0.3304530084133148
1789316077849603600,7.894603515625,-0.013458700850605965,0.20437170565128326,-0.41312241554260254
1789316077859636500,7.904636474609375,0.055377889424562454,0.17792758345603943,-0.5374829769134521
1789316077869669600,7.914669677734375,0.12104307115077972,0.14833147823810577,-0.6171498894691467
1789316077879703600,7.92470361328125,0.16263526678085327,0.06833358854055405,-0.6209715008735657
1789316077889736700,7.93473681640625,0.1860627830028534,-0.001320869429036975,-0.6127660274505615
1789316077899769600,7.94476953125,0.1827990859746933,-0.055169716477394104,-0.6205168962478638
1789316077909802800,7.954802734375,0.13655848801136017,-0.05207579955458641,-0.6584243178367615
1789316077919836400,7.96483642578125,0.07928481698036194,0.01357751153409481,-0.7038141489028931
1789316077929869600,7.97486962890625,0.026304813101887703,0.12406104058027267,-0.7047064900398254
1789316077939902500,7.98490234375,0.03056880086660385,0.2382211685180664,-0.7855174541473389
1789316077949935600,7.994935546875,0.04662070795893669,0.25689756870269775,-0.9035670161247253
1789316077959969500,8.004969482421876,0.05564402788877487,0.2685537040233612,-1.0096346139907837
1789316077970002700,8.015002685546875,0.05642310902476311,0.2746484875679016,-1.0705721378326416
1789316077980035600,8.02503564453125,0.06854128837585449,0.24195843935012817,-1.0860530138015747
1789316077990069500,8.035069580078124,0.08105944842100143,0.1701476126909256,-1.0816266536712646
1789316078000102400,8.045102294921875,0.061401061713695526,0.09462302923202515,-1.1025638580322266
1789316078010135600,8.055135498046875,0.025117166340351105,0.028618328273296356,-1.1092967987060547
1789316078020168400,8.06516845703125,-0.01249279361218214,-0.01091975998133421,-1.087765097618103
1789316078030202600,8.07520263671875,-0.034704554826021194,-0.044288672506809235,-1.0648934841156006
1789316078040235500,8.085235595703125,-0.04792927950620651,-0.0788533091545105,-1.0219271183013916
1789316078050268700,8.0952685546875,-0.07229146361351013,-0.04885316267609596,-0.9866636991500854
1789316078060301600,8.105301513671876,-0.1060962975025177,0.05514753982424736,-0.9633352160453796
1789316078070335700,8.115335693359375,-0.13762906193733215,0.18751850724220276,-0.9815482497215271
1789316078080368600,8.12536865234375,-0.1639387011528015,0.3093235194683075,-1.0130406618118286
1789316078090401500,8.135401611328126,-0.17361965775489807,0.3724706470966339,-1.0420417785644531
1789316078100434400,8.145434326171875,-0.16369086503982544,0.3627413213253021,-1.050500512123108
1789316078110468600,8.155468505859375,-0.12578298151493073,0.30227789282798767,-1.0494624376296997
1789316078120501500,8.16550146484375,-0.06533614546060562,0.25855809450149536,-1.0387804508209229
1789316078130534700,8.17553466796875,-0.01016625203192234,0.2369949221611023,-0.9692034125328064
1789316078140567600,8.185567626953125,0.041038878262043,0.2399558275938034,-0.8890451788902283
1789316078150601700,8.195601806640624,0.09886810183525085,0.22678673267364502,-0.82724529504776
1789316078160634600,8.205634521484376,0.2007952630519867,0.20122304558753967,-0.7790732383728027
1789316078170667800,8.215667724609375,0.3358249366283417,0.12307736277580261,-0.728938639163971
1789316078180700400,8.225700439453124,0.44405898451805115,0.028768440708518028,-0.6778554320335388
1789316078190734600,8.235734619140626,0.4944721460342407,-0.02224598452448845,-0.6458687782287598
1789316078200767500,8.245767578125,0.5066342949867249,-0.030522821471095085,-0.5957140326499939
1789316078210800600,8.255800537109375,0.4957996904850006,0.04477483779191971,-0.5889684557914734
1789316078220833500,8.26583349609375,0.4870232343673706,-0.0023588528856635094,-0.5434347987174988
1789316078230867500,8.275867431640625,0.48296570777893066,-0.11621430516242981,-0.4737870991230011
1789316078240900400,8.285900390625,0.5021878480911255,-0.20342430472373962,-0.4008668065071106
1789316078250933500,8.29593359375,0.5498149394989014,-0.2522793114185333,-0.3471803665161133
1789316078260966400,8.30596630859375,0.6056765913963318,-0.30278244614601135,-0.33214709162712097
1789316078271000300,8.316000244140625,0.6952667236328125,-0.3202425539493561,-0.38530850410461426
1789316078281033200,8.326033203125,0.7713369727134705,-0.34632182121276855,-0.4264895021915436
1789316078291066400,8.33606640625,0.8517614603042603,-0.3277064263820648,-0.4624246656894684
1789316078301100300,8.346100341796875,0.8897045850753784,-0.3103812336921692,-0.48859313130378723
1789316078311133400,8.356133544921875,0.8897780776023865,-0.3289130926132202,-0.46041184663772583
1789316078321166300,8.366166259765626,0.8486090898513794,-0.3441050946712494,-0.42539554834365845
1789316078331199500,8.376199462890625,0.8044038414955139,-0.34355345368385315,-0.4220620095729828
1789316078341233200,8.386233154296875,0.7778375148773193,-0.31838977336883545,-0.4064362049102783
1789316078351266300,8.396266357421876,0.7597987055778503,-0.35103151202201843,-0.37087640166282654
1789316078361299200,8.40629931640625,0.74151211977005,-0.3421573340892792,-0.34944939613342285
1789316078371332400,8.416332275390625,0.7058836221694946,-0.2346414178609848,-0.3508826792240143
1789316078381366300,8.4263662109375,0.6254857182502747,-0.11583806574344635,-0.3815652132034302
1789316078391399400,8.4363994140625,0.46768999099731445,-0.07505418360233307,-0.3973556458950043
1789316078401432300,8.446432373046875,0.3034762740135193,-0.09409818053245544,-0.31202903389930725
1789316078411465500,8.456465576171874,0.20532463490962982,-0.06812544912099838,-0.1700204759836197
1789316078421499100,8.4664990234375,0.14715240895748138,-0.02989151142537594,-0.019478637725114822
1789316078431532300,8.4765322265625,0.07352039217948914,-0.027405841276049614,0.11928778886795044
1789316078441565200,8.486565185546874,-0.022460201755166054,-0.08900795131921768,0.2915133535861969
1789316078451598300,8.496598388671876,-0.0722472220659256,-0.12424985319375992,0.4717523455619812
1789316078461632300,8.50663232421875,-0.09273198246955872,-0.11269333213567734,0.5478209853172302
1789316078471665400,8.51666552734375,-0.10628113895654678,-0.14826394617557526,0.5918563008308411
1789316078481698300,8.5266982421875,-0.11643204092979431,-0.2351226657629013,0.6676954030990601
1789316078491731500,8.5367314453125,-0.11729694902896881,-0.3000331521034241,0.7063466906547546
1789316078501765400,8.546765380859375,-0.13524186611175537,-0.27898937463760376,0.6763442754745483
1789316078511798300,8.55679833984375,-0.18337541818618774,-0.2226622849702835,0.607099711894989
1789316078521831200,8.5668310546875,-0.2206524759531021,-0.16894738376140594,0.5741540193557739
1789316078531864300,8.5768642578125,-0.23159882426261902,-0.08017167448997498,0.5682729482650757
1789316078541898200,8.586898193359374,-0.13373830914497375,0.05176958441734314,0.6280393600463867
1789316078551931400,8.596931396484376,0.0823180079460144,0.16418954730033875,0.7324427962303162
1789316078561964300,8.60696435546875,0.2970593571662903,0.13887754082679749,0.773095428943634
1789316078571998500,8.61699853515625,0.3256009519100189,0.1120552122592926,0.7199285626411438
1789316078582031400,8.62703125,0.22904884815216064,0.17530182003974915,0.6433363556861877
1789316078592064300,8.637064208984375,0.1451025903224945,0.41968682408332825,0.6066269874572754
1789316078602097200,8.64709716796875,0.021575333550572395,0.7287660837173462,0.5767000317573547
1789316078612131300,8.65713134765625,-0.19851404428482056,0.9118420481681824,0.5046239495277405
1789316078622164200,8.667164306640625,-0.4279443025588989,0.8896054625511169,0.33232730627059937
1789316078632197400,8.677197265625,-0.4388180077075958,0.6851572394371033,0.11562565714120865
1789316078642230300,8.687230224609374,-0.3660074472427368,0.23660393059253693,-0.1467372626066208
1789316078652264400,8.697264404296876,-0.3796190917491913,-0.2114158570766449,-0.42558300495147705
1789316078662297300,8.70729736328125,-0.34089726209640503,-0.27378761768341064,-0.5936662554740906
1789316078672330500,8.71733056640625,-0.23020760715007782,-0.20678521692752838,-0.6200690269470215
1789316078682363400,8.72736328125,-0.07996883243322372,-0.24742984771728516,-0.5732453465461731
1789316078692397300,8.737397216796875,0.04144762083888054,-0.3320523798465729,-0.5051079988479614
1789316078702430200,8.74743017578125,0.09921504557132721,-0.3862681984901428,-0.3704194128513336
1789316078712463400,8.75746337890625,0.08354213088750839,-0.43019458651542664,-0.21148906648159027
1789316078722496300,8.767496337890625,0.010875117965042591,-0.4762992262840271,-0.08137021213769913
1789316078732530400,8.777530517578125,-0.0904511958360672,-0.5260893702507019,0.012575376778841019
1789316078742563300,8.787563232421874,-0.22558212280273438,-0.5745037794113159,0.11261941492557526
1789316078752596500,8.797596435546875,-0.3387001156806946,-0.5667129158973694,0.2408227026462555
1789316078762629400,8.80762939453125,-0.31875595450401306,-0.49607446789741516,0.3944186568260193
1789316078772663300,8.817663330078124,-0.22405695915222168,-0.3630400598049164,0.5102211833000183
1789316078782696200,8.8276962890625,-0.17194050550460815,-0.2733224034309387,0.5687883496284485
1789316078792729300,8.837729248046875,-0.17986461520195007,-0.1737871915102005,0.4640946686267853
1789316078802762200,8.84776220703125,-0.22327813506126404,-0.15911105275154114,0.3484668731689453
1789316078812796400,8.85779638671875,-0.31938669085502625,-0.1814524382352829,0.30526137351989746
1789316078822829300,8.867829345703125,-0.48161235451698303,-0.17859779298305511,0.27411144971847534
1789316078832862500,8.877862548828125,-0.627983808517456,-0.16396328806877136,0.28302261233329773
1789316078842896100,8.887896240234374,-0.6970121264457703,-0.129861518740654,0.3343864679336548
1789316078852929300,8.89792919921875,-0.7339234948158264,-0.12474289536476135,0.40649425983428955
1789316078862962200,8.907962158203125,-0.7750874757766724,-0.12131194025278091,0.48972734808921814
1789316078872995300,8.917995361328124,-0.8272087574005127,-0.06599362939596176,0.5686128735542297
1789316078883029200,8.928029296875,-0.8549118041992188,-0.00761767290532589,0.6095288395881653
1789316078893062400,8.9380625,-0.8283502459526062,0.031227923929691315,0.5875513553619385
1789316078903095300,8.94809521484375,-0.7054610848426819,0.05726804584264755,0.5213992595672607
1789316078913128400,8.95812841796875,-0.5325290560722351,0.03108598291873932,0.4533765912055969
1789316078923162000,8.968162109375,-0.3445972502231598,-0.010347477160394192,0.36593863368034363
1789316078933195300,8.9781953125,-0.2123795598745346,-0.09147593379020691,0.2900930941104889
1789316078943228200,8.988228271484376,-0.09190453588962555,-0.1665448546409607,0.263374388217926
1789316078953261300,8.99826123046875,-0.004439534619450569,-0.22508420050144196,0.2553326487541199
1789316078963295200,9.008295166015625,-0.049372121691703796,-0.2648739516735077,0.24531519412994385
1789316078973328400,9.018328369140624,-0.1619255393743515,-0.24532711505889893,0.2423311322927475
1789316078983361300,9.028361328125,-0.28579768538475037,-0.16018719971179962,0.2603820264339447
1789316078993394400,9.03839453125,-0.39345675706863403,-0.14210957288742065,0.29972103238105774
1789316079003428000,9.048427978515624,-0.4214492440223694,-0.2587672173976898,0.2831849157810211
1789316079013461200,9.058461181640626,-0.38228142261505127,-0.39168304204940796,0.20743924379348755
1789316079023494100,9.068494140625,-0.2939808666706085,-0.46352100372314453,0.1261207014322281
1789316079033527300,9.07852734375,-0.19674299657344818,-0.5134632587432861,0.06161678209900856
1789316079043561200,9.088561279296876,-0.16089338064193726,-0.5455504059791565,0.01750711165368557
1789316079053594400,9.098594482421875,-0.20177623629570007,-0.569756031036377,-0.008939986117184162
1789316079063627300,9.108627197265625,-0.27206507325172424,-0.5310313105583191,-0.044667888432741165
1789316079073660400,9.118660400390626,-0.3177259564399719,-0.48657241463661194,-0.072626031935215
1789316079083694300,9.1286943359375,-0.34179240465164185,-0.4587900638580322,-0.09896042943000793
1789316079093727200,9.138727294921875,-0.35299912095069885,-0.41419124603271484,-0.11927362531423569
1789316079103760100,9.148760009765626,-0.34000474214553833,-0.3634580075740814,-0.10711949318647385
1789316079113793300,9.158793212890625,-0.2868626117706299,-0.3778022527694702,-0.07394184917211533
1789316079123827200,9.1688271484375,-0.23321135342121124,-0.3948874771595001,-0.045530714094638824
1789316079133860400,9.1788603515625,-0.20836257934570312,-0.37737175822257996,0.01017483975738287
1789316079143893200,9.188893310546876,-0.19199346005916595,-0.3342586159706116,0.06657286733388901
1789316079153926400,9.198926513671875,-0.18913981318473816,-0.32881850004196167,0.1144980639219284
1789316079163960300,9.208960205078125,-0.17844268679618835,-0.36270377039909363,0.12285666167736053
1789316079173993500,9.218993408203126,-0.12441196292638779,-0.4153696894645691,0.0766611248254776
1789316079184026400,9.2290263671875,-0.05989794805645943,-0.49673351645469666,0.0329730324447155
1789316079194060300,9.239060302734375,-0.01980740949511528,-0.5324946045875549,0.012560440227389336
1789316079204093200,9.24909326171875,-0.03549262881278992,-0.5239468812942505,0.02336701564490795
1789316079214126300,9.259126220703125,-0.09883501380681992,-0.45974433422088623,0.041033223271369934
1789316079224159200,9.2691591796875,-0.18061721324920654,-0.3180314302444458,0.054586317390203476
1789316079234192400,9.2791923828125,-0.2506728768348694,-0.1305258721113205,0.09128010272979736
1789316079244226300,9.289226318359376,-0.28531286120414734,0.05160186067223549,0.16518202424049377
1789316079254259500,9.299259521484375,-0.263460636138916,0.2187201827764511,0.2649788558483124
1789316079264292400,9.309292236328124,-0.22427356243133545,0.3363158106803894,0.3921447992324829
1789316079274326300,9.319326171875,-0.1910630464553833,0.41841182112693787,0.5251010060310364
1789316079284359200,9.329359130859375,-0.18153078854084015,0.4378507733345032,0.6248198747634888
1789316079294392300,9.339392333984375,-0.18597716093063354,0.40781623125076294,0.6899613738059998
1789316079304425200,9.34942529296875,-0.24483008682727814,0.3690592348575592,0.779098391532898
1789316079314459400,9.35945947265625,-0.33540937304496765,0.36423853039741516,0.8406895995140076
1789316079324492300,9.3694921875,-0.41100719571113586,0.349789023399353,0.805021345615387
1789316079334525400,9.379525390625,-0.4339694380760193,0.30336859822273254,0.7749342918395996
1789316079344558300,9.389558349609375,-0.43162932991981506,0.2802201211452484,0.802931547164917
1789316079354592300,9.39959228515625,-0.4076792299747467,0.29301849007606506,0.7372319102287292
1789316079364625200,9.409625244140624,-0.3590834438800812,0.225454643368721,0.656486451625824
1789316079374658300,9.419658203125,-0.28318917751312256,0.14032410085201263,0.5951512455940247
1789316079384691200,9.429691162109375,-0.20165172219276428,0.09045533090829849,0.5753748416900635
1789316079394725400,9.439725341796875,-0.13285478949546814,0.08805505931377411,0.6257997155189514
1789316079404758300,9.44975830078125,-0.059183500707149506,0.13534747064113617,0.7130443453788757
1789316079414791400,9.45979150390625,0.03637738525867462,0.15908581018447876,0.8081391453742981
1789316079424824300,9.46982421875,0.13618974387645721,0.12466631829738617,0.9571557641029358
1789316079434858200,9.479858154296876,0.2091062068939209,0.0036040181294083595,1.112988829612732
1789316079444891100,9.48989111328125,0.2470429390668869,0.07000035047531128,1.1786367893218994
1789316079454924300,9.49992431640625,0.3270285427570343,-0.01886243186891079,1.1875485181808472
1789316079464957200,9.509957275390626,0.3847362995147705,-0.014440519735217094,1.4712125062942505
1789316079474991400,9.519991455078125,0.21590307354927063,0.14552459120750427,1.8733224868774414
1789316079485024300,9.530024169921875,0.14072123169898987,-0.04129856079816818,2.3169898986816406
1789316079495057400,9.540057373046874,0.15367692708969116,-0.27011871337890625,2.466499090194702
1789316079505090300,9.55009033203125,0.2016785442829132,-0.25540339946746826,2.5818333625793457
1789316079515124200,9.560124267578125,0.37311822175979614,-0.1407202184200287,2.5712263584136963
1789316079525157000,9.5701572265625,0.5907106995582581,-0.03539086878299713,2.4913339614868164
1789316079535190300,9.580190185546876,1.001735806465149,-0.030952177941799164,2.179314136505127
1789316079545223200,9.59022314453125,1.223042368888855,-0.07628237456083298,1.5159770250320435
1789316079555257300,9.60025732421875,1.1832914352416992,-0.12262202054262161,0.8567489385604858
1789316079565290200,9.610290283203126,1.1477856636047363,-0.15046803653240204,0.2348233312368393
1789316079575323400,9.620323486328125,1.1001770496368408,-0.27121660113334656,-0.4820687174797058
1789316079585356300,9.630356201171875,0.9748172760009766,-0.16432850062847137,-0.9889843463897705
1789316079595390200,9.64039013671875,0.6999247074127197,-0.0027763573452830315,-1.239532470703125
1789316079605423000,9.650423095703125,0.5043405294418335,0.02801777422428131,-1.321215033531189
1789316079615456300,9.660456298828125,0.4896603524684906,0.044936295598745346,-1.284267544746399
1789316079625490400,9.670490478515624,0.5910631418228149,0.10131727904081345,-1.1761767864227295
1789316079635523300,9.6805234375,0.7280778288841248,0.1655666083097458,-1.0262928009033203
1789316079645556200,9.69055615234375,0.8241870403289795,0.1872711032629013,-0.8486498594284058
1789316079655589400,9.70058935546875,0.8677976727485657,0.11446830630302429,-0.675885021686554
1789316079665623600,9.71062353515625,0.9252704977989197,0.056401267647743225,-0.4894285798072815
1789316079675656200,9.72065625,1.0002168416976929,0.096017025411129,-0.29929301142692566
1789316079685689000,9.730689208984375,1.0581568479537964,0.1970704048871994,-0.19014523923397064
1789316079695722200,9.74072216796875,1.1233484745025635,0.24582259356975555,-0.1895003765821457
1789316079705756400,9.75075634765625,1.1516211032867432,0.29568949341773987,-0.2521246075630188
1789316079715789300,9.760789306640625,1.1065037250518799,0.33792200684547424,-0.29497838020324707
1789316079725822200,9.770822265625,0.9937527179718018,0.38689514994621277,-0.2851316034793854
1789316079735855400,9.78085546875,0.8657925128936768,0.3877720236778259,-0.2674090266227722
1789316079745889500,9.7908896484375,0.7420223355293274,0.35336875915527344,-0.2257566601037979
1789316079755922400,9.80092236328125,0.6118744015693665,0.36596572399139404,-0.15722396969795227
1789316079765955300,9.810955322265626,0.47599172592163086,0.34111446142196655,-0.15330007672309875
1789316079775988200,9.82098828125,0.4030647277832031,0.2444155216217041,-0.26101136207580566
1789316079786022400,9.8310224609375,0.41328832507133484,0.10524751991033554,-0.4462784230709076
1789316079796055300,9.84105517578125,0.4453948140144348,-0.043407246470451355,-0.6620680093765259
1789316079806088200,9.851088134765625,0.5130638480186462,-0.13019832968711853,-0.870222270488739
1789316079816121300,9.861121337890625,0.5986727476119995,-0.12280867248773575,-1.0205994844436646
1789316079826155500,9.871155517578124,0.6557650566101074,-0.039916716516017914,-1.1911251544952393
1789316079836188400,9.8811884765625,0.6519542336463928,0.04852599278092384,-1.3151510953903198
1789316079846221300,9.89122119140625,0.5848199725151062,0.15187261998653412,-1.3308171033859253
1789316079856254500,9.90125439453125,0.49251148104667664,0.2118101418018341,-1.2930145263671875
1789316079866288400,9.911288330078126,0.4001554548740387,0.17964795231819153,-1.3599709272384644
1789316079876321300,9.9213212890625,0.3308108448982239,0.059507034718990326,-1.5036245584487915
1789316079886354200,9.931354248046874,0.2943955957889557,-0.0811491459608078,-1.6312309503555298
1789316079896387300,9.94138720703125,0.3006640374660492,-0.18615342676639557,-1.7240931987762451
1789316079906421500,9.95142138671875,0.3235943913459778,-0.2493092268705368,-1.7790459394454956
1789316079916454400,9.961454345703125,0.3107748329639435,-0.3322242498397827,-1.8565512895584106
1789316079926487300,9.9714873046875,0.3075217604637146,-0.4818294644355774,-1.9450771808624268
1789316079936520400,9.9815205078125,0.2901630997657776,-0.6609307527542114,-1.9437121152877808
1789316079946554400,9.991554443359375,0.30254945158958435,-0.8083207011222839,-1.8951970338821411
1789316079956587300,10.001587158203124,0.38568374514579773,-0.8629791736602783,-1.8696045875549316
1789316079966620200,10.0116201171875,0.4887893497943878,-0.7892484664916992,-1.8534224033355713
1789316079976653300,10.0216533203125,0.6121816635131836,-0.6678063869476318,-1.8463038206100464
1789316079986687500,10.0316875,0.7409079670906067,-0.6374143362045288,-1.8529579639434814
1789316079996720400,10.041720458984376,0.802335798740387,-0.7616578340530396,-1.7930972576141357
1789316080006753300,10.051753173828125,0.7608429193496704,-1.0178067684173584,-1.701615571975708
1789316080016786400,10.061786376953124,0.702532172203064,-1.161147117614746,-1.612762689590454
1789316080026820400,10.0718203125,0.6160340309143066,-1.1026725769042969,-1.4736050367355347
1789316080036853200,10.081853271484375,0.5288889408111572,-0.8324801921844482,-1.2991617918014526
1789316080046886100,10.09188623046875,0.4714355170726776,-0.44540470838546753,-1.1159776449203491
1789316080056919300,10.101919189453126,0.41069674491882324,-0.08916699886322021,-0.928895890712738
1789316080066953500,10.111953369140625,0.3821926712989807,0.13545013964176178,-0.7377474904060364
1789316080076986400,10.121986328125,0.38331446051597595,0.22351212799549103,-0.5318024158477783
1789316080087019300,10.132019287109374,0.4290856719017029,0.23239776492118835,-0.35175621509552
1789316080097052400,10.142052490234375,0.48734647035598755,0.16256661713123322,-0.20156028866767883
1789316080107086300,10.15208642578125,0.5224717259407043,0.03611813485622406,-0.08604808151721954
1789316080117119200,10.162119140625,0.49423354864120483,-0.06463123112916946,-0.0029851538129150867
1789316080127152000,10.172152099609375,0.39894458651542664,-0.10211415588855743,0.021698886528611183
1789316080137186300,10.182186279296875,0.2748163342475891,-0.07381265610456467,-0.029618380591273308
1789316080147219500,10.192219482421875,0.1634751707315445,-0.018808264285326004,-0.10849934816360474
1789316080157252400,10.20225244140625,0.10374729335308075,-0.011281721293926239,-0.1299782544374466
1789316080167285200,10.21228515625,0.06958692520856857,-0.050009407103061676,-0.05578019097447395
1789316080177319200,10.222319091796875,-0.0030173887498676777,-0.03903920203447342,0.11217126250267029
1789316080187352300,10.232352294921874,-0.06372175365686417,0.07558644562959671,0.32379642128944397
1789316080197385200,10.24238525390625,0.001360095338895917,0.28334367275238037,0.5925173163414001
1789316080207418000,10.252418212890625,0.15751215815544128,0.48430901765823364,0.8886187672615051
1789316080217452300,10.262452392578124,0.3504893481731415,0.5681540966033936,1.072800636291504
1789316080227485400,10.2724853515625,0.4943453371524811,0.5402052998542786,1.1407772302627563
1789316080237518600,10.2825185546875,0.4318825304508209,0.7264927625656128,1.197097659111023
1789316080247551500,10.292551513671874,0.1934177726507187,1.0839160680770874,1.253881573677063
1789316080257585400,10.30258544921875,-0.005820494145154953,1.3339213132858276,1.1853095293045044
1789316080267618300,10.312618408203125,0.041340362280607224,1.2268359661102295,0.9221969842910767
1789316080277651500,10.3226513671875,0.09232193231582642,0.7623707056045532,0.5430071353912354
1789316080287684400,10.332684326171876,0.14143088459968567,0.24953137338161469,0.18094396591186523
1789316080297718500,10.342718505859375,0.1242242157459259,-0.08292568475008011,-0.15788528323173523
1789316080307751400,10.35275146484375,-0.18963252007961273,-0.2975786030292511,-0.4858090877532959
1789316080317784600,10.36278466796875,-0.32034891843795776,-0.536292314529419,-0.6334273219108582
1789316080327817500,10.3728173828125,-0.3292340040206909,-0.4960532784461975,-0.5106430649757385
1789316080337851600,10.3828515625,-0.17315371334552765,-0.36411532759666443,-0.28516680002212524
1789316080347884500,10.392884521484374,-0.0755094513297081,-0.36976683139801025,-0.07551450282335281
1789316080357917400,10.40291748046875,-0.08803687244653702,-0.4213145971298218,0.09534888714551926
1789316080367950300,10.412950439453125,-0.16193826496601105,-0.4220251142978668,0.21583987772464752
1789316080377984500,10.422984619140625,-0.3486003279685974,-0.41373714804649353,0.3076736629009247
1789316080388017400,10.433017333984376,-0.5930420160293579,-0.4423413872718811,0.3762090504169464
1789316080398050600,10.443050537109375,-0.8438209891319275,-0.4861694872379303,0.427973210811615
1789316080408083500,10.45308349609375,-1.028784990310669,-0.5224822759628296,0.46805617213249207
1789316080418117600,10.46311767578125,-1.089476466178894,-0.48705601692199707,0.5074834823608398
1789316080428150500,10.473150634765625,-1.0208321809768677,-0.38765057921409607,0.5341758131980896
1789316080438183400,10.483183349609375,-0.8737030625343323,-0.2614939212799072,0.5382205247879028
1789316080448216300,10.49321630859375,-0.7367734909057617,-0.11705847084522247,0.525874137878418
1789316080458250500,10.50325048828125,-0.6667870879173279,0.008712103590369225,0.4935261011123657
1789316080468283400,10.513283447265625,-0.6301438808441162,0.10962513834238052,0.502098560333252
1789316080478316500,10.523316650390624,-0.678950846195221,0.1965632438659668,0.5247900485992432
1789316080488349400,10.533349365234375,-0.7663017511367798,0.2916831076145172,0.5646248459815979
1789316080498383600,10.543383544921875,-0.7548452615737915,0.40559107065200806,0.556130588054657
1789316080508416500,10.55341650390625,-0.6785233616828918,0.4489012658596039,0.48402711749076843
1789316080518449700,10.56344970703125,-0.6077359914779663,0.42692211270332336,0.42739900946617126
1789316080528482600,10.573482666015625,-0.5925315022468567,0.42942070960998535,0.4827597141265869
1789316080538516500,10.5835166015625,-0.5638428330421448,0.46622511744499207,0.6041201949119568
1789316080548549400,10.59354931640625,-0.6031646728515625,0.3461858034133911,0.8517441153526306
1789316080558582500,10.60358251953125,-0.6253527998924255,0.2857101857662201,0.967156708240509
1789316080568615400,10.613615478515625,-0.6767315864562988,0.19491314888000488,1.002779245376587
1789316080578649600,10.623649658203124,-0.6780936121940613,0.07464843988418579,0.9014928340911865
1789316080588682500,10.6336826171875,-0.6482121348381042,-0.015342970378696918,0.744189977645874
1789316080598715600,10.643715576171875,-0.5765014290809631,-0.034183476120233536,0.501003086566925
1789316080608748500,10.65374853515625,-0.4824681282043457,-0.08429910987615585,0.27708694338798523
1789316080618782500,10.663782470703126,-0.41308116912841797,-0.1270620971918106,0.1178443506360054
1789316080628815400,10.6738154296875,-0.35203513503074646,-0.10135219246149063,0.07363507896661758
1789316080638848500,10.6838486328125,-0.28814640641212463,0.052900757640600204,0.1372033953666687
1789316080648881400,10.69388134765625,-0.28640446066856384,0.23005342483520508,0.2908070683479309
1789316080658915600,10.70391552734375,-0.3427867889404297,0.32688575983047485,0.45886537432670593
1789316080668948500,10.713948486328125,-0.3909098505973816,0.34766480326652527,0.6169511675834656
1789316080678981600,10.723981689453124,-0.3822852671146393,0.20417913794517517,0.7269071340560913
1789316080689014500,10.7340146484375,-0.3587133586406708,-0.0399877205491066,0.7962028384208679
1789316080699048400,10.74404833984375,-0.3217284679412842,-0.19998249411582947,0.8214858174324036
1789316080709081300,10.754081298828124,-0.25163137912750244,-0.25753551721572876,0.836319088935852
1789316080719114500,10.764114501953125,-0.14986707270145416,-0.2316499501466751,0.8869637250900269
1789316080729147400,10.7741474609375,-0.040268685668706894,-0.1152314692735672,0.9830148816108704
1789316080739181600,10.784181640625,0.04059818014502525,-0.028238054364919662,1.072075605392456
1789316080749214500,10.79421435546875,0.11959393322467804,0.011381526477634907,1.0217525959014893
1789316080759247600,10.80424755859375,0.17401881515979767,-0.038377758115530014,0.8660762310028076
1789316080769281300,10.81428125,0.21135394275188446,-0.10913767665624619,0.6838060021400452
1789316080779314400,10.824314453125,0.28560948371887207,-0.1605750322341919,0.5903927683830261
1789316080789347300,10.834347412109375,0.3299572467803955,-0.189296156167984,0.6623449921607971
1789316080799380500,10.84438037109375,0.3029004633426666,-0.16087797284126282,0.8295880556106567
1789316080809414400,10.854414306640624,0.20337653160095215,-0.02195258066058159,0.9572261571884155
1789316080819447600,10.864447509765625,0.04920380190014839,0.07317368686199188,1.0885313749313354
1789316080829480400,10.87448046875,-0.054336439818143845,0.0647631585597992,1.2183072566986084
1789316080839513600,10.884513671875,-0.1092941164970398,0.007924227975308895,1.3304507732391357
1789316080849547300,10.89454736328125,-0.0865350067615509,0.07579541951417923,1.3335336446762085
1789316080859580400,10.904580322265625,-0.06329428404569626,0.14334876835346222,1.4331703186035156
1789316080869613300,10.91461328125,-0.029452424496412277,0.17538046836853027,1.4860249757766724
1789316080879646500,10.924646484375,0.04213806986808777,0.22856564819812775,1.606347680091858
1789316080889680400,10.934680419921875,0.0779072493314743,0.21237042546272278,1.873213291168213
1789316080899713500,10.944713623046875,0.07468502223491669,0.018084470182657242,2.186838150024414
1789316080909746400,10.954746337890626,0.15247942507266998,-0.1327710896730423,2.262556791305542
1789316080919779600,10.964779541015625,0.3061327636241913,-0.2394833266735077,2.1794593334198
1789316080929813500,10.9748134765625,0.4512318968772888,-0.23825693130493164,2.052818536758423
1789316080939846400,10.984846435546874,0.5621109008789062,-0.16870906949043274,1.9111475944519043
1789316080949879300,10.99487939453125,0.6406674981117249,-0.15481269359588623,1.6913968324661255
1789316080959912400,11.004912353515625,0.541612446308136,-0.14812268316745758,1.4692788124084473
1789316080969946400,11.0149462890625,0.7354783415794373,-0.029650099575519562,1.3319052457809448
1789316080979979500,11.0249794921875,0.834352433681488,-0.053049370646476746,0.7878443002700806
1789316080990012400,11.035012451171875,0.6661093831062317,0.07360444217920303,-0.05223117023706436
1789316081000045600,11.045045654296874,0.2808445394039154,0.22295869886875153,-0.5589682459831238
1789316081010079500,11.05507958984375,0.3060327172279358,0.36777499318122864,-1.083422064781189
1789316081020112600,11.065112548828125,0.35450857877731323,0.6306912302970886,-1.572853922843933
1789316081030145300,11.075145263671875,0.3029671013355255,0.8208371996879578,-1.7569677829742432
1789316081040178400,11.085178466796876,0.26504117250442505,0.9776597619056702,-1.6280583143234253
1789316081050212400,11.09521240234375,0.2825685143470764,1.065484642982483,-1.533573865890503
1789316081060245500,11.10524560546875,0.3056671917438507,1.0797984600067139,-1.420134425163269
1789316081070278400,11.1152783203125,0.22098401188850403,0.9519619345664978,-1.266811728477478
1789316081080311600,11.1253115234375,0.07912057638168335,0.8037316799163818,-1.1202178001403809
1789316081090345500,11.135345458984375,-0.009815686382353306,0.7108842730522156,-1.0101101398468018
1789316081100378600,11.145378662109374,-0.026898296549916267,0.6696372032165527,-0.9134005904197693
1789316081110411500,11.15541162109375,0.03874489665031433,0.6674712896347046,-0.7798089385032654
1789316081120444400,11.1654443359375,0.1042129248380661,0.719214916229248,-0.7252157926559448
1789316081130478300,11.175478271484375,0.14383624494075775,0.7170785665512085,-0.834825873374939
1789316081140511500,11.185511474609376,0.1746973842382431,0.6950879693031311,-1.014681100845337
1789316081150544400,11.19554443359375,0.22801680862903595,0.7300052046775818,-1.0778264999389648
1789316081160577500,11.20557763671875,0.27688825130462646,0.7537156939506531,-1.1526604890823364
1789316081170611500,11.215611572265624,0.287870854139328,0.6994460225105286,-1.321398138999939
1789316081180644600,11.22564453125,0.26798510551452637,0.6182041764259338,-1.4545727968215942
1789316081190677500,11.235677490234375,0.2130637913942337,0.5416297912597656,-1.6039726734161377
1789316081200710700,11.245710693359374,0.17632605135440826,0.44993749260902405,-1.7933709621429443
1789316081210744300,11.255744384765626,0.1832209676504135,0.38838332891464233,-1.875512957572937
1789316081220777500,11.265777587890625,0.19632339477539062,0.3443409204483032,-1.8652740716934204
1789316081230810600,11.275810546875,0.2285955846309662,0.3079054057598114,-1.7807567119598389
1789316081240843800,11.28584375,0.32462164759635925,0.2399662435054779,-1.696081519126892
1789316081250877700,11.295877685546875,0.4512174129486084,0.11590209603309631,-1.548511028289795
1789316081260910800,11.305910888671875,0.5095531940460205,-0.06366734951734543,-1.3499650955200195
1789316081270943700,11.31594384765625,0.4264412820339203,-0.15911051630973816,-1.0692921876907349
1789316081280977000,11.325976806640625,0.27395954728126526,-0.05270737037062645,-0.8453748822212219
1789316081291010600,11.336010498046875,0.16536889970302582,0.21783171594142914,-0.7380782961845398
1789316081301043700,11.346043701171874,0.1098596453666687,0.48186585307121277,-0.7579485774040222
1789316081311076600,11.35607666015625,0.04426891356706619,0.45781272649765015,-0.8851491808891296
1789316081321109800,11.36610986328125,0.01990307681262493,0.20422643423080444,-1.0747448205947876
1789316081331143700,11.376143798828124,0.02429596148431301,-0.08879345655441284,-1.241884469985962
1789316081341176800,11.3861767578125,0.023876747116446495,-0.24936076998710632,-1.303682804107666
1789316081351209700,11.396209716796875,0.011562291532754898,-0.4317436218261719,-1.218041181564331
1789316081361243000,11.406242919921874,0.018140330910682678,-0.4551035463809967,-0.9634565711021423
1789316081371276500,11.416276611328126,0.13452686369419098,-0.2673536241054535,-0.6293326616287231
1789316081381309700,11.426309814453125,0.13164964318275452,0.25914934277534485,-0.5454117059707642
1789316081391342600,11.436342529296875,0.024052873253822327,0.4312998056411743,-0.9433814883232117
1789316081401375700,11.446375732421876,-0.07789402455091476,0.012842950411140919,-1.3726286888122559
1789316081411409700,11.45640966796875,-0.3178626596927643,-0.5167972445487976,-1.3911937475204468
1789316081421442800,11.46644287109375,-0.6137879490852356,-0.8040754795074463,-1.092071771621704
1789316081431475700,11.476475830078124,-0.6477243304252625,-0.6271984577178955,-0.8022053837776184
1789316081441508900,11.4865087890625,-0.42432427406311035,-0.27839308977127075,-0.7251558899879456
1789316081451542500,11.49654248046875,-0.1724579781293869,-0.26925259828567505,-0.735508918762207
1789316081461575700,11.50657568359375,0.0366566926240921,-0.4967695474624634,-0.7066162824630737
1789316081471608600,11.516608642578126,0.11153680086135864,-0.7404053807258606,-0.6161825060844421
1789316081481641700,11.526641845703125,0.10337592661380768,-0.9854344725608826,-0.49968913197517395
1789316081491675600,11.536675537109375,0.07315677404403687,-1.1476528644561768,-0.39867839217185974
1789316081501708800,11.546708740234376,0.00626518577337265,-1.1540265083312988,-0.3168724775314331
1789316081511741700,11.55674169921875,-0.07444456964731216,-1.087195873260498,-0.2705417275428772
1789316081521774800,11.56677490234375,-0.1271716207265854,-0.9945558309555054,-0.24539373815059662
1789316081531808500,11.57680859375,-0.16926448047161102,-0.8756750226020813,-0.23774513602256775
1789316081541841700,11.586841552734375,-0.17357641458511353,-0.7184295058250427,-0.2785608172416687
1789316081551874600,11.59687451171875,-0.13606339693069458,-0.5078645348548889,-0.3354978561401367
1789316081561907700,11.60690771484375,-0.0694073960185051,-0.36433959007263184,-0.34728607535362244
1789316081571941600,11.616941650390626,-0.014984900131821632,-0.35696396231651306,-0.2856290936470032
1789316081581974800,11.626974853515625,0.022384291514754295,-0.3378136456012726,-0.13863928616046906
1789316081592007700,11.637007568359374,0.04444831237196922,-0.19191265106201172,0.1160619780421257
1789316081602040800,11.647040771484376,0.07479662448167801,0.17859481275081635,0.45310521125793457
1789316081612074500,11.657074462890625,0.17409364879131317,0.6769942045211792,0.9183141589164734
1789316081622107600,11.667107666015625,0.18703128397464752,1.1392171382904053,1.6348073482513428
1789316081632140500,11.677140625,0.01888515055179596,1.5784344673156738,2.3178839683532715
1789316081642173700,11.687173583984375,-0.14925821125507355,2.243351697921753,2.512918472290039
1789316081652207600,11.69720751953125,-0.18607854843139648,2.9255878925323486,2.3441178798675537
1789316081662240800,11.70724072265625,-0.23742087185382843,2.5611672401428223,2.292088747024536
1789316081672273700,11.717273681640625,-0.3019023835659027,0.9204444289207458,1.924967646598816
1789316081682306800,11.727306884765625,-0.6493333578109741,-0.34538397192955017,0.9693731069564819
1789316081692340700,11.7373408203125,-0.5857980847358704,-0.8242389559745789,0.16326859593391418
1789316081702373600,11.74737353515625,-0.4547816514968872,-0.9974490404129028,-0.13523846864700317
1789316081712406500,11.757406494140625,-0.6529195308685303,-0.8921407461166382,-0.2369147539138794
1789316081722439700,11.767439697265624,-0.7613359093666077,-0.6018699407577515,-0.06051582098007202
1789316081732473600,11.7774736328125,-0.6670259237289429,-0.47068238258361816,0.46034976840019226
1789316081742506800,11.7875068359375,-0.6294446587562561,-0.13812807202339172,0.8724966049194336
1789316081752539600,11.79753955078125,-0.664120614528656,0.1770562380552292,1.003227949142456
1789316081762572800,11.80757275390625,-0.6545478105545044,0.20775485038757324,0.994997501373291
1789316081772606700,11.817606689453125,-0.6248900890350342,0.061843447387218475,0.9394703507423401
1789316081782639600,11.8276396484375,-0.5399303436279297,0.008125142194330692,0.847437858581543
1789316081792672500,11.837672607421876,-0.4698934555053711,-0.06409259885549545,0.752840518951416
1789316081802705700,11.84770556640625,-0.3892727494239807,-0.14637848734855652,0.6651186347007751
1789316081812739600,11.857739501953125,-0.34423282742500305,-0.20203162729740143,0.5804561972618103
1789316081822772700,11.867772705078124,-0.263190358877182,-0.16742298007011414,0.5825603604316711
1789316081832805600,11.8778056640625,-0.17885631322860718,-0.11937049776315689,0.6448327898979187
1789316081842838800,11.8878388671875,-0.14028990268707275,-0.11654499173164368,0.7398501634597778
1789316081852872700,11.897872802734375,-0.21208418905735016,-0.17150677740573883,0.8285914659500122
1789316081862905900,11.90790576171875,-0.3520451486110687,-0.30359870195388794,0.8872957825660706
1789316081872938800,11.917938720703125,-0.4941104054450989,-0.49234411120414734,0.8707910776138306
1789316081882971600,11.9279716796875,-0.6241879463195801,-0.7289332747459412,0.9111263751983643
1789316081893005600,11.938005615234376,-0.7140501737594604,-0.894818127155304,0.9859329462051392
1789316081903038700,11.948038818359375,-0.7375670075416565,-0.9381987452507019,1.0853790044784546
1789316081913071600,11.958071533203125,-0.6746335625648499,-0.8885254859924316,1.2655194997787476
1789316081923104800,11.968104736328126,-0.6224033236503601,-0.7153456211090088,1.5304182767868042
1789316081933138700,11.978138671875,-0.5636012554168701,-0.4449783265590668,1.6896841526031494
1789316081943171800,11.988171875,-0.46197250485420227,-0.1032695323228836,1.5895897150039673
1789316081953204700,11.998204833984374,-0.3398950695991516,0.050962384790182114,1.4011870622634888
1789316081963238000,12.00823779296875,-0.18933634459972382,0.07037925720214844,1.4030401706695557
1789316081973271600,12.018271484375,0.03520993888378143,0.1378307342529297,1.5884382724761963
1789316081983304700,12.0283046875,0.30925342440605164,0.18325459957122803,1.812503695487976
1789316081993337600,12.038337646484376,0.39112937450408936,0.025064965710043907,2.020533323287964
1789316082003370800,12.048370849609375,0.33486172556877136,-0.18664924800395966,2.047011137008667
1789316082013404700,12.05840478515625,0.28875732421875,-0.2940284311771393,2.1522507667541504
1789316082023437800,12.068437744140626,0.2217881828546524,-0.29506224393844604,2.317120313644409
1789316082033470700,12.078470703125,0.11880268156528473,-0.2394128441810608,2.3962173461914062
1789316082043503900,12.08850390625,0.07495179027318954,-0.2139374166727066,2.318939685821533
1789316082053537500,12.09853759765625,0.14381209015846252,-0.14726197719573975,1.9591763019561768
1789316082063570700,12.10857080078125,0.24288634955883026,0.07002069801092148,1.5674537420272827
1789316082073603600,12.118603515625,0.2904205918312073,0.2696104943752289,1.1372795104980469
1789316082083636700,12.12863671875,0.278156578540802,0.3296241760253906,0.673933207988739
1789316082093670700,12.138670654296876,0.24631339311599731,0.2996428310871124,0.38981199264526367
1789316082103703800,12.148703857421875,0.29882916808128357,0.3114894926548004,0.37142208218574524
1789316082113736700,12.15873681640625,0.3580291271209717,0.281636506319046,0.3593768775463104
1789316082123769900,12.168769775390626,0.40069547295570374,0.21425649523735046,0.2250605821609497
1789316082133803500,12.178803466796875,0.41264107823371887,0.16671960055828094,0.00010841828770935535
1789316082143836700,12.188836669921875,0.3974284827709198,0.14214175939559937,-0.24855034053325653
1789316082153869600,12.19886962890625,0.3994636535644531,0.13656802475452423,-0.45438075065612793
1789316082163902700,12.20890283203125,0.43412351608276367,0.1454668492078781,-0.5993070006370544
1789316082173936600,12.2189365234375,0.4475999176502228,0.20332267880439758,-0.6416826844215393
1789316082183969800,12.2289697265625,0.472068727016449,0.22003239393234253,-0.6307480335235596
1789316082194002700,12.239002685546875,0.4292141795158386,0.22452887892723083,-0.6386986374855042
1789316082204035800,12.249035888671875,0.3672865629196167,0.24478846788406372,-0.6831684112548828
1789316082214069500,12.259069580078124,0.3199653923511505,0.3335407078266144,-0.8034918904304504
1789316082224102700,12.2691025390625,0.3257676959037781,0.355491578578949,-1.0037813186645508
1789316082234135600,12.279135498046875,0.37452805042266846,0.3281595706939697,-1.2039469480514526
1789316082244168400,12.28916845703125,0.42302775382995605,0.4248945116996765,-1.217983365058899
1789316082254202600,12.29920263671875,0.4104291498661041,0.6486882567405701,-1.192276120185852
1789316082264235500,12.309235595703125,0.36824479699134827,0.7655448913574219,-1.225965976715088
1789316082274268700,12.3192685546875,0.3235641419887543,0.7460220456123352,-1.2262879610061646
1789316082284301600,12.329301513671876,0.2253515124320984,0.7576459050178528,-1.260183572769165
1789316082294335500,12.33933544921875,0.11886315047740936,0.8284041881561279,-1.3419479131698608
1789316082304368400,12.349368408203125,0.05479760840535164,0.8792710900306702,-1.3440253734588623
1789316082314401500,12.359401611328124,0.02151661366224289,0.8930153846740723,-1.3093280792236328
1789316082324434400,12.369434326171875,-0.0029070109594613314,0.8845372796058655,-1.268878698348999
1789316082334468600,12.379468505859375,0.013284741900861263,0.8934668302536011,-1.2717258930206299
1789316082344501500,12.38950146484375,0.08241422474384308,0.8500779271125793,-1.2985824346542358
1789316082354534700,12.39953466796875,0.17266182601451874,0.674204409122467,-1.4516239166259766
1789316082364567600,12.409567626953125,0.2500997483730316,0.4127655029296875,-1.6693686246871948
1789316082374601700,12.419601806640625,0.2760818302631378,0.2043451964855194,-1.8332563638687134
1789316082384634400,12.42963427734375,0.28958508372306824,0.10909613966941833,-1.882682204246521
1789316082394667500,12.43966748046875,0.3173906207084656,0.038324229419231415,-1.7798346281051636
1789316082404700400,12.449700439453125,0.3379061222076416,0.006189042702317238,-1.6380033493041992
1789316082414734600,12.459734619140624,0.33847737312316895,0.020422840490937233,-1.540755033493042
1789316082424767500,12.469767578125,0.31573572754859924,0.05460948869585991,-1.547272801399231
1789316082434800600,12.479800537109375,0.34324911236763,0.03788243979215622,-1.614302635192871
1789316082444833500,12.48983349609375,0.41425859928131104,-0.06321593374013901,-1.7235150337219238
1789316082454867700,12.49986767578125,0.44969090819358826,-0.265901654958725,-1.7693018913269043
1789316082464900600,12.509900634765625,0.47783270478248596,-0.5126377940177917,-1.686603307723999
1789316082474933500,12.51993359375,0.5236403942108154,-0.7210165858268738,-1.5542585849761963
1789316082484966400,12.52996630859375,0.5319342613220215,-0.8689571022987366,-1.3827507495880127
1789316082495000600,12.54000048828125,0.4869777262210846,-0.9205124378204346,-1.1628892421722412
1789316082505033500,12.550033447265625,0.4068871736526489,-0.7633261680603027,-0.9367892742156982
