time,seconds_elapsed,z,y,x
1789317578799481600,0.040481689453125,-8.140103858223558,-5.4658454857587815,0.18337427100371567
1789317578809436700,0.050436767578125,-8.108100115719438,-5.514752432268858,0.1288255740133114
1789317578819391700,0.060391845703125,-8.06477126160264,-5.578443690934777,0.10403158935806714
1789317578829346600,0.0703466796875,-8.027856950703264,-5.63179651093781,0.08227699066502973
1789317578839300600,0.080300537109375,-8.014273246508836,-5.65145281304419,0.05380002491441555
1789317578849255700,0.090255615234375,-8.031000509425997,-5.627763894420862,0.04106041599446907
1789317578859210800,0.100210693359375,-8.059635067757963,-5.586578482073545,0.053005892561771906
1789317578869165600,0.11016552734375,-8.081599062284827,-5.554181940859556,0.09596188107845373
1789317578879119600,0.12011962890625,-8.103197146108746,-5.521654466742277,0.14113154988950116
1789317578889074700,0.13007470703125,-8.114839653107524,-5.503313923409581,0.18247368716849013
1789317578899029800,0.14002978515625,-8.12685566959381,-5.485066903579234,0.19657080251146106
1789317578908984600,0.149984619140625,-8.135217255225777,-5.473536040261387,0.17038897109385578
1789317578918939600,0.159939697265625,-8.121150735950469,-5.495871206188202,0.11264809959917328
1789317578928893400,0.1698935546875,-8.08524823244214,-5.549298844993114,0.06656680040250067
1789317578938848800,0.179848876953125,-8.041019214615226,-5.613056154632568,0.07741227983864955
1789317578948803600,0.189803466796875,-8.00885648215711,-5.658513252949715,0.09912724977419711
1789317578958758400,0.19975830078125,-8.00350518425703,-5.665640328350663,0.12169588653016834
1789317578968712400,0.20971240234375,-8.031048440220951,-5.626334738400578,0.13041802170337177
1789317578978667500,0.21966748046875,-8.07251033142209,-5.566637517806887,0.13231366272424347
1789317578988622300,0.229622314453125,-8.108738998144865,-5.513747054618596,0.13164085062975064
1789317578998577400,0.239577392578125,-8.124441594189404,-5.490717476686835,0.12592975210710428
1789317579008532500,0.249532470703125,-8.109593569147586,-5.51252891100049,0.13002226385143584
1789317579018486500,0.259486572265625,-8.082280614808202,-5.552528912955522,0.12860898125371895
1789317579028441300,0.26944140625,-8.065078135594725,-5.577336021953821,0.13500123957409524
1789317579038396400,0.279396484375,-8.062937616434693,-5.580007871511579,0.1514634400805924
1789317579048351500,0.2893515625,-8.075980637881159,-5.55948939961791,0.20248439220311118
1789317579058305500,0.299305419921875,-8.100094503918289,-5.524580583322048,0.19457208470860496
1789317579068260400,0.30926025390625,-8.100387349385022,-5.526141256767511,0.12597739977426825
1789317579078215400,0.31921533203125,-8.0881012837857,-5.544940649783611,0.08145286046634427
1789317579088170500,0.32917041015625,-8.06210058108866,-5.58300588428378,0.05441055802819319
1789317579098124500,0.33912451171875,-8.044054052266478,-5.608177150419354,0.1091914015403483
1789317579108079400,0.349079345703125,-8.054754309979081,-5.591775466194749,0.15283456403701565
1789317579118034400,0.359034423828125,-8.072866889774799,-5.5643029373794795,0.19426842558691276
1789317579127989500,0.368989501953125,-8.120193289095162,-5.49497864126265,0.19506834379294885
1789317579137944600,0.378944580078125,-8.150612392756342,-5.451406626039743,0.1416594644874334
1789317579147898400,0.3888984375,-8.143367828455567,-5.463164868372679,0.09883215755145065
1789317579157853400,0.398853515625,-8.108628523507713,-5.514735481134057,0.09067678941553459
1789317579167808500,0.40880859375,-8.058118233454227,-5.586973034349084,0.15113408026206307
1789317579177763600,0.418763671875,-8.03485309320092,-5.619082575315237,0.19347044360963628
1789317579187718400,0.428718505859375,-8.039028917580843,-5.6132712586879725,0.18861067381985486
1789317579197672400,0.43867236328125,-8.075999927103519,-5.5608443213582035,0.16005358290458097
1789317579207627500,0.44862744140625,-8.10350460462272,-5.521727531978487,0.11882184719750657
1789317579217582600,0.45858251953125,-8.119965910080074,-5.496164051654935,0.1694600927459076
1789317579227537400,0.468537353515625,-8.134421720933913,-5.472060707011819,0.2410854140804149
1789317579237491500,0.478491455078125,-8.142808441007137,-5.455761314117908,0.3157857589460909
1789317579247446500,0.488446533203125,-8.154895769163966,-5.434276627540588,0.3697264253070578
1789317579257401300,0.4984013671875,-8.164820366328954,-5.418675153782964,0.3795399998456239
1789317579267356400,0.5083564453125,-8.160358710744976,-5.428461803781986,0.3327587402526289
1789317579277311200,0.518311279296875,-8.1336799626559,-5.47134992839396,0.2792230196970515
1789317579287265500,0.528265625,-8.104663127008081,-5.514704501473903,0.2699211210076697
1789317579297220400,0.538220458984375,-8.087769275352358,-5.537528912222385,0.30683490218408405
1789317579307175400,0.548175537109375,-8.095586671105027,-5.524855893132091,0.3283713189486414
1789317579317130200,0.558130126953125,-8.12609053044021,-5.4800429379373785,0.3258227669769898
1789317579327084500,0.56808447265625,-8.169308325397967,-5.415448592951893,0.3251132304681465
1789317579337039400,0.578039306640625,-8.202827733162046,-5.361895866462588,0.36616423931345343
1789317579346994400,0.587994384765625,-8.205620578750967,-5.349125232216715,0.4743816721219569
1789317579356949200,0.59794921875,-8.184158104005455,-5.376230096763372,0.534869531636685
1789317579366904600,0.607904541015625,-8.142195862066746,-5.441399026766419,0.5159600293096155
1789317579376858400,0.6178583984375,-8.123209422045946,-5.475873543298244,0.4457213948268443
1789317579386813400,0.6278134765625,-8.12073981706202,-5.484840109086036,0.37483321039415896
1789317579396768300,0.637768310546875,-8.099035934776067,-5.517592624130844,0.36354773667212575
1789317579406723600,0.6477236328125,-8.07230399519503,-5.55754937146604,0.34919626297559586
1789317579416678400,0.657678466796875,-8.062815451359748,-5.572788441652059,0.32468627376034853
1789317579426632400,0.667632568359375,-8.086260624355077,-5.540197839170694,0.29829522003885356
1789317579436587300,0.677587158203125,-8.121722398358584,-5.489217593517899,0.27658335537584494
1789317579446542600,0.68754248046875,-8.142166635972261,-5.458710227051377,0.27926674924092365
1789317579456497400,0.697497314453125,-8.127442529571056,-5.479395872205496,0.302127400346566
1789317579466451500,0.707451416015625,-8.103602804300188,-5.512177613344789,0.34338165841270235
1789317579476406300,0.71740625,-8.10061823553145,-5.515254536572098,0.3637808147756383
1789317579486361600,0.727361572265625,-8.116351226714253,-5.493250794556737,0.34559038397073744
1789317579496316400,0.73731640625,-8.133257353329657,-5.4718350815624,0.28201856869971376
1789317579506271500,0.747271484375,-8.143876362499594,-5.458880907443166,0.21973202573256564
1789317579516225300,0.757225341796875,-8.13715085363686,-5.470967066556215,0.16024086737129836
1789317579526180600,0.7671806640625,-8.114929669478535,-5.503226245126128,0.1810991108796559
1789317579536135400,0.777135498046875,-8.10350811175406,-5.51775102956295,0.24074925919491796
1789317579546090200,0.78709033203125,-8.107584567412733,-5.511403706362843,0.24875613137139005
1789317579556045600,0.797045654296875,-8.11954680788517,-5.496419487720727,0.18088639971073717
1789317579565999600,0.80699951171875,-8.114915640953182,-5.505706956025958,0.0756741172346985
1789317579575954400,0.816954345703125,-8.101051950773597,-5.52655451374352,0.02311418290871661
1789317579585909200,0.8269091796875,-8.081011033263803,-5.555865363901853,0.0022431625452933074
1789317579595864600,0.836864501953125,-8.07096017937064,-5.570374950769543,0.03016519054890377
1789317579605818600,0.846818603515625,-8.086552300778031,-5.547785517820715,0.01137655867212452
1789317579615773400,0.8567734375,-8.115973041051626,-5.504481798145175,-0.04529794853294734
1789317579625728300,0.866728271484375,-8.137529623821377,-5.471770199632644,-0.10360057752965948
1789317579635683600,0.87668359375,-8.131317909699678,-5.479978056007623,-0.14794069104823282
1789317579645638400,0.886638427734375,-8.110117885282635,-5.511324211385846,-0.1472319765232969
1789317579655592400,0.896592529296875,-8.083131094157695,-5.5502545382827515,-0.1674767003763467
1789317579665547300,0.90654736328125,-8.076162424188851,-5.558895525377989,-0.211348228268791
1789317579675502600,0.916502685546875,-8.09073221681118,-5.534806209260225,-0.2763219827596098
1789317579685457400,0.92645751953125,-8.110835093641281,-5.503757575523853,-0.3055925009075552
1789317579695412500,0.93641259765625,-8.128583516299724,-5.478534286940097,-0.286659234112408
1789317579705366300,0.9463662109375,-8.125518868032097,-5.48343433394134,-0.2797853662875481
1789317579715321600,0.956321533203125,-8.113468949276209,-5.500547965827584,-0.2932158161490224
1789317579725276400,0.9662763671875,-8.093713862970471,-5.526062930834293,-0.3532807192776352
1789317579735231500,0.9762314453125,-8.0843153355062,-5.536683693569898,-0.3992006128009408
1789317579745185300,0.986185302734375,-8.07493609726429,-5.547715375193953,-0.4343333375131711
1789317579755140600,0.996140625,-8.078550780630112,-5.5437511477380985,-0.417398094401136
1789317579765095400,1.006095458984375,-8.085660904896258,-5.5338616218864916,-0.41090917077325284
1789317579775050500,1.016050537109375,-8.085147694677113,-5.533465316045284,-0.42606845372132957
1789317579785005300,1.02600537109375,-8.082447788068652,-5.535102561858296,-0.45504236354287714
1789317579794959600,1.035959716796875,-8.085181596946716,-5.531870155808329,-0.4456828529147431
1789317579804914400,1.04591455078125,-8.105228359675406,-5.505271487218141,-0.4094469527335837
1789317579814869500,1.055869384765625,-8.138822001719474,-5.458764587587118,-0.3631132542449981
1789317579824824300,1.06582421875,-8.17415284281969,-5.404796850556135,-0.3765436310412362
1789317579834779400,1.075779296875,-8.18140968208015,-5.390393646672368,-0.4225834611497819
1789317579844733400,1.0857333984375,-8.170009751665592,-5.410162176981568,-0.38918910453747957
1789317579854688500,1.0956884765625,-8.1348022446841,-5.4599763014644385,-0.4289882501581683
1789317579864643300,1.105643310546875,-8.068926043194532,-5.55143176536858,-0.4943912446454167
1789317579874598400,1.115598388671875,-8.021749281477927,-5.618717833656072,-0.501928581347689
1789317579884553500,1.125553466796875,-7.9840704159468405,-5.669107127678394,-0.5350038255408406
1789317579894507500,1.135507568359375,-8.017619634327293,-5.62586536732316,-0.4876566756933927
1789317579904462300,1.14546240234375,-8.09580586681366,-5.518145581838488,-0.4223531595252454
1789317579914417400,1.15541748046875,-8.178760044354199,-5.396611206012964,-0.3935152606409043
1789317579924372500,1.16537255859375,-8.242446042323111,-5.29687774310708,-0.41899095308315004
1789317579934326500,1.175326416015625,-8.223541435366869,-5.321280947479606,-0.477201405717805
1789317579944281300,1.18528125,-8.167077789866925,-5.407722967135906,-0.4751396143497899
1789317579954236400,1.195236328125,-8.117974444001913,-5.484999683561921,-0.42854730145763603
1789317579964191500,1.20519140625,-8.070573225879668,-5.554918438440561,-0.42322427980396893
1789317579974146300,1.215146240234375,-8.043444980457425,-5.588038033232093,-0.49720524262022225
1789317579984100400,1.225100341796875,-8.029575445058942,-5.5973494669348,-0.604961487657763
1789317579994055400,1.235055419921875,-8.036991858795284,-5.577022718220949,-0.688451927499473
1789317580004010500,1.245010498046875,-8.081656345430016,-5.513942284929752,-0.6735365363098681
1789317580013965300,1.25496533203125,-8.141634136530756,-5.434723202264308,-0.5898807133059948
1789317580023920600,1.264920654296875,-8.181563411337137,-5.384218757429719,-0.49253918703794475
1789317580033874400,1.27487451171875,-8.19159029983282,-5.3724996780633925,-0.45218967752549794
1789317580043829500,1.28482958984375,-8.181758641648292,-5.38078352228403,-0.5257114253321662
1789317580053784300,1.294784423828125,-8.14334386305809,-5.4245268024206155,-0.6563901711978017
1789317580063739600,1.30473974609375,-8.086507877114414,-5.498360100394487,-0.7394628605514765
1789317580073694500,1.314694580078125,-8.045484377330542,-5.560507052227854,-0.7220267917778342
1789317580083648500,1.3246484375,-8.023839531755447,-5.592820591333508,-0.7132675851304083
1789317580093603300,1.334603271484375,-8.029656693601607,-5.582469877710938,-0.7287137221958487
1789317580103558700,1.34455859375,-8.058014188557863,-5.537653999906778,-0.7570876568302511
1789317580113513500,1.354513427734375,-8.096741101837157,-5.4824459074258804,-0.745625109508261
1789317580123467500,1.364467529296875,-8.13950238519907,-5.428500966748595,-0.6710187813352793
1789317580133422300,1.37442236328125,-8.172319782173632,-5.384226940736174,-0.62743909426257
1789317580143377700,1.384377685546875,-8.164898692262172,-5.393237930187583,-0.6463732195742428
1789317580153332500,1.39433251953125,-8.156188147062062,-5.400589461994171,-0.6932610813468695
1789317580163287300,1.404287353515625,-8.177159623420238,-5.362599630817771,-0.739574285036698
1789317580173241300,1.414241455078125,-8.126447673314809,-5.42528375826776,-0.8351783199876547
1789317580183196700,1.42419677734375,-8.045427678707242,-5.542272891879081,-0.8512862819626927
1789317580193151500,1.4341513671875,-8.027017577269673,-5.581376821777225,-0.7652506511501967
1789317580203106300,1.444106201171875,-8.025609464037418,-5.591489050468802,-0.7037233655851334
1789317580213061400,1.454061279296875,-8.039992209655045,-5.571835086449981,-0.6953866951987147
1789317580223015400,1.464015380859375,-8.084357421082258,-5.504384767511486,-0.7178455605704337
1789317580232970500,1.473970458984375,-8.15416102514863,-5.406511253258586,-0.6705826549403369
1789317580242925300,1.48392529296875,-8.195163482144475,-5.342511367034912,-0.6835595523480326
1789317580252880400,1.49388037109375,-8.206259461176394,-5.318074260392785,-0.7387664027199149
1789317580262834400,1.50383447265625,-8.176796635326742,-5.356029020255804,-0.7895091863550245
1789317580272789500,1.51378955078125,-8.095350524261594,-5.4790586030751465,-0.7846059244833886
1789317580282744300,1.523744384765625,-8.056897751748561,-5.546834500706195,-0.6995755251906812
1789317580292699400,1.533699462890625,-8.044045868960023,-5.564123489159345,-0.7100978690531105
1789317580302654500,1.543654541015625,-8.04007754985094,-5.56234245096147,-0.7667366519242524
1789317580312608500,1.5536083984375,-8.05566908673644,-5.531171652150154,-0.8262664069965481
1789317580322563300,1.563563232421875,-8.051803058958052,-5.531581401994824,-0.8604981277484446
1789317580332518400,1.573518310546875,-8.066089358463882,-5.5192047355026,-0.8043374837830662
1789317580342473500,1.583473388671875,-8.076377528244256,-5.509269032421708,-0.7684191251184791
1789317580352428500,1.593428466796875,-8.09073221681118,-5.495379038757085,-0.7150110677968711
1789317580362382300,1.60338232421875,-8.097392843744158,-5.482972561648488,-0.7345938662756234
1789317580372337400,1.61333740234375,-8.093173764744401,-5.488069592526554,-0.7429747411299497
1789317580382292500,1.62329248046875,-8.104688261449336,-5.472995942035317,-0.7285105277739464
1789317580392247600,1.63324755859375,-8.108091347891092,-5.470932579764724,-0.7057874585080891
1789317580402201300,1.643201416015625,-8.104664880573749,-5.4812716029495,-0.6636657151587307
1789317580412156400,1.653156494140625,-8.091826441788672,-5.498682756477594,-0.6761794520340859
1789317580422111500,1.663111572265625,-8.082809022596479,-5.509125824558734,-0.6986511038221418
1789317580432066600,1.673066650390625,-8.079380217191577,-5.510408850106597,-0.7275930476028472
1789317580442021400,1.683021484375,-8.077950476649404,-5.516020844769478,-0.7004330188028514
1789317580451975400,1.692975341796875,-8.082148512861131,-5.5149564304083585,-0.6591760755892843
1789317580461930500,1.702930419921875,-8.082522606870532,-5.517914111170172,-0.6291542276173829
1789317580471885600,1.712885498046875,-8.082181830608844,-5.520041186326742,-0.6147052848957478
1789317580481840400,1.72284033203125,-8.094603505286575,-5.502964379319549,-0.6042847939725965
1789317580491795500,1.73279541015625,-8.105758521029353,-5.486675507819652,-0.6028708720540628
1789317580501749500,1.74274951171875,-8.106205680274963,-5.486906393966079,-0.594703311156854
1789317580511704300,1.752704345703125,-8.10525933933556,-5.490584790217876,-0.5732752501375973
1789317580521659400,1.762659423828125,-8.121162426388263,-5.470946023768186,-0.5346519433632493
1789317580531614500,1.772614501953125,-8.142192354935407,-5.441004474490881,-0.52015024754107
1789317580541569500,1.782569580078125,-8.14035870976746,-5.444206485402583,-0.5153269921030849
1789317580551523300,1.7925234375,-8.120807621601223,-5.473250209057331,-0.5161382354207337
1789317580561478400,1.802478515625,-8.09485368065536,-5.512931646582484,-0.5013086593510583
1789317580571433500,1.81243359375,-8.075188610720634,-5.542580350393057,-0.4914411261355504
1789317580581388500,1.822388427734375,-8.068666515475512,-5.549873430010676,-0.5156606810368597
1789317580591342300,1.83234228515625,-8.059451527884603,-5.561370975580811,-0.5355136016938835
1789317580601297400,1.84229736328125,-8.064232916942238,-5.55658023417294,-0.5127846141438931
1789317580611252500,1.85225244140625,-8.08030726890862,-5.537598470327258,-0.4626210551688447
1789317580621207600,1.86220751953125,-8.1146765715003,-5.4928346149712794,-0.3888180062027648
1789317580631162400,1.872162353515625,-8.14263600704968,-5.454800944653153,-0.33616091337893156
1789317580641116400,1.882116455078125,-8.155973043006657,-5.436513592812418,-0.30789474996794014
1789317580651071500,1.892071533203125,-8.160712346488237,-5.428009383839369,-0.33147001561634243
1789317580661026600,1.902026611328125,-8.14505943480432,-5.451093906828761,-0.33758974060565233
1789317580670981400,1.9119814453125,-8.127214566034079,-5.478606183132529,-0.3219338332470506
1789317580680935400,1.921935302734375,-8.103298852917552,-5.514045745304227,-0.31974845203198493
1789317580690890500,1.931890380859375,-8.074762494263052,-5.554643713152409,-0.33841508551388977
1789317580700845600,1.941845458984375,-8.055293239161372,-5.580908035221696,-0.36891193058639765
1789317580710800400,1.95180029296875,-8.05772134309113,-5.578267749845981,-0.3555940742539242
1789317580720755500,1.96175537109375,-8.07709765921235,-5.551639855161309,-0.33191936681903894
1789317580730709500,1.97170947265625,-8.102610286131501,-5.516470926624536,-0.29433955948194485
1789317580740664600,1.98166455078125,-8.13981861154139,-5.462917031091451,-0.26509366431860254
1789317580750619400,1.991619384765625,-8.167650036796926,-5.4199423972398035,-0.28999760302118954
1789317580760574500,2.001574462890625,-8.154390742251277,-5.437287499794364,-0.33497013269178566
1789317580770529500,2.011529541015625,-8.118757118812203,-5.489781657141447,-0.3441954224810004
1789317580780483600,2.021483642578125,-8.075969531965255,-5.5545905216604465,-0.30925040236059576
1789317580790438400,2.0314384765625,-8.049304227879643,-5.594683462595939,-0.28035691909780724
1789317580800393200,2.041393310546875,-8.059310073587298,-5.579719117698073,-0.2909189739161171
1789317580810348500,2.0513486328125,-8.091810659697652,-5.528650024718046,-0.3563896450784057
1789317580820302600,2.061302490234375,-8.120676104176043,-5.481412472724914,-0.42323385134991254
1789317580830257400,2.07125732421875,-8.13280668695271,-5.464565967342257,-0.4078740043284371
1789317580840212200,2.081212158203125,-8.140688380113243,-5.458385232880711,-0.3249627891467884
1789317580850167600,2.09116748046875,-8.142049147072434,-5.459564213532209,-0.2656645960743539
1789317580860122400,2.101122314453125,-8.132336731353401,-5.473095895278454,-0.2841001059478149
1789317580870076400,2.111076416015625,-8.115770211955905,-5.492655751273036,-0.3679466657508164
1789317580880031200,2.12103125,-8.094491861605643,-5.518420307126641,-0.44341797672268
1789317580889986600,2.130986572265625,-8.064197845628858,-5.558787973350286,-0.4888494291419163
1789317580899941400,2.14094140625,-8.041843975001573,-5.592291014501452,-0.4747791104743257
1789317580909896400,2.150896484375,-8.030001561516523,-5.610932586607337,-0.45485513387508686
1789317580919850200,2.160850341796875,-8.04358351214528,-5.591164056298136,-0.4582880309332162
1789317580929805600,2.1708056640625,-8.078370163366198,-5.538176562476158,-0.48879693176969885
1789317580939760400,2.180760498046875,-8.117748234030604,-5.480706954804062,-0.48415564530249683
1789317580949715500,2.190715576171875,-8.143745429596304,-5.442401481807232,-0.47964828741326926
1789317580959669800,2.200669677734375,-8.140633435055612,-5.4454795740783215,-0.4972171157211065
1789317580969625000,2.210625,-8.12278856628537,-5.469379505103826,-0.5259041348926723
1789317580979580000,2.220579833984375,-8.097272432234883,-5.5000242342144245,-0.5952230607146397
1789317580989535000,2.230534912109375,-8.08455849661231,-5.512168845516443,-0.6529129235412925
1789317580999489800,2.24048974609375,-8.066702521926164,-5.52927721670568,-0.7251178896609694
1789317581009444000,2.250444091796875,-8.045983559024334,-5.554850633901357,-0.7590560342937708
1789317581019399000,2.26039892578125,-8.04360046328008,-5.556791831097007,-0.7700232723794878
1789317581029354000,2.27035400390625,-8.043437966194748,-5.5548617398172615,-0.7854941785600036
1789317581039308800,2.280308837890625,-8.060794174665212,-5.524934803587198,-0.8179757677089422
1789317581049263900,2.290263916015625,-8.089638576355576,-5.476397859433293,-0.8585993083897978
1789317581059218000,2.300218017578125,-8.1215061252594,-5.431821635603904,-0.8407355887886137
1789317581069172700,2.3101728515625,-8.160912837496399,-5.3750312423676245,-0.8239715740576385
1789317581079127800,2.3201279296875,-8.173760044109821,-5.352546438837051,-0.8427805386196822
1789317581089083000,2.330082763671875,-8.157802596521377,-5.36562277803123,-0.9114471745453775
1789317581099038000,2.340037841796875,-8.098772899925708,-5.437162412109971,-1.0087295179720968
1789317581108991700,2.34999169921875,-8.044822114029527,-5.512430711323023,-1.0316633804444224
1789317581118946800,2.35994677734375,-8.014776519855856,-5.55139610953331,-1.0562867303736507
1789317581128902000,2.36990185546875,-8.017104670542478,-5.546679602405429,-1.0633717201985418
1789317581138857000,2.37985693359375,-8.059438083881139,-5.483599169114232,-1.0705065405145286
1789317581148810800,2.389810791015625,-8.094442177245021,-5.425007863935828,-1.1043900323506444
1789317581158765800,2.399765869140625,-8.128453167918323,-5.370934328442812,-1.1187932362344115
1789317581168721000,2.409720947265625,-8.1407871643126,-5.3442894826233385,-1.1560883631449193
1789317581178676000,2.419676025390625,-8.141339537498354,-5.345317656627297,-1.1474137660410255
1789317581188630800,2.429630859375,-8.141821768057346,-5.349447303777933,-1.1245148287516087
1789317581198584800,2.439584716796875,-8.126604325181246,-5.372382773685455,-1.1252504495497793
1789317581208540000,2.449539794921875,-8.105788916167617,-5.396182751467824,-1.16093792206794
1789317581218495000,2.459494873046875,-8.071491509768366,-5.430214200407266,-1.238624242208153
1789317581228449800,2.46944970703125,-8.061262961220741,-5.435463791498542,-1.2814658973298967
1789317581238404900,2.47940478515625,-8.059314165240526,-5.428935851034522,-1.320796329460293
1789317581248359000,2.48935888671875,-8.062263078173995,-5.427918198424577,-1.3069032670557499
1789317581258314000,2.49931396484375,-8.063969882091879,-5.4264177307337516,-1.3025973865553735
1789317581268268800,2.509268798828125,-8.056630040723086,-5.436118456014991,-1.3075567625284195
1789317581278224000,2.519223876953125,-8.065951995819807,-5.421146512332558,-1.3122418516047298
1789317581288178000,2.529177978515625,-8.08502494508028,-5.392966712030768,-1.3109788459315894
1789317581298133000,2.539133056640625,-8.097756416359543,-5.376344663053751,-1.3006339775279163
1789317581308087800,2.549087890625,-8.092664061656594,-5.380089694800972,-1.316742816285789
1789317581318043000,2.55904296875,-8.07239868774116,-5.408503888380527,-1.324708096076548
1789317581327998000,2.568998046875,-8.05486829174757,-5.4293210509598255,-1.3460916603669524
1789317581337952000,2.578951904296875,-8.048107127049565,-5.436880672559142,-1.35598060169667
1789317581347906800,2.58890673828125,-8.048588188564777,-5.438793228182196,-1.3454152224101126
1789317581357862000,2.59886181640625,-8.05432877804339,-5.428392245677113,-1.3530465940713883
1789317581367817000,2.60881689453125,-8.061083513000607,-5.409219343173503,-1.38912182379812
1789317581377771000,2.61877099609375,-8.084984028548002,-5.3717152496874325,-1.3957419725902378
1789317581387725800,2.628725830078125,-8.110352863082289,-5.336564441329241,-1.3833436787880957
1789317581397681000,2.638680908203125,-8.135303179943561,-5.306704140594602,-1.351336867544055
1789317581407636000,2.648635986328125,-8.124125367847084,-5.321244707122445,-1.361369455128163
1789317581417590800,2.6585908203125,-8.076824687489866,-5.379532060918212,-1.4127737714119255
1789317581427544800,2.668544921875,-8.028929548370838,-5.438452451920509,-1.4594200795136392
1789317581437500000,2.6785,-8.00266464177966,-5.476982965844869,-1.459589152470231
1789317581447455000,2.688455078125,-8.007951057749986,-5.47409016701281,-1.4413326341591775
1789317581457409800,2.698409912109375,-8.01803522939086,-5.46068065034151,-1.4361281973838804
1789317581467364900,2.70836474609375,-8.038334505575895,-5.432660424515604,-1.4289017532616852
1789317581477319000,2.71831884765625,-8.066106894120573,-5.391211977317929,-1.4293817918635905
1789317581487274000,2.72827392578125,-8.08923993242681,-5.358465307492017,-1.4217721936427057
1789317581497228800,2.738228759765625,-8.096136121681331,-5.351404867586493,-1.4090532895840704
1789317581507183900,2.748183837890625,-8.099075682264566,-5.35823675943315,-1.365522775415331
1789317581517139000,2.758138916015625,-8.10160549300313,-5.360630376571416,-1.3408997908122837
1789317581527093000,2.768093017578125,-8.084472571894526,-5.379732551926375,-1.3675415678918361
1789317581537047800,2.7780478515625,-8.064386646199226,-5.398488105800747,-1.411518949045241
1789317581547003000,2.7880029296875,-8.038429782643913,-5.426791824743152,-1.450505536174029
1789317581556958000,2.7979580078125,-8.015897048318386,-5.462199238210916,-1.442275175706297
1789317581566912000,2.807912109375,-8.009879395464063,-5.484781072375178,-1.3890274235129356
1789317581576866800,2.81786669921875,-8.013069131416081,-5.491366880506277,-1.3438741304479538
1789317581586822000,2.82782177734375,-8.0358233995378,-5.461954908061027,-1.3277728904746473
1789317581596777000,2.83777685546875,-8.071660436594486,-5.410011370334029,-1.3230517071716488
1789317581606731800,2.847731689453125,-8.107738296669721,-5.360751372602581,-1.3028078144356607
1789317581616685800,2.857685791015625,-8.122559433704614,-5.343921818354725,-1.2794162713237105
1789317581626641000,2.867640869140625,-8.111649917155503,-5.364343844136595,-1.2630664634168147
1789317581636596000,2.877595947265625,-8.069443929588795,-5.4238353130251165,-1.2792457370623946
1789317581646550800,2.88755078125,-8.03071584726572,-5.4783659446358675,-1.2905391383625566
1789317581656504800,2.8975048828125,-8.012994312614202,-5.5042608488708735,-1.2905116658337414
1789317581666460000,2.9074599609375,-8.012554167631269,-5.509658908522129,-1.2700487235195934
1789317581676415000,2.9174150390625,-8.037107009607553,-5.482914693981408,-1.2300197877310215
1789317581686369800,2.927369873046875,-8.06557381015718,-5.449194795209169,-1.19296942936182
1789317581696324900,2.937324951171875,-8.088612740439176,-5.417312633258104,-1.182142111203447
1789317581706279000,2.94727880859375,-8.08694685305357,-5.4134454364359375,-1.210899930588901
1789317581716234000,2.95723388671875,-8.087761092045902,-5.417887218275666,-1.1853270248498766
1789317581726188800,2.967188720703125,-8.092825389698147,-5.422806554499268,-1.1268254437815397
1789317581736144000,2.977143798828125,-8.102907223251462,-5.417157734957337,-1.0805955344609917
1789317581746099000,2.987098876953125,-8.111307971850037,-5.4021285081297155,-1.09273956124112
1789317581756053000,2.997052978515625,-8.088227540513873,-5.422868513819575,-1.1590780464801937
1789317581766007800,3.0070078125,-8.05807264074683,-5.455601739642024,-1.214192688523978
1789317581775963000,3.016962890625,-8.047199364554881,-5.478636578270793,-1.1821614734910428
1789317581785918000,3.02691796875,-8.070784238281846,-5.466666154491901,-1.0716283841513097
1789317581795873000,3.036873046875,-8.10080119088292,-5.436301411366462,-0.9970091964967548
1789317581805826800,3.046826904296875,-8.122330301123856,-5.404701573488116,-0.9936504606533795
1789317581815782000,3.056781982421875,-8.123974561199546,-5.391137743037938,-1.0521668008994312
1789317581825737000,3.066737060546875,-8.109432825627923,-5.406946722066402,-1.0827819385893642
1789317581835692000,3.076692138671875,-8.096115078893304,-5.433137978899478,-1.050862294172123
1789317581845645800,3.086645751953125,-8.074350990852713,-5.477152477192878,-0.987949180271849
1789317581855601000,3.096600830078125,-8.057937031668423,-5.50670941106677,-0.9571795826725661
1789317581865556000,3.106555908203125,-8.049241684037446,-5.514035223910212,-0.9876784005064516
1789317581875511000,3.116510986328125,-8.060594268178939,-5.498147334426641,-0.9836560861878096
1789317581885465900,3.1264658203125,-8.085531725558639,-5.4694391263365745,-0.9379754082478582
1789317581895420000,3.136419921875,-8.118218189629912,-5.432898909446597,-0.8651741567354648
1789317581905375000,3.146375,-8.137497475117444,-5.406075199928879,-0.8519784289453178
1789317581915330000,3.156330078125,-8.132531961664556,-5.409976299020648,-0.8743343453992157
1789317581925284900,3.166284912109375,-8.116811829963327,-5.431405456018448,-0.8874608804106712
1789317581935239700,3.17623974609375,-8.0929130679816,-5.47119912174642,-0.860882231695205
1789317581945194000,3.186194091796875,-8.062847600063682,-5.519208827155828,-0.8361872778344899
1789317581955149000,3.196149169921875,-8.038125831261278,-5.556340580198168,-0.8282499089639633
1789317581965103600,3.206103515625,-8.030229525053501,-5.569734314778446,-0.8147731722753494
1789317581975058400,3.216058349609375,-8.048431536698342,-5.548033355101943,-0.7826029140979052
1789317581985012500,3.226012451171875,-8.082491627210379,-5.504086661347746,-0.7407726279757917
1789317581994967800,3.2359677734375,-8.108028219527005,-5.471206136009097,-0.7043916933007538
1789317582004922600,3.245922607421875,-8.115904067468643,-5.463597999092936,-0.6719969787176698
1789317582014877400,3.25587744140625,-8.109785876849294,-5.478538963115215,-0.6223893365923315
1789317582024832800,3.265832763671875,-8.105731048500537,-5.491632253444195,-0.5563123518336563
1789317582034786800,3.275786865234375,-8.110677857252956,-5.490798725229501,-0.4882817122565582
1789317582044741600,3.28574169921875,-8.110694223865867,-5.492071229383349,-0.47347120621353384
1789317582054696400,3.295696533203125,-8.098326909723877,-5.506536392587423,-0.5153071183588356
1789317582064651800,3.30565185546875,-8.068252673977613,-5.545075089818239,-0.5708076909802854
1789317582074605800,3.315605712890625,-8.041283418509364,-5.586790663519501,-0.5439843833213672
1789317582084560600,3.325560546875,-8.028854729568957,-5.61245526612997,-0.45631194508727635
1789317582094515500,3.335515380859375,-8.030886527657508,-5.614709182536601,-0.387661931502819
1789317582104470800,3.345470703125,-8.0513810341537,-5.58822975641191,-0.34254586517568675
1789317582114425600,3.355425537109375,-8.082791486939787,-5.5443496981531375,-0.3147394647635519
1789317582124379600,3.365379638671875,-8.121015126872063,-5.490611678224802,-0.26960166152864695
1789317582134334500,3.37533447265625,-8.155737480685115,-5.4403515635401005,-0.2385527720639482
1789317582144289800,3.385289794921875,-8.171717724627255,-5.417146044519543,-0.21896378130642696
1789317582154244600,3.39524462890625,-8.159090882766247,-5.435140550893545,-0.24264161228016018
1789317582164199700,3.40519970703125,-8.11313109562397,-5.501574386265873,-0.2831468786098994
1789317582174153500,3.415153564453125,-8.058208249825238,-5.581594848442077,-0.2854169972326606
1789317582184108800,3.42510888671875,-8.023582926645874,-5.632423118403554,-0.26136949269631876
1789317582194063600,3.435063720703125,-8.01801243303716,-5.641845026743412,-0.22681182792568577
1789317582204018700,3.445018798828125,-8.041298031556606,-5.609461929532885,-0.20457648737784473
1789317582213973800,3.454973876953125,-8.079190832099318,-5.553963329672813,-0.224849971534498
1789317582223927800,3.464927734375,-8.119615196946263,-5.494932464033365,-0.21898946373695508
1789317582233882600,3.474882568359375,-8.152285294404626,-5.446921589580178,-0.20414976813206448
1789317582243837700,3.484837646484375,-8.156644658657909,-5.440612260302901,-0.19817882222998887
1789317582253792800,3.494792724609375,-8.138276642796397,-5.4690749691992995,-0.1675117351571098
1789317582263746800,3.504746826171875,-8.111174116337299,-5.509581167110801,-0.15413586502708493
1789317582273701600,3.51470166015625,-8.098048677304387,-5.529051006734371,-0.14693353243283927
1789317582283656700,3.52465673828125,-8.094958310073613,-5.533142075440288,-0.16236889237593857
1789317582293611500,3.534611572265625,-8.093331001132727,-5.534996178874373,-0.17941806245753542
1789317582303566600,3.544566650390625,-8.098443229579924,-5.527193396168947,-0.18906603463822974
1789317582313520600,3.554520751953125,-8.111910029396414,-5.508106418383121,-0.16751217354852704
1789317582323475700,3.564475830078125,-8.133006593438983,-5.477872023639082,-0.1323021001506131
1789317582333430500,3.574430419921875,-8.1550921685189,-5.445373775616288,-0.1129710388100706
1789317582343385600,3.584385498046875,-8.171649920088052,-5.42052925721705,-0.11128249206808395
1789317582353340700,3.594340576171875,-8.172706735664606,-5.418473493731022,-0.13187076866179703
1789317582363294700,3.604294677734375,-8.148944751805066,-5.453057315856218,-0.17101923182141035
1789317582373249500,3.61424951171875,-8.111217370957135,-5.508856359967589,-0.17617219413779675
1789317582383204600,3.62420458984375,-8.07666920466721,-5.5598459579706185,-0.1609858039870858
1789317582393159700,3.63415966796875,-8.066959711557626,-5.574133426520228,-0.1535857385973446
1789317582403114500,3.644114501953125,-8.085910495743155,-5.545974084484577,-0.17492990245912224
1789317582413068500,3.654068603515625,-8.116293943569064,-5.500525753995776,-0.20091975496858358
1789317582423023600,3.664023681640625,-8.149027169391513,-5.451756754651665,-0.20515311822202056
1789317582432978700,3.673978759765625,-8.168401147425174,-5.423904871129989,-0.16989956187540664
1789317582442933500,3.68393359375,-8.171893665716052,-5.41994882698059,-0.12121592099349945
1789317582452887600,3.693887451171875,-8.155480291053653,-5.4443450170904395,-0.13281764845731667
1789317582462842600,3.703842529296875,-8.131383960673212,-5.478420305171609,-0.19467253114208577
1789317582472797700,3.713797607421875,-8.103107714259624,-5.517117992356419,-0.2672846532905474
1789317582482752500,3.72375244140625,-8.071268806928396,-5.562050190016627,-0.2976592602228746
1789317582492707800,3.733707763671875,-8.049797564354538,-5.5942041546463965,-0.27573272989587855
1789317582502661600,3.74366162109375,-8.046515473943948,-5.6002568788141005,-0.24718886378835886
1789317582512616700,3.75361669921875,-8.069586552929877,-5.567150143504143,-0.24288470032103357
1789317582522571500,3.763571533203125,-8.109803412505984,-5.5087230889767405,-0.23547586710294707
1789317582532526800,3.77352685546875,-8.149075100186467,-5.451024933245778,-0.2220134512006305
1789317582542481700,3.783481689453125,-8.16008924615383,-5.434657151290774,-0.2186919786277227
1789317582552435700,3.793435791015625,-8.13791833087802,-5.467516049319506,-0.2256974004103802
1789317582562390500,3.803390625,-8.109816271987556,-5.508638917824626,-0.2369946924343705
1789317582572345900,3.813345947265625,-8.086009864464401,-5.543180069851875,-0.24491105504948643
1789317582582300700,3.82330078125,-8.079650266304611,-5.55186255800128,-0.25780871320851145
1789317582592254700,3.833254638671875,-8.080203808534145,-5.550888160011172,-0.2613936590231955
1789317582602209500,3.84320947265625,-8.082909560361504,-5.5478714425385,-0.2410117643223144
1789317582612164600,3.85316455078125,-8.090518866321444,-5.537727649664879,-0.21782911472069097
1789317582622119700,3.86311962890625,-8.095707082614302,-5.530689421591163,-0.2034319204526022
1789317582632074500,3.873074462890625,-8.10867119360566,-5.512008101996779,-0.19392414219388737
1789317582642028500,3.883028564453125,-8.126646410757303,-5.4863312244266265,-0.16784790830891577
1789317582651983600,3.892983642578125,-8.149691770780086,-5.453062576553225,-0.13044500104184262
1789317582661938700,3.902938720703125,-8.159554408624768,-5.438587476477027,-0.11755869539389387
1789317582671893500,3.9128935546875,-8.143668272706865,-5.461603610405326,-0.14811151757049373
1789317582681848800,3.922848876953125,-8.108012437435985,-5.513340811905264,-0.18326688337279481
1789317582691802600,3.932802734375,-8.072877995690703,-5.564872846221924,-0.176700455795601
1789317582701757700,3.9427578125,-8.06674986819923,-5.575005533179641,-0.1313048327415716
1789317582711712500,3.95271240234375,-8.080685454571247,-5.555417620134353,-0.10117285719239152
1789317582721667600,3.96266748046875,-8.10606247241199,-5.518666390842199,-0.08034035091348923
1789317582731621600,3.97262158203125,-8.128801542964577,-5.485013712087273,-0.08712538054427131
1789317582741576700,3.98257666015625,-8.140629927924275,-5.467596128818393,-0.07693644248782656
1789317582751531500,3.992531494140625,-8.13914816493392,-5.470094375374913,-0.05215841345353983
1789317582761486600,4.002486572265625,-8.123677039557695,-5.493277098041773,-0.012772591024229767
1789317582771441700,4.012441650390625,-8.114449777007103,-5.506863140323758,0.023444289362628476
1789317582781395700,4.022395751953125,-8.109875308698415,-5.513619044324756,0.01763264051686856
1789317582791350500,4.0323505859375,-8.109781785196066,-5.513785048541426,-0.0007185084774628194
1789317582801305600,4.0423056640625,-8.112112858492136,-5.510343383654952,-0.010919097228208555
1789317582811260700,4.0522607421875,-8.119777109509705,-5.49902703987062,0.017715518185973632
1789317582821215700,4.0622158203125,-8.127634252750873,-5.487165921685099,0.05437042694720439
1789317582831169500,4.07216943359375,-8.124149917766452,-5.4924359710425135,0.04159844556103926
1789317582841124600,4.08212451171875,-8.115189197197555,-5.505806324747205,0.013584634634543909
1789317582851079700,4.09207958984375,-8.108155060777067,-5.516162299066782,-0.012947240913304266
1789317582861034800,4.10203466796875,-8.104405937376617,-5.5216532976984976,-0.018206878474558468
1789317582870988500,4.111988525390625,-8.104884660804272,-5.520979928481578,0.003125193946859508
1789317582880943600,4.121943603515625,-8.10619398983717,-5.519032886067032,0.01665457328193006
1789317582890898700,4.131898681640625,-8.108115897810459,-5.516232441693544,-0.004241681844744016
1789317582900853800,4.141853759765625,-8.122904886141418,-5.494273123341799,-0.04196961696099024
1789317582910808600,4.15180859375,-8.13147982226312,-5.481235362592339,-0.0740444702062523
1789317582920762600,4.1617626953125,-8.130553355067969,-5.4823617362737656,-0.09052011928278952
1789317582930717700,4.1717177734375,-8.125354617381095,-5.4900037754595274,-0.09408956613424234
1789317582940672500,4.181672607421875,-8.122819545945525,-5.49412114765048,-0.06945174928824417
1789317582950627600,4.191627685546875,-8.126734089040756,-5.4885261041224,-0.05149015423657838
1789317582960583000,4.2015830078125,-8.131515478098391,-5.481264588686823,-0.067646745692892
1789317582970537000,4.211536865234375,-8.12585204550922,-5.48826657640338,-0.14087313641533256
1789317582980491800,4.22149169921875,-8.110564460006355,-5.508405109068751,-0.21588910483513027
1789317582990446800,4.23144677734375,-8.095590178236364,-5.5295612943440675,-0.23614161926899105
1789317583000402000,4.24140185546875,-8.088852978935837,-5.539776983410119,-0.22740330927912145
1789317583010357000,4.25135693359375,-8.084085618403554,-5.546566789680719,-0.23140087274899704
1789317583020310800,4.261310791015625,-8.089427563953398,-5.5386804203450675,-0.23358386107757687
1789317583030265900,4.271265869140625,-8.10865424247086,-5.510300713557005,-0.23812890236238016
1789317583040221000,4.281220947265625,-8.124617535278201,-5.4867807217597955,-0.237063830414135
1789317583050176000,4.291176025390625,-8.13174344163537,-5.475253950095176,-0.25832426151521504
1789317583060129800,4.3011298828125,-8.135030208221078,-5.469551354539394,-0.2750963682211004
1789317583070084900,4.3110849609375,-8.135309025162458,-5.466781889826059,-0.3184851906305179
1789317583080040000,4.3210400390625,-8.130620575085281,-5.470407679107785,-0.37152806790154425
1789317583089995000,4.3309951171875,-8.116414355078339,-5.487980745199322,-0.4198395692691207
1789317583099949800,4.34094970703125,-8.093073811501265,-5.520384885197878,-0.4448489228412509
1789317583109904000,4.35090380859375,-8.058929549837112,-5.569103615659475,-0.4572970471344888
1789317583119859000,4.36085888671875,-8.045452228626608,-5.588464149689674,-0.45842155765239145
1789317583129814000,4.37081396484375,-8.056855081650614,-5.57185320662856,-0.46034960310552264
1789317583139768800,4.380768798828125,-8.089635069224238,-5.525277333414555,-0.44665454749111083
1789317583149724000,4.390723876953125,-8.142827145707606,-5.445565498796105,-0.4588760599542409
1789317583159678000,4.400677978515625,-8.17504716131091,-5.394733137181401,-0.48563558166194704
1789317583169633000,4.410633056640625,-8.187052656403184,-5.375072743421793,-0.5011461622657254
1789317583179587800,4.420587890625,-8.157409213289618,-5.418628392031788,-0.5152920669201762
1789317583189543000,4.43054296875,-8.117481692048907,-5.47942509829998,-0.5027727770868688
1789317583199498000,4.440498046875,-8.090292656350135,-5.51629673910141,-0.5366753024170174
1789317583209452000,4.4504521484375,-8.072616714406013,-5.535396576368808,-0.6021828167246654
1789317583219406800,4.46040673828125,-8.067544233447313,-5.534149206656218,-0.6769841194804758
1789317583229362000,4.47036181640625,-8.066282250687479,-5.530180887547135,-0.7228929801531135
1789317583239317000,4.48031689453125,-8.07621970733404,-5.516551590645313,-0.7160478634987026
1789317583249271000,4.49027099609375,-8.097672829729317,-5.488901367175579,-0.6855980724383145
1789317583259225900,4.500225830078125,-8.124332288596033,-5.45296086974442,-0.6563757042810321
1789317583269181000,4.510180908203125,-8.139980524104834,-5.426918081471324,-0.6779855516079812
1789317583279136000,4.520135986328125,-8.137713748216628,-5.422823505634069,-0.7355148535780608
1789317583289090800,4.5300908203125,-8.121479821774363,-5.441151189485192,-0.7783473024800419
1789317583299044900,4.540044921875,-8.104543884542585,-5.465755469387769,-0.7824770226959139
1789317583308999700,4.549999755859375,-8.089129457789658,-5.488818949589133,-0.7805315877165645
1789317583318955000,4.559955078125,-8.07855194967389,-5.49923162253201,-0.815985324544087
1789317583328909800,4.569909912109375,-8.067278275987505,-5.506292646959424,-0.8775793186698109
1789317583338863900,4.57986376953125,-8.063437967172264,-5.505258627736568,-0.918410364621505
1789317583348818700,4.589818603515625,-8.077383490416407,-5.485258042237162,-0.91553137511909
1789317583358774000,4.59977392578125,-8.105477366000413,-5.448150839114189,-0.8884082442633807
1789317583368728800,4.609728759765625,-8.133288332989812,-5.40950458985567,-0.8702093744236975
1789317583378684000,4.619683837890625,-8.141305635228752,-5.394124065372347,-0.8904795706447214
1789317583388637700,4.6296376953125,-8.124578372311591,-5.41260197134912,-0.9302447409305721
1789317583398593000,4.639593017578125,-8.107463571381569,-5.434251493099332,-0.9530614067640155
1789317583408547800,4.6495478515625,-8.102837080624699,-5.4452568712383504,-0.9292987653173506
1789317583418503000,4.6595029296875,-8.119928500679135,-5.424045740905404,-0.9038078387733548
1789317583428458000,4.6694580078125,-8.135706500047444,-5.396870149210095,-0.92436686187312
1789317583438412000,4.679412109375,-8.133731985104083,-5.393584551668167,-0.9602251609135418
1789317583448366800,4.689366943359375,-8.131840472269058,-5.393925912451744,-0.9742278211724013
1789317583458322000,4.699322021484375,-8.13506586405635,-5.396965426278114,-0.9294386121794581
1789317583468277000,4.709277099609375,-8.139355085682869,-5.396064093524218,-0.8965365325961262
1789317583478231000,4.71923095703125,-8.135519453042745,-5.399456658571959,-0.9108099726203829
1789317583488185900,4.729185791015625,-8.120752092021704,-5.413268910825252,-0.9593183482669293
1789317583498141000,4.739140869140625,-8.098816154545545,-5.437341860330105,-1.0074047721743582
1789317583508096000,4.749095947265625,-8.082277692198753,-5.462383362606167,-1.0047560842964798
1789317583518050800,4.75905078125,-8.085967194366454,-5.465094375130533,-0.9593003742188214
1789317583528004900,4.7690048828125,-8.101850407674908,-5.449012424379587,-0.9157855690758675
1789317583537960000,4.7789599609375,-8.11969527644515,-5.421598347753286,-0.9204396784920245
1789317583547915000,4.7889150390625,-8.134155763474107,-5.394910247313976,-0.9491291088163852
1789317583557869800,4.798869873046875,-8.137325041159986,-5.3884875207900995,-0.9583998451825231
1789317583567824000,4.808823974609375,-8.131504956704378,-5.400538608589768,-0.9397843573659658
1789317583577779000,4.818779052734375,-8.115780733349919,-5.429117637342214,-0.9105884388241916
1789317583587734000,4.828734130859375,-8.090112039086222,-5.466846187233925,-0.9132700791236013
1789317583597688800,4.838688720703125,-8.066824687001109,-5.50010782084465,-0.9195327927801757
1789317583607644000,4.848643798828125,-8.052347248837352,-5.52355007123053,-0.9058088763974607
1789317583617597700,4.85859765625,-8.059690012815594,-5.51935554215014,-0.8651604935362934
1789317583627553000,4.868552978515625,-8.081148395907878,-5.49611670538187,-0.8112534006513654
1789317583637507800,4.8785078125,-8.119858942574263,-5.4458577597409485,-0.762176285206154
1789317583647463000,4.888462890625,-8.154894015598297,-5.39395163141489,-0.757215155667439
1789317583657418000,4.89841796875,-8.174031846788525,-5.365163928347826,-0.755385236826539
1789317583667372000,4.9083720703125,-8.156340707275271,-5.392416092410683,-0.7525578313808888
1789317583677326800,4.918326904296875,-8.116002851668,-5.458161360996962,-0.7136903405871242
1789317583687282000,4.928281982421875,-8.085719357085228,-5.507500853705406,-0.677472195258364
1789317583697236700,4.93823681640625,-8.075987652143835,-5.5214025378078215,-0.6803844294432551
1789317583707191000,4.94819091796875,-8.070614142411946,-5.523095313200354,-0.7286901221245526
1789317583717145900,4.958145751953125,-8.07193223927319,-5.517920540910959,-0.7528896936837584
1789317583727101000,4.968100830078125,-8.079652604392171,-5.51047723916769,-0.7240477762114256
1789317583737055700,4.9780556640625,-8.088114143267273,-5.504664168974757,-0.67191251530461
1789317583747011000,4.988010986328125,-8.101323168930412,-5.490927320045232,-0.6234302239473909
1789317583756964900,4.99796484375,-8.120282136422395,-5.467482147049903,-0.5814144251905381
1789317583766920000,5.007919921875,-8.136535352087021,-5.445231736797094,-0.5626962807171046
1789317583776874800,5.017874755859375,-8.14763425372839,-5.4286997041910885,-0.5618383852461353
1789317583786829800,5.027829833984375,-8.140659738540649,-5.436853784552216,-0.5836661131074652
1789317583796783900,5.037783935546875,-8.118024712884425,-5.467969638305902,-0.6077565252037719
1789317583806739000,5.047739013671875,-8.095845614302158,-5.500596481144428,-0.6091800186682492
1789317583816693800,5.05769384765625,-8.076751622253656,-5.530044693946838,-0.5958835704499855
1789317583826648800,5.06764892578125,-8.07571877207458,-5.5333191855728625,-0.5792470180235803
1789317583836604000,5.07760400390625,-8.08617937581241,-5.518569360208511,-0.5739990343675017
1789317583846558000,5.087557861328125,-8.103435631039739,-5.495741442328691,-0.5491259109282866
1789317583856512800,5.0975126953125,-8.116083515688777,-5.478094141957164,-0.5385771539829671
1789317583866467800,5.1074677734375,-8.116835795360803,-5.47879089204967,-0.5198185679012909
1789317583876423000,5.1174228515625,-8.114104909092188,-5.485751378712058,-0.4880804175307974
1789317583886377000,5.127376953125,-8.122375309309362,-5.476176325637102,-0.45705184020176526
1789317583896331800,5.137331787109375,-8.143582347989081,-5.446235945403576,-0.43698984337132424
1789317583906286800,5.147286865234375,-8.153361399203538,-5.427975481569766,-0.47976362088862806
1789317583916242000,5.157241943359375,-8.13757989270389,-5.447238400444388,-0.527043221925199
1789317583926196700,5.16719677734375,-8.108173765477538,-5.490425800263881,-0.5321017474237829
1789317583936150800,5.17715087890625,-8.08191119697392,-5.533237937030196,-0.48617860249746586
1789317583946105900,5.18710595703125,-8.068889218315482,-5.555350984638929,-0.4488788359444588
1789317583956061000,5.19706103515625,-8.079096724075079,-5.540658442419767,-0.44685891095679253
1789317583966015000,5.207014892578125,-8.106350057181716,-5.498868634438514,-0.4689591721491888
1789317583975970000,5.216969970703125,-8.131846902009844,-5.459832509079575,-0.48340522879399356
1789317583985924000,5.226924072265625,-8.146326678261161,-5.437772068440914,-0.48824265888780355
1789317583995879200,5.236879150390625,-8.151713631996511,-5.43173629540801,-0.4649727328615263
1789317584005834000,5.246833984375,-8.14535754096806,-5.442599634727835,-0.4490541194461286
1789317584015789000,5.2567890625,-8.12693282648325,-5.469009502747655,-0.4618247902246192
1789317584025743000,5.2667431640625,-8.116466377526521,-5.484637279990315,-0.4605510074291378
1789317584035698200,5.2766982421875,-8.118172012400626,-5.482536508318781,-0.4554750558717176
1789317584045653000,5.286653076171875,-8.123800373676419,-5.473201109218597,-0.4672548889819532
1789317584055608000,5.296608154296875,-8.132726022931934,-5.4572804865092035,-0.4972381219765171
1789317584065563000,5.30656298828125,-8.129464975309372,-5.458602090501785,-0.534649751406163
1789317584075517200,5.31651708984375,-8.121049613663553,-5.469528558185696,-0.5506322969032451
1789317584085472000,5.326471923828125,-8.110503669729829,-5.485367932352423,-0.5484968923097476
1789317584095427000,5.336427001953125,-8.103021205019951,-5.4988055060744285,-0.5239915062043815
1789317584105382000,5.3463818359375,-8.101769159132242,-5.501482031807303,-0.5151861953929067
1789317584115336200,5.356336181640625,-8.112208135560154,-5.485332861039042,-0.5230574036920442
1789317584125291000,5.366291015625,-8.128650736317038,-5.457020958790182,-0.5624417579667642
1789317584135246000,5.37624609375,-8.13372087918818,-5.4447232027530665,-0.6065947148827836
1789317584145201000,5.386200927734375,-8.120892377275228,-5.460640902853012,-0.6347416723608971
1789317584155156200,5.39615625,-8.102365371459722,-5.487990682071447,-0.6356220353920012
1789317584165110000,5.406110107421875,-8.096734672096371,-5.4974412319839,-0.6256314603187143
1789317584175065000,5.416065185546875,-8.102489874622226,-5.48763120110929,-0.6371412077832966
1789317584185020000,5.42602001953125,-8.103743674075602,-5.481055914372205,-0.6765748080272227
1789317584194975200,5.435975341796875,-8.102751155906915,-5.476624069404601,-0.7227702305562794
1789317584204929000,5.445928955078125,-8.10387928315401,-5.470878219228982,-0.7530103974539786
1789317584214884000,5.455884033203125,-8.095630510246753,-5.4788230407536025,-0.7833605275321751
1789317584224839000,5.4658388671875,-8.079359174403548,-5.499648386639357,-0.8051130712654441
1789317584234794200,5.475794189453125,-8.07892604368329,-5.503695031681657,-0.7814632425434886
1789317584244749000,5.4857490234375,-8.090006825146078,-5.492990682315826,-0.7410939688846468
1789317584254703000,5.495703125,-8.120766705068945,-5.448429656055569,-0.7335824972759932
1789317584264658000,5.505657958984375,-8.135637526464462,-5.4192398019284,-0.7833408729836344
1789317584274613200,5.51561328125,-8.133249754545092,-5.414214082720876,-0.8407812545612454
1789317584284568000,5.525568115234375,-8.114590062260627,-5.433740620967746,-0.8934620935868471
1789317584294523000,5.53552294921875,-8.078384191891551,-5.486012075474858,-0.9020924131575971
1789317584304477000,5.545476806640625,-8.0585618855685,-5.51609215644002,-0.8959319177664816
1789317584314432300,5.555432373046875,-8.054433991983533,-5.520671885445713,-0.9047984572459011
1789317584324387000,5.565386962890625,-8.06609578820467,-5.5001949146062135,-0.9253849528744816
1789317584334342000,5.575341796875,-8.07573689225316,-5.479844785016775,-0.961336994612962
1789317584344296000,5.5852958984375,-8.070935629451274,-5.487176443079114,-0.9598368922483176
1789317584354251300,5.595251220703125,-8.075276873525977,-5.485055213141441,-0.9351279829274862
1789317584364206000,5.6052060546875,-8.09658854162395,-5.459714435657858,-0.8984194967985153
1789317584374161000,5.615160888671875,-8.126302711886167,-5.415270898297429,-0.8991235534146428
1789317584384115000,5.625114990234375,-8.143073229423164,-5.380467295941711,-0.9546248566884546
1789317584394070300,5.6350703125,-8.11587308780849,-5.408265987971425,-1.0264704879764466
1789317584404025000,5.645025146484375,-8.066595554420351,-5.474717943522334,-1.0620182597629726
1789317584413980000,5.65497998046875,-8.022460644617675,-5.544284231701493,-1.0350951815240084
1789317584423935200,5.664935302734375,-8.001297445079684,-5.580709882301091,-1.0026453026875852
1789317584433889000,5.674888916015625,-8.010228355032206,-5.5666345951974385,-1.009560635033995
1789317584443844000,5.684843994140625,-8.035729291513562,-5.521821055480838,-1.0521098100151867
1789317584453799000,5.694798828125,-8.072726019999385,-5.461738050439953,-1.0820799277998507
1789317584463754200,5.704754150390625,-8.109649098727106,-5.410809827235341,-1.0616578289527445
1789317584473708000,5.7147080078125,-8.126718306949734,-5.389219342195988,-1.0407447317183016
1789317584483663000,5.7246630859375,-8.109643838030099,-5.4165141763567926,-1.0321975603863596
1789317584493618000,5.734617919921875,-8.086430720224977,-5.447351213169098,-1.0518495516438036
1789317584503573200,5.7445732421875,-8.07886992958188,-5.455862436404824,-1.0657437830921261
1789317584513528000,5.754528076171875,-8.076081175646186,-5.457017451658845,-1.080860834333673
1789317584523482000,5.764482177734375,-8.086447671359776,-5.442935150292516,-1.0743416616979986
1789317584533437000,5.77443701171875,-8.090628756436706,-5.434845951861143,-1.083767880886793
1789317584543392000,5.78439208984375,-8.089449775785207,-5.433737113836408,-1.0980422707591204
1789317584553347000,5.79434716796875,-8.083893310701846,-5.437857993158698,-1.1183724535390733
1789317584563301000,5.804301025390625,-8.076757467472552,-5.44425149358809,-1.1386387042373418
1789317584573256000,5.814255859375,-8.068944163373112,-5.451556848165392,-1.1588996211733669
1789317584583211000,5.8242109375,-8.073482391324639,-5.443154346001148,-1.1667667743518948
1789317584593166000,5.834166015625,-8.087865721464157,-5.420595892712473,-1.172155700848624
1789317584603121200,5.84412109375,-8.090400792899727,-5.415898090285062,-1.1763706151299178
1789317584613075000,5.854074951171875,-8.076363499718903,-5.436576136654615,-1.1774466468635947
1789317584623030000,5.864030029296875,-8.052776872426271,-5.469882778450846,-1.1847203641936181
1789317584632985000,5.873985107421875,-8.037544816502928,-5.48846999002099,-1.2020633478563278
1789317584642940200,5.883940185546875,-8.03105194735229,-5.4901119120091195,-1.2374419005557893
1789317584652895000,5.89389501953125,-8.050067028945683,-5.462428370791673,-1.2364007209397851
1789317584662849000,5.90384912109375,-8.081998290735482,-5.418469986599684,-1.2214225667122751
1789317584672804000,5.91380419921875,-8.104953049865365,-5.388498626706004,-1.2017522360805422
1789317584682759200,5.92375927734375,-8.095606544849277,-5.3976230134040115,-1.2236053175788373
1789317584692714000,5.9337138671875,-8.060326557153463,-5.4462412061005825,-1.240959114896506
1789317584702668000,5.94366796875,-8.024417623904347,-5.499644294986129,-1.238147418476641
1789317584712623000,5.953623046875,-8.017432002800703,-5.51896274344027,-1.1967561082936822
1789317584722578200,5.963578125,-8.036335440713167,-5.496488461303711,-1.1731623206079005
1789317584732533000,5.973532958984375,-8.064797565087675,-5.449335080462694,-1.1975678630679845
1789317584742487000,5.983487060546875,-8.07797268848121,-5.41754351940453,-1.2517851909458637
1789317584752442000,5.993442138671875,-8.070847366645932,-5.4169829629123205,-1.2992675114803016
1789317584762397000,6.00339697265625,-8.049713977724313,-5.450020724639296,-1.2921928969189524
1789317584772352000,6.01335205078125,-8.028295926642418,-5.493937023255229,-1.238348347876221
1789317584782307000,6.02330712890625,-8.037460060828924,-5.497767395198345,-1.1593826554499567
1789317584792261000,6.03326123046875,-8.052759336769581,-5.476430008137226,-1.154194293026626
1789317584802216000,6.0432158203125,-8.056665696558357,-5.458634239205717,-1.2098919956553726
1789317584812171000,6.0531708984375,-8.044768338015675,-5.461729282611608,-1.2734225838668645
1789317584822126000,6.0631259765625,-8.024815098789334,-5.494128161913157,-1.2598780426390468
1789317584832081200,6.0730810546875,-8.032867472341657,-5.497588531500101,-1.1916145806867628
1789317584842035000,6.083034912109375,-8.050206729677319,-5.48194204955697,-1.1458078652143477
1789317584851990000,6.092989990234375,-8.064410611596703,-5.459240388405322,-1.1542782449830322
1789317584861945000,6.102945068359375,-8.071077668270469,-5.437732320952415,-1.207955474634841
1789317584871900200,6.112900146484375,-8.07980282651782,-5.430764235505461,-1.180666777953878
1789317584881854000,6.12285400390625,-8.084270911842584,-5.430704614272713,-1.1499555594783275
1789317584891809000,6.13280908203125,-8.064457373347878,-5.4608308724671595,-1.1464021047804505
1789317584901764000,6.14276416015625,-8.022040957900881,-5.513832394814491,-1.1894982461199164
1789317584911719200,6.15271923828125,-7.98688781145513,-5.551756759539246,-1.24820177950114
1789317584921673000,6.1626728515625,-7.973508105400204,-5.569174927330017,-1.2561194207578896
1789317584931628000,6.1726279296875,-7.98017457755208,-5.565462628808617,-1.2299690804570913
1789317584941583000,6.1825830078125,-8.006091109097003,-5.541653883197903,-1.1674612594220786
1789317584951538200,6.1925380859375,-8.038393542286753,-5.505059305772185,-1.1175589451991021
1789317584961493000,6.202492919921875,-8.071344794774054,-5.460672467035055,-1.0976531983762978
1789317584971447600,6.212447509765625,-8.106385128495097,-5.411061756169795,-1.0850414079539477
1789317584981402600,6.222402587890625,-8.128321065971255,-5.380306552422046,-1.0738180762153118
1789317584991357400,6.232357421875,-8.137381739783287,-5.366249385496974,-1.0755363513752818
1789317585001312500,6.2423125,-8.115569720947741,-5.393473492509126,-1.103790970478952
1789317585011266600,6.2522666015625,-8.079231164109707,-5.4439668314278125,-1.1223331738635898
1789317585021221600,6.2622216796875,-8.022306915360689,-5.519561293855309,-1.1607817816581576
1789317585031176400,6.272176513671875,-7.968866417074203,-5.58979510603249,-1.1923647414669394
1789317585041131500,6.282131591796875,-7.967856947770715,-5.593691528949141,-1.180789454485476
1789317585051086300,6.29208642578125,-8.009646171230077,-5.540359167212247,-1.1490732236858456
1789317585061040400,6.302040283203125,-8.094335209739208,-5.430079175850748,-1.0799836131077258
1789317585070995500,6.311995361328125,-8.166911201128363,-5.3241936200559135,-1.0606182567719369
1789317585080950500,6.321950439453125,-8.196359998452662,-5.2751130705446005,-1.078540501627326
1789317585090905300,6.3319052734375,-8.178435050183534,-5.293703789246082,-1.122626530786976
1789317585100859400,6.341859375,-8.129572527337073,-5.3623085389167064,-1.1515597067393362
1789317585110814500,6.351814453125,-8.070098594105243,-5.449477119281887,-1.1606417886655778
1789317585120769500,6.36176953125,-8.00673349865377,-5.537356478264927,-1.183336435554549
1789317585130724400,6.371724365234375,-7.98164640367031,-5.567717714259028,-1.2100533236969262
1789317585140679700,6.3816796875,-7.984858351454139,-5.557331344801187,-1.2363242947027087
1789317585150633500,6.391633544921875,-8.009450356397032,-5.521520026707649,-1.2376993824481963
1789317585160588500,6.401588623046875,-8.043713276004791,-5.476259912267327,-1.216405176941678
1789317585170543400,6.41154345703125,-8.091051365762949,-5.420541532176733,-1.150217717545852
1789317585180498700,6.421498779296875,-8.132219826975465,-5.364570054107904,-1.1219466587640345
1789317585190452500,6.431452392578125,-8.153066800171135,-5.333590393954515,-1.1183453463364392
1789317585200407600,6.441407470703125,-8.144353332361579,-5.341297899591923,-1.1447417703527956
1789317585210362400,6.4513623046875,-8.1091960942626,-5.389786912950873,-1.1668442235022782
1789317585220317700,6.461317626953125,-8.060401960477233,-5.461634590065479,-1.1708354120302944
1789317585230272500,6.4712724609375,-8.010332399928568,-5.532394471943378,-1.1821922339554876
1789317585240226600,6.4812265625,-7.993113554102182,-5.554642544108629,-1.1943452477596699
1789317585250181400,6.491181396484375,-8.003418090495467,-5.534486475786567,-1.218663477262482
1789317585260136700,6.50113671875,-8.02843913450539,-5.496277448901534,-1.2269793971218168
1789317585270091500,6.511091552734375,-8.061274067136646,-5.457406743237376,-1.1844652934540063
1789317585280045600,6.521045654296875,-8.084404767355322,-5.4398588115870945,-1.1048625452332197
1789317585290000400,6.53100048828125,-8.109799320852757,-5.417407910326123,-1.0262694855116308
1789317585299955700,6.540955810546875,-8.129643839007615,-5.395563742786646,-0.9834431740894913
1789317585309910500,6.55091064453125,-8.131679728749393,-5.391399024322629,-0.9894406609386205
1789317585319865300,6.560865234375,-8.105529388448595,-5.417742256847023,-1.0577544648386537
1789317585329819400,6.5708193359375,-8.059894595476985,-5.476610625401139,-1.102369413243234
1789317585339774700,6.580774658203125,-8.01906048078537,-5.536411890891194,-1.1014517138764262
1789317585349729500,6.5907294921875,-8.006707779690624,-5.562332514089346,-1.0599392615318297
1789317585359684400,6.600684326171875,-8.011005769145488,-5.56517679760456,-1.011420364491269
1789317585369638400,6.610638427734375,-8.028537918704748,-5.543125124794244,-0.993338399029523
1789317585379593700,6.62059375,-8.040883021014928,-5.522875532969832,-1.0061994149725884
1789317585389548500,6.630548583984375,-8.042685686522722,-5.5202334940284485,-1.0062858511470258
1789317585399503400,6.64050341796875,-8.065231280329822,-5.498577542537451,-0.9423793422952293
1789317585409458700,6.650458740234375,-8.094189079266785,-5.469369568231701,-0.860514567426592
1789317585419412700,6.660412841796875,-8.11740102802813,-5.438892012381554,-0.8346514465693384
1789317585429367600,6.670367431640625,-8.127959246921538,-5.419078473886847,-0.8603793967396021
1789317585439322400,6.680322265625,-8.116813583528995,-5.4312172399699685,-0.8885902497667819
1789317585449277700,6.690277587890625,-8.099638576844335,-5.4549768857419485,-0.899701718628779
1789317585459231500,6.7002314453125,-8.06357708338201,-5.506662064793706,-0.9087256406269967
1789317585469186600,6.7101865234375,-8.02665049752295,-5.55939704515934,-0.9145289931435138
1789317585479141400,6.720141357421875,-7.996071234863996,-5.601680189615488,-0.9243433348670601
1789317585489096400,6.730096435546875,-7.987348999226093,-5.6158104217767715,-0.9139578421920538
1789317585499051500,6.740051513671875,-8.01715610846877,-5.575992206129431,-0.896607186679542
1789317585509005600,6.750005615234375,-8.075966609355806,-5.500187900343537,-0.8349172578986733
1789317585518960400,6.75996044921875,-8.145909329631925,-5.400590046516061,-0.8050967046525329
1789317585528915500,6.76991552734375,-8.200168743085861,-5.321135401529073,-0.7830284460335969
1789317585538870500,6.77987060546875,-8.201479825684428,-5.320514054760337,-0.7734643527440727
1789317585548824600,6.789824462890625,-8.161362919351458,-5.381268090930581,-0.7774927314773201
1789317585558779400,6.799779296875,-8.116280499565601,-5.451688365590572,-0.7585941889356821
1789317585568734500,6.809734375,-8.072203457430005,-5.513421475926041,-0.7823667672544717
1789317585578689500,6.819689453125,-8.033095435878634,-5.563114604377747,-0.831579272582382
1789317585588644600,6.82964453125,-8.009049958902597,-5.591261086931825,-0.8736741279248148
1789317585598598400,6.839598388671875,-8.01232854218185,-5.585555568766593,-0.8800852370761334
1789317585608553500,6.849553466796875,-8.05091458568573,-5.53802341774106,-0.8267088170018047
1789317585618508500,6.859508544921875,-8.113555458515883,-5.456190937706828,-0.7553626596685499
1789317585628463600,6.869463623046875,-8.171731753152608,-5.376874824407697,-0.6945535323102027
1789317585638417400,6.87941748046875,-8.1935864420861,-5.343265984794497,-0.6964413188181817
1789317585648372500,6.88937255859375,-8.174591234236955,-5.366157615560293,-0.7421593330938369
1789317585658327600,6.89932763671875,-8.125193873861432,-5.436099166792631,-0.7748808684784918
1789317585668282600,6.90928271484375,-8.056667450124024,-5.533903122940659,-0.7977556211747229
1789317585678237400,6.919237548828125,-7.999209532889723,-5.61803160495758,-0.7878819504793733
1789317585688191500,6.92919140625,-7.981480983975529,-5.646874253082275,-0.7610229504525661
1789317585698146600,6.939146484375,-8.019249281355739,-5.59781474635899,-0.7256023852422833
1789317585708101600,6.9491015625,-8.089245193123817,-5.499319885337353,-0.7014137004032731
1789317585718056400,6.959056396484375,-8.138954688188432,-5.427056028637289,-0.689106226689741
1789317585728010500,6.969010498046875,-8.149793477588892,-5.413171880191564,-0.6699434802539647
1789317585737965600,6.978965576171875,-8.133902665495873,-5.443087125983834,-0.6187218270607292
1789317585747920600,6.988920654296875,-8.11984316048324,-5.470224139234423,-0.5614103325597941
1789317585757875500,6.99887548828125,-8.110506007817387,-5.485037092962861,-0.5517648445971309
1789317585767830500,7.00883056640625,-8.094487769952416,-5.502018038380146,-0.6143641433078796
1789317585777784600,7.01878466796875,-8.067240282064676,-5.532161247709393,-0.6965661142416298
1789317585787739400,7.028739501953125,-8.041247178152203,-5.569524471420049,-0.6993746688563376
1789317585797694500,7.038694580078125,-8.028321645605564,-5.59462617945075,-0.6454438297696411
1789317585807649500,7.0486494140625,-8.033006588551402,-5.593904294916987,-0.5911202285056933
1789317585817603600,7.058603515625,-8.057133898591994,-5.563166626825929,-0.5514973892999813
1789317585827558400,7.068558349609375,-8.100805282536149,-5.501146516242623,-0.5335979773309082
1789317585837513500,7.078513427734375,-8.137966261672974,-5.446901715835929,-0.5245525741532444
1789317585847468500,7.088468505859375,-8.137609703320264,-5.446755000841617,-0.5315586169904097
1789317585857423600,7.098423583984375,-8.111192821037768,-5.485807492813468,-0.5337173293942585
1789317585867377400,7.10837744140625,-8.065662072962523,-5.550917386105656,-0.5502732543325052
1789317585877332500,7.11833251953125,-8.029126532247663,-5.603548906096815,-0.5511396619034931
1789317585887287600,7.12828759765625,-8.025085732424259,-5.610317669579387,-0.5410338629527017
1789317585897242600,7.13824267578125,-8.050531723847985,-5.576764359545708,-0.5089364508157596
1789317585907196400,7.148196533203125,-8.091840470314025,-5.518536626982689,-0.48811979969311503
1789317585917151500,7.1581513671875,-8.126673883286118,-5.4665802297741175,-0.4940253339424729
1789317585927106600,7.1681064453125,-8.131420785552264,-5.459251494321227,-0.49694129445441065
1789317585937061600,7.1780615234375,-8.102972105181216,-5.5000142973423,-0.5119309564566239
1789317585947016400,7.188016357421875,-8.058788680061697,-5.562770320984721,-0.5309382931349799
1789317585956970500,7.197970458984375,-8.030112036153673,-5.603927091759443,-0.5326244926562532
1789317585966925000,7.207925048828125,-8.038845377707482,-5.591663237991929,-0.5297611391143873
1789317585976880000,7.217880126953125,-8.060717017775774,-5.560162768834829,-0.5289697695409878
1789317585986835200,7.227835205078125,-8.081065393799543,-5.529972797754406,-0.5349441312428563
1789317585996789200,7.237789306640625,-8.088729644817114,-5.517855074459314,-0.5441644160633906
1789317586006744000,7.247744140625,-8.096282836675643,-5.509591103982925,-0.514785688300617
1789317586016699100,7.25769921875,-8.113997357064486,-5.485304219466448,-0.4948399747936055
1789317586026654200,7.267654296875,-8.116987186530231,-5.479404640033841,-0.5109012115500867
1789317586036608300,7.277608154296875,-8.120498409521579,-5.4710296103984115,-0.5438010261110962
1789317586046563000,7.28756298828125,-8.110852044776081,-5.481331808704137,-0.5826375372447073
1789317586056518100,7.29751806640625,-8.085704744037985,-5.516281541532278,-0.6020028205152601
1789317586066473200,7.30747314453125,-8.061278158789873,-5.550473149469495,-0.6151704912547021
1789317586076428300,7.31742822265625,-8.041634716165065,-5.578839996775985,-0.615667407926172
1789317586086382000,7.327382080078125,-8.052374721366167,-5.563174810132384,-0.6170279556896537
1789317586096337200,7.337337158203125,-8.084413535183668,-5.514788672626018,-0.6322512437846511
1789317586106292200,7.347292236328125,-8.128244493603706,-5.449256754529475,-0.6384518519904464
1789317586116247300,7.357247314453125,-8.15369457668066,-5.409891543346643,-0.6486337118521333
1789317586126201000,7.367201171875,-8.143839537620543,-5.4236862599432465,-0.6571860708158462
1789317586136156200,7.37715625,-8.10559602394402,-5.4779976958453656,-0.6791458275590092
1789317586146111200,7.387111328125,-8.063916690599918,-5.534955262342095,-0.7126777294784784
1789317586156066300,7.39706640625,-8.040459242644905,-5.564948834067582,-0.7434716578014194
1789317586166021000,7.407021240234375,-8.033452578753232,-5.570346893718838,-0.7779874561917036
1789317586175975200,7.41697509765625,-8.033987416282296,-5.564926037713885,-0.8105715558670461
1789317586185930200,7.42693017578125,-8.04476015470922,-5.549397629192471,-0.8101881095074117
1789317586195885000,7.436885009765625,-8.07668790936768,-5.509142775693536,-0.7660573644232005
1789317586205840100,7.446840087890625,-8.128058615642786,-5.439612727871537,-0.7180913520250469
1789317586215794200,7.456794189453125,-8.165029625165461,-5.381088642710447,-0.7392991213571279
1789317586225749200,7.466749267578125,-8.156936919602751,-5.380591214582323,-0.827043017392233
1789317586235704000,7.4767041015625,-8.12047795125544,-5.427991848182678,-0.8747188146721571
1789317586245659100,7.4866591796875,-8.074642082753776,-5.499791594502329,-0.8501917647242545
1789317586255614200,7.4966142578125,-8.040407804718614,-5.5562815434873105,-0.8062035699158906
1789317586265568300,7.506568359375,-8.032343156206608,-5.57013821940422,-0.7908270640205591
1789317586275523000,7.516523193359375,-8.033709183862804,-5.562020379400253,-0.8329659046351909
1789317586285478100,7.52647802734375,-8.048127585315704,-5.5306192789644,-0.9001549422889947
1789317586295433200,7.53643310546875,-8.060957840794325,-5.509155050653219,-0.9168224378429353
1789317586305387300,7.54638720703125,-8.082698547959327,-5.489803284451365,-0.8381080898292362
1789317586315342000,7.556342041015625,-8.10846719546616,-5.4657946323543785,-0.7404231569509953
1789317586325297200,7.566297119140625,-8.120084568023682,-5.455827949613332,-0.6845070623312145
1789317586335252200,7.576252197265625,-8.125964273712038,-5.443939943420887,-0.7089513293664902
1789317586345206300,7.586206298828125,-8.114829716235398,-5.4549172645092,-0.7508638869445771
1789317586355161000,7.5961611328125,-8.092057327935098,-5.4834658981233835,-0.7877773941263556
1789317586365116200,7.6061162109375,-8.065511266314983,-5.5190071671038865,-0.8114605405960231
1789317586375071200,7.6160712890625,-8.033749515873193,-5.567872028037906,-0.7924990888860076
1789317586385026300,7.6260263671875,-8.023352040499448,-5.586666744878888,-0.7650868388906121
1789317586394980000,7.63597998046875,-8.025744488593935,-5.583740043777227,-0.7613562009949236
1789317586404935200,7.64593505859375,-8.043148043337464,-5.559741328552365,-0.7532797159146517
1789317586414890200,7.65589013671875,-8.074931421089172,-5.514475953415036,-0.7459357828926294
1789317586424845300,7.66584521484375,-8.102306919270754,-5.478583971300721,-0.7128286091912538
1789317586434799000,7.675799072265625,-8.118589361029862,-5.455025985580683,-0.7082308330722152
1789317586444754200,7.685754150390625,-8.109978184551,-5.463163114807009,-0.7432960089735686
1789317586454709200,7.695709228515625,-8.088221110773086,-5.490287853097915,-0.7796162995025515
1789317586464664300,7.705664306640625,-8.072261325097083,-5.510334031304716,-0.8032407015223055
1789317586474619100,7.715619140625,-8.053217601931095,-5.53574787402451,-0.8194907753817736
1789317586484573200,7.7255732421875,-8.04212980620563,-5.55217761529982,-0.8172195425141602
1789317586494528300,7.7355283203125,-8.042336726954579,-5.550738522407412,-0.824929605434835
1789317586504483300,7.7454833984375,-8.05496123072803,-5.530457366400957,-0.8378655132450162
1789317586514438100,7.755438232421875,-8.08364488889873,-5.486111444196105,-0.8530253076497465
1789317586524392200,7.76539208984375,-8.100190365508197,-5.456679598006605,-0.8842786701779812
1789317586534347300,7.77534716796875,-8.104329949530959,-5.4454006636232135,-0.9153299342628568
1789317586544302300,7.78530224609375,-8.09205615889132,-5.461998747202753,-0.9249757875517011
1789317586554257200,7.795257080078125,-8.076157163491844,-5.491399613732099,-0.8891551171079277
1789317586564211200,7.805211181640625,-8.09100928018689,-5.479782241174578,-0.8233706855550408
1789317586574166300,7.815166259765625,-8.131788449820876,-5.423109921360015,-0.7964180889606476
1789317586584121300,7.825121337890625,-8.166369349336623,-5.362932223773003,-0.8483818657580763
1789317586594076200,7.835076171875,-8.173036990532278,-5.335890487590432,-0.9487458816524594
1789317586604031000,7.845031005859375,-8.149448609673977,-5.3617456443369385,-1.004269542888552
1789317586613985300,7.8549853515625,-8.105825156524777,-5.428271249645948,-0.9999266183134168
1789317586623940400,7.8649404296875,-8.047675165373086,-5.518883832985162,-0.9732543730303644
1789317586633895200,7.874895263671875,-7.999185567492246,-5.590305978164077,-0.9653481299504637
1789317586643850000,7.88485009765625,-8.00403008491397,-5.581203803297877,-0.977775576781854
1789317586653804300,7.89480419921875,-8.059526346686482,-5.5008583469510075,-0.9772354785557835
1789317586663759000,7.904759033203125,-8.130091582775115,-5.400062223249673,-0.9546338437125086
1789317586673714200,7.914714111328125,-8.162728362485765,-5.350229394066333,-0.9567117459651082
1789317586683669000,7.9246689453125,-8.145801193082333,-5.371967763143777,-0.9789129833139478
1789317586693623300,7.934623291015625,-8.096739932793378,-5.443908963760733,-0.988456910598278
1789317586703578000,7.944578125,-8.042193519091606,-5.525884651657939,-0.9788326846193521
1789317586713533200,7.954533203125,-8.004276168629527,-5.584646052706241,-0.9558657966602593
1789317586723488000,7.964488037109375,-7.985840348228812,-5.61107579447031,-0.9552836128581315
1789317586733443300,7.974443359375,-7.99184923325479,-5.601704155012965,-0.9600213089045136
1789317586743397000,7.984397216796875,-8.017135065680742,-5.566610629799961,-0.9532985765207558
1789317586753352200,7.994352294921875,-8.0547022875309,-5.516095663571358,-0.9299687735334038
1789317586763307000,8.00430712890625,-8.107371801444888,-5.450210109731555,-0.8579735777068883
1789317586773262300,8.014262451171875,-8.145524714228511,-5.40206421072185,-0.7990720375355332
1789317586783216000,8.024216064453125,-8.146132616993784,-5.399164982149005,-0.8123540553696453
1789317586793171200,8.034171142578124,-8.100737477996946,-5.458776278024912,-0.8661423441804945
1789317586803126000,8.0441259765625,-8.029618115156888,-5.549881028795242,-0.9457464075755327
1789317586813081300,8.054081298828125,-7.961447080728411,-5.638234435030817,-0.9980283834766596
1789317586823036200,8.0640361328125,-7.927195851558446,-5.689647226881981,-0.9787092043701558
1789317586832990200,8.073990234375,-7.9394521065413945,-5.68282293381989,-0.917064576035738
1789317586842945000,8.083945068359375,-7.9868007176935665,-5.624351455628871,-0.8649098797760904
1789317586852900400,8.093900390625,-8.065192117363214,-5.520640321263671,-0.8034897809125483
1789317586862855200,8.103855224609376,-8.164849007901548,-5.382737578961253,-0.7292184568475931
1789317586872809200,8.113809326171875,-8.232687449374794,-5.282440052431822,-0.6993330947369336
1789317586882764000,8.123763916015625,-8.232529043942689,-5.281949638566375,-0.7048761888820677
1789317586892719400,8.13371923828125,-8.184303649955988,-5.356610619536042,-0.7030538688257336
1789317586902674200,8.143674072265625,-8.114190833809971,-5.463447192445397,-0.6935696358393877
1789317586912629200,8.153629150390625,-8.045744489571451,-5.557652247318625,-0.7408662976086139
1789317586922583000,8.1635830078125,-7.974754890590906,-5.644819074118137,-0.8424313598558306
1789317586932538400,8.173538330078125,-7.89561354933679,-5.7438902737230055,-0.9150925453104078
1789317586942493200,8.1834931640625,-7.8428195322602985,-5.812167106613517,-0.9376937417622655
1789317586952448300,8.1934482421875,-7.828443216383457,-5.83845656312406,-0.8934737840246408
1789317586962402000,8.203402099609375,-7.8800044767946,-5.785152842959762,-0.7796906068477779
1789317586972357600,8.213357666015625,-8.004825034683943,-5.6251738779276605,-0.6712509095907211
1789317586982312700,8.223312744140625,-8.15041365531385,-5.414735476246475,-0.6494480239097029
1789317586992267500,8.233267578125,-8.26758925140798,-5.232966119688749,-0.6583508768115193
1789317587002222600,8.24322265625,-8.307703235131502,-5.166107336902618,-0.6810135941922664
1789317587012176600,8.2531767578125,-8.273160329538584,-5.2227767341077325,-0.6691852092325687
1789317587022131700,8.263131591796874,-8.180638697707652,-5.365930236545204,-0.6740385675478726
1789317587032086500,8.27308642578125,-8.06398683322668,-5.531795337006449,-0.7360356625817716
1789317587042041600,8.28304150390625,-7.9875074046581975,-5.632856249123812,-0.8006520002033561
1789317587051995600,8.29299560546875,-7.957349582281708,-5.667592046940326,-0.8540351422794162
1789317587061950700,8.30295068359375,-7.950310185164213,-5.675035933205485,-0.8700085911545902
1789317587071905500,8.312905517578125,-7.957541889983415,-5.668976194775104,-0.8429846828896552
1789317587081860600,8.322860595703125,-7.983255592432617,-5.639818489351868,-0.7940197956472634
1789317587091815700,8.332815673828126,-8.052510330444575,-5.549540837055444,-0.7280483170896768
1789317587101769700,8.342769775390625,-8.135541080352663,-5.426880672070384,-0.729608625208959
1789317587111724500,8.352724609375,-8.191215036779642,-5.339799185466766,-0.7489543269962072
1789317587121679600,8.3626796875,-8.179193759596348,-5.355359158170223,-0.7689592233445495
1789317587131634700,8.372634765625,-8.118605143120885,-5.451940294525027,-0.7314196201536804
1789317587141588700,8.382588623046875,-8.05960233453214,-5.546594846731424,-0.669683660273999
1789317587151543600,8.39254345703125,-8.025864315581321,-5.593635999369621,-0.6834614988010377
1789317587161498600,8.40249853515625,-8.030078133884071,-5.580476073545217,-0.7392668265227228
1789317587171453700,8.41245361328125,-8.056020384392141,-5.529291829752922,-0.8353788840610533
1789317587181408800,8.42240869140625,-8.075470934793353,-5.491687198501825,-0.8936010636661201
1789317587191362600,8.432362548828126,-8.078263780382276,-5.492855073237418,-0.8605722158979624
1789317587201317600,8.442317626953125,-8.078672945705057,-5.503670481762289,-0.7842419865418225
1789317587211272700,8.452272705078125,-8.085406637874245,-5.506353437235951,-0.6904028423715383
1789317587221227500,8.4622275390625,-8.094727423927187,-5.492147217229008,-0.6943264455560595
1789317587231181600,8.472181640625,-8.092007643574476,-5.486845019167661,-0.7644150040436536
1789317587241136600,8.48213671875,-8.070876008218526,-5.503382896992564,-0.8626249837093055
1789317587251091700,8.492091796875,-8.043015941390395,-5.535419957244396,-0.9161889622449875
1789317587261046500,8.502046630859375,-8.039083862638472,-5.549478877735138,-0.8641814193710684
1789317587271001600,8.512001708984375,-8.051729993721843,-5.541054748260975,-0.7979639301631599
1789317587280955600,8.52195556640625,-8.066677387484908,-5.523954560378193,-0.7648685199648141
1789317587290910700,8.53191064453125,-8.073690481117367,-5.511988228252529,-0.7771054126601665
1789317587300865500,8.541865478515625,-8.082832403472066,-5.494857060709595,-0.8029617384504526
1789317587310820600,8.551820556640624,-8.112259573486448,-5.454349693754315,-0.7821168110813945
1789317587320774700,8.561774658203126,-8.12894475082755,-5.43246460968256,-0.7609029042694717
1789317587330729700,8.571729736328125,-8.125320130589603,-5.43833847015202,-0.7576482863876968
1789317587340684500,8.5816845703125,-8.10222041003108,-5.468744714331627,-0.7856477616865187
1789317587350639600,8.5916396484375,-8.087705562466383,-5.489102442705631,-0.7931944507390261
1789317587360594700,8.6015947265625,-8.074216550818084,-5.506195031803846,-0.8119340033266693
1789317587370548700,8.611548828125,-8.045889451000093,-5.544395875382423,-0.8329001459226012
1789317587380503600,8.621503662109374,-8.026545868104696,-5.571907567164302,-0.8359387829661369
1789317587390458600,8.631458740234375,-8.025121972781418,-5.573340814837813,-0.8400392040222883
1789317587400413700,8.64141357421875,-8.04401430477798,-5.548557671236992,-0.823243552044034
1789317587410367700,8.65136767578125,-8.07953920714557,-5.498563514012098,-0.810692844159156
1789317587420322600,8.661322509765625,-8.107357188397646,-5.457847472742199,-0.8081154679518192
1789317587430277600,8.671277587890625,-8.11708480168581,-5.440868865412473,-0.8247807715486735
1789317587440232700,8.681232666015624,-8.116140214312075,-5.442656917873024,-0.822276972034201
1789317587450187800,8.691187744140626,-8.092343159139157,-5.477529493811726,-0.825254380409792
1789317587460141600,8.7011416015625,-8.078468363043665,-5.496408381804824,-0.8356003447920084
1789317587470096600,8.7110966796875,-8.06831404877603,-5.50665388148725,-0.8657085558731108
1789317587480051700,8.7210517578125,-8.070940890148282,-5.496195615836978,-0.9067186847187578
1789317587490006800,8.7310068359375,-8.083183701127767,-5.4737955679804084,-0.9327857306502759
1789317587499961600,8.740961669921875,-8.093750103327631,-5.458772186371684,-0.9291937705729156
1789317587509915600,8.75091552734375,-8.09709181497097,-5.457386869493127,-0.907975406781584
1789317587519870700,8.76087060546875,-8.088468363532424,-5.471829236343503,-0.8978622282419353
1789317587529825800,8.77082568359375,-8.093236893108486,-5.464321052670479,-0.90060663157925
1789317587539780600,8.780780517578124,-8.102644772922993,-5.446514177823066,-0.9235920781083404
1789317587549734700,8.790734619140625,-8.11984491404891,-5.419747751450538,-0.9299676044896245
1789317587559689700,8.800689697265625,-8.140926280522345,-5.392542933660745,-0.9034299453716724
1789317587569644800,8.810644775390625,-8.144606430339813,-5.392731734231114,-0.8684523016232997
1789317587579599600,8.820599609375,-8.1341505027771,-5.4070986977577205,-0.8770789679322392
1789317587589554400,8.830554443359375,-8.100202055945992,-5.4457993075519795,-0.9488856554493308
1789317587599508700,8.8405087890625,-8.06393071912527,-5.485473730814457,-1.026151046763733
1789317587609463800,8.8504638671875,-8.029938433152436,-5.5266515443772075,-1.0707923717185854
1789317587619418600,8.860418701171875,-8.003798614245653,-5.566197372823953,-1.0616218077912927
1789317587629373400,8.87037353515625,-8.002925338542461,-5.5719969990134235,-1.0375059689927846
1789317587639327700,8.88032763671875,-8.024085030949115,-5.546949651518464,-1.0078650831624865
1789317587649282800,8.89028271484375,-8.065258168336749,-5.488718411824107,-0.9979814025297761
1789317587659237600,8.900237548828125,-8.092862799099088,-5.4435822160243985,-1.0214552170976996
1789317587669192400,8.9101923828125,-8.100710589990019,-5.428981443741917,-1.0368377874076367
1789317587679147800,8.920147705078126,-8.106986601519584,-5.424958179575205,-1.0084560347929596
1789317587689101800,8.930101806640625,-8.08627406835854,-5.457191639181971,-1.000809100236371
1789317587699056600,8.940056640625,-8.048883372119068,-5.506470926135778,-1.0318134564395993
1789317587709011500,8.950011474609376,-8.000606540206075,-5.562240159630775,-1.1055183787934482
1789317587718966800,8.959966796875,-7.936784348636865,-5.639252087640762,-1.173317730365321
1789317587728920600,8.969920654296875,-7.888162064287066,-5.704589359948039,-1.1853026941262186
1789317587738875600,8.979875732421876,-7.871113314330578,-5.733820715129375,-1.1572647865131496
1789317587748830500,8.98983056640625,-7.941801300016045,-5.652872616714239,-1.06920532172285
1789317587758785800,8.999785888671875,-8.05029908413589,-5.508777449512482,-1.008183428396657
1789317587768740600,9.00974072265625,-8.139474328148365,-5.368277676454186,-1.0492531054098158
1789317587778694700,9.019694580078125,-8.161624200636147,-5.31717000502944,-1.1340087794143705
1789317587788649500,9.0296494140625,-8.10522368350029,-5.38716240966618,-1.2059073829986153
1789317587798604800,9.039604736328124,-8.03472566742897,-5.495373778060078,-1.1893014083735645
1789317587808559600,9.0495595703125,-7.9642609691053625,-5.610124777355789,-1.1258008499741554
1789317587818513700,9.059513671875,-7.934988112869858,-5.6556227922052145,-1.1046630771383643
1789317587828468500,9.069468505859374,-7.938141608464718,-5.6410319567948575,-1.1554425395220518
1789317587838423800,9.079423828125,-7.945476773658394,-5.611475022920966,-1.2454467817045747
1789317587848378600,9.089378662109375,-7.961796624818444,-5.572738757291436,-1.3133015897907316
1789317587858333700,9.099333740234375,-7.987170720049739,-5.549308781865239,-1.2572412643946707
1789317587868287500,9.10928759765625,-8.00889622964561,-5.533455963695049,-1.1869384786345063
1789317587878242800,9.119242919921875,-8.044734435746074,-5.497658674126863,-1.108321672711149
1789317587888197600,9.12919775390625,-8.079080357462168,-5.453301646006107,-1.0771963935419917
1789317587898152700,9.139152587890624,-8.098309958589077,-5.412610739177465,-1.1363991816822439
1789317587908107800,9.149107666015626,-8.075101516959071,-5.430045858103036,-1.215614391890168
1789317587918061800,9.159061767578125,-8.026738760328293,-5.494508101141452,-1.2458832734256982
1789317587928016600,9.1690166015625,-7.991989518508315,-5.550224143144488,-1.222088337144628
1789317587937971700,9.1789716796875,-7.962859285613894,-5.595489518281817,-1.2057171211235225
1789317587947926800,9.1889267578125,-7.954298378017544,-5.606292067325115,-1.2120268887922168
1789317587957880800,9.198880859375,-7.935620565554499,-5.622232563778757,-1.2596852965459227
1789317587967836000,9.2088359375,-7.929854841634631,-5.624568897771835,-1.2853082519717514
1789317587977790700,9.218790771484375,-7.993506937333941,-5.5543906151741735,-1.1928840161006897
1789317587987746000,9.22874609375,-8.076450593480468,-5.454741323420405,-1.0895523095071316
1789317587997700900,9.238700927734374,-8.133895066711306,-5.368011718994379,-1.092973150801286
1789317588007655000,9.248655029296875,-8.155980641791224,-5.326290300074219,-1.131811634696275
1789317588017609700,9.258609619140625,-8.156329016837477,-5.3182618919193745,-1.1665223711367696
1789317588027565000,9.26856494140625,-8.142050900638104,-5.3401610045164825,-1.166224849494919
1789317588037520000,9.278519775390626,-8.081271730026602,-5.4298330921351905,-1.174882203203067
1789317588047474000,9.288473876953125,-7.995062934604286,-5.545925569167733,-1.2214984814926981
1789317588057428700,9.2984287109375,-7.910274527373909,-5.648590409350395,-1.3005262793697416
1789317588067384000,9.308384033203126,-7.87306620196402,-5.69142066629529,-1.339007985716313
1789317588077339000,9.3183388671875,-7.8993480596899985,-5.656397868230939,-1.3326080555461346
1789317588087294000,9.3282939453125,-7.96577721888721,-5.577261203151941,-1.2692245476551354
1789317588097247700,9.338247802734376,-8.061561067384481,-5.459924279016256,-1.1708298590723425
1789317588107203000,9.348203125,-8.144718074020743,-5.34025861967206,-1.1469911567147821
1789317588117158000,9.358157958984375,-8.203358479037881,-5.258339045876264,-1.1068722776204347
1789317588127113000,9.368113037109374,-8.214466148507595,-5.238565254870057,-1.118193809036538
1789317588137067800,9.37806787109375,-8.16645059787929,-5.304755344614386,-1.1571660023137926
1789317588147022000,9.38802197265625,-8.067183583441377,-5.43555906856656,-1.2432311514817178
1789317588156977000,9.397976806640624,-7.950652714991569,-5.583737705689669,-1.3339347741052507
1789317588166932000,9.407931884765626,-7.872215138092637,-5.690219473811983,-1.3490826588764786
1789317588176886800,9.41788671875,-7.878634942007064,-5.695535115876794,-1.2877797566518188
1789317588186841000,9.427841064453125,-7.959561997634172,-5.599895059764385,-1.2070351449195296
1789317588196796000,9.4377958984375,-8.074488938018678,-5.445658437776565,-1.1479617553126067
1789317588206751000,9.4477509765625,-8.160393197536468,-5.31989212346971,-1.1300916790358722
1789317588216705800,9.457705810546875,-8.199916229629515,-5.257597287598252,-1.135530362958461
1789317588226660900,9.467660888671874,-8.191398576653004,-5.274720271834731,-1.117452196888998
1789317588236615000,9.477614990234375,-8.143598130080104,-5.348012302538752,-1.1184619584534317
1789317588246570000,9.487570068359375,-8.056475142422318,-5.469625588819384,-1.1605121709365398
1789317588256524800,9.49752490234375,-7.954962979406118,-5.602912946280837,-1.2232405759196727
1789317588266479900,9.50747998046875,-7.898471276855468,-5.684603972017765,-1.2123588241603225
1789317588276435000,9.51743505859375,-7.912266577973961,-5.6811219751209014,-1.136342409993708
1789317588286389000,9.527388916015624,-7.981641727495193,-5.5976259457886215,-1.0631843809328974
1789317588296343800,9.53734375,-8.06486536962688,-5.485908030578494,-1.0164395808927715
1789317588306299000,9.547298828125,-8.139919149306417,-5.37890194632113,-0.9897024536799639
1789317588316254000,9.55725390625,-8.18515529834926,-5.315936079320311,-0.9562618833057582
1789317588326208800,9.567208740234374,-8.184349242663384,-5.323620204082131,-0.9197161134578287
1789317588336162800,9.577162841796875,-8.155075801905989,-5.37811751794517,-0.8608013484787196
1789317588346118000,9.587117919921875,-8.082331468212605,-5.4838797396212815,-0.8794144982077181
1789317588356073000,9.597072998046874,-8.00665458819866,-5.582812992060184,-0.946609454145655
1789317588366027800,9.60702783203125,-7.958394122898579,-5.641314865389466,-1.0049490495853126
1789317588375981800,9.61698193359375,-7.934370857754349,-5.673394595739245,-1.0142710777472703
1789317588385937000,9.62693701171875,-7.938623254501819,-5.681584916457534,-0.9317915319811553
1789317588395892000,9.63689208984375,-7.954165691548585,-5.672342456337809,-0.852155246816948
1789317588405846800,9.6468466796875,-8.00781369510591,-5.60428832628727,-0.7982787682659923
1789317588415802000,9.656802001953125,-8.109004955604671,-5.467150138616562,-0.7243580112043768
1789317588425756000,9.666755859375,-8.185409565371275,-5.351920415893197,-0.7255347998987883
1789317588435711000,9.6767109375,-8.21109871790111,-5.309992660745978,-0.7431143687963485
1789317588445665800,9.686665771484375,-8.17430248042345,-5.3625657285481685,-0.770744572391361
1789317588455621000,9.69662109375,-8.112640097236634,-5.4569595839917655,-0.7596308385070413
1789317588465576000,9.706575927734375,-8.045490222549438,-5.553174809643626,-0.7763515986181795
1789317588475530000,9.716530029296875,-7.996722392249107,-5.617172357779741,-0.8186519134048372
1789317588485484800,9.72648486328125,-7.976288091507554,-5.638683932363986,-0.868591052506864
1789317588495440100,9.736440185546876,-7.982126880663633,-5.624703922328353,-0.9048402505610138
1789317588505395000,9.74639501953125,-8.023760621300339,-5.570794052964448,-0.8694328370932489
1789317588515349000,9.756348876953124,-8.081251856282353,-5.494756522944569,-0.8193918450519442
1789317588525303800,9.7663037109375,-8.120723450449109,-5.4385839693456886,-0.8037660405706614
1789317588535259100,9.776259033203125,-8.144920903116464,-5.403815438303351,-0.7933647658046334
1789317588545214000,9.7862138671875,-8.154254548650979,-5.391900544103979,-0.7784137918449938
1789317588555168800,9.796168701171876,-8.159806922081112,-5.386675502932071,-0.7560838135499507
1789317588565122800,9.806122802734375,-8.149079191839695,-5.400991028532386,-0.7695379730805754
1789317588575078000,9.816077880859375,-8.119385479843617,-5.439301177704334,-0.8123857656821608
1789317588585033000,9.826032958984374,-8.081917626714706,-5.483909550237655,-0.8830201214842498
1789317588594987800,9.83598779296875,-8.043560715791582,-5.5309086172997945,-0.9383827469397336
1789317588604942800,9.84594287109375,-8.015866653180122,-5.566088067230582,-0.966919251724705
1789317588614897000,9.85589697265625,-8.031264128798245,-5.549240977326035,-0.9354681746672838
1789317588624852000,9.86585205078125,-8.073829012805223,-5.495625122472643,-0.884179155326262
1789317588634806800,9.875806884765625,-8.119037689319253,-5.432011605218053,-0.8630551187548786
1789317588644761900,9.885761962890625,-8.133992097344994,-5.406407208362221,-0.8827928885996341
1789317588654717000,9.895717041015626,-8.12804867877066,-5.413184155151248,-0.8959013764977455
1789317588664671000,9.9056708984375,-8.107930604371427,-5.445794046854973,-0.8804384344279765
1789317588674625800,9.915625732421875,-8.084799904152751,-5.484581750410795,-0.8519152275159955
1789317588684580900,9.925580810546874,-8.066975493648648,-5.507524819102883,-0.8726136590864508
1789317588694536000,9.935535888671875,-8.046722394692898,-5.5260886497974395,-0.9396770245339721
1789317588704491000,9.945490966796875,-8.03431650210619,-5.534885119715333,-0.9925685106355696
1789317588714444800,9.95544482421875,-8.029587135496735,-5.540561411786079,-0.9991454778730868
1789317588724399900,9.96539990234375,-8.043401725837589,-5.533439597082138,-0.9247245892696082
1789317588734355000,9.97535498046875,-8.078410495376586,-5.49578002077341,-0.8402770313661545
1789317588744310000,9.98531005859375,-8.112315687587857,-5.4459916152536865,-0.8377855068113654
1789317588754263800,9.995263916015626,-8.141448258569836,-5.391263415244222,-0.9063614687789231
1789317588764219000,10.005218994140625,-8.14024765060842,-5.380699351131915,-0.9771539377521723
1789317588774174000,10.015174072265625,-8.107172479480505,-5.428314504265785,-0.9887074512932449
1789317588784129000,10.02512890625,-8.060024359336495,-5.50409893630743,-0.9546146275553852
1789317588794083800,10.035083740234375,-8.034002029329537,-5.549373079273105,-0.910851254478842
1789317588804038000,10.045037841796875,-8.02620275375545,-5.556275113746524,-0.9371535704709589
1789317588813993000,10.054992919921874,-8.011013367930055,-5.5633495821774,-1.0213657121833413
1789317588823948000,10.064947998046875,-7.992063168266415,-5.575791715121269,-1.0990259480342268
1789317588833902800,10.07490283203125,-7.988109462204575,-5.58586185823679,-1.0763995440758765
1789317588843858000,10.08485791015625,-8.021098708614707,-5.556111447617411,-0.9808101221721619
1789317588853812000,10.09481201171875,-8.084207198956609,-5.476908147042989,-0.9052393328811973
1789317588863766800,10.104766845703125,-8.143122913783788,-5.392345949783921,-0.8846146971993147
1789317588873721900,10.114721923828125,-8.15632258709669,-5.356667902681231,-0.9751376294936984
1789317588883677000,10.124677001953126,-8.136411433446407,-5.3788335572600365,-1.0185017010543496
1789317588893631000,10.134630859375,-8.083382438570261,-5.4571735190033905,-1.024000225405395
1789317588903585800,10.144585693359375,-8.020428846529125,-5.551960757678747,-1.0093732957683503
1789317588913540900,10.154540771484376,-7.972772776862978,-5.622765647742152,-0.9948767145127058
1789317588923496000,10.164495849609375,-7.954948950880765,-5.642832284215093,-1.0235320964369923
1789317588933451000,10.174450927734375,-7.965685448950529,-5.619791600367426,-1.0659203817680478
1789317588943404800,10.18440478515625,-7.999411777463555,-5.570217129859328,-1.0735353137511758
1789317588953360000,10.19435986328125,-8.050528801238537,-5.5061646366655825,-1.0205493542991577
1789317588963315000,10.20431494140625,-8.094227073189616,-5.4503632544666525,-0.9733466544236987
1789317588973270000,10.21427001953125,-8.12331346694231,-5.413212796723842,-0.9377036786343902
1789317588983225000,10.22422509765625,-8.147566449189185,-5.377590279200673,-0.9322443903151899
1789317588993179100,10.23417919921875,-8.147105845940112,-5.375658434355259,-0.9472832617539912
1789317589003134000,10.244134033203125,-8.123028804782033,-5.408465309935808,-0.9671022070761769
1789317589013089000,10.254089111328126,-8.077326207271218,-5.475581282353401,-0.9722144355233758
1789317589023044000,10.264044189453125,-8.03647864857614,-5.536257577112317,-0.967079702983424
1789317589032999000,10.2739990234375,-8.013051011237502,-5.56592498562336,-0.9908983854662626
1789317589042953000,10.283952880859376,-8.025349936318397,-5.544070296689868,-1.0136186051879077
1789317589052908000,10.293907958984375,-8.076470467224716,-5.46788020645678,-1.0214182460881769
1789317589062863000,10.303863037109375,-8.117675753316282,-5.411322452932596,-0.9956525942560285
1789317589072818000,10.31381787109375,-8.144770096468925,-5.379446720722317,-0.9458651385843754
1789317589082772000,10.32377197265625,-8.143085504382848,-5.388173632535338,-0.9100148036547004
1789317589092727000,10.33372705078125,-8.128619756656885,-5.412606647524237,-0.8942145193893462
1789317589102682000,10.34368212890625,-8.111831118941307,-5.433520256215334,-0.9194793820925057
1789317589112637000,10.353636962890626,-8.081617182463408,-5.463848174461722,-1.0021041084829718
1789317589122592000,10.363592041015625,-8.030353443694114,-5.515142892891168,-1.1256148258827625
1789317589132546000,10.373546142578125,-7.98726073642075,-5.568648857629299,-1.1679917130369692
1789317589142501000,10.383501220703126,-7.983954096090793,-5.585010209843516,-1.111089456924051
1789317589152456000,10.3934560546875,-8.01617002004087,-5.553804924240708,-1.0327904847782106
1789317589162411000,10.403410888671875,-8.075581993952394,-5.481097415426373,-0.9554772357340902
1789317589172365800,10.41336572265625,-8.143712696370482,-5.384486468455195,-0.9260866714030503
1789317589182320000,10.423320068359375,-8.19630914504826,-5.303076013225317,-0.9318171778790653
1789317589192275000,10.43327490234375,-8.206756304782628,-5.280433973306417,-0.9677550449617206
1789317589202230000,10.44322998046875,-8.16229114011228,-5.339580574280023,-1.0179720511570571
1789317589212184800,10.453184814453126,-8.080587254893778,-5.454496408748627,-1.0596980731870977
1789317589222139100,10.46313916015625,-8.016098123848439,-5.548042122930288,-1.0638515396047383
1789317589232094000,10.473093994140624,-7.988890383449196,-5.590910373798012,-1.0439039994668216
1789317589242049000,10.483049072265626,-7.9808105373680585,-5.605197842347621,-1.0289844435587525
1789317589252003800,10.49300390625,-7.986498519876599,-5.603379394748806,-0.9941658628296106
1789317589261959200,10.502959228515625,-8.01270205166936,-5.5712190003782505,-0.9635903264977037
1789317589271913000,10.512912841796876,-8.059469063541293,-5.505902770859003,-0.9488847786664962
1789317589281868000,10.522867919921875,-8.112735374304652,-5.425092035087943,-0.9603546325121074
1789317589291822800,10.53282275390625,-8.142847603973745,-5.381171060296893,-0.9525848752934485
1789317589301778200,10.542778076171874,-8.157139748698473,-5.3690533370018,-0.8970586567740887
1789317589311733000,10.55273291015625,-8.138042249518632,-5.405698183310031,-0.8491624947417526
1789317589321687000,10.56268701171875,-8.09610280393362,-5.474654230636358,-0.8072560746435076
1789317589331641900,10.572641845703124,-8.042431419500709,-5.5467462379008525,-0.8504637865986675
1789317589341597200,10.58259716796875,-7.993664173722267,-5.605410023793578,-0.9225487796004861
1789317589351552000,10.592552001953125,-7.981170018330216,-5.615876472750306,-0.9660419574335217
1789317589361506000,10.602506103515625,-7.986917037549614,-5.606331230291724,-0.9739559454284608
1789317589371460900,10.6124609375,-8.012080120378732,-5.579111799454688,-0.9222095377087592
1789317589381416200,10.622416259765625,-8.036968477919697,-5.547232560113072,-0.8976245470285416
1789317589391371000,10.63237109375,-8.048969296836853,-5.5286471021085974,-0.9047302143152802
1789317589401325800,10.642325927734374,-8.078073226246238,-5.495640320041775,-0.8444248717606068
1789317589411280000,10.65227978515625,-8.13657334600985,-5.429963440516591,-0.6943089829646051
1789317589421235200,10.662235107421875,-8.189117772239447,-5.3496226603448385,-0.7001914651319384
1789317589431190000,10.67218994140625,-8.208389458942413,-5.309072623291612,-0.7787656740225851
1789317589441144800,10.682144775390626,-8.156177041146158,-5.364530891141295,-0.9321874724961817
1789317589451100200,10.69210009765625,-8.063493496751784,-5.488983784762024,-1.010700891110301
1789317589461054200,10.70205419921875,-7.974583625677227,-5.626967775607109,-0.9558434386979788
1789317589471009000,10.712009033203126,-7.9299740841001265,-5.7068871154963965,-0.8469602354571223
1789317589480963800,10.7219638671875,-7.96266230173707,-5.671051247483492,-0.778187216547504
1789317589490919200,10.731919189453125,-8.041676801741122,-5.553897278699279,-0.8099684754073619
1789317589500873200,10.741873291015626,-8.125268692663312,-5.417385113972425,-0.8957296001274138
1789317589510828000,10.751828125,-8.18856832166314,-5.320605824697017,-0.8993844693731516
1789317589520782800,10.761782958984375,-8.200812301686407,-5.309416322162747,-0.8527383074019104
1789317589530738200,10.77173828125,-8.158947674903272,-5.381410129749774,-0.8014866974618285
1789317589540693000,10.78169287109375,-8.099269743531941,-5.475127108845115,-0.7714844309732317
1789317589550647000,10.79164697265625,-8.054906285670398,-5.532793115872145,-0.8228398666139691
1789317589560601900,10.801601806640624,-8.036595552954077,-5.548266579335928,-0.8945727582424878
1789317589570557200,10.81155712890625,-8.024943693605065,-5.551221337488293,-0.9770404674403369
1789317589580512000,10.821511962890625,-8.018153302812577,-5.557399149340391,-0.9974564288076013
1789317589590467000,10.831467041015625,-8.02829183498919,-5.552321407684683,-0.9426792020246386
1789317589600420900,10.8414208984375,-8.069510565084219,-5.5054579497009515,-0.8621594120241701
1789317589610376200,10.851376220703125,-8.126760977047681,-5.430209524232149,-0.7993546538691967
1789317589620331000,10.8613310546875,-8.171215035802126,-5.365316488561034,-0.7842251084722578
1789317589630286000,10.8712861328125,-8.160586674281955,-5.375283755823969,-0.8255488333117217
1789317589640239900,10.881239990234375,-8.09996064840555,-5.459513360127806,-0.8687542071793228
1789317589650195200,10.8911953125,-8.045063521569967,-5.538087130627035,-0.8814319024447351
1789317589660150000,10.90114990234375,-8.023438549739122,-5.569002493372559,-0.8837558884128928
1789317589670105000,10.91110498046875,-8.023053934335708,-5.56862839936316,-0.889588393958658
1789317589680060000,10.921059814453125,-8.005818721896409,-5.585720403939486,-0.9364703374471515
1789317589690014200,10.93101416015625,-7.983592277041077,-5.609459591445327,-0.9831589503206312
1789317589699969000,10.940968994140626,-8.015807616469264,-5.577453510853648,-0.8995714433126151
1789317589709924000,10.950924072265625,-8.08189015418589,-5.495376700669527,-0.8088657748624682
1789317589719879000,10.96087890625,-8.150558032220601,-5.398639496970176,-0.7703752276223153
1789317589729834000,10.970833984375,-8.17663647632897,-5.348059648811817,-0.8433610419213772
1789317589739788000,10.9807880859375,-8.148977485030889,-5.3700902788341045,-0.9626419397316872
1789317589749743000,10.9907431640625,-8.095629925724863,-5.445682403174042,-0.9877787921410054
1789317589759698000,11.000697998046874,-8.036083511778711,-5.537078245845437,-0.9656666943803429
1789317589769653000,11.010653076171875,-7.985840348228812,-5.617188139870763,-0.918661928229779
1789317589779607000,11.02060693359375,-7.9525301993012425,-5.663126299703121,-0.9255512493520974
1789317589789562000,11.03056201171875,-7.939100808885693,-5.67200635625124,-0.9845852567967027
1789317589799517000,11.040516845703126,-7.962183578309416,-5.629702753528952,-1.0394522076897323
1789317589809472000,11.050471923828125,-8.032595669662951,-5.534620331299305,-1.0078526620723307
1789317589821293000,11.06229296875,-8.113336847329139,-5.428280601996183,-0.9369729532070458
1789317589831247000,11.0722470703125,-8.145315455392003,-5.3837733517497774,-0.9160810448911041
1789317589841202000,11.082201904296875,-8.155164064711332,-5.374285976958275,-0.8835901764571666
1789317589851157000,11.092156982421875,-8.15097012015283,-5.3809565407633775,-0.8816888728804886
1789317589861112000,11.102112060546874,-8.119963571992516,-5.418742373800278,-0.9347775620546191
1789317589871067100,11.112067138671875,-8.048380683293939,-5.513354255908728,-0.9984393754303454
1789317589881021000,11.12202099609375,-7.96430363920331,-5.625626297870278,-1.0452656432088463
1789317589890976000,11.13197607421875,-7.901164169201254,-5.711605376189947,-1.058089688142389
1789317589900931000,11.14193115234375,-7.899620446890592,-5.719877529972791,-1.0243911244191228
1789317589910886100,11.15188623046875,-7.950681356564163,-5.654602216985821,-0.9912281288772821
1789317589920840000,11.16183984375,-8.046407337394356,-5.528664053243398,-0.9271404182396829
1789317589930795000,11.171794921875,-8.142254314255714,-5.397444734227657,-0.8612031342126428
1789317589940750000,11.18175,-8.19285812781155,-5.315557309135794,-0.8901178977254778
1789317589950705200,11.191705078125,-8.200532900223136,-5.299401708626747,-0.9154165165677666
1789317589960660000,11.201659912109376,-8.161064813187718,-5.351297900080681,-0.9648941756378858
1789317589970613800,11.21161376953125,-8.093782252031565,-5.449159139373898,-0.9837348505124449
1789317589980568600,11.221568603515625,-8.039980519217252,-5.532662767490744,-0.9585094430368393
1789317589990523600,11.231523681640626,-8.008336257675289,-5.57485648009777,-0.9787298087667673
1789317590000478700,11.241478759765625,-8.000497234612704,-5.576600693416595,-1.0314808634843677
1789317590010432800,11.251432861328125,-8.010794172221422,-5.551837423560023,-1.0838199764002114
1789317590020387600,11.2613876953125,-8.026634130910038,-5.522414345198869,-1.1164519338052719
1789317590030342700,11.2713427734375,-8.061803059446811,-5.48304211975336,-1.0554465532224624
1789317590040297700,11.281297607421875,-8.090683116972446,-5.450828533890843,-0.9998520187072455
1789317590050252800,11.291252685546874,-8.123450829586385,-5.410449761751294,-0.9523463172972202
1789317590060206600,11.30120654296875,-8.132964507862924,-5.3957969670206305,-0.9542811578173189
1789317590070161700,11.31116162109375,-8.114656113234162,-5.413248452559113,-1.009691714067757
1789317590080116700,11.32111669921875,-8.08090581932366,-5.454813219612837,-1.0556322119876742
1789317590090071600,11.331071533203126,-8.045825738114118,-5.498862789219618,-1.0943414434798062
1789317590100026600,11.341026611328125,-8.021270558050274,-5.528147920414805,-1.126580456044525
1789317590109980700,11.350980712890625,-7.998651314485072,-5.552565153312683,-1.1666142141386866
1789317590119935700,11.360935791015624,-7.985618814432621,-5.566477358809113,-1.1893712587393819
1789317590130512600,11.3715126953125,-8.011893073374033,-5.537305624860525,-1.1481306090734897
1789317590140467700,11.3814677734375,-8.064946618169545,-5.475831457722187,-1.0687794975262135
1789317590150422500,11.391422607421875,-8.114033597421646,-5.410733254867792,-1.0280117260690778
1789317590160377900,11.4013779296875,-8.130181599146127,-5.383729512608051,-1.0421096633959561
1789317590170331600,11.41133154296875,-8.126322001108527,-5.381991144508123,-1.0804835985191166
1789317590180286700,11.42128662109375,-8.126253612047433,-5.383232669001817,-1.0748016804251819
1789317590190241500,11.431241455078125,-8.116261794865132,-5.398572861474752,-1.0733549156829714
1789317590200196900,11.44119677734375,-8.078815569046139,-5.450719228297472,-1.092145833131671
1789317590210151700,11.451151611328125,-8.014244604936241,-5.533724259242415,-1.1489836457062512
1789317590220105700,11.461105712890625,-7.9563950580358505,-5.609743669083715,-1.1819190430372952
1789317590230060500,11.471060546875,-7.957267749217152,-5.617916454145312,-1.1363485474735497
1789317590240016000,11.481015869140625,-7.996811824098229,-5.57252599132359,-1.0808977322779596
1789317590249970700,11.490970703125,-8.047811943495272,-5.5051803018033505,-1.0469451937936245
1789317590259924700,11.5009248046875,-8.094308321732282,-5.438026919984817,-1.0394292652055621
1789317590269879600,11.510879638671875,-8.12202576521933,-5.39318649226129,-1.0567021793067455
1789317590279834600,11.520834716796875,-8.140500748586653,-5.371541062164306,-1.024295189763978
1789317590289789700,11.530789794921875,-8.135898223227262,-5.383782119578123,-0.9962089860297739
1789317590299744500,11.54074462890625,-8.094268574243783,-5.447624769413471,-0.9882244170166552
1789317590309698600,11.550698486328125,-8.035773130655288,-5.52646157476306,-1.0271095895975828
1789317590319653600,11.560653564453125,-7.969448016354441,-5.609549607816338,-1.0914382693842053
1789317590329608700,11.570608642578126,-7.942242029520869,-5.641786574554443,-1.1231298771992324
1789317590339563500,11.5805634765625,-7.975905814191699,-5.595493609935045,-1.1161395799204707
1789317590349518800,11.590518798828125,-8.029749632582067,-5.529899147996306,-1.0553276030179113
1789317590359472600,11.60047265625,-8.08589938982725,-5.461044222956896,-0.9826524621032178
1789317590369427700,11.610427734375,-8.115377997767924,-5.419115298765897,-0.971705755348876
1789317590379382500,11.620382568359375,-8.13427968211472,-5.390467296430468,-0.973008508510515
1789317590389337900,11.630337890625,-8.126994785803555,-5.392327245083451,-1.0223258624523877
1789317590399292700,11.640292724609376,-8.08122146114409,-5.454875763455033,-1.052888685433194
1789317590409246700,11.650246826171875,-8.013450824210047,-5.5449289593458175,-1.0994319715518504
1789317590419201500,11.660201416015624,-7.942092391917109,-5.634746008393168,-1.1589619458198546
1789317590429156900,11.670156982421876,-7.911856828129291,-5.678813698178529,-1.1506420073725283
1789317590439111700,11.680111572265625,-7.940156455418467,-5.649075562518835,-1.1010201175261287
1789317590449066800,11.690066650390625,-8.022184750285744,-5.554102445882559,-0.9833015736617148
1789317590459020500,11.7000205078125,-8.114581294432282,-5.432142538121342,-0.9032097998149693
1789317590468975900,11.709975830078125,-8.170407811072469,-5.344927780526876,-0.9200936415333301
1789317590478930700,11.7199306640625,-8.1822852958709,-5.321679591408372,-0.9488500726792961
1789317590488885800,11.7298857421875,-8.157419734683632,-5.358149665671586,-0.95766195936203
1789317590498840600,11.739840576171876,-8.116424876472353,-5.425539194333553,-0.9260434898484498
1789317590508795000,11.749794921875,-8.07291949674487,-5.487749859052896,-0.9396591235511005
1789317590518749700,11.759749755859374,-8.017928846406937,-5.555484840151667,-1.00984726995565
1789317590528704800,11.769704833984376,-7.950987061512469,-5.632493261030316,-1.1077945800971238
1789317590538659600,11.77965966796875,-7.881661011829972,-5.716458661440014,-1.1712815483625978
1789317590548614000,11.78961376953125,-7.854860098665952,-5.757787281650304,-1.1486669809725134
1789317590558568700,11.799568603515626,-7.914642659455537,-5.7007478820890185,-1.0150315407257526
1789317590568523500,11.8095234375,-8.027709066665173,-5.561538733363151,-0.8919397793903946
1789317590578478600,11.819478515625,-8.142526701456308,-5.39415738312006,-0.8790386506326496
1789317590588433700,11.82943359375,-8.215878353393077,-5.274707996875048,-0.9204233849443495
1789317590598387700,11.8393876953125,-8.21033357874751,-5.276713491478562,-0.9576530454032123
1789317590608342500,11.849342529296875,-8.153568319952488,-5.365443914332985,-0.9495864971950649
1789317590618297600,11.859297607421874,-8.067299318775534,-5.502852735638618,-0.898704962676391
1789317590628252700,11.869252685546876,-7.977946380108595,-5.631545751047134,-0.8991386779185384
1789317590638207700,11.879207763671875,-7.908634358951449,-5.717430721342564,-0.9668911216087639
1789317590648161500,11.88916162109375,-7.873861151733994,-5.7535454062968485,-1.034122829360515
1789317590658116600,11.89911669921875,-7.892831225141882,-5.719642552173137,-1.0767010843057185
1789317590668071700,11.90907177734375,-7.926770319622754,-5.6748617456823585,-1.0642571977961808
1789317590678026800,11.91902685546875,-7.995888279512524,-5.592002260687947,-0.9826808114148676
1789317590687981600,11.928981689453124,-8.083146876248717,-5.4755070480734105,-0.923009017523378
1789317590697937000,11.93893701171875,-8.174147582122684,-5.354176085865498,-0.8285501340195536
1789317590707890700,11.948890625,-8.21615307868123,-5.289271359756588,-0.8299548862509429
1789317590717845800,11.958845703125,-8.180505426716804,-5.335993363443016,-0.8814152435708791
1789317590727800600,11.968800537109376,-8.091005773055553,-5.4644613379240035,-0.9196067347992211
1789317590737755600,11.978755615234375,-7.9966008116960525,-5.597287507614493,-0.9461146563660353
1789317590747709700,11.988709716796874,-7.931866181457043,-5.688199950683116,-0.9488215041719377
1789317590757664800,11.998664794921876,-7.932310418093204,-5.687003434374928,-0.95227902421467
1789317590767619600,12.00861962890625,-7.974553815060854,-5.625581289684773,-0.9642156187891959
1789317590777574700,12.01857470703125,-8.027729524931312,-5.550084442412853,-0.9604719022162258
1789317590787529700,12.02852978515625,-8.08064453803897,-5.479688717672229,-0.9200999982088803
1789317590797483800,12.03848388671875,-8.10591341933012,-5.451159373280405,-0.8656908010207116
1789317590807438600,12.0484384765625,-8.109877646785973,-5.4511143650949,-0.8280241373840719
1789317590817393700,12.0583935546875,-8.090756766730546,-5.479114132654667,-0.8302699435494839
1789317590827348700,12.0683486328125,-8.06943574628234,-5.509979811039567,-0.8334986963376403
1789317590837303600,12.078303466796875,-8.054743788585066,-5.527897745046019,-0.8566425482988357
1789317590847257600,12.088257568359374,-8.038437965950369,-5.5492994295150035,-0.8713082025110721
1789317590857212700,12.098212646484376,-8.026434224423765,-5.564413996538519,-0.885457650829479
1789317590867167700,12.108167724609375,-8.019370277386903,-5.574771139901876,-0.8843121340561657
1789317590877122600,12.11812255859375,-8.026701935449243,-5.5704141137361525,-0.8443487377844751
1789317590887077600,12.12807763671875,-8.050519448888302,-5.541451638624071,-0.8073639189321548
1789317590897031700,12.13803173828125,-8.083825506162643,-5.499929541668296,-0.75691741482988
1789317590906986800,12.14798681640625,-8.12173058166504,-5.449327481678128,-0.7160333235166967
1789317590916941600,12.157941650390624,-8.138688146206736,-5.425909196689725,-0.7011774804946035
1789317590926896600,12.167896728515625,-8.131547626802325,-5.436010319465399,-0.7057707996342331
1789317590936851700,12.177851806640625,-8.110175168427824,-5.463936437267065,-0.735421330075711
1789317590946805800,12.1878056640625,-8.068082578107715,-5.517128513750434,-0.7985800893001258
1789317590956760600,12.197760498046875,-8.022946966829895,-5.574168497833609,-0.8551916919033974
1789317590966715400,12.20771533203125,-7.985193867018818,-5.630009627521038,-0.8426425183884799
1789317590976670200,12.217670166015624,-7.981644650104641,-5.64306141679585,-0.7871401191361248
1789317590986625300,12.227625244140626,-8.014037684187292,-5.603118113464117,-0.7420556535236537
1789317590996579300,12.237579345703125,-8.065708250191808,-5.5308945887744425,-0.7238369830049574
1789317591006534400,12.247534423828125,-8.111220878088474,-5.4623640733838075,-0.7355707484837621
1789317591016489200,12.2574892578125,-8.13771199465096,-5.421451048237085,-0.7455879193030297
1789317591026444300,12.2674443359375,-8.14588185710311,-5.410512305593491,-0.7357669286429882
1789317591036399400,12.2773994140625,-8.121178793001175,-5.4428971563696855,-0.7692303684361279
1789317591046353400,12.287353515625,-8.063543765634298,-5.519532652282715,-0.827287347542122
1789317591056308200,12.29730810546875,-7.999914466288685,-5.604275466805696,-0.8739863356791436
1789317591066263300,12.30726318359375,-7.959138219264149,-5.6594519951045505,-0.8905608191873877
1789317591076218400,12.31721826171875,-7.959486009788512,-5.662580940780043,-0.8672635302301496
1789317591086173200,12.327173095703126,-7.990262256324291,-5.624100695738196,-0.8340201629284769
1789317591096127200,12.337127197265625,-8.037105256041883,-5.559294169306755,-0.818274093068391
1789317591106082300,12.347082275390624,-8.10160549300313,-5.470499449044466,-0.7797476707972586
1789317591116037400,12.357037353515626,-8.15268510737717,-5.395498276335001,-0.7698784570813179
1789317591125992200,12.3669921875,-8.174474914380907,-5.3679000753134485,-0.7307550918303429
1789317591135947300,12.376947265625,-8.15841517546177,-5.397183452942967,-0.6935828606471419
1789317591145901300,12.3869013671875,-8.107308088558911,-5.473165453383326,-0.6974254344847053
1789317591155856400,12.3968564453125,-8.049725668162107,-5.553061996918917,-0.73198923673518
1789317591165811200,12.406811279296875,-8.008222275906801,-5.604519212433695,-0.7925462890285998
1789317591175766300,12.416766357421874,-7.983554283118248,-5.635429314482212,-0.8216987337548285
1789317591185721300,12.426721435546876,-7.99225898309946,-5.624952928653359,-0.8087528160072862
1789317591195675400,12.43667529296875,-8.020444044098257,-5.59013295968473,-0.7702476557198912
1789317591205630200,12.446630126953124,-8.064121857783197,-5.535590053114294,-0.7053848690565675
1789317591215585300,12.456585205078126,-8.102000045278668,-5.485114834374189,-0.6644527738831937
1789317591225540400,12.466540283203125,-8.125015010163187,-5.453808426484465,-0.6406968544382602
1789317591235495400,12.476495361328125,-8.140409563171863,-5.4321507214277975,-0.6291749050792307
1789317591245449200,12.48644921875,-8.118601051467657,-5.4631420720189805,-0.6424835186593234
1789317591255404300,12.496404296875,-8.09587893204987,-5.4961593754798175,-0.6475820839073508
1789317591265359400,12.506359375,-8.076419029298425,-5.523710230228304,-0.6561005406014621
1789317591275314400,12.516314453125,-8.05639857005477,-5.550937259849905,-0.6722521955877542
1789317591285268200,12.526268310546875,-8.033703338643909,-5.579554282525182,-0.7060935287825763
1789317591295223300,12.536223388671875,-8.000144767913222,-5.6262347851574415,-0.7166280745394528
1789317591305178400,12.546178466796874,-7.995819890451431,-5.635076847782731,-0.6950945073191076
1789317591315133400,12.556133544921876,-8.026884890800714,-5.597789027395844,-0.6358174118336289
1789317591325088300,12.566088134765625,-8.079687091183661,-5.525432231715321,-0.598865983794257
1789317591335042300,12.576042236328124,-8.126392728257178,-5.455487757873535,-0.6080987993028014
1789317591344997400,12.585997314453126,-8.146628291556238,-5.422646980023384,-0.6306628786146641
1789317591354952400,12.595952392578125,-8.146778513681888,-5.420023645782471,-0.6509424271859228
1789317591364907300,12.6059072265625,-8.116291605481505,-5.465659023275971,-0.6502026416692882
