time,seconds_elapsed,z,y,x
1789317578799481600,0.040481689453125,-0.14713428914546967,-0.984931468963623,0.36806461215019226
1789317578809436700,0.050436767578125,0.24755364656448364,-0.32017529010772705,0.7691201567649841
1789317578819391700,0.060391845703125,0.5022196769714355,0.17356358468532562,0.7704067230224609
1789317578829346600,0.0703466796875,0.34259217977523804,-0.15751208364963531,0.5088092088699341
1789317578839300600,0.080300537109375,-0.08814474195241928,-0.32049912214279175,-0.038772523403167725
1789317578849255700,0.090255615234375,-0.37439143657684326,-0.31505057215690613,-0.5122271180152893
1789317578859210800,0.100210693359375,-0.3985078036785126,0.0816645622253418,-0.4489622414112091
1789317578869165600,0.11016552734375,-0.1607988327741623,0.5429278016090393,-0.4084811210632324
1789317578879119600,0.12011962890625,0.07296525686979294,0.5238035917282104,-0.34484604001045227
1789317578889074700,0.13007470703125,0.05902733653783798,0.530474841594696,-0.15995289385318756
1789317578899029800,0.14002978515625,0.03231177479028702,-0.12295780330896378,-0.28370043635368347
1789317578908984600,0.149984619140625,-0.19529609382152557,-0.6472626328468323,0.06246176362037659
1789317578918939600,0.159939697265625,-0.3528742492198944,-1.0784538984298706,0.4863874614238739
1789317578928893400,0.1698935546875,-0.34700968861579895,-0.4230979084968567,0.8137187361717224
1789317578938848800,0.179848876953125,-0.14316673576831818,0.21289342641830444,0.7247974872589111
1789317578948803600,0.189803466796875,-0.019613368436694145,0.25128820538520813,0.3828795552253723
1789317578958758400,0.19975830078125,-0.07587534934282303,0.19102460145950317,-0.22742317616939545
1789317578968712400,0.20971240234375,-0.19378414750099182,-0.16924463212490082,-0.7001789808273315
1789317578978667500,0.21966748046875,-0.2470572590827942,-0.0714658796787262,-0.7450190186500549
1789317578988622300,0.229622314453125,-0.1317461133003235,-0.24561689794063568,-0.5331482887268066
1789317578998577400,0.239577392578125,-0.08281734585762024,0.027559509500861168,0.003400900401175022
1789317579008532500,0.249532470703125,-0.09529106318950653,-0.1085144430398941,0.48157891631126404
1789317579018486500,0.259486572265625,-0.12153341621160507,-0.032009802758693695,0.460801899433136
1789317579028441300,0.26944140625,-0.14145945012569427,-0.007716448977589607,0.1479521095752716
1789317579038396400,0.279396484375,-0.2825552523136139,0.20319870114326477,-0.05341906100511551
1789317579048351500,0.2893515625,-0.2983395457267761,0.4429559111595154,-0.46656349301338196
1789317579058305500,0.299305419921875,-0.2604592442512512,-1.0076348781585693,-0.2532220780849457
1789317579068260400,0.30926025390625,-0.2280520498752594,-0.814135730266571,0.21256719529628754
1789317579078215400,0.31921533203125,0.06266926974058151,-0.5335456132888794,0.29097092151641846
1789317579088170500,0.32917041015625,0.15067316591739655,0.27985087037086487,0.5937094688415527
1789317579098124500,0.33912451171875,0.11930615454912186,0.9412791728973389,-0.048720017075538635
1789317579108079400,0.349079345703125,-0.21544812619686127,0.21198342740535736,-0.23366855084896088
1789317579118034400,0.359034423828125,-0.5014450550079346,0.19222170114517212,-0.5744423270225525
1789317579127989500,0.368989501953125,-0.39968886971473694,-0.8003930449485779,-0.9540199637413025
1789317579137944600,0.378944580078125,-0.2453525811433792,-0.8140776753425598,-0.08287828415632248
1789317579147898400,0.3888984375,0.12324222922325134,-0.3395348787307739,0.32991835474967957
1789317579157853400,0.398853515625,0.08340296894311905,0.42028069496154785,0.9487374424934387
1789317579167808500,0.40880859375,-0.16364704072475433,0.8158493041992188,0.6822288036346436
1789317579177763600,0.418763671875,-0.5139821171760559,-0.2757026255130768,0.19606739282608032
1789317579187718400,0.428718505859375,-0.7048958539962769,-0.594910740852356,-0.3940558135509491
1789317579197672400,0.43867236328125,-0.5009956955909729,-1.0404706001281738,-0.7212262749671936
1789317579207627500,0.44862744140625,-0.3051082491874695,-0.2000850886106491,-0.27108919620513916
1789317579217582600,0.45858251953125,-0.053575966507196426,0.9431580305099487,-0.3718515932559967
1789317579227537400,0.468537353515625,-0.20195825397968292,0.7104941606521606,-0.19741961359977722
1789317579237491500,0.478491455078125,-0.7227989435195923,0.4435279667377472,-0.2160559743642807
1789317579247446500,0.488446533203125,-1.1098613739013672,-0.3447195291519165,-0.20922017097473145
1789317579257401300,0.4984013671875,-0.9899017214775085,-0.8483355045318604,-0.060295674949884415
1789317579267356400,0.5083564453125,-0.5150744915008545,-1.1945149898529053,0.39755815267562866
1789317579277311200,0.518311279296875,0.10500519722700119,-0.35407811403274536,0.6025972366333008
1789317579287265500,0.528265625,0.32076412439346313,0.4656117260456085,0.4290555417537689
1789317579297220400,0.538220458984375,0.009084582328796387,0.5437502264976501,0.08780412375926971
1789317579307175400,0.548175537109375,-0.5821079015731812,-0.4077692925930023,-0.3651180565357208
1789317579317130200,0.558130126953125,-0.9530121684074402,-0.6317638158798218,-0.6707720756530762
1789317579327084500,0.56808447265625,-0.859840989112854,-0.5731761455535889,-0.8029141426086426
1789317579337039400,0.578039306640625,-0.765372633934021,0.6174837946891785,-0.37565112113952637
1789317579346994400,0.587994384765625,-0.7413005828857422,0.7799770832061768,0.10014788806438446
1789317579356949200,0.59794921875,-0.8312221169471741,-0.35086289048194885,0.7054200768470764
1789317579366904600,0.607904541015625,-0.8166007995605469,-1.1479014158248901,0.8373069763183594
1789317579376858400,0.6178583984375,-0.3410879373550415,-1.3199491500854492,0.10769893229007721
1789317579386813400,0.6278134765625,0.04194306954741478,-0.44024813175201416,0.24305355548858643
1789317579396768300,0.637768310546875,0.1310027837753296,0.07305910438299179,0.5093819499015808
1789317579406723600,0.6477236328125,0.11818365752696991,-0.2405957579612732,0.4344528317451477
1789317579416678400,0.657678466796875,0.02749638259410858,-0.22294139862060547,-0.12718066573143005
1789317579426632400,0.667632568359375,-0.07522334158420563,-0.4736849367618561,-0.6151013374328613
1789317579436587300,0.677587158203125,-0.2541916072368622,-0.2501458525657654,-0.5944572687149048
1789317579446542600,0.68754248046875,-0.39369386434555054,-0.14799952507019043,-0.05757438391447067
1789317579456497400,0.697497314453125,-0.3339478671550751,0.25600573420524597,0.504235029220581
1789317579466451500,0.707451416015625,0.07767137885093689,0.49407315254211426,0.2418273687362671
1789317579476406300,0.71740625,0.3544774651527405,0.304607093334198,-0.17087863385677338
1789317579486361600,0.727361572265625,0.2448023557662964,-0.3963816463947296,-0.3418232202529907
1789317579496316400,0.73731640625,-0.016120852902531624,-0.896196722984314,-0.1957203447818756
1789317579506271500,0.747271484375,0.000498870387673378,-0.7171172499656677,-0.09503822028636932
1789317579516225300,0.757225341796875,0.17020171880722046,-0.4503820240497589,0.4007152020931244
1789317579526180600,0.7671806640625,0.3133314549922943,1.210944414138794,0.290346622467041
1789317579536135400,0.777135498046875,0.2868622839450836,0.5259133577346802,0.07599716633558273
1789317579546090200,0.78709033203125,0.06381829082965851,-0.14923442900180817,-0.2460908591747284
1789317579556045600,0.797045654296875,-0.01881788857281208,-1.404314637184143,-0.04162124544382095
1789317579565999600,0.80699951171875,0.23957984149456024,-0.809150755405426,0.22249561548233032
1789317579575954400,0.816954345703125,0.7482314705848694,0.03214924409985542,0.30478888750076294
1789317579585909200,0.8269091796875,0.7985063791275024,0.66898512840271,0.38327357172966003
1789317579595864600,0.836864501953125,0.4514171779155731,0.6167188882827759,-0.0750308483839035
1789317579605818600,0.846818603515625,0.10168152302503586,-0.6436071395874023,-0.45055919885635376
1789317579615773400,0.8567734375,0.008015330880880356,-0.6028128266334534,-0.5892589092254639
1789317579625728300,0.866728271484375,0.29631394147872925,-0.632867157459259,-0.1454250067472458
1789317579635683600,0.87668359375,0.720445454120636,0.31520789861679077,0.31214356422424316
1789317579645638400,0.886638427734375,0.8856839537620544,0.621761679649353,0.4846000373363495
1789317579655592400,0.896592529296875,0.6563218235969543,-0.020921703428030014,0.4284120798110962
1789317579665547300,0.90654736328125,0.32247647643089294,-0.4327191114425659,-0.1933625340461731
1789317579675502600,0.916502685546875,0.09747514128684998,-0.7668970823287964,-0.33716416358947754
1789317579685457400,0.92645751953125,0.22320404648780823,0.311016321182251,-0.4319317042827606
1789317579695412500,0.93641259765625,0.4623996317386627,0.4577620327472687,-0.09654499590396881
1789317579705366300,0.9463662109375,0.4464057385921478,0.38827458024024963,0.17693714797496796
1789317579715321600,0.956321533203125,0.30392417311668396,-0.34877362847328186,0.3085683584213257
1789317579725276400,0.9662763671875,0.2823006510734558,-0.5106945633888245,0.25481006503105164
1789317579735231500,0.9762314453125,0.4013414978981018,-0.31512510776519775,0.1117234155535698
1789317579745185300,0.986185302734375,0.35446053743362427,0.16398023068904877,0.13120949268341064
1789317579755140600,0.996140625,0.18600347638130188,0.3993679881095886,-0.1647399216890335
1789317579765095400,1.006095458984375,-0.10151778161525726,-0.09426037967205048,-0.0557045079767704
1789317579775050500,1.016050537109375,-0.17114730179309845,-0.5308810472488403,0.013765275478363037
1789317579785005300,1.02600537109375,0.039471447467803955,-0.12026558071374893,0.025178520008921623
1789317579794959600,1.035959716796875,0.34440892934799194,0.5613481402397156,-0.13870221376419067
1789317579804914400,1.04591455078125,0.3721798360347748,0.8301766514778137,-0.4626302123069763
1789317579814869500,1.055869384765625,0.04128918796777725,0.4283705949783325,-0.6703006029129028
1789317579824824300,1.06582421875,-0.3103993535041809,-0.9000237584114075,-0.5725671052932739
1789317579834779400,1.075779296875,-0.5344807505607605,-0.44621041417121887,0.15718351304531097
1789317579844733400,1.0857333984375,-0.19929102063179016,0.30206725001335144,0.2631264626979828
1789317579854688500,1.0956884765625,-0.06892213970422745,-1.1882286071777344,1.0349301099777222
1789317579864643300,1.105643310546875,-0.20137739181518555,-0.431734561920166,1.004855751991272
1789317579874598400,1.115598388671875,-0.0266360305249691,-0.20888520777225494,0.7667338848114014
1789317579884553500,1.125553466796875,0.21372303366661072,-0.1985659897327423,0.2840162217617035
1789317579894507500,1.135507568359375,0.19818173348903656,1.3341009616851807,-1.212759256362915
1789317579904462300,1.14546240234375,-0.10413312166929245,0.3936310112476349,-1.3957663774490356
1789317579914417400,1.15541748046875,-0.3183145225048065,-0.03896038606762886,-1.6260099411010742
1789317579924372500,1.16537255859375,-0.5299354791641235,-1.0711525678634644,-0.6044287085533142
1789317579934326500,1.175326416015625,-0.47362154722213745,-0.8162771463394165,0.9770066142082214
1789317579944281300,1.18528125,0.17934401333332062,0.6478965878486633,0.997892439365387
1789317579954236400,1.195236328125,0.5058521628379822,0.8234710693359375,0.9939756989479065
1789317579964191500,1.20519140625,0.21759217977523804,-0.27944886684417725,0.6871435642242432
1789317579974146300,1.215146240234375,-0.21013298630714417,-1.4278377294540405,0.19138431549072266
1789317579984100400,1.225100341796875,-0.25283944606781006,-1.5135908126831055,-0.013871373608708382
1789317579994055400,1.235055419921875,0.27435386180877686,-0.36988237500190735,-0.5289968848228455
1789317580004010500,1.245010498046875,0.7692858576774597,1.3381167650222778,-0.9043228030204773
1789317580013965300,1.25496533203125,0.49475762248039246,1.5370315313339233,-0.8734117746353149
1789317580023920600,1.264920654296875,-0.43285757303237915,0.7904680371284485,-0.3472105860710144
1789317580033874400,1.27487451171875,-0.754167914390564,-0.7095120549201965,-0.056834571063518524
1789317580043829500,1.28482958984375,-0.13835057616233826,-1.5414834022521973,0.25129663944244385
1789317580053784300,1.294784423828125,0.6526014804840088,-1.1891229152679443,0.8727065920829773
1789317580063739600,1.30473974609375,1.0247167348861694,0.46750175952911377,1.014154314994812
1789317580073694500,1.314694580078125,0.7871105670928955,0.8854015469551086,0.6953145861625671
1789317580083648500,1.3246484375,0.10569075495004654,0.006655858363956213,0.1626269668340683
1789317580093603300,1.334603271484375,-0.5126912593841553,-0.6715831160545349,-0.4379468858242035
1789317580103558700,1.34455859375,-0.5412435531616211,-0.6972834467887878,-0.7321494817733765
1789317580113513500,1.354513427734375,-0.03624662756919861,0.7316015362739563,-0.6731084585189819
1789317580123467500,1.364467529296875,0.7136667370796204,1.3292934894561768,-0.6179714202880859
1789317580133422300,1.37442236328125,0.8004991412162781,0.7297908663749695,-0.23768319189548492
1789317580143377700,1.384377685546875,0.21543963253498077,-0.5005559921264648,0.4392521381378174
1789317580153332500,1.39433251953125,0.050298094749450684,-0.31886759400367737,-0.40468648076057434
1789317580163287300,1.404287353515625,0.05611284077167511,-0.9857065677642822,-0.13747447729110718
1789317580173241300,1.414241455078125,-0.20906135439872742,-1.168599009513855,1.558167576789856
1789317580183196700,1.42419677734375,0.03299681097269058,0.8052704930305481,1.006476640701294
1789317580193151500,1.4341513671875,0.4518097937107086,1.3159513473510742,0.2194773256778717
1789317580203106300,1.444106201171875,0.3128463327884674,0.7702304124832153,0.0528997927904129
1789317580213061400,1.454061279296875,0.02188783884048462,-0.33786770701408386,-0.5448278188705444
1789317580223015400,1.464015380859375,-0.11366493254899979,0.10730947554111481,-1.1361877918243408
1789317580232970500,1.473970458984375,0.07661115378141403,0.6059613227844238,-1.150231957435608
1789317580242925300,1.48392529296875,0.2458965927362442,-0.583406925201416,-0.41076770424842834
1789317580252880400,1.49388037109375,0.23240411281585693,-0.4169553518295288,-0.12603022158145905
1789317580262834400,1.50383447265625,-0.06640122830867767,-0.6620886921882629,1.202061653137207
1789317580272789500,1.51378955078125,-0.053125545382499695,0.9272334575653076,1.4659183025360107
1789317580282744300,1.523744384765625,0.25014910101890564,0.7913528084754944,0.31916895508766174
1789317580292699400,1.533699462890625,-0.035992834717035294,-0.6729655265808105,0.19468961656093597
1789317580302654500,1.543654541015625,-0.299554705619812,-0.9297123551368713,-0.36865681409835815
1789317580312608500,1.5536083984375,-0.21978053450584412,-0.921208381652832,-0.2601810693740845
1789317580322563300,1.563563232421875,0.13618901371955872,0.355854332447052,0.07239078730344772
1789317580332518400,1.573518310546875,0.5419679880142212,1.0180367231369019,-0.21055199205875397
1789317580342473500,1.583473388671875,0.23508793115615845,0.7179531455039978,-0.014474630355834961
1789317580352428500,1.593428466796875,-0.2632026970386505,0.2274755835533142,-0.32701700925827026
1789317580362382300,1.60338232421875,-0.5332776308059692,-0.9858065843582153,0.01426094863563776
1789317580372337400,1.61333740234375,-0.3507949709892273,0.1775090992450714,-0.11196129769086838
1789317580382292500,1.62329248046875,0.19198070466518402,-0.0063017504289746284,-0.1599317491054535
1789317580392247600,1.63324755859375,0.33543261885643005,1.0473930835723877,0.11397817730903625
1789317580402201300,1.643201416015625,0.059480663388967514,0.05614190921187401,0.18255376815795898
1789317580412156400,1.653156494140625,-0.42490488290786743,-0.42720717191696167,0.1775422990322113
1789317580422111500,1.663111572265625,-0.45940878987312317,-0.8367521166801453,-0.006864557042717934
1789317580432066600,1.673066650390625,-0.17269258201122284,-0.09617650508880615,0.027201741933822632
1789317580442021400,1.683021484375,0.08150056004524231,0.5744788646697998,0.05417024344205856
1789317580451975400,1.692975341796875,0.06746617704629898,0.5281811356544495,-0.024969233199954033
1789317580461930500,1.702930419921875,-0.2603822350502014,0.06894905120134354,0.06991733610630035
1789317580471885600,1.712885498046875,-0.4879043996334076,-0.1709810048341751,-0.12871357798576355
1789317580481840400,1.72284033203125,-0.3183577060699463,-0.160195991396904,-0.306875079870224
1789317580491795500,1.73279541015625,-0.08057603240013123,-0.026803823187947273,-0.10441156476736069
1789317580501749500,1.74274951171875,0.02415250800549984,0.1991765797138214,0.0766756609082222
1789317580511704300,1.752704345703125,0.028375383466482162,0.3989786207675934,-0.03508174046874046
1789317580521659400,1.762659423828125,-0.14228956401348114,0.36278626322746277,-0.4396715760231018
1789317580531614500,1.772614501953125,-0.5215992331504822,-0.36256343126296997,-0.24887225031852722
1789317580541569500,1.782569580078125,-0.7331767082214355,-0.4098830223083496,0.2128106951713562
1789317580551523300,1.7925234375,-0.47373175621032715,-0.3197110891342163,0.39851444959640503
1789317580561478400,1.802478515625,-0.0975504070520401,0.22978639602661133,0.5237980484962463
1789317580571433500,1.81243359375,0.14973297715187073,0.01459180936217308,0.15827332437038422
1789317580581388500,1.822388427734375,-0.08647077530622482,-0.5222103595733643,0.11516102403402328
1789317580591342300,1.83234228515625,-0.474359393119812,-0.24331483244895935,0.045363739132881165
1789317580601297400,1.84229736328125,-0.5564790964126587,-0.008082615211606026,-0.19001655280590057
1789317580611252500,1.85225244140625,-0.3621218204498291,0.7159760594367981,-0.40323692560195923
1789317580621207600,1.86220751953125,-0.18520565330982208,0.6085739731788635,-0.6613009572029114
1789317580631162400,1.872162353515625,-0.3464711606502533,0.3909966051578522,-0.2789890170097351
1789317580641116400,1.882116455078125,-0.3736867904663086,-0.2899792790412903,-0.248737633228302
1789317580651071500,1.892071533203125,-0.3470146656036377,-0.5892773270606995,0.09083516895771027
1789317580661026600,1.902026611328125,-0.24750910699367523,0.01867121085524559,0.3681567907333374
1789317580670981400,1.9119814453125,-0.1196075975894928,0.043061524629592896,0.3327576518058777
1789317580680935400,1.921935302734375,-0.28160688281059265,-0.23692165315151215,0.5162313580513
1789317580690890500,1.931890380859375,-0.4489302337169647,-0.7494270205497742,0.43756216764450073
1789317580700845600,1.941845458984375,-0.3612954616546631,-0.40787583589553833,0.1509796679019928
1789317580710800400,1.95180029296875,-0.05862576514482498,0.3206667900085449,-0.23335804045200348
1789317580720755500,1.96175537109375,0.09884747862815857,0.3402186334133148,-0.3849419951438904
1789317580730709500,1.97170947265625,-0.03392033278942108,0.6034225821495056,-0.5264134407043457
1789317580740664600,1.98166455078125,-0.21022212505340576,-0.15605846047401428,-0.7645817995071411
1789317580750619400,1.991619384765625,-0.3951795697212219,-0.788079023361206,-0.19192230701446533
1789317580760574500,2.001574462890625,-0.3290085196495056,-0.6774659752845764,0.5067694783210754
1789317580770529500,2.011529541015625,-0.03406037762761116,0.20679078996181488,0.7662786245346069
1789317580780483600,2.021483642578125,0.1664290428161621,0.6618810892105103,0.7751134037971497
1789317580790438400,2.0314384765625,0.11646496504545212,0.21455848217010498,0.17652766406536102
1789317580800393200,2.041393310546875,-0.09378255158662796,-0.5130184292793274,-0.5034154653549194
1789317580810348500,2.0513486328125,-0.14098358154296875,-1.184817910194397,-0.713570773601532
1789317580820302600,2.061302490234375,-0.0799841359257698,-0.4521205425262451,-0.4063465893268585
1789317580830257400,2.07125732421875,0.10478804260492325,0.8164246082305908,-0.07129687070846558
1789317580840212200,2.081212158203125,0.27110591530799866,1.2853816747665405,-0.057389840483665466
1789317580850167600,2.09116748046875,0.006644328590482473,0.3198145627975464,0.09685008227825165
1789317580860122400,2.101122314453125,-0.4134022295475006,-1.0736935138702393,0.2201232761144638
1789317580870076400,2.111076416015625,-0.34872835874557495,-1.3107987642288208,0.22344377636909485
1789317580880031200,2.12103125,0.1419377475976944,-0.7418564558029175,0.4450102746486664
1789317580889986600,2.130986572265625,0.5016961693763733,0.1752547025680542,0.5338103175163269
1789317580899941400,2.14094140625,0.4115428626537323,0.6562623381614685,0.36498743295669556
1789317580909896400,2.150896484375,0.06708969175815582,0.1652391403913498,0.06394147127866745
1789317580919850200,2.160850341796875,-0.1506572812795639,-0.3402743637561798,-0.5537678003311157
1789317580929805600,2.1708056640625,-0.12324201315641403,-0.46052998304367065,-0.7290827035903931
1789317580939760400,2.180760498046875,0.16448616981506348,0.4773346781730652,-0.678350031375885
1789317580949715500,2.190715576171875,0.46693840622901917,0.03391570225358009,-0.17384035885334015
1789317580959669800,2.200669677734375,0.46962979435920715,0.21751375496387482,0.23945029079914093
1789317580969625000,2.210625,0.4076368510723114,-0.465360164642334,0.4066397547721863
1789317580979580000,2.220579833984375,0.32507699728012085,-0.5560932755470276,0.32533612847328186
1789317580989535000,2.230534912109375,0.3100758194923401,-0.6164324879646301,0.08991257101297379
1789317580999489800,2.24048974609375,0.31121858954429626,-0.5716767311096191,0.40114930272102356
1789317581009444000,2.250444091796875,0.4554481506347656,0.17453168332576752,0.21476620435714722
1789317581019399000,2.26039892578125,0.5385470390319824,0.2130175530910492,0.015012608841061592
1789317581029354000,2.27035400390625,0.47889232635498047,0.07970661669969559,-0.0357588529586792
1789317581039308800,2.280308837890625,0.546248197555542,-0.19589193165302277,-0.5889397263526917
1789317581049263900,2.290263916015625,0.4714144468307495,0.06694555282592773,-0.43928131461143494
1789317581059218000,2.300218017578125,0.5197372436523438,0.8619478344917297,-0.6505396962165833
1789317581069172700,2.3101728515625,0.5395699739456177,0.2343348115682602,-0.5060352683067322
1789317581079127800,2.3201279296875,0.35900184512138367,-0.13629864156246185,-0.022681908681988716
1789317581089083000,2.330082763671875,0.26122787594795227,-1.1494202613830566,0.5091344118118286
1789317581099038000,2.340037841796875,0.23031072318553925,-0.6375138163566589,1.1910626888275146
1789317581108991700,2.34999169921875,0.5966429710388184,0.3641594350337982,0.7266209125518799
1789317581118946800,2.35994677734375,0.7991769313812256,0.10404261201620102,0.44596046209335327
1789317581128902000,2.36990185546875,0.604752242565155,0.5769851207733154,-0.4525388479232788
1789317581138857000,2.37985693359375,0.21262675523757935,-0.22603091597557068,-0.8471391797065735
1789317581148810800,2.389810791015625,-0.012779740616679192,-0.2725728452205658,-0.6410526633262634
1789317581158765800,2.399765869140625,0.24530400335788727,-0.1318594366312027,-0.6001899242401123
1789317581168721000,2.409720947265625,0.522884726524353,-0.0517030768096447,0.05760020762681961
1789317581178676000,2.419676025390625,0.6578721404075623,0.9121652245521545,0.062142759561538696
1789317581188630800,2.429630859375,0.37558430433273315,0.28668031096458435,0.2511654198169708
1789317581198584800,2.439584716796875,-0.12555894255638123,-0.12297271192073822,0.27051621675491333
1789317581208540000,2.449539794921875,-0.3576563894748688,-1.170090675354004,0.3209255337715149
1789317581218495000,2.459494873046875,-0.08267170190811157,-0.787855863571167,0.3362429738044739
1789317581228449800,2.46944970703125,0.5789881944656372,-0.1650136560201645,-0.0583697147667408
1789317581238404900,2.47940478515625,0.7146629095077515,0.30601802468299866,0.12838232517242432
1789317581248359000,2.48935888671875,0.3370821475982666,0.5185561776161194,-0.016393478959798813
1789317581258314000,2.49931396484375,-0.22100776433944702,-0.2720530033111572,0.054662857204675674
1789317581268268800,2.509268798828125,-0.3916197419166565,-0.24252839386463165,-0.02190965786576271
1789317581278224000,2.519223876953125,0.04315781593322754,-0.10448530316352844,-0.3676460385322571
1789317581288178000,2.529177978515625,0.43947315216064453,0.48407065868377686,-0.21173076331615448
1789317581298133000,2.539133056640625,0.5160573720932007,0.3010992407798767,-0.053383197635412216
1789317581308087800,2.549087890625,0.22066791355609894,-0.08793856203556061,0.2858947217464447
1789317581318043000,2.55904296875,0.016117963939905167,-0.05360615625977516,0.3743194043636322
1789317581327998000,2.568998046875,0.10692846775054932,-0.29504621028900146,0.16024667024612427
1789317581337952000,2.578951904296875,0.2246982455253601,0.2601461708545685,0.11541847884654999
1789317581347906800,2.58890673828125,0.34158286452293396,0.3455955684185028,-0.01315027941018343
1789317581357862000,2.59886181640625,0.37649959325790405,-0.11588524281978607,-0.0950041338801384
1789317581367817000,2.60881689453125,0.4198058247566223,-0.08030249178409576,-0.2962879240512848
1789317581377771000,2.61877099609375,0.44410133361816406,0.41845592856407166,-0.41994142532348633
1789317581387725800,2.628725830078125,0.4245905578136444,0.5360904335975647,-0.3357655704021454
1789317581397681000,2.638680908203125,0.2488861083984375,0.5211317539215088,-0.19574160873889923
1789317581407636000,2.648635986328125,0.009481899440288544,-0.548831045627594,0.5857120752334595
1789317581417590800,2.6585908203125,0.13932910561561584,-0.5739244222640991,0.7924162745475769
1789317581427544800,2.668544921875,0.45482760667800903,-0.06888231635093689,0.7690732479095459
1789317581437500000,2.6785,0.6239532232284546,0.7414589524269104,0.3283839821815491
1789317581447455000,2.688455078125,0.38630494475364685,0.3466392755508423,-0.1258285492658615
1789317581457409800,2.698409912109375,-0.10297660529613495,0.04511697217822075,-0.20952798426151276
1789317581467364900,2.70836474609375,-0.1725897192955017,-0.10412897914648056,-0.5380637049674988
1789317581477319000,2.71831884765625,0.16079144179821014,0.17003147304058075,-0.4715864360332489
1789317581487274000,2.72827392578125,0.5578567385673523,0.43143802881240845,-0.18135714530944824
1789317581497228800,2.738228759765625,0.5165960788726807,0.7249881625175476,0.16732573509216309
1789317581507183900,2.748183837890625,0.1809627115726471,0.6841573119163513,0.06395188719034195
1789317581517139000,2.758138916015625,-0.27310624718666077,-0.1920737624168396,0.05125873163342476
1789317581527093000,2.768093017578125,-0.5463742017745972,-0.9239445328712463,0.21618632972240448
1789317581537047800,2.7780478515625,-0.2737501263618469,-0.7121622562408447,0.15016469359397888
1789317581547003000,2.7880029296875,0.16688182950019836,-0.20926204323768616,0.5189278721809387
1789317581556958000,2.7979580078125,0.35425543785095215,0.7304719090461731,0.422970712184906
1789317581566912000,2.807912109375,0.012668183073401451,0.7869492173194885,0.2136021852493286
1789317581576866800,2.81786669921875,-0.4392276406288147,0.008106721565127373,-0.18171504139900208
1789317581586822000,2.82782177734375,-0.5743743181228638,-0.2917979657649994,-0.6816324591636658
1789317581596777000,2.83777685546875,-0.3600255846977234,-0.12953874468803406,-0.7545738220214844
1789317581606731800,2.847731689453125,0.011634998954832554,0.35016876459121704,-0.4633720815181732
1789317581616685800,2.857685791015625,0.21556255221366882,0.3992849290370941,0.06279078125953674
1789317581626641000,2.867640869140625,0.03863302618265152,0.07503117620944977,0.5138485431671143
1789317581636596000,2.877595947265625,-0.24627754092216492,-0.48782339692115784,0.8274298906326294
1789317581646550800,2.88755078125,-0.2549445331096649,-0.16992159187793732,0.406606525182724
1789317581656504800,2.8975048828125,-0.14053989946842194,-0.06774649024009705,0.21438966691493988
1789317581666460000,2.9074599609375,0.038754988461732864,0.5181431174278259,-0.15717068314552307
1789317581676415000,2.9174150390625,0.12854932248592377,0.5384824872016907,-0.4024776518344879
1789317581686369800,2.927369873046875,0.033017564564943314,0.48533961176872253,-0.44830307364463806
1789317581696324900,2.937324951171875,-0.07736273854970932,-0.33454087376594543,-0.26702621579170227
1789317581706279000,2.94727880859375,-0.06626392155885696,-0.22744345664978027,0.08237692713737488
1789317581716234000,2.95723388671875,0.12351852655410767,0.809975266456604,0.03249752148985863
1789317581726188800,2.967188720703125,0.2485460638999939,0.8560377955436707,0.12548284232616425
1789317581736144000,2.977143798828125,0.20457246899604797,0.466324120759964,-0.22774499654769897
1789317581746099000,2.987098876953125,-0.12621678411960602,-0.6898478865623474,-0.008503088727593422
1789317581756053000,2.997052978515625,-0.27773627638816833,-1.1180660724639893,0.3781588673591614
1789317581766007800,3.0070078125,0.02644754759967327,-0.2871086597442627,0.40206611156463623
1789317581775963000,3.016962890625,0.4497878849506378,1.450979471206665,0.16423119604587555
1789317581785918000,3.02691796875,0.49778130650520325,1.673279047012329,-0.277455598115921
1789317581795873000,3.036873046875,-0.06093871220946312,0.4784422814846039,-0.40349820256233215
1789317581805826800,3.046826904296875,-0.5368942022323608,-0.806738018989563,-0.43155336380004883
1789317581815782000,3.056781982421875,-0.4018540680408478,-1.0691875219345093,0.014274174347519875
1789317581825737000,3.066737060546875,0.22814615070819855,0.24774810671806335,0.27888956665992737
1789317581835692000,3.076692138671875,0.5959920287132263,1.0362768173217773,0.5339687466621399
1789317581845645800,3.086645751953125,0.3235853612422943,1.066489815711975,0.5813038349151611
1789317581855601000,3.096600830078125,-0.15020111203193665,-0.29590317606925964,0.18652082979679108
1789317581865556000,3.106555908203125,-0.513968288898468,-0.6466228365898132,-0.10707487910985947
1789317581875511000,3.116510986328125,-0.37252888083457947,0.03897225856781006,-0.36425530910491943
1789317581885465900,3.1264658203125,0.08990217000246048,0.9867233633995056,-0.3941892385482788
1789317581895420000,3.136419921875,0.3922513723373413,0.9152308106422424,-0.4363801181316376
1789317581905375000,3.146375,0.2320377230644226,-0.06614295393228531,-0.11285755038261414
1789317581915330000,3.156330078125,-0.09012220054864883,-0.35234329104423523,0.17217497527599335
1789317581925284900,3.166284912109375,-0.22510480880737305,-0.07827449589967728,0.3371746242046356
1789317581935239700,3.17623974609375,-0.20901665091514587,0.32516032457351685,0.577701210975647
1789317581945194000,3.186194091796875,-0.14581532776355743,0.037307240068912506,0.5442003011703491
1789317581955149000,3.196149169921875,-0.18501518666744232,-0.009189419448375702,0.3154618740081787
1789317581965103600,3.206103515625,-0.17303967475891113,0.1155780553817749,-0.032647065818309784
1789317581975058400,3.216058349609375,-0.11323359608650208,0.44766518473625183,-0.5096072554588318
1789317581985012500,3.226012451171875,-0.22889292240142822,0.37811118364334106,-0.5659237504005432
1789317581994967800,3.2359677734375,-0.4081534743309021,0.05259992554783821,-0.2820425033569336
1789317582004922600,3.245922607421875,-0.49055033922195435,0.21864692866802216,0.011757642030715942
1789317582014877400,3.25587744140625,-0.3468773066997528,0.4276539385318756,0.23955990374088287
1789317582024832800,3.265832763671875,-0.12405586987733841,0.8910551071166992,0.02512899786233902
1789317582034786800,3.275786865234375,-0.24646808207035065,0.42358648777008057,-0.03961857408285141
1789317582044741600,3.28574169921875,-0.5262009501457214,-0.5511568188667297,0.0254026148468256
1789317582054696400,3.295696533203125,-0.6494424939155579,-1.2688997983932495,0.29948529601097107
1789317582064651800,3.30565185546875,-0.5277864933013916,-0.6927783489227295,0.5233324766159058
1789317582074605800,3.315605712890625,-0.26529359817504883,0.7546011805534363,0.4362660348415375
1789317582084560600,3.325560546875,-0.11636006832122803,1.010252833366394,0.16687937080860138
1789317582094515500,3.335515380859375,-0.35958895087242126,0.4178348779678345,-0.15012069046497345
1789317582104470800,3.345470703125,-0.7184581160545349,-0.08561178296804428,-0.5254544019699097
1789317582114425600,3.355425537109375,-0.7225489616394043,-0.05761716514825821,-0.6342042684555054
1789317582124379600,3.365379638671875,-0.3828794062137604,0.2682882845401764,-0.717406153678894
1789317582134334500,3.37533447265625,-0.0952092781662941,0.2618727385997772,-0.506779134273529
1789317582144289800,3.385289794921875,-0.0851447805762291,-0.009940676391124725,-0.05637333169579506
1789317582154244600,3.39524462890625,-0.2882576882839203,-0.769611120223999,0.5120565295219421
1789317582164199700,3.40519970703125,-0.5107278227806091,-0.6459996700286865,1.0303949117660522
1789317582174153500,3.415153564453125,-0.3904789090156555,-0.08427884429693222,0.8533026576042175
1789317582184108800,3.42510888671875,-0.21072295308113098,0.2584494650363922,0.37601205706596375
1789317582194063600,3.435063720703125,-0.23122742772102356,0.25922125577926636,-0.15390107035636902
1789317582204018700,3.445018798828125,-0.2028321623802185,-0.11082836985588074,-0.6343899369239807
1789317582213973800,3.454973876953125,-0.13766728341579437,-0.47986873984336853,-0.7262394428253174
1789317582223927800,3.464927734375,-0.052194077521562576,0.41091758012771606,-0.7415990233421326
1789317582233882600,3.474882568359375,0.015403877943754196,-0.09847988188266754,-0.374898225069046
1789317582243837700,3.484837646484375,-0.23717550933361053,0.21394620835781097,0.17553113400936127
1789317582253792800,3.494792724609375,-0.39627060294151306,-0.044857658445835114,0.48726266622543335
1789317582263746800,3.504746826171875,-0.29436764121055603,0.005163691006600857,0.41813504695892334
1789317582273701600,3.51470166015625,-0.13157151639461517,-0.17600901424884796,0.08042678982019424
1789317582283656700,3.52465673828125,-0.11362504214048386,-0.3101692199707031,0.041023481637239456
1789317582293611500,3.534611572265625,-0.04534904658794403,-0.23894856870174408,-0.021393822506070137
1789317582303566600,3.544566650390625,0.016905155032873154,0.04461739957332611,-0.17165187001228333
1789317582313520600,3.554520751953125,-0.053433988243341446,0.4110233783721924,-0.31549930572509766
1789317582323475700,3.564475830078125,-0.18734510242938995,0.24947969615459442,-0.42095914483070374
1789317582333430500,3.574430419921875,-0.2760280668735504,-0.07654021680355072,-0.3759077787399292
1789317582343385600,3.584385498046875,-0.255958616733551,-0.24610047042369843,-0.2229764312505722
1789317582353340700,3.594340576171875,-0.2105833888053894,-0.5914642810821533,0.19856229424476624
1789317582363294700,3.604294677734375,-0.12561988830566406,-0.4538499414920807,0.6097539067268372
1789317582373249500,3.61424951171875,0.0072231111116707325,0.19136475026607513,0.7253747582435608
1789317582383204600,3.62420458984375,0.09614787995815277,0.24716490507125854,0.48775359988212585
1789317582393159700,3.63415966796875,-0.0444268137216568,-0.11776673048734665,-0.1469397395849228
1789317582403114500,3.644114501953125,-0.33181869983673096,-0.5916224718093872,-0.510178804397583
1789317582413068500,3.654068603515625,-0.31774601340293884,-0.4651561379432678,-0.6281448602676392
1789317582423023600,3.664023681640625,-0.022673074156045914,0.15187808871269226,-0.5171566605567932
1789317582432978700,3.673978759765625,0.16089275479316711,0.7974796891212463,-0.19107042253017426
1789317582442933500,3.68393359375,0.0406474769115448,0.36471495032310486,0.12390953302383423
1789317582452887600,3.693887451171875,-0.24106329679489136,-0.7444290518760681,0.42141151428222656
1789317582462842600,3.703842529296875,-0.2842387855052948,-1.059483289718628,0.3941732943058014
1789317582472797700,3.713797607421875,-0.07064953446388245,-0.895959734916687,0.5690047740936279
1789317582482752500,3.72375244140625,0.17422007024288177,0.23393751680850983,0.49929794669151306
1789317582492707800,3.733707763671875,0.1378849595785141,0.46395769715309143,0.29557546973228455
1789317582502661600,3.74366162109375,-0.09378208965063095,0.18907921016216278,-0.1791328489780426
1789317582512616700,3.75361669921875,-0.30196884274482727,-0.26881617307662964,-0.6303035020828247
1789317582522571500,3.763571533203125,-0.2864881753921509,0.03998508304357529,-0.8031391501426697
1789317582532526800,3.77352685546875,-0.03059648722410202,0.05564739927649498,-0.5597118735313416
1789317582542481700,3.783481689453125,0.09462772309780121,0.07943477481603622,0.1855282485485077
1789317582552435700,3.793435791015625,0.12130620330572128,-0.10605279356241226,0.5332654714584351
1789317582562390500,3.803390625,0.0013992850435897708,-0.06472057104110718,0.48895013332366943
1789317582572345900,3.813345947265625,-0.19837480783462524,-0.2780722677707672,0.29950642585754395
1789317582582300700,3.82330078125,-0.30045172572135925,-0.3573721647262573,-0.05440184473991394
1789317582592254700,3.833254638671875,-0.3162626624107361,-0.1222296953201294,0.021726209670305252
1789317582602209500,3.84320947265625,-0.1316078007221222,0.281093567609787,-0.13843120634555817
1789317582612164600,3.85316455078125,-0.09189046919345856,0.12079950422048569,-0.07897719740867615
1789317582622119700,3.86311962890625,-0.17577537894248962,0.06799858808517456,-0.16714440286159515
1789317582632074500,3.873074462890625,-0.22674214839935303,-0.06663459539413452,-0.2692478895187378
1789317582642028500,3.883028564453125,-0.265868604183197,0.3644110858440399,-0.4083835482597351
1789317582651983600,3.892983642578125,-0.32156941294670105,0.12514735758304596,-0.36946436762809753
1789317582661938700,3.902938720703125,-0.4266865849494934,-0.36619865894317627,0.03653865307569504
1789317582671893500,3.9128935546875,-0.4515852928161621,-0.8771977424621582,0.4850730299949646
1789317582681848800,3.922848876953125,-0.3871748745441437,-0.512583315372467,0.7485620975494385
1789317582691802600,3.932802734375,-0.21349336206912994,0.30869239568710327,0.41762304306030273
1789317582701757700,3.9427578125,-0.22356587648391724,0.3589271008968353,-0.129862442612648
1789317582711712500,3.95271240234375,-0.5158373713493347,-0.03482819348573685,-0.35801011323928833
1789317582721667600,3.96266748046875,-0.7149733901023865,-0.403837651014328,-0.5205744504928589
1789317582731621600,3.97262158203125,-0.6495289206504822,-0.5365251302719116,-0.315247118473053
1789317582741576700,3.98257666015625,-0.36044564843177795,0.047074656933546066,-0.1217847466468811
1789317582751531500,3.992531494140625,-0.19668494164943695,0.2198035567998886,0.18954624235630035
1789317582761486600,4.002486572265625,-0.3097439706325531,0.4023803472518921,0.2952561378479004
1789317582771441700,4.012441650390625,-0.5036361813545227,-0.16885706782341003,0.0754966288805008
1789317582781395700,4.022395751953125,-0.699303388595581,-0.6805561184883118,0.06403587013483047
1789317582791350500,4.0323505859375,-0.5940576195716858,-0.664101779460907,-0.039468418806791306
1789317582801305600,4.0423056640625,-0.24620327353477478,-0.07916343212127686,-0.07344310730695724
1789317582811260700,4.0522607421875,0.0203570444136858,0.579555094242096,-0.19352610409259796
1789317582821215700,4.0622158203125,-0.10179975628852844,0.1395561546087265,-0.0624057874083519
1789317582831169500,4.07216943359375,-0.38608208298683167,-0.6650644540786743,0.16337168216705322
1789317582841124600,4.08212451171875,-0.479945570230484,-0.6233604550361633,0.14874936640262604
1789317582851079700,4.09207958984375,-0.21479856967926025,-0.4609103202819824,0.10236960649490356
1789317582861034800,4.10203466796875,0.11457277834415436,0.28396734595298767,0.02345012128353119
1789317582870988500,4.111988525390625,0.14625321328639984,0.3637316823005676,-0.0416114404797554
1789317582880943600,4.121943603515625,-0.039827581495046616,-0.011022166348993778,0.013294078409671783
1789317582890898700,4.131898681640625,-0.08419744670391083,-0.5253070592880249,-0.15626618266105652
1789317582900853800,4.141853759765625,-0.046757157891988754,-0.49228790402412415,-0.30709266662597656
1789317582910808600,4.15180859375,-0.002311929129064083,-0.2900378704071045,-0.033600933849811554
1789317582920762600,4.1617626953125,0.15060874819755554,-0.061209991574287415,0.05699552595615387
1789317582930717700,4.1717177734375,0.1865110844373703,0.28000113368034363,0.11257463693618774
1789317582940672500,4.181672607421875,0.10891376435756683,0.4348762333393097,-0.013521134853363037
1789317582950627600,4.191627685546875,0.02776644565165043,0.09818048775196075,-0.11142346262931824
1789317582960583000,4.2015830078125,0.0028091880958527327,-0.5664311051368713,-0.03314919024705887
1789317582970537000,4.211536865234375,0.10941232740879059,-1.0294502973556519,0.19127511978149414
1789317582980491800,4.22149169921875,0.3529040813446045,-0.4177294969558716,0.3055678904056549
1789317582990446800,4.23144677734375,0.4827621877193451,0.4431477189064026,0.21130049228668213
1789317583000402000,4.24140185546875,0.31321001052856445,0.22322045266628265,0.09686323255300522
1789317583010357000,4.25135693359375,-0.09688801318407059,-0.10848664492368698,0.052028920501470566
1789317583020310800,4.261310791015625,-0.27040258049964905,-0.24107375741004944,-0.28191235661506653
1789317583030265900,4.271265869140625,-0.05438294634222984,-0.021196261048316956,-0.3739953935146332
1789317583040221000,4.281220947265625,0.3319011330604553,0.11193434149026871,-0.19632822275161743
1789317583050176000,4.291176025390625,0.556983232498169,0.099955715239048,-0.06964191794395447
1789317583060129800,4.3011298828125,0.4731481969356537,0.049160730093717575,-0.045825302600860596
1789317583070084900,4.3110849609375,0.23500674962997437,-0.561230480670929,0.001048993319272995
1789317583080040000,4.3210400390625,0.014024793170392513,-0.59657883644104,0.11875198781490326
1789317583089995000,4.3309951171875,-0.006285805255174637,-0.5160584449768066,0.3025657534599304
1789317583099949800,4.34094970703125,0.11432702839374542,-0.08206656575202942,0.536847710609436
1789317583109904000,4.35090380859375,0.30554652214050293,0.08575119823217392,0.5963075757026672
1789317583119859000,4.36085888671875,0.5162748694419861,0.4033541977405548,-0.06497108936309814
1789317583129814000,4.37081396484375,0.4046423137187958,0.27162227034568787,-0.272691011428833
1789317583139768800,4.380768798828125,0.23603689670562744,0.3928762674331665,-0.9087737202644348
1789317583149724000,4.390723876953125,0.10716040432453156,-0.42765939235687256,-0.8695648312568665
1789317583159678000,4.400677978515625,0.11520929634571075,-0.011953242123126984,-0.44544535875320435
1789317583169633000,4.410633056640625,0.3031078279018402,-0.1570662260055542,0.10830597579479218
1789317583179587800,4.420587890625,0.35163092613220215,0.3707840144634247,0.8875529766082764
1789317583189543000,4.43054296875,0.48496606945991516,0.2917693555355072,0.5982252955436707
1789317583199498000,4.440498046875,0.3695929944515228,-0.46720752120018005,0.39545750617980957
1789317583209452000,4.4504521484375,0.18132132291793823,-0.779923677444458,0.08805070072412491
1789317583219406800,4.46040673828125,0.18902692198753357,-0.755116879940033,-0.03305823355913162
1789317583229362000,4.47036181640625,0.3997596502304077,0.088044174015522,-0.05097704753279686
1789317583239317000,4.48031689453125,0.6249898076057434,0.697394847869873,-0.19576039910316467
1789317583249271000,4.49027099609375,0.562255322933197,0.8666608333587646,-0.3930644094944
1789317583259225900,4.500225830078125,0.2431425154209137,0.2824709415435791,-0.38755083084106445
1789317583269181000,4.510180908203125,0.05515984073281288,-0.5755915641784668,-0.2215229570865631
1789317583279136000,4.520135986328125,0.14852264523506165,-0.6153413653373718,0.15050745010375977
1789317583289090800,4.5300908203125,0.46045178174972534,0.012623735703527927,0.31474462151527405
1789317583299044900,4.540044921875,0.6596015691757202,0.5725182294845581,0.40488728880882263
1789317583308999700,4.549999755859375,0.5731655359268188,0.2336818128824234,0.24565447866916656
1789317583318955000,4.559955078125,0.23602326214313507,-0.5402228832244873,0.11914914846420288
1789317583328909800,4.569909912109375,0.07534090429544449,-0.6952977180480957,0.08256610482931137
1789317583338863900,4.57986376953125,0.25790783762931824,-0.04533195495605469,-0.10176680237054825
1789317583348818700,4.589818603515625,0.5320591926574707,0.630064845085144,-0.3077617883682251
1789317583358774000,4.59977392578125,0.5555013418197632,0.73518306016922,-0.4647979140281677
1789317583368728800,4.609728759765625,0.30079495906829834,0.21700643002986908,-0.36794939637184143
1789317583378684000,4.619683837890625,0.0657099261879921,-0.40970298647880554,0.05586739256978035
1789317583388637700,4.6296376953125,0.10156406462192535,-0.4204387068748474,0.3403286635875702
1789317583398593000,4.639593017578125,0.3382313549518585,0.2373068928718567,0.24633805453777313
1789317583408547800,4.6495478515625,0.4436967968940735,0.7936950325965881,0.047530680894851685
1789317583418503000,4.6595029296875,0.38623473048210144,0.2712249159812927,-0.411550909280777
1789317583428458000,4.6694580078125,0.03433050215244293,-0.38720864057540894,-0.15452229976654053
1789317583438412000,4.679412109375,-0.07021749764680862,-0.5037967562675476,0.004780984949320555
1789317583448366800,4.689366943359375,0.12827561795711517,0.3500331938266754,0.017441652715206146
1789317583458322000,4.699322021484375,0.28443410992622375,0.8290871381759644,0.07567013055086136
1789317583468277000,4.709277099609375,0.21154046058654785,0.28383710980415344,-0.02786530926823616
1789317583478231000,4.71923095703125,-0.1105063259601593,-0.5401278138160706,0.12712273001670837
1789317583488185900,4.729185791015625,-0.2525913119316101,-0.8641357421875,0.1755658984184265
1789317583498141000,4.739140869140625,-0.05236619710922241,-0.41385194659233093,0.36900097131729126
1789317583508096000,4.749095947265625,0.2774694859981537,0.6175218820571899,0.22313641011714935
1789317583518050800,4.75905078125,0.26259666681289673,0.7825376987457275,-0.07284838706254959
1789317583528004900,4.7690048828125,-0.10736729949712753,0.33168986439704895,-0.30529841780662537
1789317583537960000,4.7789599609375,-0.35129213333129883,-0.7155036926269531,-0.4051990807056427
1789317583547915000,4.7889150390625,-0.2778059244155884,-0.3185608685016632,-0.28887778520584106
1789317583557869800,4.798869873046875,-0.012689156457781792,-0.08679872751235962,0.08448582142591476
1789317583567824000,4.808823974609375,0.10347899794578552,0.5712226033210754,0.22115471959114075
1789317583577779000,4.818779052734375,-0.1284703016281128,0.04755749925971031,0.46787333488464355
1789317583587734000,4.828734130859375,-0.41308149695396423,-0.3929634094238281,0.36840561032295227
1789317583597688800,4.838688720703125,-0.5372602939605713,-0.3948556184768677,0.3629579544067383
1789317583607644000,4.848643798828125,-0.32059183716773987,0.19917336106300354,0.05817778408527374
1789317583617597700,4.85859765625,-0.09423834085464478,0.48304903507232666,-0.16550350189208984
1789317583627553000,4.868552978515625,-0.08417291939258575,0.7365681529045105,-0.4776587188243866
1789317583637507800,4.8785078125,-0.18830567598342896,0.18904535472393036,-0.7362421154975891
1789317583647463000,4.888462890625,-0.3210088908672333,-0.25045931339263916,-0.5750423073768616
1789317583657418000,4.89841796875,-0.3382570445537567,-0.23913075029850006,-0.10869495570659637
1789317583667372000,4.9083720703125,-0.33640560507774353,0.039627913385629654,0.6707526445388794
1789317583677326800,4.918326904296875,-0.20402373373508453,0.4211116135120392,0.8071566224098206
1789317583687282000,4.928281982421875,-0.08161314576864243,0.2663305699825287,0.35248151421546936
1789317583697236700,4.93823681640625,-0.23706141114234924,-0.5836018919944763,0.02424158714711666
1789317583707191000,4.94819091796875,-0.3944547474384308,-0.9086723923683167,-0.035549044609069824
1789317583717145900,4.958145751953125,-0.2763384282588959,-0.09619463980197906,-0.15139266848564148
1789317583727101000,4.968100830078125,-0.12427965551614761,0.4815555214881897,-0.06016075983643532
1789317583737055700,4.9780556640625,-0.14903511106967926,0.5641151070594788,-0.13013005256652832
1789317583747011000,4.988010986328125,-0.3695845305919647,0.3336251974105835,-0.2624649107456207
1789317583756964900,4.99796484375,-0.4572853446006775,0.07577448338270187,-0.3440166711807251
1789317583766920000,5.007919921875,-0.3328310251235962,-0.09054924547672272,-0.27560165524482727
1789317583776874800,5.017874755859375,-0.2060287743806839,-0.26594796776771545,-0.1278887838125229
1789317583786829800,5.027829833984375,-0.1705397516489029,-0.4998105466365814,0.305691659450531
1789317583796783900,5.037783935546875,-0.1551966518163681,-0.24488984048366547,0.3821146786212921
1789317583806739000,5.047739013671875,-0.21284477412700653,-0.058354850858449936,0.4096808135509491
1789317583816693800,5.05769384765625,-0.2521885633468628,0.06163335591554642,0.22720089554786682
1789317583826648800,5.06764892578125,-0.3167760670185089,-0.09790916740894318,-0.1620648354291916
1789317583836604000,5.07760400390625,-0.4277319610118866,-0.1603589653968811,-0.2499980628490448
1789317583846558000,5.087557861328125,-0.3710651993751526,0.08175192773342133,-0.3444007337093353
1789317583856512800,5.0975126953125,-0.195184588432312,-0.08320929110050201,-0.11592689901590347
1789317583866467800,5.1074677734375,-0.08761046081781387,0.3235028088092804,0.10801592469215393
1789317583876423000,5.1174228515625,-0.041291628032922745,0.33679673075675964,0.01596779376268387
1789317583886377000,5.127376953125,-0.12573273479938507,0.371064692735672,-0.27698633074760437
1789317583896331800,5.137331787109375,-0.31109344959259033,-0.3426632583141327,-0.41691678762435913
1789317583906286800,5.147286865234375,-0.4703204035758972,-1.0684388875961304,-0.027286723256111145
1789317583916242000,5.157241943359375,-0.3770124912261963,-0.6163691282272339,0.4121107757091522
1789317583926196700,5.16719677734375,-0.04953876510262489,0.2541878819465637,0.5919000506401062
1789317583936150800,5.17715087890625,0.11360985785722733,0.7635198831558228,0.44104230403900146
1789317583946105900,5.18710595703125,-0.07683198899030685,0.17014014720916748,0.07483422011137009
1789317583956061000,5.19706103515625,-0.31983956694602966,-0.3886917531490326,-0.4419625997543335
1789317583966015000,5.207014892578125,-0.36590373516082764,-0.5305261015892029,-0.5780647993087769
1789317583975970000,5.216969970703125,-0.12552675604820251,-0.24128204584121704,-0.3861919343471527
1789317583985924000,5.226924072265625,0.2052367925643921,0.2746947705745697,-0.16839224100112915
1789317583995879200,5.236879150390625,0.2219356894493103,0.5139778852462769,0.040663786232471466
1789317584005834000,5.246833984375,-0.05303969606757164,-0.10422354191541672,0.2596462070941925
1789317584015789000,5.2567890625,-0.31813520193099976,-0.32249438762664795,0.30972445011138916
1789317584025743000,5.2667431640625,-0.23633301258087158,-0.0645536258816719,0.037855375558137894
1789317584035698200,5.2766982421875,0.028145229443907738,-0.01173807680606842,-0.06866704672574997
1789317584045653000,5.286653076171875,0.1943480521440506,-0.09112584590911865,-0.18135417997837067
1789317584055608000,5.296608154296875,0.1976635903120041,-0.41284075379371643,-0.10964177548885345
1789317584065563000,5.30656298828125,0.12247936427593231,-0.21125836670398712,0.1167713850736618
1789317584075517200,5.31651708984375,0.07453951984643936,-0.09035832434892654,0.17531874775886536
1789317584085472000,5.326471923828125,-0.01577199622988701,0.23841796815395355,0.2024526298046112
1789317584095427000,5.336427001953125,-0.055211104452610016,0.20900815725326538,0.11711176484823227
1789317584105382000,5.3463818359375,0.021104440093040466,0.025724878534674644,-0.06923361122608185
1789317584115336200,5.356336181640625,0.2123052477836609,-0.132237046957016,-0.31156936287879944
1789317584125291000,5.366291015625,0.3830522298812866,-0.37727051973342896,-0.29107099771499634
1789317584135246000,5.37624609375,0.32196202874183655,-0.2035764753818512,0.05414700135588646
1789317584145201000,5.386200927734375,0.22098961472511292,-0.0997408926486969,0.35682323575019836
1789317584155156200,5.39615625,0.20424431562423706,0.3261965215206146,0.29851847887039185
1789317584165110000,5.406110107421875,0.2530571520328522,0.19879010319709778,-0.041231103241443634
1789317584175065000,5.416065185546875,0.19435343146324158,-0.2086561918258667,-0.11160367727279663
1789317584185020000,5.42602001953125,0.2500523626804352,-0.42612379789352417,-0.02898550033569336
1789317584194975200,5.435975341796875,0.4607917070388794,-0.18409627676010132,-0.03413659334182739
1789317584204929000,5.445928955078125,0.5313745141029358,0.04855402186512947,0.012385635636746883
1789317584214884000,5.455884033203125,0.38030076026916504,-0.17820188403129578,0.282076358795166
1789317584224839000,5.4658388671875,0.2068176418542862,0.14963378012180328,0.2000046670436859
1789317584234794200,5.475794189453125,0.16585008800029755,0.5956725478172302,-0.009847914800047874
1789317584244749000,5.4857490234375,0.237958624958992,0.6311173439025879,-0.3118394613265991
1789317584254703000,5.495703125,0.25275900959968567,-0.1787521094083786,-0.6094864010810852
1789317584264658000,5.505657958984375,0.15016289055347443,-0.657602846622467,-0.09165552258491516
1789317584274613200,5.51561328125,0.41558313369750977,-0.411487340927124,0.016916697844862938
1789317584284568000,5.525568115234375,0.5477912425994873,-0.10949765145778656,0.6140453219413757
1789317584294523000,5.53552294921875,0.44059622287750244,0.47399985790252686,0.6474530696868896
1789317584304477000,5.545476806640625,0.2447931468486786,0.0781707838177681,0.21175271272659302
1789317584314432300,5.555432373046875,-0.05452069267630577,-0.12598583102226257,-0.0958452969789505
1789317584324387000,5.565386962890625,-0.060021452605724335,-0.5086999535560608,-0.3895013928413391
1789317584334342000,5.575341796875,0.13522669672966003,-0.17550702393054962,-0.043860673904418945
1789317584344296000,5.5852958984375,0.45273357629776,0.5162271857261658,0.19800840318202972
1789317584354251300,5.595251220703125,0.612434983253479,0.8599933385848999,-0.13657242059707642
1789317584364206000,5.6052060546875,0.34332364797592163,0.591453492641449,-0.38232067227363586
1789317584374161000,5.615160888671875,0.005115692503750324,-0.3993728756904602,-0.6488651037216187
1789317584384115000,5.625114990234375,-0.263723760843277,-1.0630733966827393,-0.11642653495073318
1789317584394070300,5.6350703125,-0.1185385212302208,-0.880033552646637,0.6822682023048401
1789317584404025000,5.645025146484375,0.341646671295166,0.22588297724723816,0.9492504000663757
1789317584413980000,5.65497998046875,0.5607472658157349,0.9306315779685974,0.8410876989364624
1789317584423935200,5.664935302734375,0.4030609428882599,0.4954284727573395,0.14979714155197144
1789317584433889000,5.674888916015625,-0.01514288317412138,-0.37516874074935913,-0.3983353078365326
1789317584443844000,5.684843994140625,-0.2556481659412384,-0.8192058801651001,-0.7546942234039307
1789317584453799000,5.694798828125,-0.09255260229110718,-0.04064882919192314,-0.7387299537658691
1789317584463754200,5.704754150390625,0.3250238597393036,0.5754950642585754,-0.48900002241134644
1789317584473708000,5.7147080078125,0.3383263647556305,0.41451844573020935,0.11036179959774017
1789317584483663000,5.7246630859375,0.0967281237244606,-0.010386781767010689,0.5194078683853149
1789317584493618000,5.734617919921875,0.08193641155958176,-0.18366724252700806,0.21744908392429352
1789317584503573200,5.7445732421875,0.019877033308148384,-0.2294432520866394,0.06826945394277573
1789317584513528000,5.754528076171875,-0.056959010660648346,-0.02849683351814747,-0.10007677227258682
1789317584523482000,5.764482177734375,-0.03556210920214653,-0.006679419428110123,-0.19352124631404877
1789317584533437000,5.77443701171875,0.03600803762674332,-0.1695583462715149,-0.02106664329767227
1789317584543392000,5.78439208984375,0.1586277037858963,-0.07201021164655685,0.02167363092303276
1789317584553347000,5.79434716796875,0.28001296520233154,-0.10565607249736786,0.1282699704170227
1789317584563301000,5.804301025390625,0.2963719666004181,-0.03080073744058609,0.12013988196849823
1789317584573256000,5.814255859375,0.18477843701839447,-0.10088048130273819,0.0855715200304985
1789317584583211000,5.8242109375,0.11509016156196594,0.06899936497211456,-0.251842737197876
1789317584593166000,5.834166015625,-0.03868316859006882,-0.17527614533901215,-0.22102460265159607
1789317584603121200,5.84412109375,-0.1289251744747162,0.016671188175678253,0.07111537456512451
1789317584613075000,5.854074951171875,0.03752484172582626,-0.1672360748052597,0.42478588223457336
1789317584623030000,5.864030029296875,0.21746744215488434,0.18802587687969208,0.37246382236480713
1789317584632985000,5.873985107421875,0.3081226944923401,-0.32701265811920166,0.19484896957874298
1789317584642940200,5.883940185546875,0.2893194258213043,0.02273867093026638,-0.10413774102926254
1789317584652895000,5.89389501953125,0.28225237131118774,0.26354727149009705,-0.4701250493526459
1789317584662849000,5.90384912109375,0.11263883858919144,0.4449061453342438,-0.5153330564498901
1789317584672804000,5.91380419921875,-0.09948685020208359,-0.1115214079618454,-0.18788984417915344
1789317584682759200,5.92375927734375,-0.20434881746768951,-0.4543621242046356,0.3659789264202118
1789317584692714000,5.9337138671875,-0.0746091827750206,-0.20796512067317963,0.7437587976455688
1789317584702668000,5.94366796875,0.25281980633735657,0.4994215965270996,0.5399242043495178
1789317584712623000,5.953623046875,0.390634685754776,0.8279954791069031,0.04143211245536804
1789317584722578200,5.963578125,0.1990191787481308,0.12492495775222778,-0.4974299967288971
1789317584732533000,5.973532958984375,-0.13735438883304596,-0.646336019039154,-0.5869388580322266
1789317584742487000,5.983487060546875,-0.1886146366596222,-0.8843970894813538,-0.24095405638217926
1789317584752442000,5.993442138671875,0.09912388771772385,-0.23975872993469238,0.2195930927991867
1789317584762397000,6.00339697265625,0.30376890301704407,0.6198686361312866,0.6420913934707642
1789317584772352000,6.01335205078125,0.24183151125907898,1.1547317504882812,0.4149470031261444
1789317584782307000,6.02330712890625,-0.06429671496152878,0.6621349453926086,-0.2408342957496643
1789317584792261000,6.03326123046875,-0.4015809893608093,-0.7663551568984985,-0.30416619777679443
1789317584802216000,6.0432158203125,-0.39492788910865784,-1.122794508934021,-0.24823154509067535
1789317584812171000,6.0531708984375,-0.0909353569149971,-0.6037894487380981,0.3070577085018158
1789317584822126000,6.0631259765625,0.36165130138397217,1.1039797067642212,0.37255656719207764
1789317584832081200,6.0730810546875,0.4708191156387329,1.019817590713501,-0.0893135815858841
1789317584842035000,6.083034912109375,-0.12020528316497803,0.32516247034072876,-0.24623927474021912
1789317584851990000,6.092989990234375,-0.6406435966491699,-1.0745729207992554,-0.4341523349285126
1789317584861945000,6.102945068359375,-0.5985725522041321,-0.7542234063148499,-0.23676815629005432
1789317584871900200,6.112900146484375,0.029164336621761322,0.7362732887268066,-0.06812535971403122
1789317584881854000,6.12285400390625,0.45192891359329224,0.42067351937294006,0.1963835209608078
1789317584891809000,6.13280908203125,0.12011002749204636,-0.044524796307086945,0.6238359212875366
1789317584901764000,6.14276416015625,-0.2452777922153473,-1.0549163818359375,0.5928189158439636
1789317584911719200,6.15271923828125,-0.2770383656024933,-0.5926603674888611,0.2818949520587921
1789317584921673000,6.1626728515625,-0.06566859036684036,0.058375224471092224,0.09292314946651459
1789317584931628000,6.1726279296875,0.06072385981678963,0.6409803032875061,-0.17188771069049835
1789317584941583000,6.1825830078125,-0.012616134248673916,0.8751038312911987,-0.42227014899253845
1789317584951538200,6.1925380859375,-0.06039521470665932,0.2865796387195587,-0.4876079559326172
1789317584961493000,6.202492919921875,0.002382416743785143,0.22608114778995514,-0.6488487720489502
1789317584971447600,6.212447509765625,0.1029193252325058,0.17452073097229004,-0.49831706285476685
1789317584981402600,6.222402587890625,0.20485980808734894,0.27803993225097656,-0.2718106806278229
1789317584991357400,6.232357421875,0.19282224774360657,-0.08087082207202911,0.0660867691040039
1789317585001312500,6.2423125,0.07041723281145096,-0.31712037324905396,0.5661059021949768
1789317585011266600,6.2522666015625,0.015182798728346825,-0.20630569756031036,0.7285980582237244
1789317585021221600,6.2622216796875,-0.011873053386807442,-0.6659119129180908,1.1179457902908325
1789317585031176400,6.272176513671875,0.14059586822986603,0.025408748537302017,0.514187216758728
1789317585041131500,6.282131591796875,0.3519035577774048,0.5247586369514465,-0.28237012028694153
1789317585051086300,6.29208642578125,0.42492300271987915,1.002179503440857,-0.995395839214325
1789317585061040400,6.302040283203125,0.33231452107429504,0.9198819994926453,-1.522444725036621
1789317585070995500,6.311995361328125,0.05886339023709297,-0.05007880926132202,-0.9644366502761841
1789317585080950500,6.321950439453125,0.008750153705477715,-0.382049560546875,-0.22633646428585052
1789317585090905300,6.3319052734375,0.26109781861305237,-0.4263283312320709,0.7017050981521606
1789317585100859400,6.341859375,0.5370494723320007,0.24851562082767487,1.0212889909744263
1789317585110814500,6.351814453125,0.43356361985206604,0.08434103429317474,1.3007774353027344
1789317585120769500,6.36176953125,0.2317870855331421,-0.1253562718629837,0.8266844153404236
1789317585130724400,6.371724365234375,0.08210932463407516,-0.3804953396320343,0.06443385779857635
1789317585140679700,6.3816796875,0.006217221729457378,-0.15308348834514618,-0.3165920376777649
1789317585150633500,6.391633544921875,0.17852818965911865,0.19066694378852844,-0.5139402747154236
1789317585160588500,6.401588623046875,0.42025771737098694,0.9333213567733765,-0.548352837562561
1789317585170543400,6.41154345703125,0.5008016228675842,1.0702013969421387,-0.6918725371360779
1789317585180498700,6.421498779296875,0.3018914461135864,0.2748161852359772,-0.5285667181015015
1789317585190452500,6.431452392578125,0.05942855775356293,-0.007397129200398922,-0.18122245371341705
1789317585200407600,6.441407470703125,0.01761453039944172,-0.5103710889816284,0.3987884819507599
1789317585210362400,6.4513623046875,0.12213672697544098,0.08422493189573288,0.7750705480575562
1789317585220317700,6.461317626953125,0.23716451227664948,-0.019298000261187553,1.0417160987854004
1789317585230272500,6.4712724609375,0.26127028465270996,0.1292816400527954,0.6908175945281982
1789317585240226600,6.4812265625,0.2381279319524765,-0.14245560765266418,-0.03835587948560715
1789317585250181400,6.491181396484375,0.10639049112796783,-0.18192313611507416,-0.36842191219329834
1789317585260136700,6.50113671875,0.031839024275541306,0.14120885729789734,-0.5596746802330017
1789317585270091500,6.511091552734375,-0.0400233194231987,0.8789084553718567,-0.3457042872905731
1789317585280045600,6.521045654296875,-0.05349784716963768,0.9981973171234131,-0.18617427349090576
1789317585290000400,6.53100048828125,-0.07261972874403,0.7573649883270264,-0.3593497574329376
1789317585299955700,6.540955810546875,-0.1596558392047882,0.1731196641921997,-0.1944289654493332
1789317585309910500,6.55091064453125,-0.10736547410488129,-0.5945690274238586,0.08742284029722214
1789317585319865300,6.560865234375,0.015636615455150604,-0.9338568449020386,0.5641973614692688
1789317585329819400,6.5708193359375,0.1338161826133728,-0.10253908485174179,0.8679380416870117
1789317585339774700,6.580774658203125,0.2366352379322052,0.4120478332042694,0.5943983793258667
1789317585349729500,6.5907294921875,-0.022175181657075882,0.6784334182739258,0.13236457109451294
1789317585359684400,6.600684326171875,-0.42746463418006897,0.1731894165277481,-0.14942769706249237
1789317585369638400,6.610638427734375,-0.510698139667511,-0.37223929166793823,-0.46532759070396423
1789317585379593700,6.62059375,-0.35910484194755554,-0.4718119502067566,-0.10323487967252731
1789317585389548500,6.630548583984375,0.00432929489761591,0.3227674961090088,-0.10710233449935913
1789317585399503400,6.64050341796875,0.2734057903289795,1.364405632019043,-0.3588637411594391
1789317585409458700,6.650458740234375,0.15159723162651062,0.822525143623352,-0.32197338342666626
1789317585419412700,6.660412841796875,-0.16593119502067566,-0.1773185133934021,-0.42684438824653625
1789317585429367600,6.670367431640625,-0.4154600501060486,-0.7596453428268433,-0.05406897887587547
1789317585439322400,6.680322265625,-0.30812135338783264,-0.3892502188682556,0.19400687515735626
1789317585449277700,6.690277587890625,-0.04133929684758186,-0.16185832023620605,0.4240146577358246
1789317585459231500,6.7002314453125,0.06520765274763107,-0.01259027048945427,0.7822157144546509
1789317585469186600,6.7101865234375,0.12862466275691986,-0.07288959622383118,0.5569710731506348
1789317585479141400,6.720141357421875,-0.03890015929937363,-0.031173307448625565,0.48510992527008057
1789317585489096400,6.730096435546875,-0.11202418059110641,0.11401078850030899,-0.21084994077682495
1789317585499051500,6.740051513671875,-0.08867864310741425,0.36972564458847046,-0.7612454295158386
1789317585509005600,6.750005615234375,-0.032065123319625854,0.7968082427978516,-1.1441699266433716
1789317585518960400,6.75996044921875,0.06883911788463593,0.09142477810382843,-1.250916600227356
1789317585528915500,6.76991552734375,-0.03923700749874115,0.4448017477989197,-0.5884717702865601
1789317585538870500,6.77987060546875,-0.11841544508934021,-0.34361112117767334,0.5138111710548401
1789317585548824600,6.789824462890625,-0.15408457815647125,0.20015712082386017,0.8524240255355835
1789317585558779400,6.799779296875,-0.1389186680316925,-0.11838356405496597,0.8342509269714355
1789317585568734500,6.809734375,-0.1199132427573204,-0.5607700347900391,0.6677112579345703
1789317585578689500,6.819689453125,-0.11765514314174652,-0.7783939838409424,0.5230939388275146
1789317585588644600,6.82964453125,0.02232208102941513,-0.314924031496048,0.15503178536891937
1789317585598598400,6.839598388671875,0.17807254195213318,0.35128459334373474,-0.30059754848480225
1789317585608553500,6.849553466796875,0.1918567270040512,1.091978669166565,-0.8376160264015198
1789317585618508500,6.859508544921875,-0.07161510735750198,0.785705029964447,-1.123818278312683
1789317585628463600,6.869463623046875,-0.436363160610199,0.2535124719142914,-0.798450231552124
1789317585638417400,6.87941748046875,-0.4127555787563324,-0.8095066547393799,-0.09281029552221298
1789317585648372500,6.88937255859375,-0.12034890055656433,-0.5351139903068542,0.5945521593093872
1789317585658327600,6.89932763671875,0.1828615665435791,-0.28674566745758057,1.1161266565322876
1789317585668282600,6.90928271484375,0.17969022691249847,0.0442090705037117,1.2733217477798462
1789317585678237400,6.919237548828125,-0.06144995614886284,0.23608210682868958,0.7670185565948486
1789317585688191500,6.92919140625,-0.3300395607948303,0.1613423377275467,-0.11296174675226212
1789317585698146600,6.939146484375,-0.42304807901382446,0.14639854431152344,-1.1547828912734985
1789317585708101600,6.9491015625,-0.48385244607925415,-0.1479124277830124,-1.2357767820358276
1789317585718056400,6.959056396484375,-0.4033679962158203,-0.12093594670295715,-0.5952867269515991
1789317585728010500,6.969010498046875,-0.11373940855264664,0.2940404713153839,0.19736707210540771
1789317585737965600,6.978965576171875,0.1010834127664566,0.9405667781829834,0.4331452548503876
1789317585747920600,6.988920654296875,-0.051200009882450104,0.4020686745643616,0.24553188681602478
1789317585757875500,6.99887548828125,-0.46682971715927124,-0.5801706314086914,0.11897128820419312
1789317585767830500,7.00883056640625,-0.6403818130493164,-1.614417552947998,0.24144554138183594
1789317585777784600,7.01878466796875,-0.43976932764053345,-0.9965939521789551,0.4202323257923126
1789317585787739400,7.028739501953125,-0.015391804277896881,0.5721315145492554,0.4278315603733063
1789317585797694500,7.038694580078125,0.18033935129642487,0.7906521558761597,0.19060996174812317
1789317585807649500,7.0486494140625,-0.20779132843017578,0.5324075222015381,-0.21046757698059082
1789317585817603600,7.058603515625,-0.5853444933891296,-0.15525051951408386,-0.6241598129272461
1789317585827558400,7.068558349609375,-0.5552974343299866,-0.12103503197431564,-0.927175760269165
1789317585837513500,7.078513427734375,-0.3860604465007782,-0.36311212182044983,-0.3750782608985901
1789317585847468500,7.088468505859375,-0.1739266961812973,-0.08824189752340317,0.27329155802726746
1789317585857423600,7.098423583984375,-0.026812072843313217,-0.18543103337287903,0.6830897331237793
1789317585867377400,7.10837744140625,-0.13602782785892487,-0.25247663259506226,0.8503445982933044
1789317585877332500,7.11833251953125,-0.2890815734863281,-0.10488134622573853,0.37054336071014404
1789317585887287600,7.12828759765625,-0.36019405722618103,-0.03570333123207092,-0.22667548060417175
1789317585897242600,7.13824267578125,-0.38511937856674194,0.22149516642093658,-0.6386521458625793
1789317585907196400,7.148196533203125,-0.2741004526615143,-0.1852576732635498,-0.8084692358970642
1789317585917151500,7.1581513671875,-0.12756802141666412,-0.14588923752307892,-0.43007612228393555
1789317585927106600,7.1681064453125,-0.03961923345923424,-0.10052599012851715,0.2457909882068634
1789317585937061600,7.1780615234375,-0.06644099950790405,-0.3078770637512207,0.7057164907455444
1789317585947016400,7.188016357421875,-0.13249295949935913,-0.27064263820648193,0.7771159410476685
1789317585956970500,7.197970458984375,-0.07589732855558395,0.05774644389748573,0.1578252762556076
1789317585966925000,7.207925048828125,-0.037471164017915726,-0.05750131234526634,-0.3819599747657776
1789317585976880000,7.217880126953125,-0.1442633867263794,-0.05358273535966873,-0.4080461859703064
1789317585986835200,7.227835205078125,-0.10293808579444885,-0.2885949909687042,-0.3211933970451355
1789317585996789200,7.237789306640625,0.004634180571883917,0.11180782318115234,-0.005474567878991365
1789317586006744000,7.247744140625,0.25258493423461914,0.679989755153656,-0.2537606358528137
1789317586016699100,7.25769921875,0.3175748586654663,0.17275533080101013,-0.1982092410326004
1789317586026654200,7.267654296875,0.084524005651474,-0.2678854465484619,-0.011438943445682526
1789317586036608300,7.277608154296875,0.013429327867925167,-0.4895763099193573,-0.1278260052204132
1789317586046563000,7.28756298828125,0.02119394950568676,-0.34001049399375916,0.3920304775238037
1789317586056518100,7.29751806640625,0.2177187204360962,-0.06678667664527893,0.43171051144599915
1789317586066473200,7.30747314453125,0.33681827783584595,0.1837850660085678,0.4861883521080017
1789317586076428300,7.31742822265625,0.38287070393562317,0.27664095163345337,0.16975022852420807
1789317586086382000,7.327382080078125,0.31610366702079773,0.10156823694705963,-0.4506775140762329
1789317586096337200,7.337337158203125,0.21015886962413788,-0.01499912329018116,-0.7318423390388489
1789317586106292200,7.347292236328125,0.2353202998638153,0.09676734358072281,-0.760272204875946
1789317586116247300,7.357247314453125,0.22192193567752838,0.005996959283947945,-0.144475057721138
1789317586126201000,7.367201171875,0.25263914465904236,0.03878474608063698,0.5052496194839478
1789317586136156200,7.37715625,0.35696980357170105,-0.15828837454319,0.8127198219299316
1789317586146111200,7.387111328125,0.3824772536754608,-0.13737080991268158,0.6105058193206787
1789317586156066300,7.39706640625,0.3247319459915161,-0.15827690064907074,0.20880179107189178
1789317586166021000,7.407021240234375,0.25666800141334534,-0.3110424876213074,0.009947290644049644
1789317586175975200,7.41697509765625,0.276122123003006,-0.05408633500337601,-0.09648434817790985
1789317586185930200,7.42693017578125,0.329281210899353,0.5020003318786621,-0.2680042088031769
1789317586195885000,7.436885009765625,0.394656240940094,1.0236432552337646,-0.6785494089126587
1789317586205840100,7.446840087890625,0.3280123472213745,0.5247921943664551,-0.9138860106468201
1789317586215794200,7.456794189453125,0.11368300765752792,-0.7528305649757385,-0.3978463411331177
1789317586225749200,7.466749267578125,0.04229408875107765,-1.097835659980774,0.3644995391368866
1789317586235704000,7.4767041015625,0.22719283401966095,0.15784429013729095,0.8056601285934448
1789317586245659100,7.4866591796875,0.39960578083992004,0.7806947827339172,0.9763834476470947
1789317586255614200,7.4966142578125,0.21809910237789154,0.6565126776695251,0.429619699716568
1789317586265568300,7.506568359375,-0.21434825658798218,-0.3259753882884979,-0.008979910984635353
1789317586275523000,7.516523193359375,-0.33386749029159546,-1.045013666152954,-0.2972159683704376
1789317586285478100,7.52647802734375,-0.05506647750735283,-0.7854939699172974,-0.43350401520729065
1789317586295433200,7.53643310546875,0.20249049365520477,0.6084902882575989,-0.12825967371463776
1789317586305387300,7.54638720703125,0.34793245792388916,1.5239065885543823,-0.308475524187088
1789317586315342000,7.556342041015625,0.00012524065095931292,1.1014845371246338,-0.19354788959026337
1789317586325297200,7.566297119140625,-0.47388264536857605,-0.177320659160614,-0.1529809981584549
1789317586335252200,7.576252197265625,-0.5670735836029053,-0.9489479064941406,-0.15701542794704437
1789317586345206300,7.586206298828125,-0.25969207286834717,-0.6302029490470886,0.3220883309841156
1789317586355161000,7.5961611328125,0.300113707780838,-0.2520239055156708,0.35622501373291016
1789317586365116200,7.6061162109375,0.40588805079460144,0.2125197947025299,0.6453579664230347
1789317586375071200,7.6160712890625,0.10342030227184296,0.5437629222869873,0.5018894672393799
1789317586385026300,7.6260263671875,-0.2875315546989441,-0.0669664517045021,-0.0006189364939928055
1789317586394980000,7.63597998046875,-0.5628124475479126,-0.33265966176986694,-0.16344913840293884
1789317586404935200,7.64593505859375,-0.3280068635940552,-0.15218523144721985,-0.5403662323951721
1789317586414890200,7.65589013671875,0.10644311457872391,0.3183695077896118,-0.5351019501686096
1789317586424845300,7.66584521484375,0.3726666271686554,0.6252862811088562,-0.33193349838256836
1789317586434799000,7.675799072265625,0.36705082654953003,0.02330298349261284,-0.13996753096580505
1789317586444754200,7.685754150390625,0.08037921786308289,-0.5255185961723328,0.35141798853874207
1789317586454709200,7.695709228515625,-0.0896923765540123,-0.378471314907074,0.26741310954093933
1789317586464664300,7.705664306640625,-0.0799364522099495,-0.33466553688049316,0.24755649268627167
1789317586474619100,7.715619140625,0.0727716013789177,-0.02547493204474449,0.3488495647907257
1789317586484573200,7.7255732421875,0.3312482535839081,0.28695619106292725,0.08227218687534332
1789317586494528300,7.7355283203125,0.410080224275589,0.04227480664849281,-0.025293417274951935
1789317586504483300,7.7454833984375,0.3863353729248047,0.18957318365573883,-0.44190219044685364
1789317586514438100,7.755438232421875,0.21276330947875977,-0.17544925212860107,-0.4937174618244171
1789317586524392200,7.76539208984375,0.02507096715271473,-0.40964391827583313,-0.23933281004428864
1789317586534347300,7.77534716796875,0.02019098959863186,-0.3042096495628357,-0.003228662069886923
1789317586544302300,7.78530224609375,0.1704409420490265,0.2349664866924286,0.42321693897247314
1789317586554257200,7.795257080078125,0.44101065397262573,1.0829252004623413,0.2584356963634491
1789317586564211200,7.805211181640625,0.533691942691803,1.075541377067566,-0.44481006264686584
1789317586574166300,7.815166259765625,0.21169818937778473,-0.007117505185306072,-0.8018555045127869
1789317586584121300,7.825121337890625,-0.13013385236263275,-1.2037585973739624,-0.6272497177124023
1789317586594076200,7.835076171875,-0.11435675621032715,-1.217850685119629,-0.028931934386491776
1789317586604031000,7.845031005859375,0.21650506556034088,-0.08900570124387741,0.6473878026008606
1789317586613985300,7.8549853515625,0.4705770015716553,0.6012930870056152,1.0670452117919922
1789317586623940400,7.8649404296875,0.26437756419181824,0.48328787088394165,1.2145662307739258
1789317586633895200,7.874895263671875,-0.03992932289838791,-0.11776838451623917,0.4681198000907898
1789317586643850000,7.88485009765625,-0.16596169769763947,-0.29473569989204407,-0.6847818493843079
1789317586653804300,7.89480419921875,-0.09548061341047287,0.192979097366333,-1.2883093357086182
1789317586663759000,7.904759033203125,0.02559611387550831,0.21165958046913147,-1.0834589004516602
1789317586673714200,7.914714111328125,0.01862449012696743,-0.2305745631456375,-0.13039055466651917
1789317586683669000,7.9246689453125,-0.04940678924322128,-0.2247299700975418,0.627025306224823
1789317586693623300,7.934623291015625,-0.07686078548431396,-0.1331222951412201,1.0696059465408325
1789317586703578000,7.944578125,-0.06543236970901489,0.31032490730285645,0.8970448970794678
1789317586713533200,7.954533203125,-0.2005113661289215,0.00479109026491642,0.5335380434989929
1789317586723488000,7.964488037109375,-0.3203108608722687,-0.3146444261074066,0.05377393215894699
1789317586733443300,7.974443359375,-0.2579319179058075,-0.17236265540122986,-0.34244880080223083
1789317586743397000,7.984397216796875,-0.10013026744127274,0.08002804964780807,-0.5526638031005859
1789317586753352200,7.994352294921875,0.06665338575839996,0.588315486907959,-0.7400525808334351
1789317586763307000,8.00430712890625,0.12270060181617737,1.189125418663025,-0.7964836955070496
1789317586773262300,8.014262451171875,-0.0599680170416832,0.18738915026187897,-0.36496293544769287
1789317586783216000,8.024216064453125,-0.3735267221927643,-0.6886244416236877,0.3036356270313263
1789317586793171200,8.034171142578124,-0.376276433467865,-1.1751437187194824,1.0233080387115479
1789317586803126000,8.0441259765625,0.00243825139477849,-0.9429453015327454,1.1611768007278442
1789317586813081300,8.054081298828125,0.227608785033226,-0.1046709418296814,1.0199086666107178
1789317586823036200,8.0640361328125,0.2507263422012329,0.8672147989273071,0.3104029595851898
1789317586832990200,8.073990234375,-0.008265801705420017,0.7706860899925232,-0.44594305753707886
1789317586842945000,8.083945068359375,-0.44826167821884155,0.23058800399303436,-1.057077169418335
1789317586852900400,8.093900390625,-0.573378324508667,0.653688907623291,-1.6565216779708862
1789317586862855200,8.103855224609376,-0.2672530710697174,0.49036234617233276,-1.7062742710113525
1789317586872809200,8.113809326171875,-0.016041863709688187,0.0870944932103157,-0.6571123003959656
1789317586882764000,8.123763916015625,0.10552657395601273,-0.09229470789432526,0.5824888348579407
1789317586892719400,8.13371923828125,0.08887436240911484,0.2754151523113251,1.2110010385513306
1789317586902674200,8.143674072265625,-0.15892896056175232,-0.22238214313983917,1.3234113454818726
1789317586912629200,8.153629150390625,-0.4383017420768738,-1.368386149406433,0.9762331247329712
1789317586922583000,8.1635830078125,-0.6494559049606323,-1.705085039138794,1.1619421243667603
1789317586932538400,8.173538330078125,-0.37535783648490906,-0.8805631995201111,1.1225297451019287
1789317586942493200,8.1834931640625,0.15376527607440948,0.19186033308506012,0.6109225749969482
1789317586952448300,8.1934482421875,0.26929453015327454,1.2545933723449707,0.0374440960586071
1789317586962402000,8.203402099609375,0.1601865291595459,1.881281852722168,-1.423169732093811
1789317586972357600,8.213357666015625,-0.22739368677139282,0.6251627802848816,-2.508513927459717
1789317586982312700,8.223312744140625,-0.6135661602020264,-0.4674723148345947,-2.6779580116271973
1789317586992267500,8.233267578125,-0.43110236525535583,-0.46751970052719116,-1.6892322301864624
1789317587002222600,8.24322265625,0.17387829720973969,-0.10076994448900223,0.03315303474664688
1789317587012176600,8.2531767578125,0.49411168694496155,0.6739124655723572,1.3345738649368286
1789317587022131700,8.263131591796874,0.31831252574920654,-0.3719172775745392,2.1499135494232178
1789317587032086500,8.27308642578125,-0.0863015428185463,-0.8617042899131775,1.786096453666687
1789317587042041600,8.28304150390625,-0.320616215467453,-1.0396543741226196,0.7187134027481079
1789317587051995600,8.29299560546875,-0.2640474736690521,-0.6888437867164612,0.18045447766780853
1789317587061950700,8.30295068359375,-0.011554144322872162,0.11373703181743622,-0.021826859563589096
1789317587071905500,8.312905517578125,0.2535667419433594,0.6768746972084045,-0.10142901539802551
1789317587081860600,8.322860595703125,0.39822250604629517,1.1166880130767822,-0.6742694973945618
1789317587091815700,8.332815673828126,0.38984155654907227,0.7540592551231384,-1.4388432502746582
1789317587101769700,8.342769775390625,0.07856829464435577,-0.2361661046743393,-1.4700045585632324
1789317587111724500,8.352724609375,-0.40181535482406616,-0.5129518508911133,-0.571214497089386
1789317587121679600,8.3626796875,-0.4858434498310089,-0.4246963560581207,0.828152060508728
1789317587131634700,8.372634765625,-0.029988039284944534,0.981691300868988,1.3508371114730835
1789317587141588700,8.382588623046875,0.44239625334739685,0.5839425921440125,0.9768093824386597
1789317587151543600,8.39254345703125,0.30642935633659363,-0.25294455885887146,0.23049098253250122
1789317587161498600,8.40249853515625,0.012412302196025848,-0.9573966860771179,-0.49163901805877686
1789317587171453700,8.41245361328125,0.017043806612491608,-1.3228133916854858,-0.6902953386306763
1789317587181408800,8.42240869140625,0.05404853820800781,0.05588757246732712,-0.18729367852210999
1789317587191362600,8.432362548828126,0.2050550878047943,0.7964596748352051,0.17248234152793884
1789317587201317600,8.442317626953125,0.1869114190340042,1.4258631467819214,0.12544560432434082
1789317587211272700,8.452272705078125,-0.037950992584228516,0.696884036064148,-0.08013710379600525
1789317587221227500,8.4622275390625,-0.19801731407642365,-0.7944378852844238,-0.23141923546791077
1789317587231181600,8.472181640625,-0.20374470949172974,-1.2210978269577026,0.07196646183729172
1789317587241136600,8.48213671875,0.10395846515893936,-1.157034993171692,0.3377912938594818
1789317587251091700,8.492091796875,0.4008322060108185,0.32776492834091187,0.4402313828468323
1789317587261046500,8.502046630859375,0.5527988076210022,1.3869494199752808,0.020996803417801857
1789317587271001600,8.512001708984375,0.1443798542022705,0.7288039922714233,-0.1352710872888565
1789317587280955600,8.52195556640625,-0.49677714705467224,-0.20168165862560272,-0.302698016166687
1789317587290910700,8.53191064453125,-0.6764382719993591,-0.8669174909591675,-0.11769140511751175
1789317587300865500,8.541865478515625,-0.10123627632856369,-0.1106310710310936,-0.4441099166870117
1789317587310820600,8.551820556640624,0.6368449330329895,0.8110423684120178,-0.40389007329940796
1789317587320774700,8.561774658203126,0.7325682044029236,0.6622409224510193,-0.01254838053137064
1789317587330729700,8.571729736328125,0.2322281450033188,-0.023040778934955597,0.2625180780887604
1789317587340684500,8.5816845703125,-0.3150661289691925,-0.5314036011695862,0.39163318276405334
1789317587350639600,8.5916396484375,-0.3999517261981964,-0.27952101826667786,0.058587342500686646
1789317587360594700,8.6015947265625,-0.19651737809181213,-0.5420717000961304,0.3741151988506317
1789317587370548700,8.611548828125,0.14324764907360077,0.029771849513053894,0.4842459559440613
1789317587380503600,8.621503662109374,0.4695083498954773,0.2919429838657379,0.24710100889205933
1789317587390458600,8.631458740234375,0.4997037947177887,0.36560922861099243,-0.10870716720819473
1789317587400413700,8.64141357421875,0.1842910796403885,0.41017913818359375,-0.4563068151473999
1789317587410367700,8.65136767578125,-0.22771698236465454,-0.050742145627737045,-0.7318289279937744
1789317587420322600,8.661322509765625,-0.4703887701034546,-0.4426329731941223,-0.3227216899394989
1789317587430277600,8.671277587890625,-0.18578074872493744,-0.2722218334674835,-0.20811280608177185
1789317587440232700,8.681232666015624,0.1565217524766922,0.2063244879245758,0.32689160108566284
1789317587450187800,8.691187744140626,0.4661659002304077,0.18558752536773682,0.4537220001220703
1789317587460141600,8.7011416015625,0.4176694452762604,0.09634284675121307,0.16932876408100128
1789317587470096600,8.7110966796875,0.013845019042491913,-0.5085012912750244,0.07281340658664703
1789317587480051700,8.7210517578125,-0.2215382158756256,-0.6506905555725098,-0.32035502791404724
1789317587490006800,8.7310068359375,-0.15926019847393036,-0.17581620812416077,-0.26240119338035583
1789317587499961600,8.740961669921875,0.16541804373264313,0.22757649421691895,-0.10327587276697159
1789317587509915600,8.75091552734375,0.29001134634017944,0.5339118838310242,0.1522483080625534
1789317587519870700,8.76087060546875,0.17814171314239502,0.06104985624551773,0.14799831807613373
1789317587529825800,8.77082568359375,0.019065504893660545,-0.07302618771791458,-0.25712358951568604
1789317587539780600,8.780780517578124,-0.01826605200767517,-0.3957118093967438,-0.19765324890613556
1789317587549734700,8.790734619140625,0.14861933887004852,0.3527802526950836,-0.4492473900318146
1789317587559689700,8.800689697265625,0.1430303156375885,0.4656050503253937,-0.11428666859865189
1789317587569644800,8.810644775390625,0.08612096309661865,0.43984031677246094,0.07804469764232635
1789317587579599600,8.820599609375,-0.003535678144544363,-0.6270704865455627,0.3331407606601715
1789317587589554400,8.830554443359375,-0.09222613275051117,-1.1086102724075317,0.544731080532074
1789317587599508700,8.8405087890625,0.06290222704410553,-0.7768263816833496,0.4506695866584778
1789317587609463800,8.8504638671875,0.2520170211791992,-0.07398198544979095,0.6332034468650818
1789317587619418600,8.860418701171875,0.3830106258392334,0.6480761170387268,0.3482668101787567
1789317587629373400,8.87037353515625,0.1677664965391159,0.3696737289428711,-0.09528691321611404
1789317587639327700,8.88032763671875,-0.17985914647579193,0.27791908383369446,-0.5653507709503174
1789317587649282800,8.89028271484375,-0.21069562435150146,-0.2909901738166809,-0.8329771757125854
1789317587659237600,8.900237548828125,-0.08234624564647675,-0.44313740730285645,-0.2965891361236572
1789317587669192400,8.9101923828125,0.3021889328956604,0.3198148310184479,-0.10424310714006424
1789317587679147800,8.920147705078126,0.459934800863266,0.7148181200027466,0.17508064210414886
1789317587689101800,8.930101806640625,0.15050958096981049,-0.08336111158132553,0.6547098159790039
1789317587699056600,8.940056640625,-0.1934281438589096,-0.7782999277114868,0.5252156853675842
1789317587709011500,8.950011474609376,-0.35441142320632935,-1.3248440027236938,0.8767548203468323
1789317587718966800,8.959966796875,-0.1776251345872879,-0.6750715374946594,0.8818286657333374
1789317587728920600,8.969920654296875,0.19683128595352173,0.3025602102279663,0.7966155409812927
1789317587738875600,8.979875732421876,0.5481425523757935,1.0284901857376099,-0.14733509719371796
1789317587748830500,8.98983056640625,0.4917532801628113,1.7329705953598022,-1.6043791770935059
1789317587758785800,8.999785888671875,0.05532233789563179,0.055385053157806396,-1.863266944885254
1789317587768740600,9.00974072265625,-0.3068995177745819,-1.1040935516357422,-1.5105050802230835
1789317587778694700,9.019694580078125,-0.36591413617134094,-1.3833683729171753,0.24869567155838013
1789317587788649500,9.0296494140625,0.18503926694393158,-0.3069547712802887,1.2361468076705933
1789317587798604800,9.039604736328124,0.5640022158622742,1.0960026979446411,1.60398530960083
1789317587808559600,9.0495595703125,0.47984156012535095,1.0937116146087646,1.232068419456482
1789317587818513700,9.059513671875,0.03703475371003151,-0.2721600830554962,0.03771574795246124
1789317587828468500,9.069468505859374,-0.5160825252532959,-1.3084884881973267,-0.383694589138031
1789317587838423800,9.079423828125,-0.4248713552951813,-1.5552692413330078,-0.5204610824584961
1789317587848378600,9.089378662109375,0.11262325942516327,-0.04636476933956146,-0.4515177607536316
1789317587858333700,9.099333740234375,0.5454590916633606,1.4798574447631836,-0.046817630529403687
1789317587868287500,9.10928759765625,0.529730498790741,1.149809718132019,-0.26009318232536316
1789317587878242800,9.119242919921875,-0.05914262309670448,1.0113730430603027,-0.5160842537879944
1789317587888197600,9.12919775390625,-0.36873453855514526,-0.6099843978881836,-0.6626145839691162
1789317587898152700,9.139152587890624,-0.33506283164024353,-1.20885169506073,-0.3164384365081787
1789317587908107800,9.149107666015626,-0.06424012780189514,-0.9197108745574951,0.6704310178756714
1789317587918061800,9.159061767578125,0.44570353627204895,0.4724462032318115,0.8554885387420654
1789317587928016600,9.1690166015625,0.5868191719055176,0.6917157173156738,0.7656872272491455
1789317587937971700,9.1789716796875,0.18631477653980255,0.2682352662086487,0.39004889130592346
1789317587947926800,9.1889267578125,-0.2366711050271988,-0.5330728888511658,-0.005537302233278751
1789317587957880800,9.198880859375,-0.43080225586891174,-1.0084134340286255,0.25836828351020813
1789317587967836000,9.2088359375,-0.08947183191776276,0.0991424173116684,-0.4254167079925537
1789317587977790700,9.218790771484375,0.5060070157051086,2.2993483543395996,-1.147381067276001
1789317587987746000,9.22874609375,0.6474501490592957,0.8782544136047363,-1.141269326210022
1789317587997700900,9.238700927734374,0.1282537579536438,-0.24646158516407013,-0.8376731276512146
1789317588007655000,9.248655029296875,-0.16723833978176117,-0.7369495630264282,-0.22886306047439575
1789317588017609700,9.258609619140625,0.18289881944656372,0.03616451472043991,-0.013526929542422295
1789317588027565000,9.26856494140625,0.3645637035369873,0.206350639462471,0.7494223713874817
1789317588037520000,9.278519775390626,0.15901979804039001,-0.0983206108212471,1.4411617517471313
1789317588047474000,9.288473876953125,0.03735435754060745,-0.9587187170982361,1.449051022529602
1789317588057428700,9.2984287109375,0.10126657038927078,-0.7941055297851562,1.07412588596344
1789317588067384000,9.308384033203126,0.3605519235134125,0.1345137059688568,0.046227455139160156
1789317588077339000,9.3183388671875,0.5104222297668457,0.6339906454086304,-0.6992518901824951
1789317588087294000,9.3282939453125,0.2943849563598633,1.673957347869873,-1.1992065906524658
1789317588097247700,9.338247802734376,0.04326649382710457,0.708287239074707,-1.6125411987304688
1789317588107203000,9.348203125,-0.2003656029701233,0.16400739550590515,-1.3175050020217896
1789317588117158000,9.358157958984375,0.029912319034337997,0.4039219915866852,-0.692896842956543
1789317588127113000,9.368113037109374,0.4689810276031494,-0.1908705234527588,0.33350861072540283
1789317588137067800,9.37806787109375,0.4650473892688751,-0.3185538947582245,1.388310432434082
1789317588147022000,9.38802197265625,0.24748818576335907,-1.2152526378631592,1.8794382810592651
1789317588156977000,9.397976806640624,0.03167613223195076,-0.726958155632019,1.7982741594314575
1789317588166932000,9.407931884765626,0.0972713828086853,0.4716333746910095,0.7939034104347229
1789317588176886800,9.41788671875,0.16713210940361023,1.1422187089920044,-0.5775753855705261
1789317588186841000,9.427841064453125,0.049090426415205,0.9926158785820007,-1.7777574062347412
1789317588196796000,9.4377958984375,-0.12933088839054108,0.4499504566192627,-1.9111231565475464
1789317588206751000,9.4477509765625,-0.05118362605571747,-0.14438799023628235,-1.2178692817687988
1789317588216705800,9.457705810546875,0.16231773793697357,0.232656791806221,-0.23460884392261505
1789317588226660900,9.467660888671874,0.3150089979171753,0.3909614682197571,0.6466753482818604
1789317588236615000,9.477614990234375,0.19358621537685394,-0.10318221896886826,1.2455095052719116
1789317588246570000,9.487570068359375,-0.1767473667860031,-0.9242392778396606,1.703051209449768
1789317588256524800,9.49752490234375,-0.37926024198532104,-0.8519866466522217,1.4484341144561768
1789317588266479900,9.50747998046875,-0.206662118434906,0.690359890460968,0.47135287523269653
1789317588276435000,9.51743505859375,0.04966496303677559,1.020452857017517,-0.5882018208503723
1789317588286389000,9.527388916015624,-0.03151377663016319,0.8251805901527405,-1.4072004556655884
1789317588296343800,9.53734375,-0.28375348448753357,0.07215341180562973,-1.3978337049484253
1789317588306299000,9.547298828125,-0.2743607759475708,0.3212737441062927,-1.2596880197525024
1789317588316254000,9.55725390625,-0.17908301949501038,0.13848340511322021,-0.28409048914909363
1789317588326208800,9.567208740234374,-0.07581895589828491,0.731147825717926,0.35888129472732544
1789317588336162800,9.577162841796875,-0.1356503665447235,0.30931320786476135,1.0119853019714355
1789317588346118000,9.587117919921875,-0.35699528455734253,-1.0191572904586792,1.4268571138381958
1789317588356073000,9.597072998046874,-0.41904640197753906,-1.1053664684295654,0.8960189819335938
1789317588366027800,9.60702783203125,-0.22553259134292603,-0.7603046894073486,0.5396374464035034
1789317588375981800,9.61698193359375,-0.09422330558300018,0.4428643584251404,0.2197640836238861
1789317588385937000,9.62693701171875,-0.1936287134885788,1.1998182535171509,-0.020451705902814865
1789317588395892000,9.63689208984375,-0.2694436013698578,0.44015058875083923,-0.3412497043609619
1789317588405846800,9.6468466796875,-0.32230013608932495,0.8032408952713013,-1.5059218406677246
1789317588415802000,9.656802001953125,-0.30915993452072144,0.2577216625213623,-1.7608600854873657
1789317588425756000,9.666755859375,-0.2580663859844208,-0.4316256046295166,-1.0952892303466797
1789317588435711000,9.6767109375,-0.16298168897628784,-0.3627279996871948,0.08642999082803726
1789317588445665800,9.686665771484375,0.08372609317302704,-0.16697286069393158,1.0703178644180298
1789317588455621000,9.69662109375,0.16477538645267487,0.3661535978317261,1.2401444911956787
1789317588465576000,9.706575927734375,-0.02710936777293682,-0.6028359532356262,1.0849311351776123
1789317588475530000,9.716530029296875,-0.27732762694358826,-0.7101240754127502,0.4822085201740265
1789317588485484800,9.72648486328125,-0.17997898161411285,-0.8253302574157715,0.017925802618265152
1789317588495440100,9.736440185546876,0.05699918791651726,-0.0524446927011013,-0.3920382559299469
1789317588505395000,9.74639501953125,0.280202716588974,1.0563019514083862,-0.9117778539657593
1789317588515349000,9.756348876953124,0.24850216507911682,0.4663523733615875,-0.8314418792724609
1789317588525303800,9.7663037109375,-0.06587973982095718,0.13147984445095062,-0.5724595785140991
1789317588535259100,9.776259033203125,-0.18060240149497986,-0.054233014583587646,-0.293154776096344
1789317588545214000,9.7862138671875,0.04599958658218384,0.3909764289855957,-0.07793831825256348
1789317588555168800,9.796168701171876,0.2751094698905945,0.22130343317985535,0.02687707729637623
1789317588565122800,9.806122802734375,0.13838356733322144,-0.20987752079963684,0.3545529544353485
1789317588575078000,9.816077880859375,-0.0343589261174202,-0.8165666460990906,0.5705817937850952
1789317588585033000,9.826032958984374,-0.013851788826286793,-0.8538881540298462,0.5234214663505554
1789317588594987800,9.83598779296875,0.0696149468421936,-0.5425448417663574,0.6526545882225037
1789317588604942800,9.84594287109375,0.27963900566101074,0.22818884253501892,0.15137654542922974
1789317588614897000,9.85589697265625,0.29805585741996765,0.8104924559593201,-0.43837451934814453
1789317588624852000,9.86585205078125,0.049952585250139236,0.6331652998924255,-0.847724974155426
1789317588634806800,9.875806884765625,-0.23618553578853607,-0.24397289752960205,-0.6438114643096924
1789317588644761900,9.885761962890625,-0.2759132385253906,-0.49404770135879517,-0.08125336468219757
1789317588654717000,9.895717041015626,-0.027979595586657524,-0.016385268419981003,0.2189602553844452
1789317588664671000,9.9056708984375,0.183476984500885,0.512904167175293,0.5681201219558716
1789317588674625800,9.915625732421875,0.25886765122413635,0.33644068241119385,0.3908156156539917
1789317588684580900,9.925580810546874,0.021392500028014183,-0.6496026515960693,0.25077515840530396
1789317588694536000,9.935535888671875,-0.2359260767698288,-1.0288938283920288,0.15586388111114502
1789317588704491000,9.945490966796875,-0.18805842101573944,-0.5773066878318787,0.03186976909637451
1789317588714444800,9.95544482421875,0.020330172032117844,0.3923597037792206,0.07972359657287598
1789317588724399900,9.96539990234375,0.2070545107126236,1.4931960105895996,-0.29144781827926636
1789317588734355000,9.97535498046875,0.08403470367193222,0.6422440409660339,-0.5498982071876526
1789317588744310000,9.98531005859375,-0.17577743530273438,-0.5962331891059875,-0.7264548540115356
1789317588754263800,9.995263916015626,-0.17386329174041748,-1.2163234949111938,-0.5503919720649719
1789317588764219000,10.005218994140625,0.039961110800504684,-0.4948362708091736,0.28007885813713074
1789317588774174000,10.015174072265625,0.2956129312515259,0.37467655539512634,0.8965234160423279
1789317588784129000,10.02512890625,0.2805069386959076,0.8550306558609009,0.9379297494888306
1789317588794083800,10.035083740234375,0.00044212263310328126,0.22970841825008392,0.21264773607254028
1789317588804038000,10.045037841796875,-0.3403085172176361,-1.0470958948135376,0.013644348829984665
1789317588813993000,10.054992919921874,-0.29208552837371826,-1.399030327796936,0.07695873826742172
1789317588823948000,10.064947998046875,0.065453439950943,-0.5682452321052551,0.21732063591480255
1789317588833902800,10.07490283203125,0.41996070742607117,1.476690649986267,0.022790879011154175
1789317588843858000,10.08485791015625,0.5352348685264587,1.3674325942993164,-0.6669926047325134
1789317588853812000,10.09481201171875,0.0812525749206543,1.0111339092254639,-1.165862798690796
1789317588863766800,10.104766845703125,-0.43172842264175415,-0.9664434790611267,-0.8497298359870911
1789317588873721900,10.114721923828125,-0.4978322982788086,-1.4659018516540527,-0.1489441692829132
1789317588883677000,10.124677001953126,-0.011502059176564217,-0.04867502301931381,0.6618893146514893
1789317588893631000,10.134630859375,0.5648238062858582,0.29870450496673584,1.2665847539901733
1789317588903585800,10.144585693359375,0.48657503724098206,0.7157331705093384,1.1872808933258057
1789317588913540900,10.154540771484376,0.04080040752887726,-0.02730131708085537,0.5897755026817322
1789317588923496000,10.164495849609375,-0.31314700841903687,-0.8363184928894043,-0.09098862111568451
1789317588933451000,10.174450927734375,-0.3939480185508728,-0.638046145439148,-0.551487922668457
1789317588943404800,10.18440478515625,-0.02230471931397915,0.26042768359184265,-0.7369664311408997
1789317588953360000,10.19435986328125,0.43131861090660095,1.061303973197937,-0.7648618817329407
1789317588963315000,10.20431494140625,0.3595280349254608,0.7416197061538696,-0.4983880817890167
1789317588973270000,10.21427001953125,0.08183877915143967,0.3435836136341095,-0.43616965413093567
1789317588983225000,10.22422509765625,-0.09060356020927429,-0.1684567630290985,-0.34539633989334106
1789317588993179100,10.23417919921875,-0.19517545402050018,-0.3822231590747833,0.23279502987861633
1789317589003134000,10.244134033203125,-0.060724709182977676,-0.23333008587360382,0.583054780960083
1789317589013089000,10.254089111328126,0.05953674018383026,0.108794204890728,0.9884809255599976
1789317589023044000,10.264044189453125,0.25262629985809326,0.12788134813308716,0.539161741733551
1789317589032999000,10.2739990234375,0.26095280051231384,-0.29465311765670776,0.23962914943695068
1789317589042953000,10.283952880859376,0.26730790734291077,0.08669611066579819,-0.7698215842247009
1789317589052908000,10.293907958984375,0.08408702164888382,0.004986089654266834,-0.8962247371673584
1789317589062863000,10.303863037109375,-0.07699453830718994,0.6109718680381775,-0.5530024170875549
1789317589072818000,10.31381787109375,0.008276295848190784,0.49596861004829407,-0.1703369915485382
1789317589082772000,10.32377197265625,0.08577960729598999,0.4491925835609436,0.3352132737636566
1789317589092727000,10.33372705078125,0.20044763386249542,0.10071152448654175,0.263439416885376
1789317589102682000,10.34368212890625,0.2314862459897995,-0.47024598717689514,0.33133965730667114
1789317589112637000,10.353636962890626,0.2650287449359894,-1.2624061107635498,0.507722020149231
1789317589122592000,10.363592041015625,0.23655502498149872,-1.216227650642395,0.8111276626586914
1789317589132546000,10.373546142578125,0.2761799097061157,0.5552729368209839,0.5326088070869446
1789317589142501000,10.383501220703126,0.37629690766334534,1.1452828645706177,-0.03822994977235794
1789317589152456000,10.3934560546875,0.131354421377182,1.167805790901184,-0.6553772687911987
1789317589162411000,10.403410888671875,-0.1952655017375946,0.613406240940094,-1.1504356861114502
1789317589172365800,10.41336572265625,-0.15335552394390106,-0.0698239803314209,-1.2111188173294067
1789317589182320000,10.423320068359375,0.16534896194934845,-0.09293409436941147,-0.7155384421348572
1789317589192275000,10.43327490234375,0.4063718318939209,-0.36226752400398254,0.2608548402786255
1789317589202230000,10.44322998046875,0.34966593980789185,-0.3756946623325348,1.2630386352539062
1789317589212184800,10.453184814453126,0.17973357439041138,-0.21800731122493744,1.4813978672027588
1789317589222139100,10.46313916015625,-0.02414870820939541,0.18850532174110413,0.8391798138618469
1789317589232094000,10.473093994140624,-0.251884788274765,0.02360237017273903,0.24839988350868225
1789317589242049000,10.483049072265626,-0.4104917347431183,-0.01267920434474945,0.04903804510831833
1789317589252003800,10.49300390625,-0.2976585030555725,0.3300964832305908,-0.2312323898077011
1789317589261959200,10.502959228515625,0.1137111708521843,0.28212523460388184,-0.5894885659217834
1789317589271913000,10.512912841796876,0.3979426324367523,0.3742695450782776,-0.9778861403465271
1789317589281868000,10.522867919921875,0.25300729274749756,-0.12428007274866104,-0.8180663585662842
1789317589291822800,10.53282275390625,-0.09761309623718262,0.5204803347587585,-0.3067297637462616
1789317589301778200,10.542778076171874,-0.222886323928833,0.45537906885147095,0.03302008658647537
1789317589311733000,10.55273291015625,-0.4311184883117676,0.41030824184417725,0.7581665515899658
1789317589321687000,10.56268701171875,-0.3994108736515045,-0.2149020880460739,0.810448408126831
1789317589331641900,10.572641845703124,-0.21457816660404205,-1.109330654144287,0.9166952967643738
1789317589341597200,10.58259716796875,0.12794749438762665,-0.6453434824943542,0.43993139266967773
1789317589351552000,10.592552001953125,0.4502648115158081,-0.09039876610040665,-0.007545138243585825
1789317589361506000,10.602506103515625,0.34491655230522156,0.6334081888198853,-0.16195520758628845
1789317589371460900,10.6124609375,-0.08252812176942825,0.6135743260383606,-0.4678586423397064
1789317589381416200,10.622416259765625,-0.5051973462104797,-0.39437010884284973,-0.34588533639907837
1789317589391371000,10.63237109375,-0.6573941707611084,-0.47114261984825134,-0.32061225175857544
1789317589401325800,10.642325927734374,-0.23898808658123016,1.7098689079284668,-0.633854329586029
1789317589411280000,10.65227978515625,0.4168035387992859,1.4235209226608276,-0.9469308853149414
1789317589421235200,10.662235107421875,0.24604642391204834,-0.6243135929107666,-0.893547534942627
1789317589431190000,10.67218994140625,-0.26870250701904297,-1.5756653547286987,0.005979627836495638
1789317589441144800,10.682144775390626,-0.3010903000831604,-2.203829288482666,1.233272671699524
1789317589451100200,10.69210009765625,-0.05015932768583298,0.08843912929296494,1.7282146215438843
1789317589461054200,10.70205419921875,0.15797629952430725,1.2551039457321167,1.6218194961547852
1789317589471009000,10.712009033203126,0.19254957139492035,1.589986801147461,0.31274160742759705
1789317589480963800,10.7219638671875,-0.028094377368688583,0.1731433868408203,-1.1255451440811157
1789317589490919200,10.731919189453125,-0.3808053135871887,-1.1595892906188965,-1.7506144046783447
1789317589500873200,10.741873291015626,-0.32101067900657654,-1.1610561609268188,-1.6248122453689575
1789317589510828000,10.751828125,0.1250828504562378,0.767312228679657,-0.7059488296508789
1789317589520782800,10.761782958984375,0.3549157977104187,0.6438930630683899,0.4877132773399353
1789317589530738200,10.77173828125,0.04962075501680374,0.8674976825714111,1.2069756984710693
1789317589540693000,10.78169287109375,-0.13766896724700928,-0.35579580068588257,1.0011074542999268
1789317589550647000,10.79164697265625,-0.220599964261055,-0.9484245181083679,0.3841848373413086
1789317589560601900,10.801601806640624,-0.140654519200325,-1.1599022150039673,0.030536485835909843
1789317589570557200,10.81155712890625,0.08804731070995331,-0.7707533240318298,0.0583328977227211
1789317589580512000,10.821511962890625,0.20936895906925201,0.47644999623298645,0.10899048298597336
1789317589590467000,10.831467041015625,0.20967566967010498,1.0925354957580566,-0.2540819048881531
1789317589600420900,10.8414208984375,0.04279320687055588,1.0092084407806396,-0.8444653153419495
1789317589610376200,10.851376220703125,-0.3291415870189667,0.3376676142215729,-1.0057026147842407
1789317589620331000,10.8613310546875,-0.49879321455955505,-0.5650443434715271,-0.5380802154541016
1789317589630286000,10.8712861328125,-0.31716856360435486,-0.8932374119758606,0.6968314051628113
1789317589640239900,10.881239990234375,0.2045060694217682,-0.164275661110878,1.2157107591629028
1789317589650195200,10.8911953125,0.5718373656272888,0.2957034409046173,0.7621030211448669
1789317589660150000,10.90114990234375,0.24512821435928345,0.21621926128864288,0.12849490344524384
1789317589670105000,10.91110498046875,-0.3448474705219269,-0.5159212350845337,-0.037521909922361374
1789317589680060000,10.921059814453125,-0.5930048227310181,-1.243355393409729,0.3362729847431183
1789317589690014200,10.93101416015625,-0.2960723340511322,-0.3079433739185333,0.01010841690003872
1789317589699969000,10.940968994140626,0.3053213655948639,1.9239197969436646,-0.7525388598442078
1789317589709924000,10.950924072265625,0.5512740015983582,1.0012807846069336,-1.163033127784729
1789317589719879000,10.96087890625,0.08996549248695374,0.1566280871629715,-1.0497974157333374
1789317589729834000,10.970833984375,-0.2968631386756897,-1.9548972845077515,-0.1823270320892334
1789317589739788000,10.9807880859375,-0.2617059648036957,-1.0164728164672852,0.6388112902641296
1789317589749743000,10.9907431640625,0.18075892329216003,0.15118885040283203,1.1465288400650024
1789317589759698000,11.000697998046874,0.37014269828796387,0.8374899625778198,1.1657917499542236
1789317589769653000,11.010653076171875,0.13083834946155548,0.48713967204093933,0.8506060242652893
1789317589779607000,11.02060693359375,-0.13367825746536255,-0.6472433805465698,0.3150230348110199
1789317589789562000,11.03056201171875,-0.2661784291267395,-1.026351809501648,-0.17169520258903503
1789317589799517000,11.040516845703126,0.044190630316734314,-0.43445897102355957,-0.9377607107162476
1789317589809472000,11.050471923828125,0.41300320625305176,1.4495761394500732,-1.283341884613037
1789317589821293000,11.06229296875,0.3288920819759369,0.48387783765792847,-0.795520544052124
1789317589831247000,11.0722470703125,-0.16441720724105835,0.24768313765525818,-0.30018350481987
1789317589841202000,11.082201904296875,-0.3171311914920807,0.12149964272975922,-0.017753832042217255
1789317589851157000,11.092156982421875,-0.046986259520053864,-0.3533017635345459,0.15771599113941193
1789317589861112000,11.102112060546874,0.04782924801111221,-0.8584440350532532,0.8538922071456909
1789317589871067100,11.112067138671875,-0.016975048929452896,-0.672339677810669,1.4056658744812012
1789317589881021000,11.12202099609375,0.04659179598093033,-0.46870824694633484,1.3647586107254028
1789317589890976000,11.13197607421875,0.12547622621059418,0.30772197246551514,0.7222331762313843
1789317589900931000,11.14193115234375,0.16165685653686523,0.6363797783851624,-0.4298855662345886
1789317589910886100,11.15188623046875,0.03237823396921158,0.3754884898662567,-1.2204550504684448
1789317589920840000,11.16183984375,-0.10879507660865784,1.252179503440857,-1.8324074745178223
1789317589930795000,11.171794921875,-0.09681165218353271,-0.027595046907663345,-1.3694970607757568
1789317589940750000,11.18175,-0.02404329739511013,-0.442207396030426,-0.6409722566604614
1789317589950705200,11.191705078125,0.2356090396642685,-0.2031109482049942,0.26080018281936646
1789317589960660000,11.201659912109376,0.48682349920272827,-0.4200243651866913,1.077700138092041
1789317589970613800,11.21161376953125,0.33643561601638794,0.5641897320747375,1.3150473833084106
1789317589980568600,11.221568603515625,0.14231489598751068,0.17451225221157074,0.7849833965301514
1789317589990523600,11.231523681640626,-0.13402587175369263,-0.6119588613510132,0.27893516421318054
1789317590000478700,11.241478759765625,-0.18993453681468964,-0.82909095287323,-0.2683539390563965
1789317590010432800,11.251432861328125,0.10847532749176025,-0.5631300806999207,-0.303986519575119
1789317590020387600,11.2613876953125,0.5589056015014648,0.4674016833305359,-0.3944116532802582
1789317590030342700,11.2713427734375,0.6349766850471497,1.492668867111206,-0.3546578288078308
1789317590040297700,11.281297607421875,0.22745782136917114,0.6086053252220154,-0.41658803820610046
1789317590050252800,11.291252685546874,-0.32492947578430176,0.3403051495552063,-0.48541051149368286
1789317590060206600,11.30120654296875,-0.43436217308044434,-0.8734962344169617,0.011169759556651115
1789317590070161700,11.31116162109375,-0.08434263616800308,-0.6904712915420532,0.36205053329467773
1789317590080116700,11.32111669921875,0.430662602186203,-0.2579345405101776,0.6669294238090515
1789317590090071600,11.331071533203126,0.8102338314056396,0.15825869143009186,0.5691320300102234
1789317590100026600,11.341026611328125,0.6762679219245911,-0.005496694706380367,0.3854636549949646
1789317590109980700,11.350980712890625,0.15789829194545746,-0.36187344789505005,0.34808245301246643
1789317590119935700,11.360935791015624,-0.2402678281068802,-0.2242359220981598,-0.07900414615869522
1789317590130512600,11.3715126953125,-0.2608977258205414,0.8598538637161255,-0.6601101160049438
1789317590140467700,11.3814677734375,0.09515149146318436,0.8825618624687195,-0.8747432827949524
1789317590150422500,11.391422607421875,0.32637298107147217,0.36592191457748413,-0.5793726444244385
1789317590160377900,11.4013779296875,0.31248000264167786,-0.258996844291687,-0.07318415492773056
1789317590170331600,11.41133154296875,0.3689688444137573,-0.01030739489942789,0.07748337835073471
1789317590180286700,11.42128662109375,0.36737099289894104,0.41653579473495483,0.07290111482143402
1789317590190241500,11.431241455078125,0.07962626963853836,-0.03252749145030975,0.41085731983184814
1789317590200196900,11.44119677734375,-0.2592639923095703,-0.6252965331077576,0.843415379524231
1789317590210151700,11.451151611328125,-0.283761590719223,-1.021662950515747,1.106410264968872
1789317590220105700,11.461105712890625,0.035076308995485306,0.14010047912597656,0.6162129640579224
1789317590230060500,11.471060546875,0.421874076128006,1.151694655418396,-0.2812137007713318
1789317590240016000,11.481015869140625,0.4399065375328064,0.7895227074623108,-0.6982387900352478
1789317590249970700,11.490970703125,0.06103593111038208,0.47431227564811707,-0.8954287767410278
1789317590259924700,11.5009248046875,-0.2422761172056198,-0.47219938039779663,-0.7543226480484009
1789317590269879600,11.510879638671875,-0.24339863657951355,-0.05953485146164894,-0.4282478988170624
1789317590279834600,11.520834716796875,0.0702899619936943,0.5709775686264038,-0.12905734777450562
1789317590289789700,11.530789794921875,0.2720542252063751,0.3694031834602356,0.5457789301872253
1789317590299744500,11.54074462890625,0.12762150168418884,0.010708416812121868,0.9771701097488403
1789317590309698600,11.550698486328125,-0.13343991339206696,-0.8888503909111023,1.014180302619934
1789317590319653600,11.560653564453125,-0.21767418086528778,-0.8637014031410217,0.9133268594741821
1789317590329608700,11.570608642578126,0.12749387323856354,-0.0066133178770542145,-0.1858319491147995
1789317590339563500,11.5805634765625,0.37461140751838684,0.556472659111023,-0.7613908052444458
1789317590349518800,11.590518798828125,0.16637565195560455,1.286746859550476,-0.828839898109436
1789317590359472600,11.60047265625,-0.11389924585819244,0.365077942609787,-0.7895594835281372
1789317590369427700,11.610427734375,-0.3240671157836914,-0.16695372760295868,-0.3802502751350403
1789317590379382500,11.620382568359375,-0.11661975830793381,-0.35343942046165466,-0.3306359648704529
1789317590389337900,11.630337890625,0.11433809250593185,-0.6372722387313843,0.4401126503944397
1789317590399292700,11.640292724609376,0.2082330584526062,-0.048005491495132446,1.068658709526062
1789317590409246700,11.650246826171875,0.28849247097969055,-0.7543543577194214,1.2296874523162842
1789317590419201500,11.660201416015624,0.05010685697197914,-0.3425300419330597,0.9862369298934937
1789317590429156900,11.670156982421876,-0.14234967529773712,0.39266860485076904,0.07111885398626328
1789317590439111700,11.680111572265625,-0.15051962435245514,0.7765979170799255,-0.846232533454895
1789317590449066800,11.690066650390625,-0.1842975616455078,1.6471842527389526,-1.5262494087219238
1789317590459020500,11.7000205078125,-0.23138152062892914,-0.01901828497648239,-1.4480551481246948
1789317590468975900,11.709975830078125,-0.259014755487442,-0.5046262145042419,-0.7133100628852844
1789317590478930700,11.7199306640625,0.10064159333705902,-0.33119532465934753,0.11160551756620407
1789317590488885800,11.7298857421875,0.5001314282417297,0.6400302052497864,0.8234325647354126
1789317590498840600,11.739840576171876,0.48605334758758545,0.5559485554695129,0.868969738483429
1789317590508795000,11.749794921875,-0.06405186653137207,-0.5964779257774353,0.7769694924354553
1789317590518749700,11.759749755859374,-0.5813114047050476,-1.5982547998428345,0.8116526007652283
1789317590528704800,11.769704833984376,-0.5430470705032349,-1.5434492826461792,1.0040247440338135
1789317590538659600,11.77965966796875,-0.014698166400194168,-0.37612101435661316,0.9542967081069946
1789317590548614000,11.78961376953125,0.5704073905944824,1.4624478816986084,0.05737416818737984
1789317590558568700,11.799568603515626,0.654677152633667,2.5171730518341064,-1.2713545560836792
1789317590568523500,11.8095234375,0.018647419288754463,0.9168455600738525,-2.0695714950561523
1789317590578478600,11.819478515625,-0.684307873249054,-0.8828747272491455,-2.0513882637023926
1789317590588433700,11.82943359375,-0.7272838354110718,-0.9993741512298584,-0.8729981184005737
1789317590598387700,11.8393876953125,-0.12324352562427521,-0.3613511621952057,0.7108749747276306
1789317590608342500,11.849342529296875,0.43095123767852783,0.7953923344612122,1.475715160369873
1789317590618297600,11.859297607421874,0.3721267282962799,0.7976802587509155,1.9181421995162964
1789317590628252700,11.869252685546876,-0.0054410663433372974,-0.6127352118492126,1.2727304697036743
1789317590638207700,11.879207763671875,-0.5261754393577576,-1.3538212776184082,0.8589012622833252
1789317590648161500,11.88916162109375,-0.4712980389595032,-1.0671378374099731,-0.16678191721439362
1789317590658116600,11.89911669921875,-0.04706723988056183,-0.3594094216823578,-0.577020525932312
1789317590668071700,11.90907177734375,0.3157927095890045,1.0500880479812622,-0.653669536113739
1789317590678026800,11.91902685546875,0.4764592945575714,1.2610188722610474,-1.276510238647461
1789317590687981600,11.928981689453124,0.07272010296583176,0.9426651000976562,-1.55213463306427
1789317590697937000,11.93893701171875,-0.3892352283000946,0.6926851272583008,-1.3614776134490967
1789317590707890700,11.948890625,-0.5690990090370178,-1.095023274421692,-0.22431549429893494
1789317590717845800,11.958845703125,-0.5449648499488831,-0.8123124837875366,1.2005524635314941
1789317590727800600,11.968800537109376,-0.047947902232408524,-0.5532351136207581,1.7582966089248657
1789317590737755600,11.978755615234375,0.34516623616218567,0.1525609940290451,1.5543001890182495
1789317590747709700,11.988709716796874,0.32558801770210266,0.23485027253627777,0.6833118200302124
1789317590757664800,11.998664794921876,0.05195518210530281,-0.07951763272285461,-0.5821436643600464
1789317590767619600,12.00861962890625,-0.4213671088218689,-0.4493856728076935,-0.9354430437088013
1789317590777574700,12.01857470703125,-0.5371996164321899,-0.0404878631234169,-1.07524836063385
1789317590787529700,12.02852978515625,-0.2968985438346863,0.3990005552768707,-0.6825487613677979
1789317590797483800,12.03848388671875,0.015869203954935074,0.7281036376953125,-0.12236959487199783
1789317590807438600,12.0484384765625,0.23913852870464325,0.31220918893814087,0.17358799278736115
1789317590817393700,12.0583935546875,0.07416299730539322,-0.040971025824546814,0.49380889534950256
1789317590827348700,12.0683486328125,-0.1254502385854721,-0.17426303029060364,0.238877534866333
1789317590837303600,12.078303466796875,-0.2839936316013336,-0.5596660375595093,0.21168753504753113
1789317590847257600,12.088257568359374,-0.3239178955554962,-0.30617865920066833,0.22535328567028046
1789317590857212700,12.098212646484376,-0.0937521904706955,-0.30117911100387573,0.1163758859038353
1789317590867167700,12.108167724609375,0.07705310732126236,0.40930938720703125,0.12506204843521118
1789317590877122600,12.11812255859375,0.19015447795391083,0.6424168944358826,-0.23257040977478027
1789317590887077600,12.12807763671875,-0.005340715870261192,0.5022515058517456,-0.4365818500518799
1789317590897031700,12.13803173828125,-0.22665788233280182,0.5031207799911499,-0.6320720911026001
1789317590906986800,12.14798681640625,-0.18058837950229645,0.2300703376531601,-0.5928599834442139
1789317590916941600,12.157941650390624,-0.06721921265125275,-0.010225859470665455,0.007266729138791561
1789317590926896600,12.167896728515625,0.12494516372680664,-0.07380616664886475,0.18807804584503174
1789317590936851700,12.177851806640625,0.16512137651443481,-0.4962173402309418,0.5815057754516602
1789317590946805800,12.1878056640625,0.23363998532295227,-0.7259035706520081,0.7048162817955017
1789317590956760600,12.197760498046875,0.155497208237648,-0.2950272858142853,0.7897177338600159
1789317590966715400,12.20771533203125,-0.05223813280463219,0.6256453394889832,0.5129804015159607
1789317590976670200,12.217670166015624,-0.11517448723316193,0.5611950159072876,-0.2067391574382782
1789317590986625300,12.227625244140626,-0.15832862257957458,0.3537592589855194,-0.7878851294517517
1789317590996579300,12.237579345703125,-0.07711895555257797,-0.05160737782716751,-0.9865873456001282
1789317591006534400,12.247534423828125,0.15246470272541046,-0.1518935114145279,-0.6653630137443542
1789317591016489200,12.2574892578125,0.4435497224330902,0.3777216374874115,-0.30236122012138367
1789317591026444300,12.2674443359375,0.5305998921394348,0.34530457854270935,0.14705921709537506
1789317591036399400,12.2773994140625,0.22495077550411224,-0.6046463847160339,0.7437703609466553
1789317591046353400,12.287353515625,-0.1970026046037674,-0.7517383694648743,1.0872509479522705
1789317591056308200,12.29730810546875,-0.17685306072235107,-0.648874819278717,0.9359529614448547
1789317591066263300,12.30726318359375,0.14737960696220398,0.22510142624378204,0.40130794048309326
1789317591076218400,12.31721826171875,0.3673403263092041,0.7169135212898254,-0.24714764952659607
1789317591086173200,12.327173095703126,0.28388139605522156,0.4913797378540039,-0.611223578453064
1789317591096127200,12.337127197265625,0.08666939288377762,0.38975003361701965,-0.9959644675254822
1789317591106082300,12.347082275390624,-0.05912695452570915,0.3209286332130432,-1.1280484199523926
