time,seconds_elapsed,z,y,x
1789317658390450700,0.04345068359375,-0.11689732223749161,0.1862305998802185,-0.29822584986686707
1789317658400405800,0.05340576171875,0.03821316733956337,0.16248264908790588,-0.36107245087623596
1789317658410360800,0.06336083984375,0.1309361755847931,0.14578330516815186,-0.20292462408542633
1789317658420315600,0.073315673828125,0.10741008073091507,0.030525950714945793,0.06320666521787643
1789317658430270700,0.083270751953125,0.10014177858829498,-0.09851884841918945,0.21179933845996857
1789317658440225800,0.093225830078125,0.04900402948260307,-0.19277212023735046,0.34596461057662964
1789317658450180900,0.103180908203125,-0.00805979035794735,-0.15112321078777313,0.35114896297454834
1789317658460135700,0.1131357421875,-0.01176105160266161,0.012439891695976257,0.22545576095581055
1789317658470090800,0.1230908203125,0.045708898454904556,0.14399631321430206,0.02400280348956585
1789317658480044800,0.133044921875,0.08018884807825089,0.23076796531677246,-0.24680525064468384
1789317658490000000,0.142999755859375,-0.006886401679366827,0.35043126344680786,-0.4155721664428711
1789317658499954700,0.15295458984375,-0.11178325861692429,0.2531888484954834,-0.4411446452140808
1789317658509909800,0.16290966796875,-0.13143818080425262,0.11323335021734238,-0.30188634991645813
1789317658519864800,0.17286474609375,-0.08574633300304413,-0.002811499172821641,-0.06203088164329529
1789317658529819600,0.182819580078125,-0.06945311278104782,-0.13496261835098267,0.22236356139183044
1789317658539774700,0.192774658203125,-0.10706466436386108,-0.15719175338745117,0.45134374499320984
1789317658549729800,0.202729736328125,-0.1410450041294098,-0.10293730348348618,0.36554041504859924
1789317658559684900,0.212684814453125,-0.23695236444473267,-0.13987508416175842,0.2557215094566345
1789317658569639700,0.2226396484375,-0.32888415455818176,-0.06764642149209976,0.06395581364631653
1789317658579594800,0.2325947265625,-0.30736446380615234,0.04789349064230919,-0.17287883162498474
1789317658589549800,0.2425498046875,-0.22242002189159393,0.13268108665943146,-0.2670269012451172
1789317658599504600,0.252504638671875,-0.16869154572486877,0.12822455167770386,-0.2408301830291748
1789317658609458700,0.262458740234375,-0.1933889091014862,0.18050213158130646,-0.16657006740570068
1789317658619413800,0.272413818359375,-0.27807050943374634,0.15468890964984894,-0.057745322585105896
1789317658629368800,0.282368896484375,-0.35938772559165955,-0.021507687866687775,0.10345795005559921
1789317658639323600,0.29232373046875,-0.3595728278160095,-0.11581448465585709,0.21237537264823914
1789317658649279000,0.302279052734375,-0.2804045081138611,-0.09831112623214722,0.2429356873035431
1789317658659233800,0.31223388671875,-0.17235179245471954,-0.03852875158190727,0.21090345084667206
1789317658669188900,0.32218896484375,-0.10771287977695465,0.031139809638261795,0.10107069462537766
1789317658679143700,0.332143798828125,-0.11185383051633835,0.04350193589925766,-0.09135681390762329
1789317658689098800,0.3420986328125,-0.1629258096218109,0.0026051041204482317,-0.24794615805149078
1789317658699053800,0.3520537109375,-0.23585353791713715,0.04402844235301018,-0.2793496251106262
1789317658709008600,0.362008544921875,-0.2980082631111145,0.18678826093673706,-0.1688108593225479
1789317658718964000,0.3719638671875,-0.31057223677635193,0.3131464719772339,-0.0021792647894471884
1789317658728917800,0.381917724609375,-0.25131452083587646,0.14733858406543732,0.09656967967748642
1789317658738872800,0.391872802734375,-0.17807012796401978,-0.11730478703975677,0.1531839668750763
1789317658748827600,0.40182763671875,-0.12161777913570404,-0.28860941529273987,0.16330024600028992
1789317658758783000,0.411782958984375,-0.1180291697382927,-0.18347342312335968,0.13144537806510925
1789317658768737800,0.42173779296875,-0.19510850310325623,0.040947966277599335,0.08305148035287857
1789317658778692600,0.431692626953125,-0.3233168125152588,0.15837952494621277,-0.01702691987156868
1789317658788647700,0.441647705078125,-0.42252594232559204,0.14399152994155884,-0.11257953941822052
1789317658798602800,0.451602783203125,-0.40097564458847046,0.04544577747583389,-0.174519345164299
1789317658808557800,0.461557861328125,-0.2446100115776062,-0.08433032780885696,-0.18449607491493225
1789317658818512600,0.4715126953125,-0.08391247689723969,-0.2834775149822235,-0.1363099068403244
1789317658828468000,0.481468017578125,-0.27389732003211975,0.19383551180362701,0.2830663323402405
1789317658838422800,0.4914228515625,-0.4940888285636902,0.367122083902359,0.25281307101249695
1789317658848377600,0.501377685546875,-0.5655249357223511,0.12906716763973236,0.068394236266613
1789317658858333000,0.5113330078125,-0.462464302778244,-0.48834970593452454,0.0001310275256400928
1789317658868287000,0.521286865234375,-0.2684365212917328,-0.4842233955860138,-0.11892319470643997
1789317658878241800,0.53124169921875,-0.07072103768587112,-0.02161181904375553,-0.10603482276201248
1789317658888196600,0.541196533203125,0.04917819797992706,0.17620618641376495,-0.16548669338226318
1789317658898152000,0.55115185546875,-0.25655534863471985,0.33315664529800415,0.03731781244277954
1789317658908106800,0.561106689453125,-0.6540888547897339,0.2492883950471878,-0.04523006081581116
1789317658918061800,0.571061767578125,-0.7167043089866638,-0.16143442690372467,-0.047150466591119766
1789317658928016600,0.5810166015625,-0.44593966007232666,-0.24479776620864868,0.13824975490570068
1789317658937971700,0.5909716796875,-0.1118335872888565,-0.15059882402420044,0.1630333960056305
1789317658947926800,0.6009267578125,0.01581544801592827,0.1280631572008133,0.08855117112398148
1789317658957881600,0.610881591796875,-0.018758773803710938,0.02798396348953247,-0.09442877024412155
1789317658967837000,0.6208369140625,-0.2272467315196991,-0.2615112364292145,-0.14793220162391663
1789317658977791700,0.630791748046875,-0.513011634349823,-0.00004953479583491571,-0.1894945651292801
1789317658987746800,0.640746826171875,-0.6339577436447144,0.10159293562173843,-0.10940531641244888
1789317658997701600,0.65070166015625,-0.5789666771888733,0.2669145166873932,0.06358163803815842
1789317659007656700,0.66065673828125,-0.4223158359527588,-0.01353418454527855,0.12125664949417114
1789317659017610800,0.67061083984375,-0.33612263202667236,-0.24179904162883759,0.09899662435054779
1789317659027565800,0.68056591796875,-0.3146916329860687,-0.35073670744895935,0.010630539618432522
1789317659037520600,0.690520751953125,-0.3040855824947357,-0.4645003080368042,-0.07057563215494156
1789317659047475700,0.700475830078125,-0.43039238452911377,-0.12373392283916473,-0.06582561880350113
1789317659057430800,0.7104306640625,-0.6644741296768188,0.07759200036525726,-0.06042525917291641
1789317659067385600,0.720385498046875,-0.8384571075439453,0.1108066737651825,-0.03569328412413597
1789317659077341000,0.7303408203125,-0.7923857569694519,-0.04241243749856949,-0.08350474387407303
1789317659087295700,0.740295654296875,-0.652137815952301,-0.2383936643600464,-0.1364433318376541
1789317659097250800,0.750250732421875,-0.531017005443573,-0.292029470205307,-0.10745561867952347
1789317659107206000,0.760205810546875,-0.39945340156555176,-0.4274013936519623,-0.04278341680765152
1789317659117160700,0.77016064453125,-0.35261955857276917,-0.5008681416511536,0.029195701703429222
1789317659127115800,0.78011572265625,-0.465188205242157,-0.45221593976020813,0.07154528796672821
1789317659137070600,0.790070556640625,-0.6323039531707764,-0.35162249207496643,0.08331593126058578
1789317659147026000,0.80002587890625,-0.7135348916053772,-0.1707826554775238,0.035649605095386505
1789317659156979700,0.809979736328125,-0.6749632358551025,-0.1908186823129654,-0.09738088399171829
1789317659166934800,0.819934814453125,-0.5674591660499573,-0.3180709183216095,-0.15821734070777893
1789317659176889600,0.8298896484375,-0.418449729681015,-0.4358963370323181,-0.14262905716896057
1789317659186845000,0.839844970703125,-0.275560200214386,-0.5214400291442871,-0.09592653065919876
1789317659196799700,0.8497998046875,-0.20009474456310272,-0.3577594757080078,-0.04008137434720993
1789317659206754600,0.859754638671875,-0.20717768371105194,-0.5824077725410461,0.0051596080884337425
1789317659216710000,0.8697099609375,-0.3185582756996155,-0.5482255816459656,0.07810358703136444
1789317659226664700,0.879664794921875,-0.35252368450164795,-0.5315661430358887,0.13160116970539093
1789317659236619800,0.889619873046875,-0.249331533908844,-0.450843870639801,0.09495580941438675
1789317659246574800,0.899574951171875,-0.10316500067710876,-0.2804074287414551,0.0007352987886406481
1789317659256530000,0.909530029296875,0.05034652724862099,-0.37251952290534973,-0.1438051015138626
1789317659266484700,0.919484619140625,0.10199028253555298,-0.4560343623161316,-0.19855383038520813
1789317659276439600,0.929439453125,0.08979939669370651,-0.6660179495811462,-0.12744930386543274
1789317659286395000,0.939394775390625,0.08706139773130417,-0.6153377294540405,0.03549141436815262
1789317659296349000,0.949348876953125,0.12611453235149384,-0.4311455488204956,0.1808169186115265
1789317659306303700,0.9593037109375,0.15485988557338715,-0.25066709518432617,0.16791389882564545
1789317659316258600,0.969258544921875,0.17568980157375336,-0.32763007283210754,0.028247350826859474
1789317659326214000,0.9792138671875,0.213205486536026,-0.6030746698379517,-0.09271582216024399
1789317659336168700,0.989168701171875,0.2858155071735382,-0.6658400893211365,-0.1268807202577591
1789317659346123800,0.999123779296875,0.4012933671474457,-0.5474015474319458,-0.039620913565158844
1789317659356078800,1.009078857421875,0.4724152088165283,-0.32408565282821655,0.06483279168605804
1789317659366034000,1.019033935546875,0.43008214235305786,-0.2795690596103668,0.10803059488534927
1789317659375988700,1.02898876953125,0.3564273715019226,-0.3826400637626648,0.027590882033109665
1789317659385943600,1.038943603515625,0.3689410090446472,-0.5250411629676819,-0.07519754767417908
1789317659395899000,1.04889892578125,0.4453449845314026,-0.4737537205219269,-0.05651573836803436
1789317659405853700,1.058853759765625,0.533930778503418,-0.36815857887268066,0.031380027532577515
1789317659415808800,1.068808837890625,0.5886328816413879,-0.3408372104167938,0.12073973566293716
1789317659425763800,1.078763916015625,0.5995707511901855,-0.4761494994163513,0.11666376888751984
1789317659435718000,1.0887177734375,0.554635763168335,-0.5442734360694885,0.037516482174396515
1789317659445672700,1.098672607421875,0.4996867775917053,-0.4935263693332672,-0.07644550502300262
1789317659455627800,1.108627685546875,0.43904581665992737,-0.3519974648952484,-0.12350116670131683
1789317659465582800,1.118582763671875,0.3822871744632721,-0.26234135031700134,-0.12763412296772003
1789317659475537700,1.12853759765625,0.3235735297203064,-0.25462108850479126,-0.0814376026391983
1789317659485492700,1.13849267578125,0.31754282116889954,-0.3481374680995941,0.002816825406625867
1789317659495447800,1.14844775390625,0.3703170716762543,-0.4645210802555084,0.055982042104005814
1789317659505403000,1.15840283203125,0.4290831983089447,-0.5058525204658508,0.08140803873538971
1789317659515357700,1.168357666015625,0.4641466438770294,-0.5237116813659668,0.05372900888323784
1789317659525312800,1.178312744140625,0.43978163599967957,-0.4458776116371155,0.040229711681604385
1789317659535267800,1.188267822265625,0.34201860427856445,-0.25117284059524536,-0.06345780193805695
1789317659545222700,1.19822265625,0.17450469732284546,-0.18681995570659637,-0.0700206309556961
1789317659555176700,1.2081767578125,0.058880094438791275,-0.1671634316444397,-0.10188028961420059
1789317659565131800,1.2181318359375,0.07008667290210724,-0.3336820900440216,-0.07287154346704483
1789317659575086800,1.2280869140625,0.2346271574497223,-0.49479109048843384,-0.0671958178281784
1789317659585041700,1.238041748046875,0.3827202022075653,-0.6682712435722351,0.07778987288475037
1789317659594996700,1.247996826171875,0.3947707414627075,-0.466305136680603,0.20043909549713135
1789317659604951800,1.257951904296875,0.3208613693714142,-0.2717803716659546,0.09915055334568024
1789317659614907000,1.267906982421875,0.14942730963230133,-0.2531278729438782,0.04662635922431946
1789317659624861700,1.27786181640625,-0.02786838263273239,-0.26342764496803284,-0.057501111179590225
1789317659634816800,1.287816650390625,-0.10357353091239929,-0.13121448457241058,-0.09173737466335297
1789317659644771800,1.297771728515625,0.00908457487821579,-0.05626167356967926,-0.14444293081760406
1789317659654726700,1.3077265625,0.18725430965423584,-0.16553623974323273,-0.12194082140922546
1789317659664681700,1.317681640625,0.31249505281448364,-0.3177417516708374,-0.16411010921001434
1789317659674636800,1.32763671875,0.2885897159576416,-0.534830629825592,-0.10831023007631302
1789317659684590800,1.3375908203125,0.14886245131492615,-0.5140547752380371,0.01907089725136757
1789317659694545700,1.347545654296875,0.01708151586353779,-0.4084612727165222,0.13092392683029175
1789317659704500700,1.357500732421875,-0.06668182462453842,-0.19762758910655975,0.23350676894187927
1789317659714455800,1.367455810546875,-0.03952290862798691,-0.17728503048419952,0.18918244540691376
1789317659724411000,1.377410888671875,0.07664044946432114,-0.22230497002601624,0.049491118639707565
1789317659734365700,1.38736572265625,0.22901533544063568,-0.3219985365867615,-0.14222292602062225
1789317659744320800,1.39732080078125,0.3084196150302887,-0.2977645695209503,-0.2341456562280655
1789317659754275800,1.40727587890625,0.2991217374801636,-0.17787812650203705,-0.23216372728347778
1789317659764230700,1.417230712890625,0.22059576213359833,-0.10091063380241394,-0.15083558857440948
1789317659774185700,1.427185791015625,0.0937720313668251,-0.11156061291694641,-0.020609138533473015
1789317659784140800,1.437140869140625,0.01149686612188816,-0.2515999972820282,0.07495999336242676
1789317659794095900,1.447095947265625,0.05318039655685425,-0.37190166115760803,0.13872991502285004
1789317659804049700,1.457049560546875,0.19009962677955627,-0.39392998814582825,0.14604881405830383
1789317659814004700,1.467004638671875,0.31884536147117615,-0.3359399139881134,0.10203022509813309
1789317659823959800,1.476959716796875,0.3820400536060333,-0.27762922644615173,-0.004038151353597641
1789317659833915000,1.486914794921875,0.3354312479496002,-0.25713086128234863,-0.11966727674007416
1789317659843869700,1.49686962890625,0.21921038627624512,-0.2056969702243805,-0.16218703985214233
1789317659853824800,1.50682470703125,0.1375991404056549,-0.12086090445518494,-0.13770459592342377
1789317659863779800,1.51677978515625,0.1459854394197464,-0.05145307257771492,-0.050345197319984436
1789317659873734700,1.526734619140625,0.22324374318122864,-0.07570967078208923,0.025058748200535774
1789317659883690000,1.53668994140625,0.31220343708992004,-0.17551402747631073,0.05802148953080177
1789317659893644800,1.546644775390625,0.34317466616630554,-0.2524634003639221,0.04935450106859207
1789317659903599600,1.556599609375,0.3075183928012848,-0.2930654287338257,0.03190280497074127
1789317659913554700,1.5665546875,0.2582443356513977,-0.23284177482128143,-0.0008458199445158243
1789317659923508700,1.5765087890625,0.2171885073184967,-0.16607019305229187,-0.019206184893846512
1789317659933463800,1.5864638671875,0.20514889061450958,-0.12076503038406372,-0.024523451924324036
1789317659943418600,1.596418701171875,0.23862695693969727,-0.10702605545520782,-0.04516907408833504
1789317659953373700,1.606373779296875,0.27144855260849,-0.13554663956165314,-0.06553559750318527
1789317659963328800,1.616328857421875,0.2544916570186615,-0.22311830520629883,-0.06467486917972565
1789317659973283800,1.626283935546875,0.17267803847789764,-0.16416338086128235,0.11223199963569641
1789317659983238700,1.63623876953125,0.19561290740966797,-0.21276846528053284,0.014306235127151012
1789317659993194000,1.646194091796875,0.2528280019760132,-0.47933411598205566,0.06451374292373657
1789317660003148800,1.656148681640625,0.36781904101371765,-0.6453499794006348,0.05126984417438507
1789317660013103600,1.666103515625,0.33750399947166443,-0.5197965502738953,0.12332087010145187
1789317660023058700,1.67605859375,0.047267645597457886,0.7504686713218689,0.2882102131843567
1789317660033013000,1.686012939453125,0.05030231922864914,0.3056483268737793,-0.2258581668138504
1789317660042967800,1.6959677734375,-0.16588963568210602,0.2487911731004715,0.013740313239395618
1789317660052922600,1.705922607421875,-0.08288556337356567,-0.2639501690864563,-0.28656280040740967
1789317660062877700,1.715877685546875,0.18777815997600555,-0.8327997326850891,-0.3760838806629181
1789317660072832800,1.725832763671875,0.40692514181137085,-0.17889384925365448,-0.3373740315437317
1789317660082787800,1.735787841796875,0.4870934784412384,-0.1785614937543869,-0.29395920038223267
1789317660092742700,1.74574267578125,0.09185748547315598,0.29633471369743347,0.17624932527542114
1789317660102697700,1.75569775390625,-0.3052126467227936,-0.1747065633535385,0.6882995963096619
1789317660112652800,1.76565283203125,-0.38654956221580505,-0.09872923791408539,0.504783034324646
1789317660122607600,1.775607666015625,-0.22296038269996643,-0.8170586228370667,0.5527782440185547
1789317660132563000,1.78556298828125,0.19295987486839294,-0.39633694291114807,-0.16713786125183105
1789317660142516700,1.795516845703125,0.4521024823188782,-0.4877057373523712,-0.599007785320282
1789317660152471800,1.805471923828125,0.2582363486289978,0.06363596767187119,-0.29854169487953186
1789317660162426600,1.815426513671875,0.07091252505779266,0.2710821032524109,-0.4504092335700989
1789317660172382000,1.8253818359375,-0.11180110275745392,0.05608590692281723,-0.057242251932621
1789317660182336800,1.835336669921875,-0.05823108181357384,0.12564101815223694,0.08237849920988083
1789317660192291800,1.845291748046875,0.15954944491386414,-0.3842017352581024,0.19809338450431824
1789317660202246700,1.85524658203125,0.3755035698413849,-0.3228744566440582,0.12878620624542236
1789317660212201700,1.86520166015625,0.45631080865859985,-1.0856945514678955,0.23559841513633728
1789317660222156800,1.87515673828125,0.3009087145328522,-0.48936596512794495,0.4096634089946747
1789317660232111600,1.885111572265625,0.2312673032283783,-0.13330025970935822,0.19863054156303406
1789317660242067000,1.89506689453125,0.22514976561069489,0.09421011805534363,0.027063308283686638
1789317660252020700,1.905020751953125,0.267642080783844,0.2185981124639511,-0.29910653829574585
1789317660261975800,1.914975830078125,0.3657015562057495,-0.010506702587008476,-0.6121174693107605
1789317660271930600,1.9249306640625,0.48683276772499084,-0.2547478675842285,-0.42731964588165283
1789317660281886000,1.934885986328125,0.6359958648681641,-0.3958440124988556,-0.0944356918334961
1789317660291840800,1.9448408203125,0.6763025522232056,-0.23091550171375275,0.3502746522426605
1789317660301795800,1.9547958984375,0.5679494738578796,-0.011931227520108223,0.5711923837661743
1789317660311750700,1.964750732421875,0.43273279070854187,-0.09596674144268036,0.40140068531036377
1789317660321705700,1.974705810546875,0.3572430908679962,-0.2915402352809906,0.2058040201663971
1789317660331660800,1.984660888671875,0.4812673032283783,-0.3701397180557251,-0.16410744190216064
1789317660341615600,1.99461572265625,0.6757670044898987,-0.24319453537464142,-0.24471786618232727
1789317660351571000,2.004571044921875,0.8266089558601379,0.17960678040981293,-0.24334155023097992
1789317660361524700,2.014524658203125,0.8472253084182739,0.2274552583694458,-0.2594398260116577
1789317660371479800,2.024479736328125,0.6010605692863464,0.3245171010494232,-0.13901621103286743
1789317660381434600,2.0344345703125,0.38641348481178284,-0.06499204784631729,-0.08619001507759094
1789317660391390000,2.044389892578125,0.3593307435512543,-0.27687394618988037,0.12606365978717804
1789317660401344800,2.0543447265625,0.5559095740318298,-0.30712905526161194,0.2998863160610199
1789317660411299600,2.064299560546875,0.7703012228012085,-0.018670890480279922,0.40383562445640564
1789317660421255000,2.0742548828125,0.8515247106552124,0.19748644530773163,0.3552875220775604
1789317660431209700,2.084209716796875,0.7908751964569092,0.09387802332639694,0.01683863438665867
1789317660441164800,2.094164794921875,0.5730398297309875,-0.003778493031859398,-0.17612522840499878
1789317660451119600,2.10411962890625,0.4509698450565338,0.06969518959522247,-0.3003294765949249
1789317660461075000,2.114074951171875,0.5387689471244812,0.31194910407066345,-0.24610137939453125
1789317660471028700,2.12402880859375,0.6929119229316711,0.4717760682106018,-0.08071881532669067
1789317660480983800,2.13398388671875,0.7862346768379211,0.23841071128845215,0.028833512216806412
1789317660490938600,2.143938720703125,0.7809549570083618,-0.1546790599822998,0.1479947865009308
1789317660500894000,2.15389404296875,0.7111031413078308,-0.33472737669944763,0.20906001329421997
1789317660510848800,2.163848876953125,0.6523061394691467,-0.08448958396911621,0.30584806203842163
1789317660520803600,2.173803466796875,0.7082394361495972,0.23901763558387756,0.23930446803569794
1789317660530759000,2.183759033203125,0.68477463722229,0.4320603311061859,0.11458170413970947
1789317660540713700,2.193713623046875,0.5881564617156982,0.31780460476875305,-0.0021699436474591494
1789317660550668800,2.203668701171875,0.5962615013122559,0.19442594051361084,-0.15503299236297607
1789317660560623600,2.21362353515625,0.6871445775032043,0.20325511693954468,-0.1509820520877838
1789317660570578700,2.22357861328125,0.8202741146087646,0.2919706106185913,-0.1018533930182457
1789317660580532700,2.23353271484375,0.8502541184425354,0.32469314336776733,0.0060086240991950035
1789317660590487800,2.24348779296875,0.6927323937416077,0.26632437109947205,0.1327306181192398
1789317660600442600,2.253442626953125,0.5681385397911072,0.04846127703785896,0.1804685741662979
1789317660610397700,2.263397705078125,0.5723242163658142,0.016086557880043983,0.23188276588916779
1789317660620352800,2.273352783203125,0.6544361710548401,0.13335619866847992,0.22192972898483276
1789317660630307600,2.2833076171875,0.7229323983192444,0.3341130018234253,0.18797630071640015
1789317660640263000,2.293262939453125,0.7258940935134888,0.3471185564994812,0.10890331119298935
1789317660650217700,2.3032177734375,0.6346789598464966,0.3604103922843933,0.06606902927160263
1789317660660172800,2.3131728515625,0.591086745262146,0.39136484265327454,-0.04181402549147606
1789317660670127900,2.3231279296875,0.5962420701980591,0.44572901725769043,-0.18926526606082916
1789317660680082700,2.333082763671875,0.5690922141075134,0.40148404240608215,-0.2442752569913864
1789317660690036700,2.34303662109375,0.564870297908783,0.14999082684516907,-0.13919223845005035
1789317660699991800,2.35299169921875,0.6019092798233032,0.08305466920137405,0.18349845707416534
1789317660709947000,2.36294677734375,0.6732074618339539,0.1852305829524994,0.47271081805229187
1789317660719901700,2.372901611328125,0.6205612421035767,0.3609214425086975,0.6604918837547302
1789317660729856800,2.382856689453125,0.49337294697761536,0.3577139377593994,0.42662933468818665
1789317660739811600,2.3928115234375,0.333234965801239,0.3494626581668854,0.08125490695238113
1789317660749767000,2.402766845703125,0.3465268015861511,0.018010159954428673,-0.16228531301021576
1789317660759721700,2.4127216796875,0.5050024390220642,-0.20374540984630585,-0.08478918671607971
1789317660769676800,2.4226767578125,0.6062009930610657,0.20184443891048431,0.17870396375656128
1789317660779631900,2.4326318359375,0.48515817523002625,0.6725581288337708,0.3743738532066345
1789317660789586700,2.442586669921875,0.11651676148176193,0.9472991824150085,0.4117436110973358
1789317660799541800,2.452541748046875,-0.16982045769691467,0.5956029295921326,0.2017885148525238
1789317660809495800,2.462495849609375,-0.09114775061607361,-0.22241176664829254,0.046577088534832
1789317660819451000,2.472450927734375,0.29150107502937317,-0.899070680141449,0.138412743806839
1789317660829405700,2.48240576171875,0.6200315952301025,-0.33024609088897705,0.4293076992034912
1789317660839360800,2.49236083984375,0.660502016544342,0.7922595143318176,0.6236752867698669
1789317660849315600,2.502315673828125,0.34633317589759827,1.3432118892669678,0.4805240035057068
1789317660859271000,2.51227099609375,-0.044496629387140274,0.899302065372467,0.027847876772284508
1789317660869225700,2.522225830078125,-0.07245422899723053,-0.2286137342453003,-0.3434455096721649
1789317660879180500,2.5321806640625,0.3935201168060303,-0.9166259765625,-0.2575812041759491
1789317660889135900,2.542135986328125,1.059935212135315,-0.39922675490379333,0.19515937566757202
1789317660899090700,2.552090576171875,1.4804863929748535,0.6194139719009399,0.6081245541572571
1789317660909045800,2.562045654296875,1.2562255859375,1.1191673278808594,0.6835951209068298
1789317660918999600,2.57199951171875,0.554617702960968,0.9600735306739807,0.3367258310317993
1789317660928955000,2.581954833984375,0.1271187961101532,0.03476357460021973,-0.053814761340618134
1789317660938909700,2.59190966796875,0.29109254479408264,-0.26022571325302124,-0.20960809290409088
1789317660948864800,2.60186474609375,0.7692378163337708,0.32895100116729736,0.00894129741936922
1789317660958819800,2.61181982421875,1.2047911882400513,0.7502524256706238,0.3577088713645935
1789317660968775000,2.62177490234375,1.2227816581726074,0.8473813533782959,0.4523829221725464
1789317660978729700,2.631729736328125,0.8009914755821228,-0.019453326240181923,0.515699028968811
1789317660988684500,2.6416845703125,0.25348445773124695,-0.2057795226573944,0.39281386137008667
1789317660998639900,2.651639892578125,-0.09202766418457031,0.24454662203788757,0.216327503323555
1789317661008594700,2.6615947265625,-0.18006856739521027,0.7131263613700867,0.09821178764104843
1789317661018549800,2.6715498046875,-0.08184479922056198,0.8411855101585388,-0.04763755947351456
1789317661028504800,2.6815048828125,0.06246950104832649,0.2689390480518341,0.05910433083772659
1789317661038460200,2.691460205078125,0.09609350562095642,0.43121078610420227,-0.0749669224023819
1789317661048414200,2.701414306640625,-0.01870737411081791,0.5070860981941223,-0.1299034059047699
1789317661058369300,2.711369384765625,-0.3575032651424408,0.12110405415296555,0.13542333245277405
1789317661068324000,2.721323974609375,-0.6360936164855957,0.022183332592248917,0.4487554132938385
1789317661078279200,2.731279052734375,-0.6157337427139282,0.28737425804138184,0.3525750935077667
1789317661088234200,2.741234130859375,-0.7185232639312744,0.22930030524730682,0.19975651800632477
1789317661098189000,2.75118896484375,-0.9679844975471497,0.3544534146785736,-0.06752631068229675
1789317661108144400,2.761144287109375,-0.9765393733978271,0.10201504826545715,-0.1283039152622223
1789317661118099200,2.77109912109375,-0.7843770980834961,0.18408514559268951,0.024414794519543648
1789317661128054000,2.781053955078125,-0.7012335062026978,0.14728611707687378,0.11061412841081619
1789317661138009000,2.791009033203125,-0.881435215473175,-0.08100403845310211,0.2768462598323822
1789317661147964200,2.800964111328125,-1.0357153415679932,0.00711623253300786,0.19216038286685944
1789317661157919200,2.810919189453125,-0.9377070069313049,0.18725964426994324,-0.43358126282691956
1789317661167874000,2.8208740234375,-0.898917019367218,0.26520344614982605,-0.8231415152549744
1789317661177828000,2.830828125,-0.8819028735160828,0.15087632834911346,-0.7497479915618896
1789317661187783200,2.840783203125,-0.7886674404144287,0.034573156386613846,-0.04933159798383713
1789317661197738200,2.85073828125,-0.5558046698570251,0.43082383275032043,0.3245839476585388
1789317661207693000,2.860693115234375,-0.45099887251853943,0.22441047430038452,0.11193186044692993
1789317661217648400,2.8706484375,-0.7481399774551392,-0.12160659581422806,-0.06748530268669128
1789317661227603200,2.880603271484375,-0.9027319550514221,-0.6888383030891418,-0.046537674963474274
1789317661237558000,2.89055810546875,-0.5249670743942261,-0.368655800819397,0.33092039823532104
1789317661247513300,2.900513427734375,0.10325847566127777,-0.21855737268924713,0.4693507254123688
1789317661257468200,2.91046826171875,0.07356742769479752,0.18201906979084015,0.4814121723175049
1789317661267423200,2.92042333984375,-0.49686330556869507,0.7959157824516296,0.2275833636522293
1789317661277378000,2.9303779296875,-0.7333242893218994,0.21495385468006134,-0.28805121779441833
1789317661287333400,2.94033349609375,-0.463733047246933,0.06432226300239563,-0.7758216857910156
1789317661297288200,2.9502880859375,-0.013953099958598614,-0.18345770239830017,-0.7369888424873352
1789317661307243000,2.960242919921875,0.18643352389335632,0.731178879737854,-0.3546704649925232
1789317661317198300,2.9701982421875,0.10005789250135422,1.1313509941101074,-0.12501303851604462
1789317661327152000,2.980152099609375,-0.3676808178424835,0.5878201127052307,0.3856598138809204
1789317661337107200,2.990107177734375,-0.7473794221878052,-0.20847144722938538,0.7449679374694824
1789317661347062000,3.00006201171875,-0.6297140121459961,-0.5088171362876892,0.6472885012626648
1789317661357017300,3.010017333984375,-0.23806129395961761,-0.17471881210803986,0.43972650170326233
1789317661366972200,3.01997216796875,0.12373366206884384,0.2550133764743805,-0.007670702878385782
1789317661376927200,3.02992724609375,0.2282390296459198,0.48810601234436035,-0.4836130142211914
1789317661386882000,3.039882080078125,0.12836863100528717,1.1156998872756958,-0.9781764149665833
1789317661396837000,3.049837158203125,0.14719797670841217,-0.09094855189323425,-1.291479229927063
1789317661406792200,3.059792236328125,0.0832006111741066,-0.76563960313797,-0.8550957441329956
1789317661416747000,3.0697470703125,0.17883259057998657,-0.6124309301376343,0.06635665148496628
1789317661426702300,3.079702392578125,0.49284273386001587,-0.3848209083080292,0.9302732944488525
1789317661436657200,3.0896572265625,0.6649734973907471,0.030282005667686462,1.2669618129730225
1789317661446612200,3.0996123046875,0.6107933521270752,-0.4742431938648224,1.182875156402588
1789317661456567300,3.1095673828125,0.473672479391098,-0.15685832500457764,0.5453671813011169
1789317661466522000,3.119522216796875,0.40623459219932556,-0.1822800636291504,0.07726815342903137
1789317661476476200,3.12947607421875,0.4718732535839081,0.3128098249435425,-0.2675725817680359
1789317661486431200,3.13943115234375,0.7005951404571533,0.9144791960716248,-0.7436714768409729
1789317661496386300,3.14938623046875,0.7536942958831787,0.9579747319221497,-0.9577536582946777
1789317661506341000,3.159341064453125,0.565461277961731,0.8330721855163574,-0.9189103841781616
1789317661516296200,3.169296142578125,0.33283281326293945,0.5829089879989624,-0.7243771553039551
1789317661526251000,3.1792509765625,0.10944952815771103,0.5385487079620361,-0.1365799456834793
1789317661536206300,3.189206298828125,0.09048835188150406,0.5240467190742493,0.4652097523212433
1789317661546161200,3.1991611328125,0.34156185388565063,-0.10458233207464218,1.123456358909607
1789317661556116200,3.2091162109375,0.8201433420181274,-1.015549898147583,1.348860502243042
1789317661566071300,3.2190712890625,1.0632652044296265,-0.8340243101119995,1.2216655015945435
1789317661576026000,3.229026123046875,0.9155194163322449,0.6658914685249329,0.5226360559463501
1789317661585981200,3.238981201171875,0.6670366525650024,1.125301718711853,-0.4831559956073761
1789317661595936000,3.24893603515625,0.39930078387260437,0.5292094945907593,-0.9423826932907104
1789317661605891300,3.258891357421875,0.38961461186408997,0.03983663022518158,-1.1908670663833618
1789317661615846100,3.26884619140625,0.6851466298103333,0.5893769860267639,-0.8005185127258301
1789317661625800200,3.27880029296875,1.0856444835662842,0.7271332740783691,-0.44964703917503357
1789317661635755000,3.288755126953125,1.273937463760376,0.47508344054222107,0.13063789904117584
1789317661645710300,3.29871044921875,1.1162817478179932,-0.398689329624176,1.103710651397705
1789317661655665200,3.3086650390625,0.7669552564620972,-1.040521502494812,1.4411743879318237
1789317661665620000,3.318619873046875,0.4345509111881256,0.5836203098297119,1.0052306652069092
1789317661675575300,3.3285751953125,0.6647364497184753,0.7445729374885559,0.1515578329563141
1789317661685530000,3.338530029296875,0.8412840366363525,0.7588675022125244,-0.5622180700302124
1789317661695485200,3.348485107421875,0.7353107333183289,0.6132519841194153,-0.6811740398406982
1789317661705440300,3.358440185546875,0.9912549257278442,-0.27246615290641785,-0.9016909599304199
1789317661715395300,3.368395263671875,1.4097379446029663,-0.1879619061946869,-0.5211281776428223
1789317661725350100,3.37835009765625,1.6749011278152466,-0.06667277216911316,0.2442092001438141
1789317661735305000,3.388304931640625,1.3843060731887817,0.8779251575469971,0.41857409477233887
1789317661745260300,3.39826025390625,0.6830728650093079,0.8503691554069519,0.6970661878585815
1789317661755215000,3.408215087890625,0.38293859362602234,-0.32361161708831787,0.5203643441200256
1789317661765170200,3.418170166015625,0.5294113755226135,-0.40081533789634705,0.40534642338752747
1789317661775125200,3.428125244140625,1.1269075870513916,0.21191652119159698,0.1568351536989212
1789317661785079300,3.438079345703125,1.5742297172546387,0.9795753359794617,-0.011628160253167152
1789317661795034000,3.4480341796875,1.4204813241958618,0.9543187618255615,0.03682565689086914
1789317661804989200,3.4579892578125,0.9897862076759338,0.40386971831321716,-0.3083309233188629
1789317661814944300,3.4679443359375,0.5855396389961243,0.018556905910372734,-0.44156569242477417
1789317661824899000,3.477899169921875,0.5107412934303284,0.06974738836288452,-0.26246410608291626
1789317661834854100,3.487854248046875,0.6817383170127869,0.4417918026447296,0.2089979499578476
1789317661844809200,3.497809326171875,0.8217862844467163,0.775784432888031,0.7107827663421631
1789317661854764300,3.507764404296875,0.8771893382072449,0.6147526502609253,0.6108734607696533
1789317661864719000,3.517718994140625,0.8256872296333313,-0.3901776075363159,0.6431429982185364
1789317661874674200,3.527674072265625,0.8069050312042236,-0.17618967592716217,0.23122523725032806
1789317661884629200,3.537629150390625,0.7634499669075012,0.2854277491569519,-0.2925868630409241
1789317661894584000,3.547583984375,0.6306016445159912,1.0357680320739746,-0.49553969502449036
1789317661904539100,3.5575390625,0.5604031085968018,0.6607680916786194,-0.374144583940506
1789317661914494200,3.567494140625,0.4938882887363434,0.29406917095184326,0.06930477172136307
1789317661924449300,3.57744921875,0.5802660584449768,0.518615186214447,0.32378900051116943
1789317661934403000,3.587403076171875,0.8434334993362427,0.625460147857666,0.2537286877632141
1789317661944358100,3.597358154296875,0.9101978540420532,-0.20415553450584412,0.07640422880649567
1789317661954313200,3.607313232421875,0.5487070679664612,-1.044700264930725,0.5067007541656494
1789317661964268300,3.617268310546875,0.27969396114349365,-0.24322623014450073,0.9768458604812622
1789317661974223000,3.62722314453125,0.45955559611320496,0.8043097853660583,0.8786157369613647
1789317661984178200,3.63717822265625,0.48790469765663147,1.351319670677185,0.48765408992767334
1789317661994133200,3.64713330078125,0.21494586765766144,1.0091007947921753,0.061108894646167755
1789317662004088000,3.657088134765625,0.02046532742679119,0.2828926742076874,-0.5598481297492981
1789317662014043100,3.667043212890625,0.12520186603069305,-0.3727101981639862,-0.766227126121521
1789317662023998200,3.676998291015625,0.4720088243484497,0.10212796926498413,-0.4917319118976593
1789317662033953300,3.686953369140625,0.7577891945838928,0.29042917490005493,-0.043589022010564804
1789317662043908000,3.696908203125,0.4756679832935333,0.7727478742599487,0.4722421169281006
1789317662053863200,3.70686328125,-0.021026188507676125,-0.040404681116342545,1.0494860410690308
1789317662063818200,3.716818359375,-0.3150777816772461,-0.026939472183585167,1.126448631286621
1789317662073772300,3.726772216796875,-0.2920382618904114,0.05146026238799095,0.735812246799469
1789317662083727000,3.73672705078125,-0.08682224899530411,0.35626116394996643,0.32016921043395996
1789317662093682200,3.74668212890625,0.3075237274169922,0.3172852694988251,0.06449031084775925
1789317662103637200,3.75663720703125,0.6252934336662292,0.14014965295791626,-0.21818585693836212
1789317662113592000,3.766592041015625,0.6166171431541443,1.4839873313903809,-0.6976624727249146
1789317662123547100,3.776547119140625,0.29361963272094727,0.9673376083374023,-0.8884867429733276
1789317662133502200,3.786502197265625,-0.2758488953113556,0.8188186883926392,-0.7938297390937805
1789317662143457300,3.796457275390625,-0.44184187054634094,0.3351934552192688,-0.26858779788017273
1789317662153412000,3.806412109375,-0.0350077860057354,-0.18096844851970673,0.5120025873184204
1789317662163367200,3.8163671875,0.3982538878917694,-0.21294236183166504,1.2152915000915527
1789317662173322200,3.826322265625,0.582344651222229,-0.09256615489721298,1.4617060422897339
1789317662183277000,3.836277099609375,0.5877593755722046,0.7806276082992554,0.8386549949645996
1789317662193231000,3.846231201171875,0.28418591618537903,0.8222525715827942,0.13843564689159393
1789317662203186200,3.856186279296875,-0.252322793006897,1.0986099243164062,-0.5980261564254761
1789317662213141200,3.866141357421875,-0.6365370154380798,-0.035955071449279785,-0.7472553253173828
1789317662223096000,3.876095947265625,-0.5125671625137329,0.3958410620689392,-0.6201687455177307
1789317662233051100,3.886051025390625,0.1522017866373062,0.4031117856502533,-0.305484801530838
1789317662243006200,3.896006103515625,0.580706000328064,0.4146043658256531,0.16818848252296448
1789317662252961300,3.905961181640625,0.37783464789390564,-0.5122284293174744,0.5986359715461731
1789317662262916000,3.915916015625,-0.2266046404838562,-1.2892471551895142,1.1577101945877075
1789317662272871200,3.92587109375,-0.5657477974891663,-0.948835551738739,1.4039011001586914
1789317662282826200,3.935826171875,-0.40425214171409607,0.22438223659992218,1.0831356048583984
1789317662292781000,3.945781005859375,-0.15911135077476501,1.2024019956588745,0.5736140012741089
1789317662302736400,3.955736328125,-0.0795249193906784,1.9543620347976685,-0.5999431014060974
1789317662312690200,3.965690185546875,-0.1235794648528099,3.53389835357666,-2.4657294750213623
1789317662322645200,3.975645263671875,-0.5268102884292603,-0.13917839527130127,-3.6999919414520264
1789317662332600000,3.98560009765625,-1.3063888549804688,0.0230557844042778,-2.838235855102539
1789317662342555400,3.995555419921875,-1.1273008584976196,-0.3330583870410919,-0.16279850900173187
1789317662352510200,4.00551025390625,-0.16994643211364746,-0.4724799394607544,2.0486867427825928
1789317662362465000,4.015465087890625,0.10580819100141525,-0.8823683857917786,3.6457138061523438
1789317662372420000,4.025420166015625,-0.25246766209602356,-0.8930433988571167,3.802135705947876
1789317662382375200,4.035375244140625,-0.611189603805542,-0.24317137897014618,2.5768229961395264
1789317662392330200,4.045330322265625,-1.0093050003051758,1.0420671701431274,0.8546890616416931
1789317662402285000,4.05528515625,-1.4160802364349365,1.3970586061477661,-1.4232432842254639
1789317662412240400,4.065240478515625,-1.6077213287353516,0.28810635209083557,-2.897246837615967
1789317662422195200,4.0751953125,-1.455870509147644,-0.5675742030143738,-2.8534650802612305
1789317662432149200,4.085149169921875,-0.7568386793136597,0.8186753988265991,-2.7549374103546143
1789317662442104000,4.09510400390625,-0.015232748351991177,1.65788996219635,-1.6896928548812866
1789317662452059400,4.105059326171875,-0.0698443278670311,0.7848631143569946,-0.7906578779220581
1789317662462014200,4.11501416015625,-1.1183087825775146,-1.5979515314102173,0.792299747467041
1789317662471969000,4.124968994140625,-1.9275003671646118,-1.1736053228378296,3.0850982666015625
1789317662481924400,4.13492431640625,-1.694596290588379,0.4888993799686432,3.304438352584839
1789317662491879200,4.144879150390625,-1.696447491645813,-0.330696702003479,3.3398680686950684
1789317662501834200,4.154834228515625,-1.9839437007904053,0.385807603597641,2.56034255027771
1789317662511789000,4.1647890625,-1.757203459739685,-1.2413121461868286,2.4609580039978027
1789317662521744100,4.174744140625,-1.1892857551574707,-2.4358389377593994,2.238255023956299
1789317662531698200,4.1846982421875,0.4167777895927429,3.208092212677002,-2.692638874053955
1789317662541653200,4.1946533203125,1.1830799579620361,0.49841031432151794,-5.449383735656738
1789317662551608000,4.204608154296875,-0.11394068598747253,-1.2449393272399902,-6.3385443687438965
1789317662561563100,4.214563232421875,-2.184208393096924,0.5205153822898865,-4.694668292999268
1789317662571518200,4.224518310546875,-2.685189723968506,-0.08540837466716766,-1.390716552734375
1789317662581473000,4.23447314453125,-1.804874300956726,2.147834062576294,0.4671751856803894
1789317662591428400,4.244428466796875,-1.2279798984527588,0.29776057600975037,2.916747570037842
1789317662601383200,4.254383056640625,-1.6355271339416504,-0.3383495509624481,4.418556213378906
1789317662611338200,4.264338134765625,-1.653433084487915,-1.875548243522644,4.297695159912109
1789317662621293000,4.27429296875,-0.844083845615387,-2.1576695442199707,2.772735834121704
1789317662631247400,4.284247314453125,-0.1504313200712204,-1.2571004629135132,0.7995656132698059
1789317662641202200,4.2942021484375,-0.1859315186738968,-0.48015275597572327,-0.9896817803382874
1789317662651157200,4.3041572265625,-0.8406915068626404,0.896607518196106,-2.8069908618927
1789317662661112000,4.314112060546875,-1.6007437705993652,1.6790930032730103,-3.8610525131225586
1789317662671067100,4.324067138671875,-1.9519593715667725,1.0918984413146973,-3.718406915664673
1789317662681022200,4.334022216796875,-1.892210841178894,-0.2824404835700989,-2.173159599304199
1789317662690977000,4.34397705078125,-1.5204503536224365,-0.5419996380805969,0.8996261954307556
1789317662700932400,4.353932373046875,-0.7788342833518982,-0.8416302800178528,3.9077720642089844
1789317662710887200,4.36388720703125,0.12206252664327621,-0.655879557132721,4.330089569091797
1789317662720841200,4.37384130859375,0.5688546895980835,-1.3672828674316406,2.5114119052886963
1789317662730796000,4.383796142578125,-0.056047555059194565,-2.3104732036590576,1.1607201099395752
1789317662740751400,4.39375146484375,-1.271538496017456,-1.1994922161102295,0.37553128600120544
1789317662750706200,4.4037060546875,-1.5930858850479126,0.7042340636253357,-1.2834886312484741
1789317662760661200,4.4136611328125,-0.8689867854118347,1.4182517528533936,-2.890036106109619
1789317662770616300,4.4236162109375,-0.37898167967796326,1.730358600616455,-3.4710445404052734
1789317662780571100,4.433571044921875,-0.41699936985969543,0.388679563999176,-2.9132912158966064
1789317662790526200,4.443526123046875,-0.6228955388069153,-1.6244674921035767,-1.0063718557357788
1789317662800481000,4.45348095703125,-0.5491427183151245,-0.5479230284690857,1.3301101922988892
1789317662810436400,4.463436279296875,0.07059880346059799,-1.0975654125213623,2.5592527389526367
1789317662820390100,4.47339013671875,-0.03435024991631508,-1.3290539979934692,3.218642473220825
1789317662830345200,4.48334521484375,-0.8914393782615662,-0.16999463737010956,3.7986998558044434
1789317662840300000,4.493300048828125,-0.9929505586624146,0.5009965300559998,2.741215705871582
1789317662850255400,4.50325537109375,-0.08485870063304901,0.4462597668170929,-0.26542821526527405
1789317662860210200,4.513210205078125,0.2903253138065338,-0.5665947198867798,-2.159217596054077
1789317662870165000,4.5231650390625,0.0028855351265519857,-0.6300357580184937,-2.598522663116455
1789317662880120300,4.533120361328125,0.1419968158006668,-0.963116466999054,-2.798807144165039
1789317662890075100,4.5430751953125,0.6382478475570679,-1.519912838935852,-1.7810523509979248
1789317662900030200,4.5530302734375,0.9231610894203186,1.2142884731292725,-0.5528666377067566
1789317662909985000,4.562985107421875,0.795067548751831,1.71828031539917,0.26421913504600525
1789317662919939300,4.572939208984375,-0.1913720965385437,0.8900782465934753,1.5443532466888428
1789317662929894100,4.58289404296875,-0.9500774145126343,-1.3553763628005981,2.075418472290039
1789317662939849200,4.59284912109375,-0.6805082559585571,-1.958418607711792,2.0421342849731445
1789317662949804000,4.602803955078125,0.6559557318687439,-0.6776993870735168,1.2652355432510376
1789317662959759400,4.61275927734375,1.7470946311950684,1.023711919784546,0.38078516721725464
1789317662969714200,4.622714111328125,1.8092914819717407,0.759050190448761,-0.14855219423770905
1789317662979669000,4.6326689453125,1.1739389896392822,-0.3926708400249481,-0.9446176290512085
1789317662989624300,4.642624267578125,0.29126378893852234,-1.307618260383606,-0.7060490250587463
1789317662999579100,4.6525791015625,-0.07843994349241257,-0.10966844111680984,-0.5827539563179016
1789317663009533200,4.662533203125,0.7933559417724609,2.5405848026275635,-1.8981038331985474
1789317663019488000,4.672488037109375,1.4971407651901245,0.6995199918746948,-1.9040895700454712
1789317663029443300,4.682443359375,1.0398004055023193,-0.17644080519676208,-0.9729989171028137
1789317663039397600,4.692397705078125,0.46621936559677124,-1.653860092163086,1.2258341312408447
1789317663049352700,4.702352783203125,0.921722948551178,0.4350105822086334,1.6254541873931885
1789317663059307500,4.7123076171875,1.7759997844696045,-0.4169040024280548,1.2804571390151978
1789317663069262800,4.722262939453125,1.5905643701553345,-0.4007546007633209,0.7688156962394714
1789317663079217700,4.7322177734375,0.8236568570137024,0.6123853921890259,0.5051774382591248
1789317663089172500,4.74217236328125,0.5672434568405151,-0.15048404037952423,0.8395351767539978
1789317663099126500,4.75212646484375,0.7363802790641785,0.8444633483886719,0.0025683525018393993
1789317663109081900,4.762081787109375,1.0863542556762695,2.2369682788848877,-1.1231154203414917
1789317663119036700,4.77203662109375,1.3406187295913696,0.2527393102645874,-1.8696527481079102
1789317663128991500,4.781991455078125,1.0188958644866943,-0.8208611011505127,-1.4499285221099854
1789317663138946800,4.79194677734375,0.8634154796600342,-0.5927475094795227,-0.26535549759864807
1789317663148901600,4.801901611328125,1.2948968410491943,-1.2469199895858765,0.8459919691085815
1789317663158856700,4.811856689453125,1.2299511432647705,-0.3747187554836273,1.7760850191116333
1789317663168811500,4.8218115234375,0.8817124366760254,1.8416390419006348,1.5930027961730957
1789317663178766800,4.831766845703125,0.6243336200714111,0.8710989356040955,1.1447649002075195
1789317663188720600,4.841720703125,0.10132129490375519,0.6358243823051453,-0.03280907869338989
1789317663198675700,4.85167578125,-0.2488556206226349,-0.21054258942604065,-1.0391806364059448
1789317663208630500,4.861630615234375,0.07712993770837784,-1.0308611392974854,-1.4708161354064941
1789317663218585900,4.8715859375,0.6074827313423157,0.49814721941947937,-1.2342721223831177
1789317663228540700,4.881540771484375,0.8956482410430908,-0.3642762303352356,-0.030616499483585358
1789317663238495500,4.89149560546875,0.6729208827018738,0.5590092539787292,0.6140186786651611
1789317663248450800,4.901450927734375,0.07959283143281937,-0.2950263023376465,1.2862151861190796
1789317663258405600,4.911405517578125,-0.5779685378074646,0.02039981447160244,1.476718544960022
1789317663268360700,4.921360595703125,-0.6595124006271362,0.981863796710968,0.6501867771148682
1789317663278314500,4.931314453125,-0.5302311182022095,-0.07838162034749985,0.25640594959259033
1789317663288269800,4.941269775390625,-0.4126743972301483,0.1939803957939148,-0.4793298542499542
1789317663298224600,4.951224609375,-0.07159934937953949,-0.21615652740001678,-0.8809438347816467
1789317663308179700,4.9611796875,0.1841365545988083,-0.9014600515365601,-0.4350665211677551
1789317663318134800,4.971134765625,0.10734749585390091,-0.07458768784999847,0.010179666802287102
1789317663328089600,4.981089599609375,-0.16922257840633392,1.2819628715515137,0.4975069761276245
1789317663338044700,4.991044677734375,-0.506511390209198,0.9222843647003174,0.20067743957042694
1789317663347999500,5.00099951171875,-1.0307098627090454,0.8879796862602234,-0.3456372916698456
1789317663357954800,5.010954833984375,-1.2423275709152222,-0.4820694327354431,-0.19063839316368103
1789317663367908600,5.02090869140625,-0.7786140441894531,-0.5648077130317688,-0.3431222140789032
1789317663377863700,5.03086376953125,-0.04554830864071846,-0.596923291683197,-0.08794716745615005
1789317663387818500,5.040818603515625,0.397419810295105,-0.4041735827922821,0.2208556830883026
1789317663397773800,5.05077392578125,0.23579041659832,0.28435423970222473,0.27772587537765503
1789317663407728600,5.060728759765625,-0.38464540243148804,0.44175025820732117,0.3390243947505951
1789317663417683700,5.07068359375,-0.9777569770812988,0.22253960371017456,-0.03762061148881912
1789317663427638800,5.080638671875,-1.2660620212554932,-0.4581774175167084,-0.11834155768156052
1789317663437593600,5.090593505859375,-1.0126219987869263,-0.286091685295105,-0.12004304677248001
1789317663447548700,5.100548583984375,-0.3509151339530945,0.19929713010787964,-0.2609884440898895
1789317663457503700,5.110503662109375,0.0931219533085823,0.44820600748062134,-0.20959317684173584
1789317663467457800,5.120457763671875,0.029097964987158775,-0.2549830377101898,-0.20810872316360474
1789317663477412600,5.13041259765625,-0.5040426254272461,-0.6526132225990295,-0.13253407180309296
1789317663487367700,5.14036767578125,-0.9362806081771851,-0.3793385326862335,-0.115241639316082
1789317663497322500,5.150322509765625,-0.9827042818069458,-0.1927795708179474,0.14363892376422882
1789317663507277800,5.16027783203125,-0.8227229118347168,0.6349857449531555,0.3621180057525635
1789317663517232600,5.170232666015625,-0.5679816603660583,0.5984472036361694,0.23525752127170563
1789317663527187700,5.180187744140625,-0.3872199058532715,0.215094193816185,-0.14968083798885345
1789317663537142800,5.190142822265625,-0.32236045598983765,-0.37724849581718445,-0.5047063231468201
1789317663547096800,5.200096923828125,-0.27780818939208984,-0.2938374876976013,-0.9517594575881958
1789317663557051600,5.2100517578125,-0.3511252701282501,-0.6375863552093506,-0.6719413995742798
1789317663567006500,5.22000634765625,-0.6454333066940308,-0.284258097410202,0.20423729717731476
1789317663576961800,5.2299619140625,-0.8965486288070679,0.15938620269298553,0.9603350758552551
1789317663586916600,5.23991650390625,-0.8116990327835083,0.5557825565338135,0.7846247553825378
1789317663596871700,5.24987158203125,-0.648550808429718,-0.3129371404647827,0.3202720284461975
1789317663606826800,5.25982666015625,-0.6512989401817322,-0.8593080639839172,0.04782770946621895
1789317663616781800,5.26978173828125,-0.48264867067337036,-0.8889716863632202,-0.5340104103088379
1789317663626736600,5.279736572265625,-0.3223130702972412,-0.4912775754928589,-0.5051039457321167
1789317663636691500,5.28969140625,-0.3385354280471802,0.8686853051185608,-0.4416884481906891
1789317663646645800,5.299645751953125,-0.49531254172325134,0.41658470034599304,-0.7193784117698669
1789317663656600800,5.309600830078125,-0.8614287376403809,0.5733023881912231,-0.7518956065177917
1789317663666555600,5.3195556640625,-0.9734556674957275,-0.6187830567359924,-0.44710904359817505
1789317663676510500,5.329510498046875,-0.8469358086585999,-0.4162938892841339,0.06264713406562805
1789317663686465800,5.3394658203125,-0.4777681529521942,-0.23079060018062592,0.35239213705062866
1789317663696420600,5.349420654296875,-0.2534027099609375,0.3181886374950409,0.31927040219306946
1789317663706375700,5.359375732421875,-0.3703423738479614,-0.00827710423618555,0.23213577270507812
1789317663716330800,5.369330810546875,-0.7508750557899475,-0.3365042507648468,0.35810860991477966
1789317663726285800,5.379285888671875,-0.8922572135925293,-0.20998919010162354,0.1750919222831726
1789317663736239600,5.389239501953125,-0.6480043530464172,0.003290335414931178,-0.08912694454193115
1789317663746194700,5.399194580078125,-0.2813693583011627,0.2854841947555542,-0.34515100717544556
1789317663756149800,5.409149658203125,-0.1766413450241089,0.03308258578181267,-0.31378641724586487
1789317663766104600,5.4191044921875,-0.18051597476005554,-0.1351916491985321,-0.38177773356437683
1789317663776059600,5.4290595703125,-0.19597482681274414,-0.5108276009559631,-0.14229056239128113
1789317663786014700,5.4390146484375,-0.1961013376712799,0.11433296650648117,-0.013405553996562958
1789317663795969800,5.4489697265625,-0.14099839329719543,0.1736370325088501,0.05507310479879379
1789317663805924600,5.458924560546875,-0.1519855409860611,0.20099063217639923,0.1512899249792099
1789317663815879700,5.468879638671875,-0.14970827102661133,-0.30019763112068176,0.1708814650774002
1789317663825833700,5.478833740234375,-0.017247695475816727,-0.45235735177993774,0.05439666286110878
1789317663835788800,5.488788818359375,0.20953750610351562,-0.36426103115081787,-0.07232266664505005
1789317663845743600,5.49874365234375,0.31262555718421936,-0.02142592892050743,-0.11515454947948456
1789317663855698700,5.50869873046875,0.2036077231168747,0.0941414088010788,-0.025434786453843117
1789317663865653800,5.51865380859375,0.006877347361296415,0.19296759366989136,0.012190086767077446
1789317663875608600,5.528608642578125,-0.10808546096086502,-0.012418054044246674,0.10430429875850677
1789317663885563600,5.538563720703125,0.017471933737397194,-0.10692138969898224,0.12075518071651459
1789317663895518700,5.548518798828125,0.2986239790916443,-0.1852542757987976,0.18053941428661346
1789317663905473800,5.558473876953125,0.46440497040748596,0.12545938789844513,0.09820965677499771
1789317663915427600,5.568427490234375,0.42759713530540466,0.12105797976255417,-0.1055527925491333
1789317663925382700,5.578382568359375,0.17893220484256744,0.19050496816635132,-0.20903071761131287
1789317663935337700,5.588337646484375,-0.05913309380412102,-0.1286807507276535,-0.23592650890350342
1789317663945292800,5.598292724609375,-0.085364431142807,-0.2819057106971741,-0.10513307899236679
1789317663955247600,5.60824755859375,0.12633290886878967,-0.15461035072803497,0.13800527155399323
1789317663965202700,5.61820263671875,0.3622562289237976,0.16425152122974396,0.19448186457157135
1789317663975157800,5.62815771484375,0.3261200487613678,0.2066866010427475,0.27216386795043945
1789317663985112600,5.638112548828125,0.09499229490756989,-0.06693162769079208,0.13700498640537262
1789317663995067600,5.648067626953125,-0.10716214030981064,-0.1429443657398224,-0.05854000896215439
1789317664005022700,5.658022705078125,-0.08911149948835373,0.04946635290980339,-0.2648806571960449
1789317664014976800,5.667976806640625,0.05428880453109741,0.32756268978118896,-0.3124244809150696
1789317664024931600,5.677931640625,0.18649770319461823,0.19360168278217316,-0.2040386199951172
1789317664034886400,5.687886474609375,0.20601920783519745,-0.09079302102327347,-0.11874609440565109
1789317664044841200,5.69784130859375,0.08892401307821274,-0.5131884813308716,0.202689990401268
1789317664054796500,5.707796630859375,0.010668356902897358,-0.2997739315032959,0.39815962314605713
1789317664064751400,5.71775146484375,0.10536317527294159,-0.050335343927145004,0.4060276746749878
1789317664074706400,5.72770654296875,0.22568851709365845,-0.0238824300467968,0.36562326550483704
1789317664084661500,5.73766162109375,0.24142886698246002,0.0845835953950882,0.1099078580737114
1789317664094616300,5.7476162109375,0.2144174873828888,0.12295814603567123,-0.19844038784503937
1789317664104570400,5.7575703125,0.2232791632413864,-0.10312531888484955,-0.31629085540771484
1789317664114525400,5.767525390625,0.28336700797080994,0.017008012160658836,-0.29361751675605774
1789317664124480500,5.77748046875,0.39473479986190796,0.40103450417518616,-0.28842273354530334
1789317664134435300,5.787435302734375,0.4099888503551483,0.5596625208854675,-0.20541147887706757
1789317664144390400,5.797390380859375,0.2953546941280365,-0.06078105792403221,0.10650966316461563
1789317664154345200,5.80734521484375,0.24786199629306793,-0.1623779833316803,0.15131521224975586
1789317664164300500,5.817300537109375,0.2724142074584961,-0.37218502163887024,0.31671324372291565
1789317664174255400,5.82725537109375,0.30221444368362427,0.17978867888450623,0.3067761957645416
1789317664184210200,5.837210205078125,0.40976861119270325,0.6035721898078918,0.04879310727119446
1789317664194164200,5.847164306640625,0.3939371705055237,0.34478509426116943,-0.23282764852046967
1789317664204119600,5.85711962890625,0.16168689727783203,0.09442663937807083,-0.4990098178386688
1789317664214074400,5.867074462890625,0.0012836436508223414,-0.6198922991752625,-0.2292235940694809
1789317664224029200,5.877029296875,0.08573541045188904,-0.11952745914459229,0.025011610239744186
1789317664233984500,5.886984619140625,0.21519646048545837,-0.0444771870970726,0.5016745924949646
1789317664243939300,5.896939208984375,0.2123546004295349,0.38495007157325745,0.6378768682479858
1789317664253894400,5.906894287109375,0.09036265313625336,0.3142569959163666,0.3023734390735626
1789317664263849500,5.916849365234375,-0.160400852560997,-0.2449066936969757,-0.016139289364218712
1789317664273804500,5.926804443359375,-0.3095104396343231,-0.39241278171539307,-0.3439547121524811
1789317664283759400,5.93675927734375,-0.21239295601844788,-0.3498709201812744,-0.3434188663959503
1789317664293713400,5.94671337890625,0.03299363702535629,0.1894540786743164,-0.3152011036872864
1789317664303668500,5.95666845703125,0.17845070362091064,0.30065569281578064,-0.23602557182312012
1789317664313623600,5.96662353515625,0.08661771565675735,0.32064300775527954,-0.1520015150308609
1789317664323578400,5.976578369140625,-0.12387294322252274,0.10404916852712631,0.006262157112360001
1789317664333533200,5.986533203125,-0.31722721457481384,0.21713417768478394,0.0989188551902771
1789317664343488500,5.996488525390625,-0.3393559753894806,-0.12153521925210953,0.026336532086133957
1789317664353443300,6.006443359375,-0.2671068012714386,-0.21475251019001007,0.0596444234251976
1789317664363398400,6.0163984375,-0.06454064697027206,-0.4713810980319977,0.12999528646469116
1789317664373353500,6.026353515625,0.12055198103189468,-0.1879078447818756,0.252316415309906
1789317664383307500,6.0363076171875,0.2120179831981659,0.10809770971536636,0.21490751206874847
1789317664393262300,6.046262451171875,0.0842706710100174,0.10102701187133789,0.1413763016462326
1789317664403217400,6.056217529296875,-0.1817607432603836,0.3593677580356598,-0.041539985686540604
1789317664413172500,6.06617236328125,-0.3588729500770569,0.1882399469614029,-0.24569977819919586
1789317664423127300,6.076127197265625,-0.2919895052909851,-0.14946486055850983,-0.26864317059516907
1789317664433082400,6.086082275390625,-0.04435787722468376,0.00004873584839515388,-0.26798856258392334
1789317664443037200,6.096037109375,0.14027854800224304,-0.08540917187929153,0.05452822148799896
1789317664452992500,6.105992431640625,0.2581609785556793,-0.15176503360271454,0.15785062313079834
1789317664462947300,6.115947265625,0.1905696839094162,-0.1334318220615387,0.2540506422519684
1789317664472901400,6.1259013671875,0.04562048241496086,-0.2105596363544464,0.19075344502925873
1789317664482856200,6.135856201171875,-0.058220431208610535,-0.004561728797852993,-0.07869081944227219
1789317664492811500,6.1458115234375,-0.04408969730138779,0.17904885113239288,-0.27655383944511414
1789317664502766300,6.155766357421875,0.06751699000597,-0.026396986097097397,-0.4329889714717865
1789317664512721400,6.165721435546875,0.10579593479633331,-0.36216408014297485,-0.24080196022987366
1789317664522676500,6.175676513671875,0.25522884726524353,-0.6301878094673157,-0.11315957456827164
1789317664532631300,6.18563134765625,0.3523745536804199,-0.7170992493629456,0.28883498907089233
1789317664542586400,6.19558642578125,0.3397647440433502,-0.3190687894821167,0.6501268744468689
1789317664552541400,6.20554150390625,0.24368776381015778,0.3149257302284241,0.43420711159706116
1789317664562496500,6.21549658203125,0.08520011603832245,0.6828920245170593,-0.004751611966639757
1789317664572450300,6.2254501953125,0.2221771478652954,0.1023239716887474,-1.0100440979003906
1789317664582405400,6.2354052734375,0.15363962948322296,-0.7451138496398926,-0.7082927227020264
1789317664592360400,6.2453603515625,-0.001294029993005097,-0.5674242973327637,0.057964764535427094
1789317664602315500,6.2553154296875,0.03203383460640907,0.1690169870853424,0.6170152425765991
1789317664612270300,6.265270263671875,0.16661560535430908,1.3658828735351562,0.9317087531089783
1789317664622225400,6.275225341796875,0.27814507484436035,1.079673409461975,0.2831278443336487
1789317664632180500,6.285180419921875,-0.11420433968305588,0.3570806384086609,-0.4218002259731293
1789317664642135300,6.29513525390625,-0.4626486003398895,-0.6689932346343994,-0.7644997835159302
1789317664652090400,6.30509033203125,-0.31852710247039795,-1.1408742666244507,-0.3334439992904663
1789317664662044200,6.315044189453125,0.1779252588748932,-0.09544289857149124,0.1672675609588623
1789317664671999500,6.32499951171875,0.4645306468009949,0.7325104475021362,0.5030328035354614
1789317664681954300,6.334954345703125,0.19210205972194672,0.8470538258552551,0.4652180075645447
1789317664691909400,6.344909423828125,-0.39922595024108887,0.13787584006786346,-0.17248176038265228
1789317664701864400,6.354864501953125,-0.9781433939933777,-0.5139618515968323,-0.5955488681793213
1789317664711819500,6.364819580078125,-1.2159521579742432,-0.6258138418197632,-0.3656941056251526
1789317664721774300,6.3747744140625,-1.0265098810195923,-0.14052808284759521,0.21332798898220062
1789317664731729200,6.384729248046875,-0.5512223839759827,0.2269098460674286,0.4706900119781494
1789317664741684500,6.3946845703125,-0.2530868649482727,-0.4390268921852112,0.5194690227508545
1789317664751639300,6.404639404296875,-0.30066317319869995,-1.0285907983779907,0.20427058637142181
1789317664761593300,6.41459326171875,-0.48625513911247253,-1.059557557106018,-0.17636224627494812
1789317664771548200,6.424548095703125,-0.6180421710014343,-0.6852561235427856,-0.17558753490447998
1789317664781503500,6.43450341796875,-0.7087454795837402,0.2379411906003952,-0.18673047423362732
1789317664791458300,6.444458251953125,-0.9235456585884094,0.8722819089889526,0.048717472702264786
1789317664801413400,6.454413330078125,-0.9474435448646545,0.8495968580245972,0.040354080498218536
1789317664811368400,6.464368408203125,-0.6685059070587158,-0.06198906898498535,-0.1841687709093094
1789317664821323500,6.474323486328125,-0.3529346287250519,-0.6855906248092651,-0.10792380571365356
1789317664831278300,6.4842783203125,-0.02299533039331436,-0.8516602516174316,0.03639502450823784
1789317664841233400,6.4942333984375,0.15179432928562164,-0.5060275197029114,0.09590069949626923
1789317664851187500,6.5041875,-0.03274915739893913,-0.14555427432060242,0.03217791020870209
1789317664861142300,6.514142333984375,-0.5894781947135925,-0.0033276197500526905,0.016005864366889
1789317664871097300,6.524097412109375,-1.1291224956512451,0.14391057193279266,0.00833915639668703
1789317664881052400,6.534052490234375,-1.1991479396820068,-0.020854415372014046,-0.06607222557067871
1789317664891007500,6.544007568359375,-0.8467922806739807,-0.25024446845054626,0.03358272835612297
1789317664900962300,6.55396240234375,-0.360843688249588,-0.2840788662433624,0.2357211858034134
1789317664910917400,6.56391748046875,-0.02209465019404888,-0.36312413215637207,0.22476840019226074
1789317664920872400,6.57387255859375,0.030174946412444115,-0.6587185263633728,0.2123950868844986
1789317664930827300,6.5838271484375,-0.06529857963323593,-0.9423230886459351,0.0802045613527298
1789317664940782300,6.5937822265625,-0.25926193594932556,-0.6551560163497925,-0.07361509650945663
1789317664950736400,6.603736328125,-0.3621523678302765,-0.028419923037290573,-0.20382902026176453
1789317664960691500,6.61369140625,-0.26152029633522034,0.2034340798854828,-0.26219993829727173
1789317664970646300,6.623646240234375,-0.1698681265115738,0.15999792516231537,-0.01543727982789278
1789317664980601300,6.633601318359375,-0.043961331248283386,-0.00027057717670686543,0.14610980451107025
1789317664990556400,6.643556396484375,0.20266708731651306,-0.43983250856399536,0.20600269734859467
1789317665000511500,6.653511474609375,0.45368680357933044,-0.7120312452316284,0.18434268236160278
1789317665010466300,6.66346630859375,0.5105277299880981,-0.4746165871620178,0.1126149594783783
1789317665020421600,6.673421630859375,0.38198572397232056,0.02900501899421215,0.13120116293430328
1789317665030376400,6.68337646484375,0.34001749753952026,0.30208635330200195,-0.046834882348775864
1789317665040331800,6.693331787109375,0.35503506660461426,0.2611224055290222,-0.35581135749816895
1789317665050285800,6.703285888671875,0.3108532130718231,0.32430243492126465,-0.4064266085624695
1789317665060241000,6.713240966796875,0.3738628029823303,0.0051566786132752895,-0.5297280550003052
1789317665070196000,6.723196044921875,0.3464740514755249,-0.2385859489440918,-0.12322685867547989
1789317665080150800,6.73315087890625,0.44128817319869995,-0.30586111545562744,0.1848209798336029
1789317665090105900,6.74310595703125,0.601624071598053,-0.3214834928512573,0.4002286195755005
1789317665100061000,6.75306103515625,0.5835247039794922,-0.03656919673085213,0.5338407754898071
1789317665110015700,6.763015625,0.5276976227760315,-0.16482357680797577,0.23356668651103973
1789317665119970800,6.772970703125,0.4115790128707886,-0.0709812343120575,-0.033540915697813034
1789317665129926000,6.78292578125,0.3660501539707184,-0.0000881506348378025,-0.42878490686416626
1789317665139880000,6.7928798828125,0.28168201446533203,0.16170234978199005,-0.4505695700645447
1789317665149834800,6.802834716796875,0.3553708791732788,0.25622591376304626,-0.35157880187034607
1789317665159789800,6.812789794921875,0.5212525129318237,0.020709538832306862,-0.24021153151988983
1789317665169745000,6.822744873046875,0.4887886047363281,-0.09214111417531967,0.10795602947473526
1789317665179700000,6.832699951171875,0.3896132707595825,-0.11534310132265091,0.1432351917028427
1789317665189654800,6.84265478515625,0.23833400011062622,0.0012591425329446793,0.22521474957466125
1789317665199610000,6.852610107421875,0.17700247466564178,-0.01625034213066101,0.21808385848999023
1789317665209565000,6.86256494140625,0.19648589193820953,0.03766641765832901,0.15913692116737366
1789317665219519700,6.872519775390625,0.22398249804973602,0.018309231847524643,0.18743620812892914
1789317665229474800,6.882474853515625,0.3250119090080261,0.16948463022708893,0.011475827544927597
1789317665239429000,6.89242919921875,0.39292091131210327,0.4179130792617798,-0.16799034178256989
1789317665249384000,6.902384033203125,0.3970735967159271,0.34374484419822693,-0.47829946875572205
1789317665259338800,6.9123388671875,0.24899651110172272,0.020169716328382492,-0.54058438539505
1789317665269293800,6.9222939453125,0.060924071818590164,-0.3313494324684143,-0.0605219341814518
1789317665279249000,6.932248779296875,0.12214934825897217,-0.3965534567832947,0.34489187598228455
1789317665289204000,6.942203857421875,0.3972799777984619,-0.2659776210784912,0.6107994318008423
1789317665299158800,6.95215869140625,0.5987225770950317,0.17309774458408356,0.5413122773170471
1789317665309113900,6.96211376953125,0.6232103109359741,0.3111296594142914,0.23726022243499756
1789317665319069000,6.97206884765625,0.5027153491973877,0.09106572717428207,-0.10770222544670105
1789317665329023000,6.98202294921875,0.22589011490345,-0.008194546215236187,-0.23424898087978363
1789317665338977800,6.991977783203125,0.09534569084644318,0.04192774370312691,-0.1684017926454544
1789317665348932900,7.001932861328125,0.290540486574173,0.3249993920326233,-0.0336248055100441
1789317665358888000,7.011887939453125,0.47725629806518555,0.44827258586883545,0.2171006202697754
1789317665368842800,7.0218427734375,0.5137916803359985,-0.006072007119655609,0.3462279736995697
1789317665378797800,7.0317978515625,0.4034174978733063,-0.2683078944683075,0.38266563415527344
1789317665388753000,7.0417529296875,0.29937392473220825,-0.20586234331130981,0.313434362411499
1789317665398708000,7.0517080078125,0.25622937083244324,0.21193169057369232,0.17340187728405
1789317665408662800,7.061662841796875,0.18563084304332733,0.9057517051696777,0.05589096248149872
1789317665418617900,7.071617919921875,0.12499493360519409,1.2289916276931763,-0.28607356548309326
1789317665428572000,7.081572021484375,0.03057495318353176,0.5619357824325562,-0.4459220767021179
1789317665438527000,7.09152685546875,0.07506359368562698,-0.25738146901130676,-0.5339068174362183
1789317665448481800,7.101481689453125,0.28474971652030945,-0.6983053088188171,-0.19901908934116364
1789317665458436900,7.111436767578125,0.45542824268341064,-0.41896742582321167,0.5094515085220337
1789317665468392000,7.121391845703125,0.4515429437160492,0.020774520933628082,0.9272831082344055
1789317665478346800,7.1313466796875,0.13986921310424805,0.269877552986145,1.1610335111618042
1789317665488302000,7.141302001953125,-0.20083457231521606,0.4541339576244354,0.778178870677948
1789317665498257000,7.1512568359375,-0.4227994680404663,0.45775502920150757,0.12213017046451569
1789317665508212000,7.1612119140625,-0.44760972261428833,0.2507190406322479,-0.3174799680709839
1789317665518166800,7.171166748046875,-0.2018902450799942,0.1536119282245636,-0.8273202776908875
1789317665528121000,7.18112109375,0.14095738530158997,0.020476246252655983,-0.9305947422981262
1789317665538076000,7.191075927734375,0.41448771953582764,0.5306910276412964,-0.9782741069793701
1789317665548031000,7.201031005859375,0.4212055504322052,0.336677610874176,-0.586830735206604
1789317665557985800,7.21098583984375,-0.007879228331148624,0.10837467759847641,0.08684808015823364
1789317665567940900,7.22094091796875,-0.5096302032470703,0.37843677401542664,0.5069164633750916
1789317665577896000,7.23089599609375,-0.6389477252960205,-0.18970228731632233,0.7235425114631653
1789317665587850800,7.240850830078125,-0.48788124322891235,0.07758400589227676,0.4505240321159363
1789317665597806000,7.25080615234375,-0.23598164319992065,0.016268985345959663,0.37224626541137695
1789317665607761000,7.260760986328125,0.08929978311061859,-0.05958157032728195,0.17377819120883942
1789317665617715000,7.27071484375,0.264382928609848,0.036008067429065704,-0.2545047104358673
1789317665627669800,7.280669677734375,0.19340407848358154,0.3382507562637329,-0.5996717214584351
1789317665637625000,7.290625,0.009214004501700401,0.6403242945671082,-1.0510860681533813
1789317665647580000,7.300579833984375,-0.4781450033187866,0.4838947653770447,-0.7874559760093689
1789317665657534700,7.31053466796875,-0.7428246140480042,0.682543158531189,-0.4662446677684784
1789317665667490000,7.320489990234375,-0.5032436847686768,-0.1634853333234787,0.03918761759996414
1789317665677444900,7.33044482421875,-0.16172604262828827,-0.06869331002235413,0.47080400586128235
1789317665687400000,7.34039990234375,0.21144166588783264,-0.5026548504829407,0.6667143702507019
1789317665697354800,7.350354736328125,0.3669534921646118,-0.5495102405548096,0.73401939868927
1789317665707310000,7.36031005859375,0.1859956979751587,0.0931435227394104,0.3855056166648865
1789317665717265000,7.370264892578125,-0.11619691550731659,0.2692916691303253,0.0063798688352108
1789317665727219000,7.380218994140625,-0.40498238801956177,0.5785024762153625,-0.6190509796142578
1789317665737173800,7.390173828125,-0.5949685573577881,0.587645947933197,-0.9653034806251526
1789317665747129000,7.400129150390625,-0.47370046377182007,0.20086626708507538,-1.125679612159729
1789317665757084000,7.410083984375,-0.14053155481815338,0.1658954918384552,-1.0005406141281128
1789317665767038700,7.420038818359375,0.17907068133354187,-0.20487484335899353,-0.34735050797462463
1789317665776994000,7.429994140625,0.23520265519618988,-0.14011582732200623,0.4297891855239868
1789317665786948900,7.439948974609375,-0.03263410925865173,-0.5432260036468506,1.171044945716858
1789317665796904000,7.449904052734375,-0.4417577087879181,-0.2728365957736969,1.2217317819595337
1789317665806858800,7.459858642578125,-0.746271550655365,0.25136619806289673,0.6887637376785278
1789317665816813000,7.46981298828125,-0.8243287801742554,0.34431344270706177,-0.05006396770477295
1789317665826768000,7.479767822265625,-0.7138835191726685,0.33660972118377686,-0.7305956482887268
1789317665836723000,7.489722900390625,-0.4365411102771759,-0.2448720633983612,-1.0612555742263794
1789317665846677800,7.499677734375,-0.17977535724639893,-0.4348960816860199,-1.0599322319030762
1789317665856632800,7.5096328125,-0.17057013511657715,-0.2693063020706177,-0.555679202079773
1789317665866588000,7.519587890625,-0.46357351541519165,0.6010397672653198,0.13615970313549042
1789317665876542700,7.529542724609375,-0.8703684210777283,0.7294246554374695,0.5224839448928833
1789317665886498000,7.539498046875,-1.3268156051635742,0.19373510777950287,0.6652278304100037
1789317665896452900,7.549452880859375,-1.4810751676559448,-0.6734649538993835,0.48438531160354614
1789317665906407000,7.559406982421875,-1.1668884754180908,-1.2415963411331177,0.3225090801715851
1789317665916361700,7.56936181640625,-0.6490229964256287,-0.5579692721366882,0.30034756660461426
1789317665926317000,7.579317138671875,-0.23185241222381592,-0.03591619059443474,0.1737760603427887
1789317665936272000,7.58927197265625,-0.3088420033454895,-0.006906908005475998,-0.01558002457022667
1789317665946227000,7.59922705078125,-0.8909323215484619,-0.3361404538154602,-0.1299598664045334
1789317665956182000,7.60918212890625,-1.3867857456207275,-0.6355199813842773,-0.13224831223487854
1789317665966136800,7.61913671875,-1.3103466033935547,0.04068910703063011,-0.12682345509529114
1789317665976092000,7.629091796875,-0.8045569658279419,0.4526902437210083,-0.12390516698360443
1789317665986046700,7.639046630859375,-0.3698808550834656,0.5153024792671204,-0.20989970862865448
1789317665996002000,7.649001953125,-0.2157413512468338,-0.36144688725471497,-0.22237181663513184
1789317666005955800,7.658955810546875,-0.3278191387653351,-1.4975687265396118,0.028085431084036827
1789317666015911000,7.668910888671875,-0.47627758979797363,-1.7436269521713257,0.5215747952461243
1789317666025865700,7.67886572265625,-0.4499061703681946,-0.5478377938270569,0.9385219216346741
1789317666035821000,7.688821044921875,-0.2846303880214691,0.7825323343276978,0.9561965465545654
1789317666045775400,7.698775390625,-0.26293736696243286,0.973949134349823,0.5524522662162781
1789317666055730400,7.70873046875,-0.32559460401535034,0.34471264481544495,-0.25499582290649414
1789317666065685200,7.718685302734375,-0.27494901418685913,-0.9150370955467224,-0.8140788078308105
1789317666075640300,7.728640380859375,0.012657471932470798,-1.600062370300293,-1.001052975654602
1789317666085595400,7.738595458984375,0.4076652526855469,-0.6439579129219055,-0.48984479904174805
1789317666095550200,7.74855029296875,0.7168167233467102,0.6571911573410034,0.14090652763843536
1789317666105504300,7.758504150390625,0.4993666708469391,-0.0024546354543417692,0.5206631422042847
1789317666115459300,7.768459228515625,-0.1740967035293579,0.2555055320262909,0.6659607291221619
1789317666125414400,7.778414306640625,-0.34254297614097595,-0.7962867617607117,0.3898705244064331
1789317666135369200,7.788369140625,-0.10244142264127731,-0.8950426578521729,0.22875967621803284
1789317666145324500,7.798324462890625,0.40844476222991943,-0.15024861693382263,0.11411352455615997
1789317666155279400,7.808279296875,0.9801508784294128,0.15910948812961578,-0.22226236760616302
1789317666165234400,7.818234375,1.0520665645599365,-0.08346160501241684,-0.3206064999103546
1789317666175189500,7.828189453125,0.6240848898887634,-0.42463916540145874,-0.22042052447795868
1789317666185144300,7.838144287109375,0.24386246502399445,-0.47431111335754395,-0.12569694221019745
1789317666195099400,7.848099365234375,0.15347450971603394,-0.3405274748802185,0.08943880349397659
1789317666205053400,7.858053466796875,0.22370979189872742,0.2906017303466797,0.07920454442501068
1789317666215008500,7.868008544921875,0.317583829164505,0.5584752559661865,0.011041466146707535
1789317666224963300,7.87796337890625,0.43079081177711487,-0.17891861498355865,-0.23397360742092133
1789317666234918400,7.88791845703125,0.4028494656085968,-0.7003700733184814,-0.2980942726135254
1789317666244873200,7.897873291015625,0.36177152395248413,-1.0290195941925049,0.203976571559906
1789317666254828500,7.90782861328125,0.37769588828086853,0.022613434121012688,0.49261289834976196
1789317666264783400,7.917783447265625,0.2936555743217468,0.7232484817504883,0.5911272168159485
1789317666274738400,7.927738525390625,0.06548579782247543,0.7528055906295776,0.029808228835463524
1789317666284693500,7.937693603515625,-0.17091208696365356,-0.07707614451646805,-0.5901485085487366
1789317666294647600,7.9476474609375,-0.21910251677036285,-0.7952398657798767,-0.6496453881263733
1789317666304602400,7.957602294921875,0.0028634308837354183,-0.885100781917572,-0.21448247134685516
1789317666314557400,7.967557373046875,0.4320491552352905,0.2858077883720398,0.12083880603313446
1789317666324512500,7.977512451171875,0.662595808506012,0.5140334963798523,0.19435030221939087
1789317666334467300,7.98746728515625,0.2789645195007324,0.5607234835624695,-0.12035197764635086
1789317666344422400,7.99742236328125,-0.4086655378341675,0.23222951591014862,-0.23966531455516815
1789317666354377200,8.007377197265624,-0.6707248091697693,-0.203867107629776,-0.34699442982673645
1789317666364332500,8.01733251953125,-0.38862285017967224,-0.6500613689422607,-0.16390344500541687
1789317666374287400,8.027287353515625,0.1793617606163025,-0.18608252704143524,0.11403069645166397
1789317666384242200,8.0372421875,0.638831377029419,0.5776947736740112,0.1741153448820114
1789317666394196200,8.0471962890625,0.49170395731925964,0.4303934574127197,0.27880048751831055
1789317666404151600,8.057151611328125,-0.07598558068275452,-0.0039012646302580833,0.026728017255663872
1789317666414106400,8.0671064453125,-0.49930888414382935,-0.4817916750907898,-0.12285055220127106
1789317666424061200,8.077061279296874,-0.4737286865711212,-0.026814037933945656,-0.16434580087661743
1789317666434016500,8.0870166015625,-0.09221328049898148,0.03533295542001724,0.02016119472682476
1789317666443971300,8.096971435546875,0.38447922468185425,0.2314169853925705,0.11816418915987015
1789317666453926400,8.106926513671874,0.6684489250183105,-0.08051881194114685,0.09387163072824478
1789317666463881500,8.116881591796876,0.6427344679832458,-0.4038393497467041,-0.034439198672771454
1789317666473836500,8.12683642578125,0.4608139395713806,0.19656765460968018,-0.35536476969718933
1789317666483791400,8.136791259765625,0.208238422870636,0.029352029785513878,-0.38882550597190857
1789317666493745400,8.146745361328126,-0.023201992735266685,0.3050523102283478,-0.26119112968444824
1789317666503700500,8.156700439453125,0.010245713405311108,0.019454125314950943,0.11060427129268646
1789317666513655600,8.166655517578125,0.21422094106674194,-0.23461197316646576,0.4932134449481964
1789317666523610400,8.1766103515625,0.4309884011745453,-0.32041874527931213,0.7918837666511536
1789317666533565200,8.186565185546876,0.5801445841789246,-0.43367260694503784,0.7960286736488342
1789317666543520500,8.1965205078125,0.5894030928611755,-0.0924668163061142,0.33950456976890564
1789317666553475300,8.206475341796875,0.4150214195251465,0.3181303143501282,-0.18961547315120697
1789317666563430400,8.216430419921876,0.1801343560218811,0.602222740650177,-0.7535520792007446
1789317666573385500,8.226385498046875,-0.12548282742500305,0.7027496099472046,-0.7718130946159363
1789317666583339500,8.236339599609375,-0.22172360122203827,0.6398209929466248,-0.586454451084137
1789317666593294300,8.24629443359375,-0.0793377012014389,0.4684273898601532,-0.31281834840774536
1789317666603249400,8.25624951171875,0.09546606987714767,0.16986121237277985,0.15599705278873444
1789317666613204500,8.26620458984375,0.25429567694664,-0.32878056168556213,0.47837403416633606
1789317666623159300,8.2761591796875,0.25153741240501404,-0.5917727947235107,0.8331955075263977
1789317666633114400,8.2861142578125,0.1685573160648346,-0.41383713483810425,0.8127086162567139
1789317666643069400,8.2960693359375,-0.061474014073610306,0.05582145228981972,0.47189217805862427
1789317666653024500,8.3060244140625,-0.3266420364379883,0.14505040645599365,0.20243912935256958
1789317666662979300,8.315979248046874,-0.46490031480789185,0.48907461762428284,-0.058223892003297806
1789317666672934400,8.325934326171875,-0.365070641040802,0.4232980012893677,-0.2336638867855072
1789317666682888200,8.33588818359375,-0.08327385038137436,0.07973850518465042,-0.4253520965576172
1789317666692843500,8.345843505859374,0.2236703783273697,0.24340999126434326,-0.7460249066352844
1789317666702798300,8.35579833984375,0.38153937458992004,0.25128549337387085,-0.7930116057395935
1789317666712753400,8.36575341796875,0.1695120632648468,-0.6033159494400024,-0.3344871699810028
1789317666722708500,8.37570849609375,-0.23033173382282257,-0.14830531179904938,0.31907227635383606
1789317666732663300,8.385663330078126,-0.2701507806777954,-0.36141517758369446,0.8237956166267395
1789317666742618400,8.395618408203125,-0.2018391191959381,0.43643245100975037,0.9074848890304565
1789317666752573400,8.405573486328125,-0.016471650451421738,0.501054048538208,0.5097007751464844
1789317666762528500,8.415528564453124,0.1013556495308876,0.3189891576766968,0.14946459233760834
1789317666772483300,8.4254833984375,0.18989616632461548,-0.11572233587503433,-0.2162548005580902
1789317666782437400,8.435437255859375,0.2222980558872223,-0.3420659899711609,-0.39930692315101624
1789317666792392400,8.445392333984374,0.22307516634464264,0.017736120149493217,-0.5850474834442139
1789317666802347500,8.455347412109376,0.2108837366104126,0.7552900314331055,-0.7454339861869812
1789317666812302300,8.46530224609375,0.07927484810352325,0.626887857913971,-0.5319363474845886
1789317666822257400,8.47525732421875,-0.052206214517354965,0.3764471411705017,-0.2644074261188507
1789317666832212500,8.48521240234375,-0.04628733545541763,0.09036478400230408,0.050083406269550323
1789317666842167300,8.495167236328125,0.017050355672836304,-0.2407819777727127,0.3188333809375763
1789317666852122400,8.505122314453125,0.14611779153347015,-0.2239857017993927,0.3199750781059265
1789317666862077400,8.515077392578124,0.25441044569015503,0.0012950951931998134,0.25705015659332275
1789317666872032500,8.525032470703126,0.18257834017276764,-0.27063310146331787,0.23964188992977142
1789317666881986300,8.534986328125,-0.031925708055496216,-0.40264439582824707,0.03936737775802612
1789317666891941400,8.54494140625,-0.2041904181241989,-0.00875940266996622,-0.1680353432893753
1789317666901896400,8.554896484375,-0.13005919754505157,0.2431439459323883,-0.4392277002334595
1789317666911851500,8.5648515625,-0.03278431296348572,0.33204665780067444,-0.49806252121925354
1789317666921806300,8.574806396484375,-0.04018017649650574,0.17118427157402039,-0.22677908837795258
1789317666931761400,8.584761474609374,-0.0863327607512474,-0.018380338326096535,-0.023665115237236023
1789317666941716500,8.594716552734376,-0.08322644978761673,0.4963751435279846,-0.1268484890460968
1789317666951671300,8.60467138671875,-0.08084025233983994,0.5344167947769165,-0.4171024262905121
1789317666961626400,8.61462646484375,-0.3609507381916046,-0.309213787317276,-0.2177528291940689
1789317666971580400,8.624580322265626,-0.5833712816238403,-1.4289494752883911,0.2983291745185852
1789317666981535500,8.634535400390625,-0.5764851570129395,-2.1413021087646484,1.3602334260940552
1789317666991490300,8.644490234375,-0.23236559331417084,-0.9597366452217102,1.8134894371032715
1789317667001445400,8.6544453125,0.21357086300849915,1.4266961812973022,1.138916015625
1789317667011400400,8.664400390625,0.19370369613170624,3.4820640087127686,-0.3070259988307953
1789317667021355300,8.674355224609375,-0.5915980339050293,0.7365781664848328,-1.8869800567626953
1789317667031310300,8.684310302734374,-1.5976306200027466,-1.6508599519729614,-2.3998019695281982
1789317667041265700,8.694265625,-1.5559427738189697,-2.0809314250946045,-1.2702175378799438
1789317667051220700,8.704220703125,-0.42051684856414795,-0.44729921221733093,0.19749097526073456
1789317667061175600,8.714175537109375,0.6309555768966675,1.2090879678726196,1.2693687677383423
1789317667071129600,8.724129638671876,0.679104208946228,1.0083366632461548,1.8330998420715332
1789317667081084700,8.734084716796875,-0.09138743579387665,0.04911987483501434,1.3077729940414429
1789317667091039700,8.744039794921875,-0.8933041095733643,-1.4979921579360962,0.32283690571784973
1789317667100994600,8.75399462890625,-1.0601048469543457,-1.5973658561706543,-0.40816032886505127
1789317667110949600,8.76394970703125,-0.5398885011672974,-0.5625717639923096,-0.806652843952179
1789317667120904700,8.77390478515625,-0.048404283821582794,0.8577804565429688,-0.46808862686157227
1789317667130859500,8.783859619140625,0.28584346175193787,1.3888297080993652,-0.44680652022361755
1789317667140814600,8.793814697265624,0.07041265070438385,0.3121664226055145,-0.1751052439212799
1789317667150769700,8.803769775390625,-0.4178728759288788,-0.04934624582529068,-0.11883717030286789
1789317667160723700,8.8137236328125,-0.6010432243347168,-0.7053350210189819,-0.07972066104412079
1789317667170678500,8.823678466796874,-0.5524312257766724,-0.697040855884552,0.47248685359954834
1789317667180633600,8.833633544921875,-0.18135088682174683,-0.6409429907798767,0.724382758140564
1789317667190588700,8.843588623046875,0.11786618083715439,-0.2336479127407074,0.7710274457931519
1789317667200543700,8.853543701171875,0.1499447524547577,-0.1017623171210289,0.2955368459224701
1789317667210498600,8.86349853515625,-0.13946761190891266,-0.01708151586353779,-0.4331791400909424
1789317667220453600,8.87345361328125,-0.4915369749069214,-0.3391314446926117,-0.808585524559021
1789317667230408700,8.88340869140625,-0.5831243991851807,-0.2824513912200928,-0.9503682255744934
1789317667240363500,8.893363525390624,-0.48773664236068726,0.4938882887363434,-0.41566431522369385
1789317667250318600,8.903318603515626,-0.17294035851955414,-0.03845205157995224,0.300776869058609
1789317667260272600,8.913272705078125,-0.025963956490159035,0.3478442430496216,0.6708257794380188
1789317667270227700,8.923227783203124,-0.06187082454562187,-0.7600728273391724,0.7602698802947998
1789317667280182500,8.9331826171875,-0.24832431972026825,-0.9867120981216431,0.3899648189544678
1789317667290137600,8.9431376953125,-0.3324818015098572,-0.5308833122253418,0.061103302985429764
1789317667300092700,8.9530927734375,-0.21946658194065094,-0.16165760159492493,-0.0017193368403241038
1789317667310047700,8.9630478515625,-0.12346654385328293,0.6923379898071289,-0.32706865668296814
1789317667320002600,8.97300244140625,-0.1286487877368927,1.4056369066238403,-0.6029937267303467
1789317667329957600,8.98295751953125,-0.13531547784805298,0.06754575669765472,-0.8167315721511841
1789317667339912700,8.99291259765625,-0.17502401769161224,-0.5811158418655396,-0.8869090676307678
1789317667349867500,9.002867431640626,0.04499517008662224,-1.0162683725357056,-0.4757518768310547
1789317667359821600,9.012821533203125,0.275928258895874,-0.6964232921600342,0.19328691065311432
1789317667369776600,9.022776611328124,0.2726070284843445,-0.33827686309814453,0.9127625226974487
1789317667379731700,9.032731689453126,0.13528218865394592,0.10084778070449829,1.1123336553573608
1789317667389686500,9.0426865234375,-0.022596122696995735,0.38809049129486084,0.5407958626747131
1789317667399641900,9.052641845703125,-0.1544359177350998,0.10934566706418991,-0.3658328354358673
1789317667409596700,9.0625966796875,-0.15951110422611237,0.05662785843014717,-0.958771824836731
1789317667419551500,9.072551513671876,0.08735008537769318,0.09809248149394989,-1.1429579257965088
1789317667429506600,9.082506591796875,0.3060843050479889,0.2792319059371948,-0.6959412693977356
1789317667439461600,9.092461669921875,0.41675809025764465,0.3932298421859741,-0.2081763744354248
1789317667449415700,9.102415771484376,0.33100268244743347,-0.23113548755645752,0.5037867426872253
1789317667459370500,9.11237060546875,0.18149283528327942,-1.0505409240722656,0.9178877472877502
1789317667469325600,9.12232568359375,0.075790636241436,-1.2699496746063232,1.0925098657608032
1789317667479280600,9.13228076171875,0.21141317486763,-0.5531516075134277,1.0513499975204468
1789317667489235700,9.142235595703125,0.5742592811584473,0.7028234004974365,0.4635423719882965
1789317667499190500,9.1521904296875,0.7982771992683411,1.0545252561569214,-0.38832563161849976
1789317667509145900,9.162145751953124,0.6376196146011353,0.09811138361692429,-1.3141461610794067
1789317667519100700,9.1721005859375,0.20644532144069672,-0.8319060206413269,-1.2614562511444092
1789317667529055500,9.182055419921875,0.19720281660556793,-1.2431113719940186,-0.6849815249443054
1789317667539010600,9.192010498046875,0.5797129273414612,-0.11566641181707382,0.2065363973379135
1789317667548964900,9.20196484375,0.979910671710968,0.7656979560852051,0.8982679843902588
1789317667558919700,9.211919677734375,0.822486162185669,0.8071506023406982,1.1927297115325928
1789317667568874500,9.22187451171875,0.2352391481399536,0.17735880613327026,0.9416524767875671
1789317667578829600,9.23182958984375,-0.15936967730522156,-0.5917237401008606,0.26947009563446045
1789317667588784600,9.24178466796875,-0.03521924093365669,-0.5363377332687378,-0.3414342999458313
1789317667598739700,9.25173974609375,0.3886505365371704,0.23663464188575745,-0.8579301238059998
1789317667608694500,9.261694580078125,0.5237516164779663,0.8611605763435364,-0.5146145820617676
1789317667618649600,9.271649658203126,0.5324050188064575,0.6137830018997192,-0.11809974163770676
1789317667628604700,9.281604736328125,0.4370063543319702,0.024831047281622887,0.07713739573955536
1789317667638559500,9.2915595703125,0.31334567070007324,0.8141786456108093,-0.10465770214796066
1789317667648513500,9.301513427734376,0.25362321734428406,0.17021620273590088,-0.2926537096500397
1789317667658468600,9.311468505859375,-0.03909626975655556,0.013105682097375393,0.13762471079826355
1789317667668423700,9.321423583984375,-0.06699048727750778,-1.0271806716918945,0.6025881171226501
1789317667678378500,9.33137841796875,0.13508671522140503,-0.9879435300827026,0.8045377731323242
1789317667688333800,9.341333740234376,0.41993948817253113,0.14097122848033905,0.6081735491752625
1789317667698288600,9.35128857421875,0.6748069524765015,0.4717417061328888,0.22199152410030365
1789317667708243700,9.36124365234375,0.5371643900871277,0.07932012528181076,0.01233469694852829
1789317667718198500,9.371198486328124,0.1434253454208374,-0.2738318145275116,-0.30382487177848816
1789317667728153600,9.381153564453125,-0.21554294228553772,-0.2798154056072235,-0.45365431904792786
1789317667738107600,9.391107666015625,-0.22521688044071198,0.49246880412101746,-0.47985154390335083
1789317667748062700,9.401062744140624,0.05248930677771568,1.080873727798462,-0.5424736738204956
1789317667758017500,9.411017578125,0.04370913282036781,0.7094237804412842,-0.22340752184391022
1789317667767972600,9.42097265625,0.12479279935359955,-0.05685609206557274,-0.3849972188472748
1789317667777927700,9.430927734375,0.27175986766815186,-0.7647834420204163,-0.008194279856979847
1789317667787882500,9.440882568359376,0.4022105634212494,-0.568820059299469,0.2013581395149231
1789317667797837800,9.450837890625,0.37369850277900696,-0.5024327635765076,0.6661474108695984
1789317667807792600,9.460792724609375,0.20787915587425232,0.17757585644721985,0.8871234655380249
1789317667817747700,9.470747802734374,0.06988534331321716,0.8554632663726807,0.1669815331697464
1789317667827702500,9.48070263671875,-0.10377033799886703,0.7980750799179077,-0.5050961971282959
1789317667837656800,9.49065673828125,-0.09549962729215622,0.7568349838256836,-1.3259594440460205
1789317667847611600,9.500611572265624,0.013087306171655655,0.383303701877594,-1.4164410829544067
1789317667857566700,9.510566650390626,0.06974925100803375,-0.6946972608566284,-0.3031921088695526
1789317667867521500,9.520521484375,0.13502146303653717,-0.5521835684776306,0.7845209240913391
1789317667877476600,9.5304765625,0.3278718888759613,0.19009563326835632,1.2625287771224976
1789317667887431700,9.540431640625,0.452340304851532,0.34657445549964905,0.7579668164253235
1789317667897386500,9.550386474609375,0.12644556164741516,-0.203923299908638,-0.02907373011112213
1789317667907341800,9.560341796875,-0.3066827058792114,-0.7173709273338318,-0.24116681516170502
1789317667917296600,9.570296630859374,-0.21738770604133606,-0.3463803231716156,-0.5200018882751465
1789317667927250700,9.580250732421876,0.1925705075263977,0.3282010555267334,-0.688298761844635
1789317667937205500,9.59020556640625,0.26814571022987366,0.43884047865867615,-0.5019041299819946
1789317667947160800,9.600160888671875,-0.0694618970155716,0.18150481581687927,-0.02635437622666359
1789317667957115600,9.61011572265625,-0.35899436473846436,-0.7113553285598755,0.6027221083641052
1789317667967070500,9.620070556640625,-0.29462552070617676,0.01731906831264496,0.6661370396614075
1789317667977025800,9.63002587890625,0.014635934494435787,1.1515380144119263,0.30494818091392517
1789317667986980600,9.639980712890624,-0.10794324427843094,-0.6489207148551941,0.7303192019462585
1789317667996935700,9.649935791015626,-0.5207478404045105,-0.6533269286155701,0.5127269625663757
1789317668006890500,9.659890380859375,-0.4748951494693756,-1.015251636505127,0.5749892592430115
1789317668016845800,9.669845703125,-0.007437143474817276,0.9859158396720886,-0.44580942392349243
1789317668026799600,9.679799560546876,0.2277306318283081,2.335789918899536,-1.1655277013778687
1789317668036754700,9.689754638671875,0.05149035528302193,0.09277547895908356,-1.2207897901535034
1789317668046710000,9.6997099609375,-0.34829992055892944,-1.0484135150909424,-1.0616012811660767
1789317668056664800,9.709664794921874,-0.329425573348999,-2.164856195449829,-0.07427023351192474
1789317668066620200,9.7196201171875,0.058214038610458374,-0.1480903923511505,0.6592668294906616
1789317668076575000,9.729574951171875,0.3272801339626312,0.537962794303894,1.520635962486267
1789317668086530000,9.739530029296875,0.057250507175922394,1.1185228824615479,1.841249942779541
1789317668096484900,9.74948486328125,-0.2905285060405731,0.4073379337787628,1.030496597290039
1789317668106440200,9.759440185546875,-0.5231100916862488,-0.768770158290863,0.1926991492509842
1789317668116395000,9.76939501953125,-0.4459258019924164,-0.7747963666915894,-0.7586935758590698
1789317668126349000,9.77934912109375,-0.021316474303603172,0.5672125816345215,-1.3641445636749268
1789317668136303900,9.789303955078125,0.4324693977832794,1.4152802228927612,-1.6037564277648926
1789317668146259000,9.799259033203125,0.23912976682186127,0.3490719795227051,-1.384266972541809
1789317668156214000,9.809214111328124,-0.41132575273513794,0.21750596165657043,-0.5525878071784973
1789317668166168800,9.8191689453125,-0.5636396408081055,0.06338430196046829,0.16819140315055847
1789317668176124200,9.829124267578125,-0.49197879433631897,-0.07896298915147781,1.110816240310669
1789317668186079000,9.839078857421875,-0.349229633808136,-1.784839153289795,1.759874939918518
1789317668196034000,9.849033935546874,-0.15749268233776093,-1.5292887687683105,1.8288547992706299
1789317668205989000,9.858989013671875,0.09019407629966736,-0.6467984914779663,1.7438576221466064
1789317668215943200,9.868943115234375,0.2022324651479721,0.7411785125732422,0.8302385807037354
1789317668225898000,9.87889794921875,-0.03569914028048515,1.332735300064087,-0.31945815682411194
1789317668235853000,9.88885302734375,-0.5285525321960449,0.7636571526527405,-1.710491418838501
1789317668245808000,9.89880810546875,-0.9524800777435303,-0.00726350536569953,-2.679359197616577
1789317668255763000,9.908762939453124,-0.7730323076248169,-0.7799993753433228,-2.6252238750457764
1789317668265718000,9.918718017578126,-0.2381632924079895,1.2582746744155884,-1.3991345167160034
1789317668275672800,9.9286728515625,0.38819462060928345,0.726259708404541,0.17149825394153595
1789317668285628200,9.938628173828125,0.3651324212551117,0.7646084427833557,1.1397067308425903
1789317668295583000,9.9485830078125,-0.07708173245191574,-0.9526225924491882,1.3472071886062622
1789317668305538000,9.9585380859375,-0.575110137462616,-2.1590802669525146,1.1922260522842407
1789317668315491800,9.968491943359375,-0.6981610059738159,-1.2754567861557007,1.0283108949661255
1789317668325447200,9.978447265625,-0.21218442916870117,0.49964043498039246,0.623821496963501
1789317668335402000,9.988402099609376,0.2916630208492279,2.101422071456909,-0.2115173041820526
1789317668345357000,9.998357177734375,0.19864065945148468,1.7979762554168701,-1.1733653545379639
1789317668355312000,10.00831201171875,-0.3520160913467407,-0.1989503800868988,-1.4480328559875488
1789317668365267000,10.018266845703126,-0.6411978602409363,-2.017230272293091,-1.115234136581421
1789317668375222000,10.028221923828125,-0.4242306351661682,-0.40729984641075134,-0.5172444581985474
1789317668385176800,10.0381767578125,0.24952781200408936,1.5399987697601318,0.3048142194747925
1789317668395132200,10.048132080078124,0.588322103023529,1.787400245666504,0.5583934783935547
1789317668405086000,10.0580859375,-0.025557557120919228,0.024324780330061913,0.8287645578384399
1789317668415041000,10.068041015625,-0.6526832580566406,-1.565624713897705,0.5593365430831909
1789317668424995800,10.077995849609374,-0.5668349266052246,-2.068802833557129,0.6561599969863892
1789317668434951200,10.087951171875,0.25081971287727356,0.00965901929885149,0.299650102853775
1789317668444906000,10.097906005859375,0.9701583981513977,0.4623876214027405,0.3998461961746216
1789317668454860800,10.10786083984375,0.945620596408844,0.7219927906990051,-0.2718741297721863
1789317668464816000,10.117816162109374,0.1698063462972641,1.0572445392608643,-1.0030977725982666
1789317668474771000,10.12777099609375,-0.461980402469635,0.10593654960393906,-1.0898406505584717
1789317668484726000,10.13772607421875,-0.6276873350143433,-0.4306906759738922,-0.6377493143081665
1789317668494681000,10.14768115234375,-0.4653266668319702,-0.36956286430358887,0.6583586931228638
1789317668504635100,10.15763525390625,0.21450456976890564,0.24897173047065735,1.0149011611938477
1789317668514590000,10.16758984375,0.7514724135398865,0.4039280414581299,0.8206232786178589
1789317668524545000,10.177544921875,0.5767184495925903,-0.23432888090610504,0.552606463432312
1789317668534500000,10.1875,0.0068057081662118435,-0.46161556243896484,0.2827363610267639
1789317668544455200,10.197455078125,-0.2684445083141327,-0.6255272626876831,0.041605498641729355
1789317668554410000,10.207409912109375,-0.2081494778394699,1.1345196962356567,-0.354643315076828
1789317668564364800,10.21736474609375,0.07869827747344971,1.0339499711990356,-0.8456782698631287
1789317668574320000,10.227320068359376,0.07583697140216827,1.2388066053390503,-1.210557222366333
1789317668584275000,10.23727490234375,-0.0767136886715889,-0.2512998878955841,-0.6764264106750488
1789317668594230000,10.24722998046875,-0.05375830456614494,-1.6300116777420044,0.32845085859298706
1789317668604183800,10.257183837890626,0.17181409895420074,-0.7016167044639587,1.1475493907928467
1789317668614139100,10.26713916015625,0.5414584875106812,-0.06079250946640968,1.6576353311538696
1789317668624094000,10.277093994140625,0.642794132232666,0.4581049680709839,1.4352174997329712
1789317668634049000,10.287049072265624,0.3306809961795807,0.6759904623031616,0.5924556255340576
1789317668644004000,10.297004150390626,0.02678181231021881,-0.17190279066562653,-0.5854339003562927
1789317668653959000,10.306958984375,-0.17395740747451782,-0.6628232598304749,-1.4671484231948853
1789317668663914000,10.3169140625,-0.14089852571487427,-0.15459570288658142,-1.7594237327575684
1789317668673868800,10.326868896484376,0.16790218651294708,0.857682466506958,-1.0958340167999268
1789317668683824000,10.33682421875,0.46300598978996277,0.7498266100883484,-0.1470797210931778
1789317668693778000,10.34677783203125,0.4053826630115509,1.0926337242126465,0.16198091208934784
1789317668703733000,10.35673291015625,0.11389274895191193,-0.5205241441726685,0.36643683910369873
1789317668713687800,10.366687744140625,-0.2869497537612915,-1.3083281517028809,0.5717915892601013
1789317668723643100,10.37664306640625,-0.3631771504878998,-1.1341787576675415,0.8545228838920593
1789317668733598000,10.386597900390624,0.07350990176200867,0.2750754952430725,0.574881374835968
1789317668743553000,10.396552978515626,0.3137992024421692,0.9717333912849426,0.05795624479651451
1789317668753508000,10.406508056640625,-0.04414802044630051,0.6620437502861023,-0.34322020411491394
1789317668763463000,10.416462890625,-0.450579434633255,-0.28775161504745483,-0.5465049147605896
1789317668773418000,10.42641796875,-0.46145445108413696,-0.5094792246818542,-0.7326550483703613
1789317668783373000,10.436373046875,-0.2779402732849121,-0.46013644337654114,-0.31760460138320923
1789317668793327000,10.4463271484375,-0.07586093991994858,0.25291693210601807,0.10838799178600311
1789317668803282000,10.456281982421874,-0.04970470443367958,0.42613959312438965,0.4070306122303009
1789317668813237000,10.466237060546876,-0.27404141426086426,0.5762324333190918,0.26823171973228455
1789317668823192000,10.476192138671875,-0.4720791280269623,-0.1823490411043167,-0.10279588401317596
1789317668833147100,10.486147216796875,-0.6646216511726379,-0.6880851984024048,-0.015353123657405376
1789317668843102000,10.49610205078125,-0.5944952964782715,-0.9679940938949585,0.16923989355564117
1789317668853057000,10.50605712890625,-0.24666251242160797,-0.5729151964187622,0.24662388861179352
1789317668863012000,10.51601220703125,-0.04580716788768768,-0.10973235964775085,0.2012188583612442
1789317668872967000,10.525966796875,-0.3071708679199219,0.13042086362838745,0.32959866523742676
1789317668882922000,10.535921875,-0.7136046886444092,0.4120645225048065,0.47138482332229614
1789317668892876000,10.5458759765625,-0.7855414152145386,0.32331547141075134,0.15707430243492126
1789317668902831000,10.5558310546875,-0.7153854966163635,-0.1516483873128891,-0.1006949171423912
1789317668912786000,10.565785888671876,-0.4390234351158142,-0.12001775205135345,-0.49877864122390747
1789317668922741000,10.575740966796875,-0.13445501029491425,0.15849536657333374,-0.6050571203231812
1789317668932696000,10.585696044921875,-0.04237541928887367,0.10542789101600647,-0.34652945399284363
1789317668942651100,10.595651123046874,-0.12505751848220825,-0.08813811093568802,-0.1455816924571991
1789317668952606000,10.60560595703125,-0.34590306878089905,-0.33275797963142395,0.3277062177658081
1789317668962561000,10.61556103515625,-0.343141108751297,0.4350510537624359,0.17430469393730164
1789317668972516000,10.62551611328125,-0.24207787215709686,0.03699183836579323,0.20383940637111664
1789317668982471000,10.635470947265626,-0.050636280328035355,-0.8613523244857788,0.24823378026485443
1789317668992425000,10.645425048828125,0.20116320252418518,-0.940015435218811,-0.12564288079738617
1789317669002379800,10.6553798828125,0.24329893290996552,-0.8836301565170288,0.3297502100467682
1789317669012335000,10.665335205078126,0.3277150094509125,-0.42575448751449585,0.38547179102897644
1789317669022290000,10.6752900390625,0.25874021649360657,0.1081504374742508,0.43764203786849976
1789317669032245000,10.685244873046875,0.1133342832326889,1.0139721632003784,-0.12316400557756424
1789317669042199600,10.695199462890624,0.03705602139234543,0.685079038143158,-1.235076904296875
1789317669052155000,10.70515478515625,-0.25390392541885376,0.5358908772468567,-1.3908478021621704
1789317669062109700,10.715109619140625,-0.5018255710601807,-0.10849851369857788,-0.7604779005050659
1789317669072064500,10.725064453125,-0.3432159423828125,-0.9069251418113708,0.04710838943719864
1789317669082019600,10.73501953125,0.18214450776576996,-0.6811234354972839,0.35452771186828613
1789317669091974000,10.744973876953125,0.39292144775390625,-1.062102198600769,1.186448335647583
1789317669101928700,10.7549287109375,0.1566591113805771,-0.10248642414808273,1.0870362520217896
1789317669111883500,10.764883544921876,-0.261769562959671,0.2833033502101898,0.9999282956123352
1789317669121838600,10.774838623046875,-0.39914393424987793,-0.030533408746123314,0.39804911613464355
1789317669131793700,10.784793701171875,-0.33240270614624023,0.1119489073753357,-0.8702073097229004
1789317669141748700,10.794748779296874,-0.15147393941879272,-0.5779059529304504,-1.1215561628341675
1789317669151703600,10.80470361328125,0.13342329859733582,0.12415976822376251,-1.6032005548477173
1789317669161659000,10.814658935546875,0.2387545257806778,0.5045832395553589,-1.0569223165512085
1789317669171613700,10.82461376953125,0.20916520059108734,-0.0062110242433846,-0.4510475993156433
1789317669181568500,10.834568603515624,-0.20214538276195526,-0.5322495102882385,0.3390880525112152
1789317669191522600,10.8445224609375,-0.506654679775238,-1.2173863649368286,1.235892653465271
1789317669201478000,10.854477783203125,-0.3201380670070648,0.2226533144712448,0.8852214217185974
1789317669211432700,10.8644326171875,0.10038599371910095,0.2732594907283783,0.44293296337127686
1789317669221387500,10.874387451171875,0.3039308488368988,0.9894894957542419,-0.6398638486862183
1789317669231342800,10.8843427734375,0.07498902082443237,-0.5421583652496338,-0.8683998584747314
1789317669241297700,10.894297607421874,-0.09647753834724426,-1.6474593877792358,-0.6185505986213684
1789317669251252700,10.904252685546876,0.057560231536626816,-1.5998162031173706,-0.1705232709646225
1789317669261207600,10.91420751953125,0.27884602546691895,0.06505383551120758,0.793645441532135
1789317669271162600,10.92416259765625,0.5468146204948425,1.8363128900527954,0.9042481184005737
1789317669281117700,10.93411767578125,0.5740252137184143,1.2595486640930176,0.22636176645755768
1789317669291071700,10.94407177734375,0.26521435379981995,-0.5308553576469421,-0.6664243936538696
1789317669301026600,10.954026611328125,0.08814477175474167,-1.8760364055633545,-0.9390303492546082
1789317669310981600,10.963981689453124,0.38700151443481445,-2.2702009677886963,-0.41392022371292114
1789317669320936700,10.973936767578126,0.706227719783783,0.3350197970867157,0.36368340253829956
1789317669330891500,10.9838916015625,1.065233826637268,1.76885187625885,0.6772072315216064
1789317669340846800,10.993846923828125,0.912449300289154,1.5693291425704956,0.2844221293926239
1789317669350801700,11.0038017578125,0.28377366065979004,0.5080475211143494,-0.6830509901046753
1789317669360756700,11.0137568359375,-0.046292129904031754,-1.296142339706421,-1.1044517755508423
1789317669370711600,11.023711669921875,0.21664176881313324,-0.5040096044540405,-0.3996691107749939
1789317669380666600,11.03366650390625,1.0222746133804321,-0.5612910389900208,0.38847023248672485
1789317669390620700,11.04362060546875,1.3051915168762207,-0.20324233174324036,1.1047625541687012
1789317669400575700,11.05357568359375,0.9926463961601257,-0.6229661107063293,1.5943090915679932
1789317669410530600,11.063530517578124,0.5098273158073425,-0.8192349672317505,1.9828983545303345
1789317669420485600,11.073485595703126,0.16157424449920654,-0.5028082728385925,1.9981497526168823
1789317669430440700,11.083440673828125,0.15697789192199707,0.3261975646018982,1.2593284845352173
1789317669440395500,11.0933955078125,0.3666701316833496,1.3770694732666016,0.026284068822860718
1789317669450350800,11.103350830078124,0.862834632396698,3.8808975219726562,-2.8313522338867188
1789317669460305700,11.1133056640625,0.7144722938537598,-1.0103760957717896,-5.281893730163574
1789317669470260700,11.1232607421875,0.012146677821874619,0.0041278996504843235,-4.479792594909668
1789317669480215800,11.1332158203125,0.1833764761686325,-0.844088613986969,-1.2971605062484741
1789317669490169900,11.143169921875,0.7326433062553406,-2.810142755508423,3.0050711631774902
1789317669500124700,11.153124755859375,0.7788593173027039,-1.7802094221115112,5.455124855041504
1789317669510079700,11.163079833984375,0.7870098948478699,0.858653724193573,5.4226975440979
1789317669520034800,11.173034912109374,1.6018050909042358,7.570400714874268,0.1530313640832901
1789317669529989600,11.18298974609375,0.63390052318573,-3.1551268100738525,-3.5072689056396484
1789317669539944700,11.19294482421875,-1.4753094911575317,-1.3179395198822021,-2.5479307174682617
1789317669549899500,11.2028994140625,-1.6647942066192627,-1.7019026279449463,0.30277717113494873
1789317669559854800,11.212854736328126,-0.14395317435264587,-2.7229700088500977,3.0440218448638916
1789317669569809700,11.2228095703125,1.3172959089279175,2.3417739868164062,1.9726574420928955
1789317669579763700,11.232763671875,2.049072027206421,7.1994171142578125,-0.21216019988059998
1789317669589718500,11.242718505859376,1.2350116968154907,-2.1594629287719727,-4.612237453460693
1789317669599673900,11.252673828125,-1.1005630493164062,-1.5129714012145996,-4.450723171234131
1789317669609628700,11.262628662109375,-1.8622955083847046,0.10996591299772263,-2.2846333980560303
1789317669619583500,11.27258349609375,-0.09971913695335388,0.5265455842018127,0.166283518075943
1789317669629538800,11.282538818359376,1.1577993631362915,1.8509358167648315,1.319300651550293
1789317669639493600,11.29249365234375,0.6313907504081726,2.330674409866333,1.3128875494003296
1789317669649448700,11.30244873046875,-0.13330133259296417,-2.6437172889709473,1.6521492004394531
1789317669659403500,11.312403564453126,-0.8025883436203003,-3.7155978679656982,3.162489891052246
1789317669669358800,11.32235888671875,-0.7071765661239624,-2.1074721813201904,3.635364294052124
1789317669679312600,11.332312744140625,0.21605613827705383,1.9217764139175415,2.2933101654052734
1789317669689267700,11.342267822265624,0.7728970050811768,3.7760672569274902,-0.5360746383666992
1789317669699222500,11.352222412109375,0.032705750316381454,3.347869873046875,-4.0198893547058105
1789317669709177900,11.362177734375,-1.4117456674575806,0.05404485762119293,-4.864936828613281
1789317669719132700,11.372132568359374,-1.8317203521728516,-3.778445243835449,-2.300644874572754
1789317669729087500,11.38208740234375,-0.9520971179008484,-3.635521650314331,0.8306953310966492
1789317669739042800,11.392042724609375,0.9258812069892883,5.10592794418335,1.195791244506836
1789317669748997600,11.40199755859375,2.1444528102874756,4.899272441864014,-0.2692972421646118
1789317669758952700,11.41195263671875,0.047020770609378815,-1.4754879474639893,-0.8793787360191345
1789317669768907800,11.42190771484375,-2.5623886585235596,-1.2942893505096436,1.2773526906967163
1789317669778861800,11.43186181640625,-2.395723819732666,-5.068450450897217,3.9340014457702637
1789317669788816600,11.441816650390624,-0.8605677485466003,-3.2060933113098145,4.55695104598999
1789317669798771700,11.451771728515626,0.7276461720466614,5.415841579437256,2.999765634536743
1789317669808726800,11.461726806640625,1.5510796308517456,5.037930011749268,0.031620509922504425
1789317669818681600,11.471681640625,0.1295260339975357,-0.6798943877220154,-5.302158355712891
1789317669828636700,11.48163671875,-2.148662805557251,-1.5839935541152954,-5.155397415161133
1789317669838591500,11.491591552734375,-2.080639600753784,-3.5712623596191406,-3.268592596054077
1789317669848546800,11.501546875,-0.4576314687728882,-1.3145381212234497,-0.4140491187572479
1789317669858501600,11.511501708984374,0.9593750238418579,4.144660949707031,1.2706609964370728
1789317669868456700,11.521456787109376,1.2192792892456055,4.533339500427246,1.1689367294311523
1789317669878410500,11.531410400390625,-0.1641647070646286,-2.352525472640991,0.8526338934898376
1789317669888365800,11.54136572265625,-2.0886764526367188,-3.1087734699249268,1.9363945722579956
1789317669898320600,11.551320556640626,-2.111281156539917,-2.921635150909424,2.815309524536133
1789317669908275700,11.561275634765625,-0.34021350741386414,1.1032285690307617,1.9674615859985352
1789317669918230800,11.571230712890625,0.7980718612670898,2.2976491451263428,0.9039368033409119
1789317669928185600,11.581185546875,0.5611464381217957,2.1867306232452393,-0.7455791234970093
1789317669938140700,11.591140625,-0.32897788286209106,-0.07993903756141663,-1.803972601890564
1789317669948095500,11.601095458984375,-0.8535583019256592,-1.1552425622940063,-3.0360565185546875
1789317669958050800,11.61105078125,-0.7570541501045227,-0.2380210906267166,-2.696859359741211
1789317669968004600,11.621004638671875,-0.13198013603687286,-0.5798535346984863,-1.5044101476669312
1789317669977959700,11.630959716796875,0.27292874455451965,1.5872820615768433,-0.2684202790260315
1789317669987914500,11.64091455078125,0.29642605781555176,-0.3160402476787567,1.1674113273620605
1789317669997869800,11.650869873046876,-0.13793709874153137,-1.7573597431182861,1.881749153137207
1789317670007824600,11.66082470703125,-0.5092083811759949,-2.293525457382202,2.6235361099243164
1789317670017779700,11.67077978515625,-0.2674618065357208,-0.371084600687027,2.1457083225250244
1789317670027734800,11.68073486328125,0.33695992827415466,2.097957134246826,0.6021497845649719
1789317670037689600,11.690689697265626,0.4702463448047638,1.6468082666397095,-0.9489617943763733
1789317670047644700,11.700644775390625,-0.047086019068956375,0.5326037406921387,-2.2698447704315186
1789317670057599500,11.710599609375,-0.3494434952735901,-1.6778730154037476,-2.1885182857513428
1789317670067553500,11.720553466796876,-0.06879184395074844,-2.518549919128418,-1.3756030797958374
1789317670077508600,11.730508544921875,0.4309988021850586,0.3448481857776642,-0.06655479222536087
1789317670087463700,11.740463623046875,0.8668298721313477,2.054003953933716,1.1810238361358643
1789317670097418500,11.75041845703125,0.5553476214408875,2.834839344024658,1.3340269327163696
1789317670107373800,11.760373779296875,-0.2724911868572235,-0.5292382836341858,0.6972879767417908
1789317670117328600,11.77032861328125,-0.7431479096412659,-2.1167867183685303,0.2004268318414688
1789317670127283500,11.780283447265624,-0.0985175222158432,-2.353638172149658,-0.20649857819080353
1789317670137238800,11.79023876953125,0.853346586227417,0.37007659673690796,-0.018765432760119438
1789317670147193600,11.800193603515625,1.3641821146011353,1.153497576713562,0.38477563858032227
1789317670157148700,11.810148681640625,0.9923539757728577,0.9331111907958984,0.19588269293308258
1789317670167102500,11.8201025390625,0.10124140232801437,0.1920328289270401,-0.2148587703704834
1789317670177057800,11.830057861328125,-0.49630990624427795,-0.5697699785232544,-0.8060906529426575
1789317670187012600,11.8400126953125,-0.5089130401611328,-0.6301829814910889,-1.0156174898147583
1789317670196967700,11.8499677734375,0.022171081975102425,0.2809927761554718,-0.7255218029022217
1789317670206922500,11.859922607421876,0.6019455194473267,0.20353075861930847,0.14357180893421173
1789317670216877800,11.8698779296875,0.714819610118866,0.4671509563922882,0.7671773433685303
1789317670226832600,11.87983251953125,0.43753260374069214,0.03882116451859474,0.9776131510734558
1789317670236787500,11.889787353515626,0.04429582506418228,-0.23160606622695923,0.6715027689933777
1789317670246742800,11.89974267578125,-0.17596331238746643,-0.17198428511619568,-0.20262128114700317
1789317670256696600,11.909696533203125,-0.18348540365695953,-0.5443751811981201,-0.47067564725875854
1789317670266651600,11.919651611328124,-0.09140448272228241,-0.16657939553260803,-0.1701432317495346
1789317670276606500,11.9296064453125,0.16905853152275085,0.17808185517787933,0.030853519216179848
1789317670286561800,11.939561767578125,0.391327828168869,1.2667810916900635,-0.29233571887016296
1789317670296516600,11.9495166015625,0.29032236337661743,1.1527663469314575,-0.5731346607208252
1789317670306471700,11.9594716796875,-0.14754311740398407,0.4709898829460144,-0.5368258953094482
1789317670316426800,11.9694267578125,-0.4042398929595947,-0.7307663559913635,-0.21036362648010254
1789317670326381600,11.979381591796875,-0.3451952040195465,-1.2339853048324585,0.507475733757019
1789317670336336600,11.989336669921874,-0.01660560816526413,-0.7547446489334106,1.0293996334075928
1789317670346291500,11.99929150390625,0.3482202887535095,0.12315655499696732,1.1081905364990234
1789317670356245500,12.00924560546875,0.3343433737754822,1.2443475723266602,0.6569198369979858
1789317670366200600,12.01920068359375,0.005981726106256247,0.9328336715698242,-0.26248860359191895
1789317670376155600,12.02915576171875,-0.409045547246933,-0.37393391132354736,-0.80021733045578
1789317670386110500,12.0391103515625,-0.5855724215507507,-1.0287247896194458,-0.9647796154022217
1789317670396065800,12.049065673828125,-0.35011938214302063,-0.07470699399709702,-0.6312397718429565
1789317670406020600,12.0590205078125,0.2603048086166382,0.638245165348053,-0.4837770462036133
1789317670415975700,12.0689755859375,0.4175567626953125,0.6941590309143066,-0.03855138644576073
1789317670425930800,12.0789306640625,0.03396036475896835,-0.44867074489593506,0.7669442892074585
1789317670435885600,12.088885498046874,-0.41626060009002686,-1.0695358514785767,1.2105004787445068
1789317670445839600,12.098839599609375,-0.3795151114463806,-0.05054040625691414,0.646908164024353
1789317670455794700,12.108794677734375,-0.046487074345350266,0.11782170832157135,-0.1271052211523056
1789317670465749800,12.118749755859374,-0.01347692683339119,0.24337910115718842,-0.5832093954086304
1789317670475704600,12.12870458984375,-0.15399116277694702,-0.22784461081027985,-0.4069666862487793
1789317670485659600,12.13865966796875,-0.11895222216844559,-0.929325520992279,0.04633207991719246
1789317670495614500,12.148614501953125,0.15244919061660767,1.3380413055419922,-0.5189973711967468
1789317670505569800,12.15856982421875,0.41586193442344666,1.7279515266418457,-0.8781754970550537
1789317670515524600,12.168524658203125,0.021952437236905098,-0.11966461688280106,-0.9668982028961182
1789317670525479700,12.178479736328125,-0.6716742515563965,-1.353117823600769,-0.10784390568733215
1789317670535434800,12.188434814453124,-0.5288990139961243,-2.5484883785247803,0.8807539939880371
1789317670545388800,12.198388916015626,0.09020605683326721,0.12213736027479172,1.208860993385315
1789317670555343600,12.208343505859375,0.6148993968963623,0.9977261424064636,1.4090840816497803
1789317670565298400,12.21829833984375,0.5860797166824341,0.9035684466362,0.8299714922904968
1789317670575253800,12.228253662109376,0.0255756676197052,0.30689576268196106,-0.3105349540710449
1789317670585208600,12.23820849609375,-0.49136945605278015,-0.6650616526603699,-1.3297107219696045
1789317670595163600,12.24816357421875,-0.5590044260025024,-1.2246983051300049,-1.4466784000396729
1789317670605118700,12.25811865234375,-0.11769627034664154,0.48365721106529236,-0.8218054175376892
1789317670615073800,12.26807373046875,0.5735857486724854,1.3446273803710938,-0.1985463798046112
1789317670625028600,12.278028564453125,0.7059962749481201,1.431810736656189,-0.07082570344209671
1789317670634983400,12.2879833984375,0.2107069045305252,-1.1389050483703613,0.03568129986524582
1789317670644937700,12.297937744140626,-0.44862493872642517,-2.610076427459717,1.0380237102508545
1789317670654892800,12.307892822265625,-0.5156007409095764,-2.1401820182800293,1.8725364208221436
1789317670664847600,12.31784765625,0.14437103271484375,0.12639202177524567,1.682571530342102
1789317670674802400,12.327802490234374,0.9196707606315613,2.2137489318847656,0.34904587268829346
1789317670684757800,12.3377578125,0.778038501739502,1.9278724193572998,-1.146399736404419
1789317670694712600,12.347712646484375,-0.16335830092430115,0.5804580450057983,-1.7552114725112915
1789317670704667600,12.357667724609374,-0.752627968788147,-2.1387274265289307,-1.1704182624816895
