time,seconds_elapsed,z,y,x
1789317482535182800,0.045182861328125,-0.646484375,-0.901397705078125,-0.0477752685546875
1789317482545138000,0.055137939453125,-0.2213897705078125,0.2193145751953125,-0.1002349853515625
1789317482555092000,0.065092041015625,-0.8174896240234375,-0.3800811767578125,-0.4910736083984375
1789317482565046800,0.075046875,-0.91265869140625,-0.5869293212890625,-0.5590362548828125
1789317482575001900,0.085001953125,-1.022003173828125,-0.9883575439453125,-0.19256591796875
1789317482584956000,0.094955810546875,-0.918975830078125,-1.3740997314453125,0.1409149169921875
1789317482594911000,0.104910888671875,-0.4521484375,-0.551055908203125,0.2706756591796875
1789317482604865800,0.11486572265625,-0.46502685546875,0.543426513671875,0.282379150390625
1789317482614820900,0.12482080078125,-0.6959075927734375,-0.442108154296875,-0.1942138671875
1789317482624775000,0.13477490234375,-1.4309844970703125,-1.6469879150390625,-0.348602294921875
1789317482634730000,0.14472998046875,-0.766998291015625,-0.9598541259765625,-0.0927886962890625
1789317482644684800,0.154684814453125,-0.721466064453125,0.501129150390625,0.088836669921875
1789317482654639900,0.164639892578125,-1.3249053955078125,-0.417816162109375,-0.233154296875
1789317482664594000,0.174593994140625,-1.1343536376953125,-0.9407958984375,-0.15435791015625
1789317482674549000,0.184549072265625,-0.9226226806640625,-0.1612396240234375,0.257476806640625
1789317482684503800,0.19450390625,-0.6621551513671875,-0.780487060546875,0.0184478759765625
1789317482694457900,0.204457763671875,-0.8735504150390625,-0.82928466796875,-0.23272705078125
1789317482704413000,0.214412841796875,-0.414276123046875,-0.20172119140625,-0.2388458251953125
1789317482714367700,0.22436767578125,-0.4248046875,-0.6606292724609375,-0.1548614501953125
1789317482724321800,0.23432177734375,-0.6754150390625,-1.045013427734375,-0.1476287841796875
1789317482734276900,0.24427685546875,-0.4736480712890625,-0.433258056640625,-0.2645721435546875
1789317482744232000,0.25423193359375,-1.015838623046875,-0.0552215576171875,-0.14739990234375
1789317482754186800,0.264186767578125,-1.1778106689453125,-0.551055908203125,-0.0638580322265625
1789317482764140800,0.274140869140625,-1.2950439453125,-1.2622833251953125,0.0296783447265625
1789317482774096000,0.284095947265625,-0.9016265869140625,-0.75146484375,0.175506591796875
1789317482784051000,0.294051025390625,-0.8698883056640625,0.16387939453125,0.1710357666015625
1789317482794005000,0.3040048828125,-0.7057342529296875,-0.051666259765625,-0.2183685302734375
1789317482803959800,0.313959716796875,-0.4887847900390625,-0.5712127685546875,-0.534088134765625
1789317482813915000,0.323914794921875,-0.6613922119140625,-1.7028350830078125,-0.3394927978515625
1789317482823870000,0.333869873046875,-0.32635498046875,-1.4787139892578125,-0.01806640625
1789317482833824000,0.343823974609375,-0.319793701171875,0.5474700927734375,0.25103759765625
1789317482843778800,0.35377880859375,-0.9997406005859375,-0.667144775390625,-0.1292724609375
1789317482853734000,0.36373388671875,-1.29364013671875,-0.7250823974609375,0.0126495361328125
1789317482863688000,0.37368798828125,-1.084197998046875,-0.6495361328125,0.30133056640625
1789317482873643300,0.383643310546875,-0.955169677734375,-0.974884033203125,0.02874755859375
1789317482883598000,0.39359814453125,-1.28607177734375,0.297149658203125,-0.123809814453125
1789317482893553000,0.403552978515625,-1.1965789794921875,-0.163726806640625,-0.2654876708984375
1789317482903507000,0.4135068359375,-0.770477294921875,-0.6565093994140625,0.0723419189453125
1789317482913462300,0.423462158203125,-0.694671630859375,-1.064056396484375,0.3121337890625
1789317482923417000,0.4334169921875,-0.3630828857421875,-0.660247802734375,0.058074951171875
1789317482933371100,0.44337109375,-0.363739013671875,-0.4171142578125,-0.1116485595703125
1789317482943326000,0.453325927734375,-0.955108642578125,-1.3988494873046875,-0.0441436767578125
1789317482953281300,0.46328125,-0.4213409423828125,-0.0356597900390625,0.1331329345703125
1789317482963236000,0.473236083984375,-0.9550628662109375,-0.4188385009765625,-0.160736083984375
1789317482973190100,0.483190185546875,-1.2898712158203125,-0.922637939453125,-0.3218994140625
1789317482983145000,0.49314501953125,-0.81683349609375,0.0138702392578125,0.15191650390625
1789317482993100300,0.503100341796875,-1.1875152587890625,-0.7025299072265625,0.1977691650390625
1789317483003054000,0.51305419921875,-1.1791534423828125,-0.4495391845703125,-0.140411376953125
1789317483013009200,0.523009033203125,-0.927947998046875,-0.5157470703125,-0.1916351318359375
1789317483022964000,0.5329638671875,-0.5689849853515625,-0.4655914306640625,0.0027618408203125
1789317483032919300,0.542919189453125,-0.6407623291015625,-0.8582305908203125,0.0077362060546875
1789317483042873000,0.552873046875,-0.7237091064453125,-1.4151458740234375,-0.1393890380859375
1789317483052828200,0.562828125,-0.1995697021484375,-0.463653564453125,0.0883026123046875
1789317483062783000,0.572782958984375,-0.1258697509765625,-0.10845947265625,0.1980743408203125
1789317483072737000,0.582737060546875,-0.7150726318359375,-0.8210601806640625,-0.0925140380859375
1789317483082692000,0.592692138671875,-0.5688323974609375,-0.7316131591796875,-0.1694488525390625
1789317483092647200,0.602647216796875,-0.9646148681640625,-0.7433624267578125,-0.0580902099609375
1789317483102602000,0.61260205078125,-1.6576690673828125,-0.6652374267578125,0.1025390625
1789317483112556000,0.62255615234375,-0.95172119140625,-0.368194580078125,0.271881103515625
1789317483122511000,0.632510986328125,-1.0133209228515625,-0.026275634765625,0.276641845703125
1789317483132466200,0.642466064453125,-1.1331787109375,-0.41259765625,-0.1100616455078125
1789317483142420000,0.652419921875,-1.013031005859375,-1.027374267578125,-0.25750732421875
1789317483152375000,0.662375,-0.641815185546875,-0.395172119140625,-0.01104736328125
1789317483162330000,0.672330078125,-0.5477294921875,-0.98968505859375,-0.0798187255859375
1789317483172285200,0.68228515625,-0.4209136962890625,-0.703765869140625,0.07037353515625
1789317483182239000,0.692239013671875,-0.1758575439453125,-0.0680389404296875,0.3150482177734375
1789317483192194000,0.702194091796875,-0.616363525390625,-0.7038421630859375,0.0748748779296875
1789317483202149000,0.712149169921875,-1.19378662109375,-1.185333251953125,-0.3116912841796875
1789317483212104200,0.722104248046875,-0.777191162109375,-0.4882965087890625,-0.22509765625
1789317483222058000,0.73205810546875,-1.2842559814453125,0.5158843994140625,-0.0915374755859375
1789317483232013000,0.742012939453125,-1.56390380859375,-0.5506134033203125,-0.3759002685546875
1789317483241968000,0.751968017578125,-1.4550628662109375,-0.74310302734375,0.0532073974609375
1789317483251922200,0.761922119140625,-0.7023162841796875,-0.5617828369140625,0.2905426025390625
1789317483261877000,0.771876953125,-0.7256927490234375,-0.522552490234375,0.20355224609375
1789317483271832000,0.78183203125,-0.4754791259765625,-0.491180419921875,-0.0367889404296875
1789317483281787100,0.791787109375,-0.3736724853515625,-0.5013427734375,-0.31298828125
1789317483291741200,0.8017412109375,-0.5602569580078125,-0.5873565673828125,-0.47003173828125
1789317483301696000,0.811696044921875,-0.7073974609375,-1.2585601806640625,-0.3501739501953125
1789317483311651000,0.821651123046875,-0.5037078857421875,-0.9641571044921875,-0.0995025634765625
1789317483321604900,0.83160498046875,-0.526123046875,0.0150604248046875,0.1838226318359375
1789317483331560200,0.841560302734375,-1.707733154296875,-0.0438079833984375,0.1767425537109375
1789317483341515000,0.851514892578125,-1.1640472412109375,-0.2463836669921875,0.0139617919921875
1789317483351470000,0.861469970703125,-1.49493408203125,-0.38543701171875,0.195831298828125
1789317483361424000,0.871423828125,-0.8496551513671875,-0.918487548828125,0.06982421875
1789317483371379200,0.881379150390625,-1.29296875,-0.9556884765625,-0.1519317626953125
1789317483381334000,0.891333984375,-0.7123260498046875,-0.5471649169921875,-0.076568603515625
1789317483391288000,0.9012880859375,-0.1249847412109375,-0.4049835205078125,0.098297119140625
1789317483401243000,0.911242919921875,-0.1091766357421875,-0.556304931640625,-0.0828094482421875
1789317483411198200,0.9211982421875,-0.230194091796875,-0.6089324951171875,-0.3279876708984375
1789317483421153000,0.931153076171875,-1.51483154296875,-1.05743408203125,-0.3254547119140625
1789317483431107000,0.941107177734375,-1.0824127197265625,-1.0619049072265625,-0.170440673828125
1789317483441062000,0.951061767578125,-0.7889404296875,0.107391357421875,0.2220458984375
1789317483451017200,0.961017333984375,-1.077392578125,-0.0840911865234375,0.2174072265625
1789317483460972000,0.970971923828125,-1.01220703125,-0.551055908203125,-0.0142822265625
1789317483470926000,0.980926025390625,-1.3083953857421875,-0.6620025634765625,-0.297332763671875
1789317483480881000,0.990880859375,-0.4920196533203125,-0.7449493408203125,-0.28497314453125
1789317483490836200,1.000836181640625,-0.3507232666015625,-0.80780029296875,-0.121917724609375
1789317483500790000,1.0107900390625,-0.248199462890625,-0.523193359375,-0.061920166015625
1789317483510745000,1.0207451171875,-0.6183624267578125,-0.309844970703125,-0.0155181884765625
1789317483520700000,1.030699951171875,-0.870269775390625,-0.527008056640625,-0.0789947509765625
1789317483530655200,1.0406552734375,-0.97784423828125,-0.8817901611328125,-0.07244873046875
1789317483540609000,1.050609130859375,-1.0360870361328125,-0.52996826171875,0.064605712890625
1789317483550564000,1.060564208984375,-1.073394775390625,-0.36639404296875,0.01263427734375
1789317483560519000,1.070518798828125,-1.3682708740234375,-0.2587432861328125,-0.142242431640625
1789317483570473200,1.08047314453125,-0.9361572265625,-0.3035430908203125,-0.1639404296875
1789317483580428000,1.090427978515625,-0.7448577880859375,-0.526885986328125,-0.114959716796875
1789317483590383000,1.100383056640625,-0.493438720703125,-0.6731109619140625,-0.175506591796875
1789317483600338000,1.110337890625,-0.5016326904296875,-0.981689453125,-0.1974334716796875
1789317483610292200,1.120292236328125,-0.4401702880859375,-0.3087615966796875,-0.0698699951171875
1789317483620247000,1.1302470703125,-0.4248809814453125,-0.8533477783203125,-0.1906585693359375
1789317483630202000,1.1402021484375,-0.8773651123046875,-1.0169219970703125,-0.1513214111328125
1789317483640156000,1.150156005859375,-0.790496826171875,-0.3480224609375,-0.0138702392578125
1789317483650111200,1.160111328125,-1.1083984375,-0.4390411376953125,-0.066558837890625
1789317483660066000,1.170066162109375,-1.334564208984375,-0.5391082763671875,-0.1313629150390625
1789317483670021000,1.180021240234375,-1.22509765625,-0.6054534912109375,-0.0312347412109375
1789317483679975000,1.189974853515625,-1.1653289794921875,-0.2617950439453125,0.136077880859375
1789317483689930200,1.19993017578125,-0.9368896484375,-0.475006103515625,0.037841796875
1789317483699885000,1.209885009765625,-0.5927276611328125,-0.9375,-0.1299285888671875
1789317483709840100,1.219840087890625,-0.3949737548828125,-0.7239227294921875,-0.120361328125
1789317483719794000,1.2297939453125,-0.541046142578125,-0.508819580078125,-0.20294189453125
1789317483729749000,1.2397490234375,-0.6291961669921875,-0.497528076171875,-0.401123046875
1789317483739704000,1.2497041015625,-0.665802001953125,-0.6893310546875,-0.37225341796875
1789317483749658000,1.259658203125,-0.859161376953125,-1.0504150390625,-0.1385650634765625
1789317483759613000,1.269613037109375,-0.88824462890625,-0.565185546875,0.172821044921875
1789317483769568000,1.279568115234375,-0.873687744140625,-0.1848602294921875,0.1798858642578125
1789317483779523000,1.289523193359375,-0.861541748046875,-0.2172698974609375,-0.0410919189453125
1789317483789477000,1.29947705078125,-0.9927978515625,-0.21630859375,-0.1785736083984375
1789317483799432000,1.309431884765625,-0.8606109619140625,-0.8786163330078125,-0.368408203125
1789317483809387000,1.319386962890625,-0.8043212890625,-1.075439453125,-0.3604736328125
1789317483819342000,1.329342041015625,-0.54351806640625,-0.9367828369140625,-0.127471923828125
1789317483829296000,1.339296142578125,-0.5450592041015625,-0.379730224609375,0.18145751953125
1789317483839251000,1.3492509765625,-0.3917388916015625,0.1819915771484375,0.1598358154296875
1789317483849206000,1.3592060546875,-0.8524932861328125,-0.6349945068359375,-0.166259765625
1789317483859160000,1.36916015625,-0.932952880859375,-1.4317474365234375,-0.3184814453125
1789317483869114600,1.379114501953125,-0.6795196533203125,-0.790618896484375,-0.10418701171875
1789317483879069700,1.389069580078125,-1.4061431884765625,0.3179168701171875,0.031341552734375
1789317483889024800,1.399024658203125,-0.9195404052734375,-0.3942413330078125,-0.38836669921875
1789317483898978800,1.408978759765625,-0.93292236328125,-0.623870849609375,-0.19879150390625
1789317483908933600,1.41893359375,-0.6320953369140625,-0.6978912353515625,0.03533935546875
1789317483918888700,1.428888671875,-0.8731536865234375,-1.3267059326171875,-0.1912384033203125
1789317483928842800,1.4388427734375,-0.9268035888671875,-0.3889617919921875,-0.2073516845703125
1789317483938797800,1.4487978515625,-0.267181396484375,-0.2154083251953125,-0.2021026611328125
1789317483948752600,1.458752685546875,-0.5938568115234375,-1.0612945556640625,-0.1773223876953125
1789317483958707700,1.468707763671875,-0.4710693359375,-0.7386322021484375,-0.179534912109375
1789317483968661800,1.478661865234375,-0.757720947265625,-0.5024261474609375,-0.304046630859375
1789317483978616800,1.488616943359375,-1.1650848388671875,-0.3921966552734375,-0.325164794921875
1789317483988571600,1.498571533203125,-0.77227783203125,-0.44012451171875,-0.15576171875
1789317483998525700,1.508525634765625,-1.46221923828125,-0.8871612548828125,0.0023193359375
1789317484008480800,1.518480712890625,-1.124176025390625,-0.589385986328125,-0.1409149169921875
1789317484018435800,1.528435791015625,-1.2293548583984375,-0.387420654296875,-0.195465087890625
1789317484028390700,1.538390625,-0.5883026123046875,0.03509521484375,-0.05096435546875
1789317484038344700,1.5483447265625,-0.4568023681640625,-0.986053466796875,-0.253662109375
1789317484048299800,1.5582998046875,-0.439788818359375,-1.011749267578125,-0.3352203369140625
1789317484058254600,1.568254638671875,-0.3783416748046875,-0.3597259521484375,-0.3293914794921875
1789317484068208600,1.578208740234375,-0.665618896484375,-0.7836456298828125,-0.4480743408203125
1789317484078163700,1.588163818359375,-0.5050506591796875,-0.4268035888671875,-0.2225494384765625
1789317484088118800,1.598118896484375,-0.841705322265625,-0.600189208984375,-0.0406036376953125
1789317484098073600,1.608073486328125,-1.3688201904296875,-0.6540985107421875,-0.026214599609375
1789317484108027600,1.618027587890625,-1.265869140625,-0.3558349609375,-0.048309326171875
1789317484117982700,1.627982666015625,-1.1223907470703125,-0.1235504150390625,0.04681396484375
1789317484127937800,1.637937744140625,-0.819580078125,-0.1584014892578125,0.01568603515625
1789317484137892600,1.647892578125,-0.7387847900390625,-1.0802459716796875,-0.2722320556640625
1789317484147846700,1.6578466796875,-0.5347747802734375,-0.5894775390625,-0.2274017333984375
1789317484157801700,1.6678017578125,-0.161651611328125,-0.242462158203125,-0.151397705078125
1789317484167756800,1.6777568359375,-0.4296112060546875,-0.77069091796875,-0.228363037109375
1789317484177710800,1.6877109375,-0.7455291748046875,-0.8772430419921875,-0.243072509765625
1789317484187665700,1.697665771484375,-0.8014984130859375,-1.137054443359375,-0.2054901123046875
1789317484197620700,1.707620849609375,-1.1923065185546875,-0.266326904296875,0.1026458740234375
1789317484207575800,1.717575927734375,-1.0565643310546875,-0.0709075927734375,0.086395263671875
1789317484217529900,1.72752978515625,-1.15185546875,-0.6202239990234375,-0.0544281005859375
1789317484227484700,1.737484619140625,-0.86871337890625,-1.11468505859375,-0.092498779296875
1789317484237439700,1.747439697265625,-1.265533447265625,-0.3429107666015625,-0.0331573486328125
1789317484247393500,1.7573935546875,-0.90777587890625,0.0763092041015625,-0.390472412109375
1789317484257348900,1.767348876953125,-0.5347442626953125,-0.9962921142578125,-0.522918701171875
1789317484267303700,1.7773037109375,-0.831817626953125,-1.372406005859375,-0.1985015869140625
1789317484277258800,1.7872587890625,-0.4094696044921875,-1.079498291015625,0.0218048095703125
1789317484287212500,1.797212646484375,-0.025299072265625,-0.239501953125,0.080963134765625
1789317484297168000,1.80716796875,-0.313507080078125,0.4130859375,0.04425048828125
1789317484307122700,1.817122802734375,-0.8147125244140625,-1.2607574462890625,-0.3197021484375
1789317484317076700,1.82707666015625,-1.200653076171875,-1.224090576171875,-0.183624267578125
1789317484327031600,1.837031494140625,-0.9233245849609375,-0.1357879638671875,-0.1367950439453125
1789317484336987000,1.84698681640625,-1.212493896484375,-0.96966552734375,-0.3535614013671875
1789317484346941700,1.856941650390625,-1.056243896484375,-0.418487548828125,0.1090850830078125
1789317484356895700,1.866895751953125,-0.801361083984375,0.4596405029296875,0.4310455322265625
1789317484366850600,1.8768505859375,-1.1124725341796875,-0.7223968505859375,0.0513458251953125
1789317484376806000,1.886805908203125,-0.7780609130859375,-1.0295257568359375,-0.214752197265625
1789317484386759700,1.896759765625,-0.65997314453125,-0.7689208984375,0.02764892578125
1789317484396714800,1.90671484375,-0.334259033203125,-0.539093017578125,0.1372528076171875
1789317484406669600,1.916669677734375,-0.2730712890625,0.0416107177734375,-0.16375732421875
1789317484416625000,1.926625,-0.9861907958984375,-0.70819091796875,-0.4852752685546875
1789317484426578700,1.93657861328125,-0.6982879638671875,-0.7872161865234375,-0.1923675537109375
1789317484436533800,1.94653369140625,-1.017059326171875,-0.941497802734375,0.13427734375
1789317484446488600,1.956488525390625,-1.1733551025390625,-0.4464874267578125,0.1910400390625
1789317484456442600,1.966442626953125,-0.9609375,-0.5106658935546875,0.16107177734375
1789317484466397700,1.976397705078125,-0.91729736328125,-0.4545440673828125,0.400970458984375
1789317484476352800,1.986352783203125,-0.6625518798828125,-0.17266845703125,0.3563690185546875
1789317484486307600,1.9963076171875,-0.8419647216796875,-1.2087249755859375,-0.2117462158203125
1789317484496261600,2.00626171875,-0.818817138671875,-0.860992431640625,-0.2753143310546875
1789317484506216700,2.016216796875,-0.757598876953125,-0.5027618408203125,-0.1127471923828125
1789317484516171800,2.026171875,-0.714874267578125,-0.1092071533203125,-0.0223236083984375
1789317484526125600,2.03612548828125,-0.7679901123046875,-0.5869598388671875,0.028564453125
1789317484536080600,2.04608056640625,-0.91461181640625,-1.119659423828125,0.1627044677734375
1789317484546035700,2.05603564453125,-0.6962890625,-0.940338134765625,0.3268585205078125
1789317484555990800,2.06599072265625,-0.8045654296875,-0.084564208984375,0.244140625
1789317484565944600,2.075944580078125,-0.852325439453125,0.2320556640625,-0.2272186279296875
1789317484575899600,2.085899658203125,-1.14251708984375,-1.0738372802734375,-0.4288482666015625
1789317484585854700,2.095854736328125,-1.1181488037109375,-1.8317718505859375,-0.0843353271484375
1789317484595808800,2.105808837890625,-0.5426025390625,-0.254608154296875,0.1982574462890625
1789317484605763600,2.115763671875,-0.693572998046875,0.438507080078125,-0.041412353515625
1789317484615718700,2.12571875,-0.5887451171875,-0.636627197265625,-0.157745361328125
1789317484625673700,2.135673828125,-0.5096435546875,-0.84283447265625,0.1857452392578125
1789317484635627800,2.145627685546875,-0.8941802978515625,-0.6977996826171875,0.1035919189453125
1789317484645582600,2.15558251953125,-1.3365631103515625,-0.129608154296875,-0.3427276611328125
1789317484655537700,2.16553759765625,-1.1479644775390625,-0.486358642578125,-0.2904205322265625
1789317484665491700,2.17549169921875,-1.142486572265625,-0.505859375,0.183380126953125
1789317484675446800,2.18544677734375,-0.863189697265625,-0.6668853759765625,0.0726165771484375
1789317484685401600,2.195401611328125,-1.1015625,-0.979034423828125,-0.0304718017578125
1789317484695356700,2.205356689453125,-0.640289306640625,-0.3130645751953125,0.022491455078125
1789317484705310700,2.215310791015625,-0.5239715576171875,0.05145263671875,-0.0062255859375
1789317484715265800,2.225265869140625,-0.72381591796875,-0.24139404296875,-0.183990478515625
1789317484725220600,2.235220703125,-1.2100982666015625,-1.9748687744140625,-0.3010101318359375
1789317484735174700,2.245174560546875,-0.7171783447265625,-0.978271484375,0.0533905029296875
1789317484745129700,2.255129638671875,-0.4123382568359375,0.609649658203125,0.1689300537109375
1789317484755084800,2.265084716796875,-0.941864013671875,-0.6532440185546875,-0.179351806640625
1789317484765039600,2.27503955078125,-0.4992218017578125,-0.6920928955078125,-0.0347442626953125
1789317484774993700,2.28499365234375,-0.652618408203125,-0.7423248291015625,0.219696044921875
1789317484784948700,2.29494873046875,-1.1614532470703125,-0.509429931640625,0.0429534912109375
1789317484794903800,2.30490380859375,-0.8426361083984375,-0.8227081298828125,-0.259185791015625
1789317484804857900,2.31485791015625,-0.7942657470703125,-1.0596160888671875,0.061309814453125
1789317484814812700,2.324812744140625,-0.7166595458984375,-0.6540985107421875,0.178985595703125
1789317484824767500,2.334767578125,-0.773101806640625,-0.121978759765625,-0.2086181640625
1789317484834722800,2.344722900390625,-0.86700439453125,-0.346435546875,-0.50677490234375
1789317484844676600,2.354676513671875,-0.76446533203125,-0.4996795654296875,-0.3490447998046875
1789317484854631700,2.364631591796875,-0.9128875732421875,-0.80584716796875,0.0000457763671875
1789317484864586500,2.37458642578125,-1.4482269287109375,-0.2588348388671875,0.1244354248046875
1789317484874541000,2.384541015625,-1.2075347900390625,-0.576751708984375,-0.173614501953125
1789317484884496000,2.394495849609375,-0.842041015625,-0.453643798828125,-0.0245361328125
1789317484894451000,2.404450927734375,-0.5557098388671875,0.070404052734375,0.0505218505859375
1789317484904405000,2.414405029296875,-0.8702392578125,-1.0884857177734375,-0.4952392578125
1789317484914360000,2.424360107421875,-0.7212371826171875,-0.911346435546875,-0.5925140380859375
1789317484924315000,2.43431494140625,-0.2655792236328125,-0.3245086669921875,-0.1768798828125
1789317484934270000,2.44427001953125,-0.3829803466796875,-0.53717041015625,0.0068511962890625
1789317484944224000,2.45422412109375,-0.5000152587890625,-1.0493011474609375,-0.1185302734375
1789317484954179000,2.464178955078125,-0.5765838623046875,-0.5739288330078125,-0.04840087890625
1789317484964134000,2.4741337890625,-1.054901123046875,-0.0146636962890625,0.027099609375
1789317484974088000,2.484087890625,-1.0475921630859375,-0.4298858642578125,-0.09674072265625
1789317484984043000,2.49404296875,-1.264617919921875,-0.93841552734375,-0.11151123046875
1789317484993998000,2.503998046875,-1.17303466796875,-0.554046630859375,0.00360107421875
1789317485003953000,2.513952880859375,-1.1488494873046875,0.0119476318359375,0.0761871337890625
1789317485013907000,2.523906982421875,-0.63739013671875,-0.3321075439453125,-0.0776519775390625
1789317485023861800,2.53386181640625,-0.45477294921875,-1.0287017822265625,-0.15179443359375
1789317485033817000,2.543817138671875,-0.266357421875,-0.76507568359375,-0.096649169921875
1789317485043771100,2.553771240234375,-0.4858245849609375,-0.457244873046875,-0.0953826904296875
1789317485053726000,2.563725830078125,-0.7990264892578125,-1.3305206298828125,-0.2310028076171875
1789317485063680800,2.5736806640625,-0.41949462890625,-0.587188720703125,0.06341552734375
1789317485073636000,2.583635986328125,-0.9144744873046875,-0.2631683349609375,0.2585906982421875
1789317485083590100,2.593590087890625,-1.55303955078125,-0.5407257080078125,0.006805419921875
1789317485093545000,2.603544921875,-1.157958984375,-0.51123046875,-0.141998291015625
1789317485103499800,2.613499755859375,-0.967803955078125,-0.5729217529296875,0.1244354248046875
1789317485113453800,2.623453857421875,-0.576568603515625,-0.3795623779296875,0.1614990234375
1789317485123409200,2.6334091796875,-1.161865234375,-0.851715087890625,-0.1472930908203125
1789317485133364000,2.643364013671875,-0.6857757568359375,-0.6267852783203125,-0.221954345703125
1789317485143318800,2.65331884765625,-0.391082763671875,-0.6512603759765625,-0.0295562744140625
1789317485153272800,2.66327294921875,-0.542724609375,-0.70513916015625,0.0847015380859375
1789317485163228200,2.673228271484375,-0.6405487060546875,-1.3542633056640625,-0.0072479248046875
1789317485173183000,2.683182861328125,-0.46966552734375,-0.3320465087890625,0.1341094970703125
1789317485183137000,2.693136962890625,-0.6993865966796875,0.520538330078125,0.0377960205078125
1789317485193091800,2.703091796875,-1.210357666015625,-0.7981109619140625,-0.417938232421875
1789317485203047000,2.713046875,-1.2705535888671875,-1.264312744140625,-0.35491943359375
1789317485213001000,2.7230009765625,-1.2220001220703125,-1.010345458984375,-0.004486083984375
1789317485222956000,2.7329560546875,-1.0263519287109375,-0.2235870361328125,0.0797576904296875
1789317485232910800,2.742910888671875,-0.4588165283203125,-1.0215606689453125,-0.080322265625
1789317485242866000,2.752865966796875,-0.2937774658203125,-1.023162841796875,0.0960540771484375
1789317485252820000,2.762820068359375,-0.29095458984375,0.1286163330078125,0.067108154296875
1789317485262775000,2.772775146484375,-0.8013458251953125,-1.0574798583984375,-0.5851593017578125
1789317485272729900,2.782729736328125,-0.6652374267578125,-0.940765380859375,-0.51019287109375
1789317485282684000,2.792683837890625,-0.6527252197265625,-0.5231475830078125,0.006011962890625
1789317485292639000,2.802638916015625,-0.789276123046875,-0.3992156982421875,0.3527374267578125
1789317485302594000,2.812593994140625,-0.9837646484375,0.043365478515625,0.359619140625
1789317485312548900,2.822548828125,-1.237945556640625,-1.100677490234375,-0.053924560546875
1789317485322503000,2.8325029296875,-1.2417449951171875,-0.19573974609375,0.1035919189453125
1789317485332458000,2.8424580078125,-1.040435791015625,-0.2771453857421875,-0.0360565185546875
1789317485342413000,2.8524130859375,-1.152984619140625,-0.9755706787109375,-0.3626861572265625
1789317485352366800,2.862366943359375,-0.585906982421875,-1.0174560546875,-0.206512451171875
1789317485362322000,2.872322021484375,-0.4271087646484375,-0.7061767578125,0.16473388671875
1789317485372277000,2.882277099609375,-0.408447265625,0.227874755859375,0.2675018310546875
1789317485382232000,2.892232177734375,-0.3232574462890625,-0.910400390625,-0.218170166015625
1789317485392185900,2.902185791015625,-0.6903533935546875,-1.1127777099609375,-0.2108154296875
1789317485402141000,2.912140869140625,-1.175140380859375,-1.10430908203125,-0.018218994140625
1789317485412096000,2.922095947265625,-0.8477020263671875,-0.7064666748046875,0.0582275390625
1789317485422050000,2.932050048828125,-0.858367919921875,-0.0645599365234375,0.096923828125
1789317485432004900,2.9420048828125,-0.9417572021484375,-1.0170440673828125,0.09735107421875
1789317485441960000,2.9519599609375,-0.8050537109375,-0.582061767578125,0.3525543212890625
1789317485451914000,2.9619140625,-0.812530517578125,-0.204132080078125,0.135284423828125
1789317485461869000,2.971869140625,-0.7729339599609375,-1.1024017333984375,-0.3895111083984375
1789317485471824000,2.981823974609375,-0.5250091552734375,-0.7096099853515625,-0.1930694580078125
1789317485481779000,2.991779052734375,-0.2855072021484375,-0.7298583984375,0.1312408447265625
1789317485491733000,3.00173291015625,-0.643951416015625,-0.5685577392578125,0.2146759033203125
1789317485501688000,3.01168798828125,-0.9395599365234375,-0.2953643798828125,0.01519775390625
1789317485511643000,3.021642822265625,-0.990386962890625,-1.0764007568359375,-0.0932769775390625
1789317485521597000,3.031596923828125,-0.9494171142578125,-0.8456878662109375,0.2692718505859375
1789317485531552000,3.041552001953125,-0.51800537109375,-0.6573028564453125,0.211639404296875
1789317485541507000,3.051507080078125,-0.4270782470703125,-0.349029541015625,-0.2031097412109375
1789317485551462000,3.0614619140625,-0.6578521728515625,-0.5296630859375,-0.47308349609375
1789317485561416000,3.071416015625,-0.2060546875,-0.5511474609375,-0.2654876708984375
1789317485571370800,3.081370849609375,-0.6620941162109375,-0.624114990234375,-0.1690673828125
1789317485581326000,3.091326171875,-1.3604736328125,-1.1860809326171875,-0.30682373046875
1789317485591279900,3.10127978515625,-1.6458892822265625,-0.3218841552734375,0.1522674560546875
1789317485601235000,3.11123486328125,-1.2650146484375,-0.1324005126953125,0.4308624267578125
1789317485611189800,3.121189697265625,-1.5847015380859375,-0.4432373046875,0.0157928466796875
1789317485621144000,3.13114404296875,-1.39471435546875,-0.57623291015625,-0.47625732421875
1789317485631099000,3.141098876953125,-0.4983062744140625,-0.604522705078125,-0.488189697265625
1789317485641054000,3.151053955078125,-0.1338653564453125,0.049560546875,-0.195465087890625
1789317485651008800,3.1610087890625,-0.163848876953125,-0.8202667236328125,-0.480682373046875
1789317485660963000,3.170963134765625,-0.4089202880859375,-1.1764373779296875,-0.3744659423828125
1789317485670918000,3.18091796875,-0.6373443603515625,-0.43231201171875,0.1414031982421875
1789317485680873000,3.190873046875,-0.97869873046875,-0.3172607421875,0.242462158203125
1789317485690827000,3.200826904296875,-1.4085845947265625,-1.77685546875,0.04595947265625
1789317485700782000,3.210781982421875,-0.4532012939453125,0.031982421875,0.25384521484375
1789317485710737000,3.22073681640625,-1.077423095703125,0.358551025390625,0.04901123046875
1789317485720692000,3.23069189453125,-1.4113922119140625,-0.2061309814453125,-0.4958343505859375
1789317485730646000,3.24064599609375,-0.882049560546875,-0.832061767578125,-0.593841552734375
1789317485740601000,3.25060107421875,-1.1524810791015625,-0.7951812744140625,-0.16680908203125
1789317485750556000,3.260555908203125,-0.4380950927734375,-0.5743255615234375,0.037200927734375
1789317485760510000,3.270510009765625,-0.266265869140625,-1.1382598876953125,-0.0456695556640625
1789317485770465000,3.280465087890625,0.0571441650390625,0.133544921875,0.176910400390625
1789317485780420000,3.290420166015625,-0.8468017578125,-0.862823486328125,-0.12823486328125
1789317485790374100,3.3003740234375,-0.9714813232421875,-0.5194549560546875,-0.4860076904296875
1789317485800329000,3.310328857421875,-0.806304931640625,-0.2543792724609375,-0.4007720947265625
1789317485810283800,3.32028369140625,-1.7287750244140625,-0.391387939453125,-0.1462860107421875
1789317485820239000,3.330239013671875,-1.2306671142578125,-0.346588134765625,0.0592193603515625
1789317485830193200,3.340193115234375,-1.4732513427734375,-1.20782470703125,0.1421051025390625
1789317485840148000,3.35014794921875,-0.85675048828125,0.008453369140625,0.4343414306640625
1789317485850102800,3.360102783203125,-0.4397735595703125,-0.3619537353515625,0.2885894775390625
1789317485860056800,3.370056884765625,-0.4677276611328125,-1.059112548828125,0.005401611328125
1789317485870011600,3.38001171875,-0.12353515625,-0.4115447998046875,-0.115020751953125
1789317485879966700,3.389966796875,-0.5602874755859375,-0.832916259765625,-0.180267333984375
1789317485889920800,3.399920654296875,-1.2723541259765625,-0.7682952880859375,-0.170562744140625
1789317485899875600,3.40987548828125,-0.60467529296875,-0.898040771484375,-0.12103271484375
1789317485909830700,3.41983056640625,-0.7977142333984375,-0.33563232421875,0.2521820068359375
1789317485919785700,3.42978564453125,-0.706695556640625,-0.188323974609375,0.201141357421875
1789317485929739800,3.43973974609375,-0.8591766357421875,-0.899139404296875,-0.090484619140625
1789317485939694600,3.449694580078125,-0.483612060546875,-0.2287750244140625,-0.0536041259765625
1789317485949649700,3.459649658203125,-0.79638671875,-0.14617919921875,-0.095977783203125
1789317485959603500,3.469603515625,-1.2595672607421875,-0.8232574462890625,-0.3742828369140625
1789317485969558800,3.479558837890625,-1.219451904296875,-1.2176055908203125,-0.21923828125
1789317485979513600,3.489513671875,-1.124603271484375,-0.890289306640625,0.2045440673828125
1789317485989468700,3.49946875,-0.5967559814453125,-0.0733642578125,0.4765777587890625
1789317485999422500,3.50942236328125,-0.9823760986328125,-0.0423126220703125,0.43438720703125
1789317486009377800,3.519377685546875,-1.1468658447265625,-0.87542724609375,-0.1116790771484375
1789317486019332600,3.52933251953125,-1.1733856201171875,-0.211639404296875,-0.2100830078125
1789317486029286700,3.53928662109375,-1.0007171630859375,0.173187255859375,-0.1111297607421875
1789317486039241500,3.549241455078125,-0.94732666015625,-1.377777099609375,-0.199920654296875
1789317486049196800,3.55919677734375,-0.50592041015625,-2.0157623291015625,-0.0883026123046875
1789317486059150600,3.569150634765625,0.54949951171875,0.0292510986328125,0.4350738525390625
1789317486069105700,3.579105712890625,0.333282470703125,0.791168212890625,0.52825927734375
1789317486079060500,3.589060546875,-0.7695770263671875,-1.963531494140625,-0.483154296875
1789317486089015800,3.599015869140625,-1.554473876953125,-1.5785675048828125,-0.6673431396484375
1789317486098969600,3.608969482421875,-0.8460540771484375,-0.49774169921875,-0.0485687255859375
1789317486108924700,3.618924560546875,-1.079498291015625,-0.5387115478515625,0.1955413818359375
1789317486118879500,3.62887939453125,-0.8651580810546875,-0.6380615234375,-0.0380401611328125
1789317486128833500,3.63883349609375,-0.4458465576171875,0.637603759765625,0.2493743896484375
1789317486138788600,3.64878857421875,-0.9581451416015625,0.7803192138671875,0.1621551513671875
1789317486148743700,3.65874365234375,-1.5370635986328125,-1.5526275634765625,-0.792999267578125
1789317486158698500,3.668698486328125,-1.83843994140625,-0.968292236328125,-0.8899993896484375
1789317486168652500,3.678652587890625,-0.493988037109375,-0.5394439697265625,-0.2899322509765625
1789317486178607600,3.688607666015625,-0.5043792724609375,-1.2067718505859375,-0.193206787109375
1789317486188562700,3.698562744140625,-0.2540435791015625,-0.7310943603515625,-0.002716064453125
1789317486198516500,3.7085166015625,0.1992645263671875,0.03961181640625,0.3130035400390625
1789317486208471600,3.718471435546875,0.050201416015625,-0.083282470703125,0.0887451171875
1789317486218426600,3.728426513671875,-1.8740081787109375,-0.9964599609375,-0.451019287109375
1789317486228380700,3.738380615234375,-1.731964111328125,-1.26708984375,-0.6442718505859375
1789317486238335500,3.74833544921875,-0.431488037109375,-0.3783721923828125,-0.138885498046875
1789317486248290600,3.75829052734375,-1.04022216796875,-0.351898193359375,-0.056182861328125
1789317486258245600,3.76824560546875,-0.44915771484375,0.10894775390625,-0.06756591796875
1789317486268199700,3.77819970703125,-0.556915283203125,-0.3936614990234375,-0.0735931396484375
1789317486278154500,3.788154541015625,-1.0324859619140625,-0.9884796142578125,-0.3365020751953125
1789317486288109600,3.798109619140625,-1.2137298583984375,-0.7006988525390625,-0.4003753662109375
1789317486298063600,3.808063720703125,-0.724945068359375,-1.013214111328125,-0.1645050048828125
1789317486308018700,3.818018798828125,-0.5675048828125,-0.341796875,0.0084075927734375
1789317486317973500,3.827973388671875,-0.8271484375,-0.7121124267578125,-0.1121978759765625
1789317486327927600,3.837927490234375,-0.74969482421875,-0.5369720458984375,-0.065185546875
1789317486337882600,3.847882568359375,-0.6056060791015625,-0.4542999267578125,-0.1846466064453125
1789317486347837700,3.857837646484375,-1.009429931640625,-0.712921142578125,-0.420623779296875
1789317486357792500,3.86779248046875,-0.6916961669921875,-0.8057708740234375,-0.365264892578125
1789317486367746600,3.87774658203125,-0.5775604248046875,-0.9832305908203125,-0.146209716796875
1789317486377701600,3.88770166015625,-1.0568084716796875,-0.2780609130859375,0.0286407470703125
1789317486387656700,3.89765673828125,-0.8826751708984375,0.1070098876953125,-0.0318603515625
1789317486397610800,3.90761083984375,-1.0375518798828125,-0.6476898193359375,-0.1386871337890625
1789317486407565600,3.917565673828125,-0.8745269775390625,-0.970855712890625,-0.233642578125
1789317486417520600,3.927520751953125,-0.6945953369140625,-0.770263671875,-0.256591796875
1789317486427474700,3.937474609375,-0.7280731201171875,-0.4065704345703125,-0.126861572265625
1789317486437429800,3.9474296875,-0.4468231201171875,-0.5125274658203125,-0.1757049560546875
1789317486447384600,3.957384521484375,-0.7477874755859375,-1.0925750732421875,-0.251068115234375
1789317486457339600,3.967339599609375,-0.6955413818359375,-1.228271484375,-0.064666748046875
1789317486467293700,3.977293701171875,-0.4452362060546875,-0.6027679443359375,0.1883697509765625
1789317486477248800,3.987248779296875,-0.1820068359375,-0.2746124267578125,0.3227996826171875
1789317486487203600,3.99720361328125,-0.351593017578125,-0.5203704833984375,0.2747344970703125
1789317486497157600,4.00715771484375,-1.79058837890625,-0.156280517578125,-0.0524444580078125
1789317486507112700,4.01711279296875,-1.3041534423828125,-0.8832244873046875,-0.587310791015625
1789317486517067800,4.02706787109375,-1.4548187255859375,-0.9881744384765625,-0.2411956787109375
1789317486527021600,4.037021484375,-0.94293212890625,-0.4264068603515625,-0.0467071533203125
1789317486536976600,4.0469765625,-0.3470458984375,-0.3891448974609375,-0.018585205078125
1789317486546931700,4.056931640625,-0.5820159912109375,-0.568572998046875,0.0982208251953125
1789317486556886800,4.06688671875,-0.0797882080078125,-0.276153564453125,0.0357818603515625
1789317486566840600,4.076840576171875,-0.377166748046875,-0.07000732421875,-0.1376800537109375
1789317486576795600,4.086795654296875,-1.0345916748046875,-1.4427337646484375,-0.55877685546875
1789317486586750500,4.09675048828125,-1.1531829833984375,-0.8683013916015625,-0.5839691162109375
1789317486596704800,4.106704833984375,-1.1927032470703125,-0.4221038818359375,-0.2774505615234375
1789317486606659600,4.11665966796875,-1.004974365234375,-1.194061279296875,-0.1204986572265625
1789317486616614700,4.12661474609375,-0.8702850341796875,0.3411407470703125,0.2161407470703125
1789317486626568400,4.136568359375,-0.8412628173828125,0.06591796875,0.070037841796875
1789317486636523800,4.146523681640625,-1.0608978271484375,-0.9221649169921875,-0.216033935546875
1789317486646478600,4.156478515625,-0.6192474365234375,-1.1126708984375,-0.272613525390625
1789317486656433700,4.16643359375,-0.6620025634765625,-0.0259857177734375,-0.0964202880859375
1789317486666387500,4.176387451171875,-0.688934326171875,-0.448089599609375,-0.3163299560546875
1789317486676342800,4.1863427734375,-0.671417236328125,-1.5876007080078125,-0.3015289306640625
1789317486686297600,4.196297607421875,-0.413330078125,-0.3498382568359375,0.221954345703125
1789317486696251600,4.206251708984375,-0.824188232421875,0.3657989501953125,0.149139404296875
1789317486706206500,4.21620654296875,-1.3736114501953125,-1.2514190673828125,-0.452301025390625
1789317486716161800,4.226161865234375,-1.4364166259765625,-0.4649505615234375,-0.2109375
1789317486726115600,4.236115478515625,-0.9161834716796875,-0.5238037109375,0.06744384765625
1789317486736070700,4.246070556640625,-0.7431488037109375,-1.1163482666015625,0.14068603515625
1789317486746025500,4.256025390625,-0.318603515625,0.2740478515625,0.339691162109375
1789317486755980800,4.265980712890625,-0.2252349853515625,-0.3538055419921875,-0.0164337158203125
1789317486765934600,4.2759345703125,-0.884033203125,-1.0958709716796875,-0.3557586669921875
1789317486775889700,4.2858896484375,-0.7608184814453125,-0.674224853515625,-0.3511505126953125
1789317486785844500,4.295844482421875,-0.7153778076171875,-0.9554290771484375,-0.29803466796875
1789317486795798500,4.305798583984375,-1.1692352294921875,-0.4818572998046875,-0.1103668212890625
1789317486805753600,4.315753662109375,-1.02825927734375,0.003082275390625,0.18878173828125
1789317486815708700,4.325708740234375,-1.134429931640625,-0.77117919921875,0.3399810791015625
1789317486825662700,4.335662841796875,-1.1432037353515625,-0.209320068359375,0.268646240234375
1789317486835617500,4.345617431640625,-1.1339263916015625,-0.27252197265625,-0.1491241455078125
1789317486845572600,4.355572509765625,-0.8228302001953125,-0.61968994140625,-0.2813873291015625
1789317486855527700,4.365527587890625,-0.60247802734375,-1.135650634765625,-0.210479736328125
1789317486865481700,4.375481689453125,-0.6861419677734375,-0.384521484375,-0.14910888671875
1789317486875436800,4.385436767578125,-0.7250213623046875,-0.29974365234375,-0.3127593994140625
1789317486885392000,4.395391845703125,-0.9302520751953125,-1.189697265625,-0.2339019775390625
1789317486895346000,4.405345947265625,-0.646881103515625,-0.01708984375,0.1932525634765625
1789317486905300700,4.41530078125,-0.569854736328125,-0.7873382568359375,0.028411865234375
1789317486915255800,4.425255859375,-0.98760986328125,-0.6277618408203125,0.0147705078125
1789317486925209900,4.4352099609375,-1.011810302734375,0.310882568359375,-0.01593017578125
1789317486935165000,4.4451650390625,-1.18060302734375,-0.4497528076171875,-0.18511962890625
1789317486945119700,4.45511962890625,-1.102874755859375,-1.3217315673828125,-0.2187347412109375
1789317486955074800,4.46507470703125,-0.5595550537109375,-0.9145355224609375,-0.2312774658203125
1789317486965028900,4.47502880859375,-0.4944610595703125,0.204681396484375,-0.1240234375
1789317486974984000,4.48498388671875,-0.525726318359375,-0.621368408203125,-0.2441558837890625
1789317486984938800,4.494938720703125,-0.4192962646484375,-1.06500244140625,-0.164886474609375
1789317486994892800,4.504892822265625,-0.5768585205078125,-0.013641357421875,0.0219268798828125
1789317487004847900,4.514847900390625,-1.0662841796875,-0.6861572265625,-0.2305908203125
1789317487014803000,4.524802978515625,-0.9249267578125,-1.12286376953125,-0.1397552490234375
1789317487024757000,4.534757080078125,-1.09039306640625,-0.4269256591796875,0.1097869873046875
1789317487034711800,4.5447119140625,-1.2867889404296875,-0.1587982177734375,-0.0824737548828125
1789317487044667000,4.5546669921875,-1.364105224609375,-0.70379638671875,-0.3003692626953125
1789317487054622000,4.5646220703125,-0.7613372802734375,-0.5695343017578125,-0.1110076904296875
1789317487064576000,4.574575927734375,-0.464599609375,-0.900787353515625,0.0321044921875
1789317487074530800,4.58453076171875,-0.3687286376953125,-0.30645751953125,0.106292724609375
1789317487084486000,4.59448583984375,-0.663238525390625,-0.584686279296875,-0.014434814453125
1789317487094439700,4.604439697265625,-0.58746337890625,-1.0268707275390625,-0.089996337890625
1789317487104395000,4.61439501953125,-0.6058197021484375,-0.50054931640625,0.102630615234375
1789317487114349800,4.624349853515625,-1.157073974609375,-0.297119140625,-0.0069580078125
1789317487124304000,4.634303955078125,-1.1659393310546875,-0.94512939453125,-0.2801055908203125
1789317487134258700,4.6442587890625,-1.3884429931640625,-0.865936279296875,-0.0415191650390625
1789317487144214000,4.654214111328125,-1.0184326171875,-0.1492767333984375,0.2599334716796875
1789317487154167800,4.664167724609375,-0.9098052978515625,-0.50506591796875,0.0973052978515625
1789317487164123000,4.674122802734375,-0.707305908203125,-0.82342529296875,-0.1072845458984375
1789317487174077700,4.68407763671875,-0.3825836181640625,-0.151214599609375,-0.00054931640625
1789317487184033000,4.694032958984375,-0.465301513671875,-1.0996551513671875,-0.115386962890625
1789317487193986800,4.70398681640625,-0.4563140869140625,-1.0410308837890625,-0.1729888916015625
1789317487203942000,4.71394189453125,-0.6301422119140625,-0.3945770263671875,-0.0476226806640625
1789317487213896700,4.723896728515625,-0.722198486328125,-0.6869049072265625,0.007537841796875
1789317487223850800,4.733850830078125,-0.6179656982421875,-0.9615478515625,0.0507049560546875
1789317487233805800,4.743805908203125,-0.6476593017578125,-0.241455078125,0.135284423828125
1789317487243761000,4.753760986328125,-1.12017822265625,-0.4889984130859375,-0.0829925537109375
1789317487253714700,4.763714599609375,-1.090179443359375,-0.646942138671875,-0.189910888671875
1789317487263669800,4.773669677734375,-0.9472808837890625,-0.5403289794921875,-0.066864013671875
1789317487273624800,4.783624755859375,-0.929412841796875,-0.994049072265625,-0.068695068359375
1789317487283580000,4.793579833984375,-0.756134033203125,-0.4026031494140625,-0.00341796875
1789317487293533700,4.80353369140625,-0.574432373046875,-0.4913787841796875,-0.0784149169921875
1789317487303488800,4.81348876953125,-0.4088592529296875,-0.9391021728515625,-0.135894775390625
1789317487313443800,4.82344384765625,-0.3791046142578125,-0.45355224609375,-0.0788116455078125
1789317487323398000,4.83339794921875,-0.978485107421875,-0.256866455078125,-0.2500762939453125
1789317487333352700,4.843352783203125,-0.977874755859375,-0.65802001953125,-0.47320556640625
1789317487343307800,4.853307861328125,-1.6305999755859375,-0.5558624267578125,-0.1620941162109375
1789317487353261800,4.86326171875,-1.03790283203125,-0.971435546875,0.044219970703125
1789317487363217000,4.873216796875,-1.062408447265625,-0.083465576171875,0.1912689208984375
1789317487373171700,4.883171630859375,-0.65362548828125,-0.5699310302734375,-0.06512451171875
1789317487383126800,4.893126708984375,-0.1944580078125,-0.5386505126953125,-0.1177978515625
1789317487393080800,4.903080810546875,0.041473388671875,0.0049591064453125,-0.1418609619140625
1789317487403036000,4.913035888671875,-0.050537109375,-1.27203369140625,-0.4988250732421875
1789317487412990700,4.92299072265625,-0.4189605712890625,-1.1499786376953125,-0.3420257568359375
1789317487422944800,4.93294482421875,-0.9414825439453125,-0.522064208984375,-0.04559326171875
1789317487432899800,4.94289990234375,-1.200286865234375,-0.81951904296875,-0.0223846435546875
1789317487442855000,4.95285498046875,-1.1849517822265625,-0.720703125,0.12530517578125
1789317487452809000,4.96280908203125,-1.0113983154296875,-0.387664794921875,0.14678955078125
1789317487462763800,4.972763671875,-1.5609588623046875,0.0400390625,0.0110626220703125
1789317487472718600,4.982718505859375,-1.4598541259765625,-0.2835693359375,-0.3386688232421875
1789317487482673000,4.9926728515625,-1.24859619140625,-0.600921630859375,-0.3264617919921875
1789317487492628000,5.0026279296875,-0.73138427734375,-1.134063720703125,-0.0982666015625
1789317487502582800,5.012582763671875,-0.34759521484375,-0.9371795654296875,0.0563201904296875
1789317487512537600,5.02253759765625,-0.1030120849609375,-0.452880859375,0.1036224365234375
1789317487522492000,5.032491943359375,-0.219940185546875,-0.6370391845703125,-0.0996246337890625
1789317487532447000,5.042447021484375,-0.5026702880859375,-1.0210113525390625,-0.3153839111328125
1789317487542401800,5.05240185546875,-0.642181396484375,-0.6546630859375,-0.229339599609375
1789317487552355800,5.06235595703125,-1.1550750732421875,-0.106292724609375,-0.1933441162109375
1789317487562311000,5.072310791015625,-1.62744140625,-1.02032470703125,-0.3744659423828125
1789317487572266000,5.082265869140625,-1.5035247802734375,-0.0598602294921875,0.0960235595703125
1789317487582219800,5.0922197265625,-0.9647064208984375,-0.0964508056640625,0.311737060546875
1789317487592174800,5.1021748046875,-0.6399993896484375,-0.899993896484375,0.105743408203125
1789317487602130000,5.1121298828125,-0.2068328857421875,-0.55157470703125,0.0032806396484375
1789317487612085000,5.1220849609375,0.18780517578125,-0.060089111328125,-0.0905609130859375
1789317487622038800,5.132038818359375,-0.464080810546875,-0.6312408447265625,-0.4101715087890625
1789317487631993900,5.141993896484375,-0.86181640625,-1.0219268798828125,-0.52886962890625
1789317487641949000,5.151948974609375,-0.896240234375,-0.7461090087890625,-0.0714263916015625
1789317487651903000,5.161903076171875,-1.1376953125,-1.39178466796875,0.201934814453125
1789317487661857800,5.17185791015625,-1.067474365234375,0.5714111328125,0.48992919921875
1789317487671812900,5.181812744140625,-1.4261932373046875,0.0891876220703125,0.1114044189453125
1789317487681766700,5.1917666015625,-1.6194000244140625,-0.4857635498046875,-0.280242919921875
1789317487691722000,5.201721923828125,-1.2611236572265625,-0.092010498046875,-0.2980804443359375
1789317487701676800,5.2116767578125,-0.9153594970703125,-1.050079345703125,-0.2154998779296875
1789317487711630800,5.221630859375,-0.5252227783203125,-0.89837646484375,-0.109893798828125
1789317487721585700,5.231585693359375,-0.0872802734375,-0.3120880126953125,0.057830810546875
1789317487731541000,5.241541015625,-0.1624603271484375,-0.617919921875,0.2563934326171875
1789317487741495800,5.251495849609375,-0.551361083984375,-1.0150909423828125,0.10491943359375
1789317487751449900,5.261449951171875,-0.7808990478515625,-1.0270843505859375,-0.068023681640625
1789317487761404700,5.27140478515625,-0.6108245849609375,-0.4518890380859375,0.032470703125
1789317487771360000,5.281360107421875,-1.1478729248046875,-0.018890380859375,0.1245574951171875
1789317487781313800,5.291313720703125,-1.620269775390625,-0.7172088623046875,-0.0285797119140625
1789317487791268900,5.301268798828125,-1.3616943359375,-0.2498931884765625,0.0345916748046875
1789317487801223700,5.3112236328125,-1.110504150390625,0.0237884521484375,0.2950592041015625
1789317487811177700,5.321177734375,-0.484375,-0.75933837890625,0.1121826171875
1789317487821132800,5.3311328125,-0.42926025390625,-1.008026123046875,-0.0569610595703125
1789317487831087900,5.341087890625,0.1184539794921875,-0.7456817626953125,-0.137908935546875
1789317487841042000,5.3510419921875,0.05596923828125,-0.0071258544921875,-0.1664886474609375
1789317487850996700,5.360996826171875,-0.6910552978515625,-0.7570037841796875,-0.5412445068359375
1789317487860951800,5.370951904296875,-1.2255401611328125,-1.40850830078125,-0.514739990234375
1789317487870906600,5.38090673828125,-1.065826416015625,-1.4317474365234375,-0.0849761962890625
1789317487880860700,5.390860595703125,-0.81475830078125,-0.1757354736328125,0.286712646484375
1789317487890815500,5.4008154296875,-1.347320556640625,1.08551025390625,0.3765869140625
1789317487900770600,5.4107705078125,-1.4040679931640625,-0.36273193359375,-0.1187896728515625
1789317487910724600,5.420724609375,-1.658843994140625,-0.7692108154296875,-0.2485504150390625
1789317487920679700,5.4306796875,-0.77581787109375,-0.6505126953125,-0.1076507568359375
1789317487930634500,5.440634521484375,-0.4280242919921875,-0.6851654052734375,-0.05450439453125
1789317487940588500,5.450588623046875,-0.1995849609375,-0.55474853515625,-0.2119598388671875
1789317487950543600,5.460543701171875,-0.2747344970703125,-0.4140777587890625,-0.1730499267578125
1789317487960498700,5.470498779296875,-0.5201568603515625,-0.94573974609375,-0.2705230712890625
1789317487970453500,5.48045361328125,-0.6792755126953125,-1.1650390625,-0.2392578125
1789317487980407600,5.490407470703125,-0.6116180419921875,-0.3219146728515625,-0.0919342041015625
1789317487990362600,5.500362548828125,-1.51263427734375,-0.0712127685546875,-0.058380126953125
1789317488000317700,5.510317626953125,-1.921478271484375,-0.8343505859375,-0.1251220703125
1789317488010271500,5.520271484375,-1.4608917236328125,0.29241943359375,0.183319091796875
1789317488020226600,5.5302265625,-0.8933258056640625,-0.654296875,0.142242431640625
1789317488030181600,5.540181640625,-0.325408935546875,-1.121337890625,-0.00933837890625
1789317488040135700,5.5501357421875,0.129791259765625,0.0871124267578125,-0.0696868896484375
1789317488050090500,5.560090576171875,-0.3685455322265625,-0.507598876953125,-0.469757080078125
1789317488060045600,5.570045654296875,-0.53741455078125,-1.8580780029296875,-0.7260894775390625
1789317488069999600,5.57999951171875,-0.31060791015625,-0.972869873046875,-0.208648681640625
1789317488079954700,5.58995458984375,-0.332183837890625,-0.8877410888671875,0.0819854736328125
1789317488089909500,5.599909423828125,-0.8791351318359375,-0.4646453857421875,0.2278594970703125
1789317488099864600,5.609864501953125,-1.7271728515625,-0.3747100830078125,0.2024078369140625
1789317488109818600,5.619818603515625,-1.058441162109375,0.226104736328125,0.11688232421875
1789317488119773700,5.629773681640625,-1.5434112548828125,-0.4730072021484375,-0.0084075927734375
1789317488129728500,5.639728515625,-0.7656097412109375,-1.0231475830078125,-0.2361907958984375
1789317488139682600,5.6496826171875,-0.3391571044921875,-0.0769195556640625,-0.144012451171875
1789317488149637600,5.6596376953125,-1.0278472900390625,-0.356201171875,-0.2409820556640625
1789317488159592700,5.6695927734375,-0.519287109375,-1.19830322265625,-0.329010009765625
1789317488169546500,5.67954638671875,-0.6997222900390625,-1.0931396484375,-0.025604248046875
1789317488179501600,5.68950146484375,-0.2825927734375,-1.282470703125,0.050689697265625
1789317488189456600,5.69945654296875,0.4192047119140625,0.035308837890625,0.2788848876953125
1789317488199411700,5.70941162109375,0.032867431640625,-0.5923309326171875,0.2372589111328125
1789317488209365500,5.719365478515625,-1.0776519775390625,-0.37109375,-0.0088653564453125
1789317488219320600,5.729320556640625,-1.309967041015625,0.27288818359375,-0.4917449951171875
1789317488229275400,5.739275390625,-1.72509765625,-1.03460693359375,-0.4121856689453125
1789317488239229700,5.749229736328125,-1.21759033203125,-1.20892333984375,0.075225830078125
1789317488249184500,5.7591845703125,-0.591583251953125,-0.7720794677734375,-0.044586181640625
1789317488259139600,5.7691396484375,-1.4910888671875,-0.088287353515625,0.0591278076171875
1789317488269093600,5.77909375,-0.4261322021484375,0.5499114990234375,0.2339630126953125
1789317488279048700,5.789048583984375,-1.033111572265625,-1.361114501953125,0.0789031982421875
1789317488289003500,5.79900341796875,-1.40972900390625,-1.354400634765625,-0.1213836669921875
1789317488298957600,5.80895751953125,-0.24432373046875,-0.8291168212890625,-0.2653350830078125
1789317488308912600,5.81891259765625,0.0978240966796875,-0.74676513671875,-0.1354827880859375
1789317488318867700,5.82886767578125,0.428924560546875,0.26336669921875,0.1148834228515625
1789317488328821800,5.83882177734375,-0.33563232421875,-0.2379302978515625,-0.2386474609375
1789317488338776600,5.848776611328125,-1.3585968017578125,-1.1360321044921875,-0.664459228515625
1789317488348731400,5.8587314453125,-1.996246337890625,-0.8860015869140625,-0.065582275390625
1789317488358686700,5.868686767578125,-1.3003692626953125,-1.1639404296875,0.5331878662109375
1789317488368640800,5.878640869140625,-1.3387603759765625,0.19549560546875,0.313018798828125
1789317488378595600,5.888595703125,-1.3377838134765625,-0.2188720703125,0.09027099609375
1789317488388550400,5.89855029296875,-0.6456451416015625,-0.963653564453125,0.168182373046875
1789317488398504400,5.90850439453125,-0.372955322265625,-0.3705902099609375,0.1241607666015625
1789317488408459800,5.918459716796875,-0.5065155029296875,-0.80853271484375,-0.3415374755859375
1789317488418414600,5.92841455078125,-0.5342254638671875,-0.7171478271484375,-0.4587860107421875
1789317488428368600,5.93836865234375,0.174591064453125,-1.28955078125,-0.2666778564453125
1789317488438323500,5.948323486328125,0.267730712890625,-0.2568206787109375,0.2297821044921875
1789317488448278800,5.95827880859375,-1.5178985595703125,-0.021087646484375,0.141082763671875
1789317488458232600,5.968232666015625,-1.96209716796875,-1.6808929443359375,-0.63177490234375
1789317488468187600,5.978187744140625,-1.3173370361328125,0.23077392578125,0.2213592529296875
1789317488478142500,5.988142578125,-1.1689453125,-0.417816162109375,0.437530517578125
1789317488488097800,5.998097900390625,-1.683197021484375,0.4033966064453125,-0.112823486328125
1789317488498051600,6.008051513671875,-1.6382904052734375,0.0480499267578125,-0.487823486328125
1789317488508006700,6.018006591796875,-1.1481781005859375,-0.8886871337890625,-0.2630462646484375
1789317488517961500,6.02796142578125,-0.6715545654296875,-0.8588104248046875,0.027008056640625
1789317488527915500,6.03791552734375,-0.5375213623046875,-0.3954010009765625,0.160491943359375
1789317488537870600,6.04787060546875,-0.4378662109375,-0.2117767333984375,-0.092620849609375
1789317488547825700,6.05782568359375,-0.8017578125,-0.7908172607421875,-0.4498443603515625
1789317488557779500,6.067779541015625,-0.875518798828125,-0.62982177734375,-0.348663330078125
1789317488567734500,6.077734619140625,-0.5093994140625,-1.060333251953125,-0.2082366943359375
1789317488577689600,6.087689697265625,-0.2584686279296875,-0.5302581787109375,-0.04437255859375
1789317488587643600,6.0976435546875,-0.6138763427734375,0.921417236328125,0.08154296875
1789317488597598500,6.107598388671875,-1.9079132080078125,-0.3310699462890625,-0.4814453125
1789317488607553500,6.117553466796875,-1.03460693359375,-1.562896728515625,-0.414306640625
1789317488617508600,6.127508544921875,-0.875732421875,-0.9593505859375,0.2959442138671875
1789317488627462700,6.137462646484375,-0.1977386474609375,-0.6918792724609375,0.0880889892578125
1789317488637417500,6.14741748046875,-0.3374786376953125,-0.0074005126953125,-0.1893310546875
1789317488647372500,6.15737255859375,-1.0570831298828125,-1.1926727294921875,-0.4987030029296875
1789317488657326600,6.16732666015625,-0.134857177734375,-0.726531982421875,-0.3663482666015625
1789317488667281700,6.17728173828125,-0.54742431640625,-0.567840576171875,0.013336181640625
1789317488677236500,6.187236572265625,-0.737335205078125,-0.9268798828125,-0.0382232666015625
1789317488687190500,6.1971904296875,-0.7443695068359375,0.31085205078125,0.0027313232421875
1789317488697145600,6.2071455078125,-1.6682281494140625,-0.0796051025390625,0.1463165283203125
1789317488707100700,6.2171005859375,-1.407684326171875,-0.8211822509765625,0.1867523193359375
1789317488717054700,6.2270546875,-1.6211090087890625,-1.123748779296875,0.1361846923828125
1789317488727009500,6.237009521484375,-1.1250762939453125,-0.360748291015625,-0.0085601806640625
1789317488736964600,6.246964599609375,-0.81524658203125,-0.5476226806640625,-0.16351318359375
1789317488746919700,6.256919677734375,-0.3603515625,-1.22357177734375,-0.087005615234375
1789317488756873700,6.266873779296875,0.0586395263671875,-0.4257965087890625,0.0068359375
1789317488766828500,6.27682861328125,-0.0267181396484375,0.040771484375,-0.22406005859375
1789317488776783400,6.286783447265625,-0.943084716796875,-0.9477996826171875,-0.5335693359375
1789317488786737700,6.296737548828125,-0.887664794921875,-1.4483184814453125,-0.2817230224609375
1789317488796692700,6.306692626953125,-0.2000732421875,0.083953857421875,0.1583709716796875
1789317488806647600,6.3166474609375,-0.5958404541015625,-0.4060821533203125,0.124664306640625
1789317488816601600,6.3266015625,-2.2260284423828125,-0.5759735107421875,-0.0504608154296875
1789317488826556700,6.336556640625,-1.122772216796875,-0.4305267333984375,-0.3392333984375
1789317488836511500,6.346511474609375,-1.4182586669921875,-0.962005615234375,-0.0225677490234375
1789317488846465500,6.356465576171875,-0.2412567138671875,-0.63409423828125,0.144622802734375
1789317488856420600,6.366420654296875,0.5126190185546875,-1.1334381103515625,-0.195281982421875
1789317488866375700,6.376375732421875,0.1853485107421875,0.3050537109375,0.100555419921875
1789317488876330500,6.38633056640625,-1.1967010498046875,-0.6159515380859375,-0.3360595703125
1789317488886284300,6.3962841796875,-1.307464599609375,-1.2671051025390625,-0.6808013916015625
1789317488896239400,6.4062392578125,-1.44793701171875,-1.2337646484375,0.08087158203125
1789317488906194400,6.4161943359375,-0.3310394287109375,-1.1653289794921875,-0.0014495849609375
1789317488916148500,6.4261484375,-0.68609619140625,1.0002899169921875,-0.0648956298828125
1789317488926103300,6.436103271484375,-1.341522216796875,-0.4428558349609375,-0.335235595703125
1789317488936058400,6.446058349609375,-0.409210205078125,-0.1432342529296875,-0.2617340087890625
1789317488946012200,6.45601220703125,-2.0848541259765625,-0.6805419921875,-0.3687896728515625
1789317488955967500,6.465967529296875,-1.3113861083984375,-1.358642578125,-0.27191162109375
1789317488965922300,6.47592236328125,-0.345306396484375,-0.8384857177734375,0.062286376953125
1789317488975876400,6.48587646484375,0.080810546875,-0.68426513671875,-0.1476593017578125
1789317488985831200,6.4958310546875,0.3668212890625,-0.1048126220703125,0.02447509765625
1789317488995786500,6.505786376953125,-0.4048919677734375,-0.232879638671875,-0.112091064453125
1789317489005740300,6.515740234375,-1.1646728515625,-0.956512451171875,-0.72235107421875
1789317489015695400,6.5256953125,-1.4672393798828125,-1.00091552734375,-0.3090667724609375
1789317489025650200,6.535650146484375,-0.529541015625,-0.7197418212890625,0.2349090576171875
1789317489035605500,6.54560546875,-1.0942840576171875,-0.1097869873046875,0.1349945068359375
1789317489045559300,6.555559326171875,-1.93621826171875,0.2008819580078125,-0.061981201171875
1789317489055514400,6.565514404296875,-0.9395294189453125,-0.037872314453125,-0.1455535888671875
1789317489065469200,6.57546923828125,-1.4473114013671875,-1.2332611083984375,-0.132843017578125
1789317489075423500,6.585423583984375,-0.488525390625,-0.6935272216796875,-0.016204833984375
1789317489085378300,6.59537841796875,0.0908966064453125,-0.7637481689453125,-0.2669830322265625
1789317489095333400,6.60533349609375,-0.0191802978515625,-0.5464324951171875,-0.1926422119140625
1789317489105287400,6.615287353515625,-0.1749420166015625,-1.067718505859375,-0.1988525390625
1789317489115242500,6.625242431640625,-0.1699676513671875,-0.456085205078125,-0.218231201171875
1789317489125197300,6.635197265625,-0.831207275390625,-0.18780517578125,-0.202789306640625
1789317489135151400,6.6451513671875,-2.06817626953125,-1.147369384765625,-0.4314727783203125
1789317489145106400,6.6551064453125,-1.0623626708984375,-0.76568603515625,-0.320892333984375
1789317489155061500,6.6650615234375,-1.0374298095703125,-0.409576416015625,-0.049102783203125
1789317489165016300,6.675016357421875,-1.0265045166015625,0.619384765625,0.218841552734375
1789317489174970400,6.684970458984375,-0.781402587890625,-0.0731048583984375,-0.1866302490234375
1789317489184925400,6.694925537109375,-1.5194091796875,-0.776763916015625,-0.3395538330078125
1789317489194880500,6.704880615234375,-0.6506805419921875,-1.6923370361328125,-0.0967864990234375
1789317489204834600,6.71483447265625,0.3310699462890625,-1.0747833251953125,0.026214599609375
1789317489214789400,6.724789306640625,0.361968994140625,0.68743896484375,0.157562255859375
1789317489224744200,6.734744140625,-1.1220855712890625,-1.1361846923828125,-0.4121856689453125
1789317489234698200,6.7446982421875,-1.0091400146484375,-0.9668731689453125,-0.4516754150390625
1789317489244653600,6.754653564453125,-0.8491058349609375,-0.082244873046875,0.178253173828125
1789317489254608400,6.7646083984375,-1.0458526611328125,-1.2377471923828125,0.0343475341796875
1789317489264562400,6.7745625,-1.5196075439453125,0.213287353515625,-0.0566864013671875
1789317489274517200,6.784517333984375,-1.800872802734375,0.164642333984375,-0.2200927734375
1789317489284472600,6.79447265625,-1.129974365234375,-0.973968505859375,-0.09259033203125
1789317489294426400,6.80442626953125,-0.581451416015625,-0.5410919189453125,0.2684326171875
1789317489304381400,6.81438134765625,-0.20281982421875,-0.6429595947265625,0.0430908203125
1789317489314336300,6.824336181640625,-0.5467071533203125,-0.4785919189453125,-0.18902587890625
1789317489324291600,6.83429150390625,-1.3511962890625,-0.8712005615234375,-0.325592041015625
1789317489334245400,6.844245361328125,-0.3994293212890625,-1.0614471435546875,-0.1977386474609375
1789317489344200400,6.854200439453125,-0.28173828125,-0.208709716796875,0.2614593505859375
1789317489354155300,6.8641552734375,-0.260711669921875,-0.6042633056640625,0.094146728515625
1789317489364109300,6.874109375,-1.2579345703125,0.373291015625,-0.1467132568359375
1789317489374064400,6.884064453125,-1.7222137451171875,-0.6292877197265625,-0.4747772216796875
1789317489384019500,6.89401953125,-0.9302978515625,-1.3115386962890625,-0.0400238037109375
1789317489393973200,6.90397314453125,-0.8100128173828125,-0.82269287109375,0.4346466064453125
1789317489403928300,6.91392822265625,-0.07501220703125,-0.6416778564453125,0.2393646240234375
1789317489413883400,6.92388330078125,-0.327423095703125,0.50555419921875,0.0913238525390625
1789317489423837400,6.93383740234375,-1.482635498046875,-1.3947906494140625,-0.507843017578125
1789317489433792300,6.943792236328125,-0.5577392578125,-1.162628173828125,-0.357879638671875
1789317489443747300,6.953747314453125,-0.5463409423828125,-0.31817626953125,0.1791229248046875
1789317489453702400,6.963702392578125,-1.2540283203125,0.2714385986328125,0.018280029296875
1789317489463656400,6.973656494140625,-1.75518798828125,-0.771148681640625,-0.413665771484375
1789317489473611300,6.983611328125,-1.3067474365234375,-0.867340087890625,0.23284912109375
1789317489483566300,6.99356640625,-0.59393310546875,0.43792724609375,0.72802734375
1789317489493520400,7.003520263671875,-0.641082763671875,-1.5725250244140625,0.073699951171875
1789317489503475500,7.013475341796875,-0.174285888671875,-0.8008270263671875,-0.0394134521484375
1789317489513430300,7.02343017578125,-0.167816162109375,0.3971710205078125,0.001312255859375
1789317489523384300,7.03338427734375,-1.011016845703125,-1.01153564453125,-0.568939208984375
1789317489533339100,7.043339111328125,-0.9378509521484375,-1.3285675048828125,-0.386260986328125
1789317489543294500,7.05329443359375,-0.5255126953125,-1.4763336181640625,0.2043304443359375
1789317489553248500,7.06324853515625,-0.0731048583984375,1.17633056640625,0.6433563232421875
1789317489563203300,7.073203369140625,-2.65362548828125,0.066009521484375,0.2595367431640625
1789317489573158100,7.083158203125,-1.4323883056640625,-1.132232666015625,-0.152587890625
1789317489583112400,7.093112548828125,-0.408050537109375,-0.354766845703125,0.5445709228515625
1789317489593067500,7.103067626953125,-0.6270751953125,-1.0855255126953125,0.23919677734375
1789317489603022300,7.113022216796875,-0.635986328125,-0.5486297607421875,-0.472900390625
1789317489612977200,7.12297705078125,-0.58282470703125,-0.1385650634765625,-0.6857757568359375
1789317489622931500,7.132931396484375,-0.05865478515625,-0.9980926513671875,-0.5257110595703125
1789317489632886500,7.142886474609375,-0.6486968994140625,-1.6871490478515625,-0.167449951171875
1789317489642841300,7.15284130859375,-0.2827606201171875,-0.718597412109375,0.07568359375
1789317489652795400,7.16279541015625,-0.6177825927734375,1.3968048095703125,0.382781982421875
1789317489662750500,7.17275048828125,-2.0157623291015625,-1.375762939453125,-0.0572662353515625
1789317489672705500,7.18270556640625,-1.620269775390625,-1.3624267578125,0.07818603515625
1789317489682659300,7.192659423828125,-0.8844757080078125,-0.186248779296875,0.4573822021484375
1789317489692614400,7.202614501953125,-0.395233154296875,-0.5682830810546875,-0.1031951904296875
1789317489702569500,7.212569580078125,-0.5704345703125,-0.0592193603515625,-0.319427490234375
1789317489712523500,7.2225234375,-0.5024261474609375,-0.4799957275390625,-0.340179443359375
1789317489722478300,7.232478271484375,-0.509979248046875,-1.4235076904296875,-0.3724517822265625
1789317489732433400,7.242433349609375,-0.762725830078125,-1.106201171875,-0.1241455078125
1789317489742388500,7.252388427734375,-0.43182373046875,-0.12591552734375,0.2065582275390625
1789317489752342500,7.262342529296875,-0.7975311279296875,-0.336029052734375,0.3829803466796875
1789317489762297300,7.27229736328125,-1.7571563720703125,-0.3355255126953125,0.255157470703125
1789317489772252400,7.28225244140625,-1.095428466796875,-0.75,-0.032257080078125
1789317489782206200,7.292206298828125,-0.8668212890625,-1.1818389892578125,0.0224761962890625
1789317489792161500,7.30216162109375,-0.2637481689453125,-0.28955078125,0.04351806640625
1789317489802116400,7.312116455078125,-0.5702972412109375,0.034149169921875,-0.1246490478515625
1789317489812070400,7.3220703125,-0.917877197265625,-1.046142578125,-0.4827728271484375
1789317489822025200,7.332025146484375,-0.5438232421875,-1.536956787109375,-0.3224334716796875
1789317489831980500,7.34198046875,-0.49688720703125,-0.6958465576171875,0.20355224609375
1789317489841934300,7.351934326171875,-0.3632659912109375,-0.367156982421875,0.2793731689453125
1789317489851889400,7.361889404296875,-0.85400390625,-0.3828277587890625,0.1436004638671875
1789317489861844200,7.37184423828125,-1.04193115234375,0.195281982421875,0.0159149169921875
1789317489871798500,7.381798583984375,-0.922943115234375,-1.108123779296875,-0.2366790771484375
1789317489881753300,7.39175341796875,-1.2344818115234375,-0.517425537109375,-0.1630096435546875
1789317489891708700,7.401708740234375,-0.8614501953125,-0.98028564453125,-0.2732391357421875
1789317489901663500,7.41166357421875,-1.048736572265625,-0.9046478271484375,-0.01177978515625
1789317489911617500,7.421617431640625,-0.5671234130859375,-0.81793212890625,0.2287445068359375
1789317489921572400,7.431572265625,0.0027313232421875,-0.3771209716796875,0.400360107421875
1789317489931527700,7.441527587890625,-0.1628570556640625,-0.2287445068359375,0.43841552734375
1789317489941481500,7.4514814453125,-1.1087799072265625,-1.50482177734375,-0.032318115234375
1789317489951436500,7.4614365234375,-1.4281005859375,0.2310791015625,-0.1417694091796875
1789317489961391400,7.471391357421875,-0.891998291015625,-1.055938720703125,-0.1504974365234375
1789317489971345400,7.481345458984375,-1.404205322265625,-1.100067138671875,0.110198974609375
1789317489981300500,7.491300537109375,-1.064849853515625,-0.4156036376953125,0.115234375
1789317489991255600,7.501255615234375,-1.1823883056640625,0.2843475341796875,0.1614837646484375
1789317490001209600,7.511209716796875,-0.6484527587890625,-0.607513427734375,0.0068206787109375
1789317490011164400,7.521164306640625,-0.552032470703125,-2.007415771484375,0.0099945068359375
1789317490021119500,7.531119384765625,0.2847747802734375,-0.0095977783203125,0.2369842529296875
1789317490031074600,7.541074462890625,-0.38348388671875,0.2115325927734375,-0.116241455078125
1789317490041028600,7.551028564453125,-1.6142120361328125,-0.563262939453125,-0.7379608154296875
1789317490050983400,7.5609833984375,-1.0985260009765625,-1.014617919921875,-0.358642578125
1789317490060938500,7.5709384765625,-1.1428680419921875,-0.860137939453125,0.2529296875
1789317490070892500,7.580892578125,-0.89630126953125,0.146697998046875,0.0271453857421875
1789317490080847600,7.59084765625,-1.6678619384765625,0.0131683349609375,-0.273406982421875
1789317490090802400,7.600802490234375,-0.9757537841796875,0.1139068603515625,-0.35845947265625
1789317490100756500,7.610756591796875,-1.031036376953125,-0.6265106201171875,-0.3390045166015625
1789317490110711600,7.620711669921875,-0.7034454345703125,-1.0949859619140625,-0.3449859619140625
1789317490120666600,7.63066650390625,-0.4087982177734375,-1.3331298828125,-0.4337921142578125
1789317490130621400,7.640621337890625,0.1255035400390625,0.7419586181640625,-0.0931243896484375
1789317490140575500,7.650575439453125,-0.5830230712890625,-0.2206878662109375,-0.298065185546875
1789317490150530600,7.660530517578125,-1.4525604248046875,-1.5423736572265625,-0.4469451904296875
1789317490160485600,7.670485595703125,-0.633544921875,-0.5331878662109375,-0.107635498046875
1789317490170439400,7.680439453125,-1.260101318359375,-0.680389404296875,0.1786956787109375
1789317490180394500,7.69039453125,-1.0117034912109375,-0.1300811767578125,0.223175048828125
1789317490190349600,7.700349609375,-1.24334716796875,-0.7877044677734375,0.1020965576171875
1789317490200303600,7.7103037109375,-0.4298095703125,-0.089141845703125,0.206024169921875
1789317490210258400,7.720258544921875,-0.3050994873046875,-1.2883453369140625,-0.167999267578125
1789317490220213500,7.730213623046875,-0.2075653076171875,-0.887939453125,-0.26123046875
1789317490230167300,7.740167236328125,-0.109405517578125,0.831573486328125,-0.188995361328125
1789317490240122600,7.75012255859375,-0.9653167724609375,-1.829193115234375,-0.657379150390625
1789317490250077400,7.760077392578125,-1.3214874267578125,-1.534454345703125,-0.158538818359375
1789317490260031500,7.770031494140625,-0.2796478271484375,0.1688995361328125,0.321990966796875
1789317490269986300,7.779986328125,-0.3653106689453125,-0.2327117919921875,0.266876220703125
1789317490279941600,7.789941650390625,-1.4381256103515625,-0.5300140380859375,-0.14141845703125
1789317490289896400,7.799896484375,-1.58648681640625,0.379638671875,-0.4247589111328125
1789317490299850500,7.8098505859375,-1.5467376708984375,-0.8375244140625,-0.3045196533203125
1789317490309805300,7.819805419921875,-1.2978973388671875,-1.5551910400390625,0.0274200439453125
1789317490319760600,7.8297607421875,-0.1598358154296875,-0.809722900390625,-0.022674560546875
1789317490329714400,7.83971435546875,-0.4253692626953125,0.34490966796875,0.0876922607421875
1789317490339669500,7.84966943359375,-0.4017791748046875,-0.6475372314453125,0.0120849609375
1789317490349624300,7.859624267578125,-0.0272369384765625,-0.580841064453125,0.0270538330078125
1789317490359578600,7.86957861328125,-0.288330078125,-0.3900299072265625,-0.1150054931640625
1789317490369533400,7.879533447265625,-1.3649444580078125,-0.914886474609375,-0.281890869140625
1789317490379488500,7.889488525390625,-1.7876739501953125,-1.179840087890625,-0.195892333984375
1789317490389443300,7.899443359375,-1.083831787109375,-0.55133056640625,0.175262451171875
1789317490399397600,7.909397705078125,-1.536834716796875,0.3540191650390625,0.3521575927734375
1789317490409352400,7.9193525390625,-0.818878173828125,-0.96099853515625,-0.1154327392578125
1789317490419307500,7.9293076171875,-0.9854736328125,-0.8489837646484375,-0.037322998046875
1789317490429261600,7.939261474609375,-0.2812042236328125,0.252532958984375,-0.1295623779296875
1789317490439216600,7.949216552734375,-0.3911285400390625,-1.6449432373046875,-0.4906158447265625
1789317490449171500,7.95917138671875,-0.2708892822265625,-0.6222686767578125,-0.1302490234375
1789317490459125500,7.96912548828125,0.046844482421875,-0.080718994140625,-0.0848541259765625
1789317490469080600,7.97908056640625,-0.8328704833984375,-1.7100372314453125,-0.2153778076171875
1789317490479035600,7.98903564453125,-0.8809356689453125,-0.714111328125,-0.002716064453125
1789317490488989700,7.99898974609375,-0.229522705078125,-0.5057525634765625,-0.0851593017578125
1789317490498944500,8.008944580078126,-0.9625396728515625,-0.1686553955078125,0.04876708984375
1789317490508899300,8.0188994140625,-1.85546875,-0.550506591796875,-0.2197723388671875
1789317490518853400,8.028853271484374,-1.0333251953125,-0.2499237060546875,-0.20343017578125
1789317490528808700,8.03880859375,-1.2871551513671875,-1.018310546875,0.018310546875
1789317490538763500,8.048763427734375,-0.464813232421875,-0.8461761474609375,0.097503662109375
1789317490548718300,8.05871826171875,-0.77685546875,1.0591888427734375,0.388946533203125
1789317490558672400,8.06867236328125,-0.8221588134765625,-2.02178955078125,-0.3404083251953125
1789317490568627700,8.078627685546875,-0.54052734375,-0.6273040771484375,-0.1305389404296875
1789317490578582500,8.08858251953125,-0.34771728515625,-0.269287109375,-0.0565643310546875
1789317490588536600,8.09853662109375,-0.237274169921875,-1.3066253662109375,-0.2881927490234375
1789317490598491400,8.108491455078125,-0.2849884033203125,0.1677398681640625,-0.046844482421875
1789317490608446700,8.11844677734375,-1.6886749267578125,-0.7268218994140625,-0.2789154052734375
1789317490618400500,8.128400390625,-1.384185791015625,-0.3511199951171875,-0.0539703369140625
1789317490628355600,8.13835546875,-1.638580322265625,-1.507659912109375,0.2991485595703125
1789317490638310400,8.148310302734375,-0.4326629638671875,-0.686279296875,0.3389434814453125
1789317490648264400,8.158264404296874,0.179962158203125,-0.205841064453125,0.0909881591796875
1789317490658219500,8.168219482421875,-1.289459228515625,0.258453369140625,0.0099334716796875
1789317490668174600,8.178174560546875,-0.6512908935546875,-0.8572235107421875,-0.61962890625
1789317490678129400,8.18812939453125,-0.3595733642578125,-0.9272003173828125,-0.453399658203125
1789317490688083500,8.19808349609375,-0.75787353515625,-1.5877227783203125,-0.1498260498046875
1789317490698038500,8.20803857421875,-0.4798583984375,-0.156982421875,-0.097259521484375
1789317490707993600,8.21799365234375,-1.7781829833984375,0.7010650634765625,-0.1879425048828125
1789317490717947400,8.227947509765626,-1.3222808837890625,-1.23321533203125,-0.5176239013671875
1789317490727902500,8.23790234375,-1.235015869140625,-0.7773284912109375,-0.0486602783203125
1789317490737857500,8.247857421875,-0.5451812744140625,-1.28155517578125,0.0448760986328125
1789317490747811600,8.2578115234375,-0.2657470703125,0.09820556640625,-0.000396728515625
1789317490757766400,8.267766357421875,-1.17987060546875,0.05828857421875,-0.3106689453125
1789317490767721500,8.277721435546875,-0.616302490234375,-1.3580780029296875,-0.4892730712890625
1789317490777675300,8.28767529296875,-0.905059814453125,-1.0142364501953125,0.0242767333984375
1789317490787630600,8.297630615234375,-0.376953125,-0.6167144775390625,0.0987396240234375
1789317490797585400,8.30758544921875,-0.08392333984375,-0.14202880859375,0.0374298095703125
1789317490807539500,8.31753955078125,-1.3014068603515625,0.382049560546875,0.1922149658203125
1789317490817494300,8.327494384765625,-1.1525115966796875,-1.462615966796875,-0.1385498046875
1789317490827449600,8.33744970703125,-0.515777587890625,-0.0774688720703125,0.265533447265625
1789317490837404400,8.347404296875,-1.23089599609375,-0.3357391357421875,0.2892913818359375
1789317490847358500,8.3573583984375,-1.487274169921875,-0.2990875244140625,-0.25421142578125
1789317490857313300,8.367313232421875,-1.4160919189453125,-0.8561553955078125,-0.2552642822265625
1789317490867268600,8.3772685546875,-0.5760040283203125,-1.4875946044921875,0.11956787109375
1789317490877222700,8.38722265625,0.110565185546875,-0.0268707275390625,0.2146759033203125
1789317490887177700,8.397177734375,-0.223907470703125,0.145965576171875,-0.0202789306640625
1789317490897132500,8.407132568359375,-1.489501953125,-0.837005615234375,-0.5267181396484375
1789317490907086600,8.417086669921876,-0.76953125,-0.593505859375,-0.4160308837890625
1789317490917041700,8.427041748046875,-1.2484130859375,-1.482513427734375,0.0644378662109375
1789317490926996700,8.436996826171875,-0.6635894775390625,-0.51312255859375,0.160888671875
1789317490936950800,8.44695068359375,-0.602813720703125,-0.6200714111328125,0.0863494873046875
1789317490946905600,8.456905517578125,-0.9446258544921875,0.1288909912109375,0.132568359375
1789317490956860400,8.4668603515625,-0.4310455322265625,-0.9332733154296875,-0.1190185546875
1789317490966814500,8.476814453125,-0.2353057861328125,-0.2550201416015625,-0.0706329345703125
1789317490976769800,8.486769775390625,-0.222625732421875,-0.3459014892578125,-0.1744232177734375
1789317490986724600,8.496724609375,-0.7834930419921875,-1.29046630859375,-0.217926025390625
1789317490996679400,8.506679443359374,-1.51708984375,-0.4328155517578125,0.06500244140625
1789317491006633500,8.516633544921875,-0.8999481201171875,-0.41436767578125,0.22491455078125
1789317491016588800,8.5265888671875,-1.4231414794921875,-0.4350128173828125,0.250274658203125
1789317491026543600,8.536543701171874,-1.33709716796875,-0.8198394775390625,-0.0763092041015625
1789317491036497700,8.54649755859375,-1.3259429931640625,-0.25445556640625,-0.061309814453125
1789317491046452500,8.556452392578125,-0.9449920654296875,-0.8123626708984375,-0.2646331787109375
1789317491056407800,8.56640771484375,-0.5569915771484375,-0.0386810302734375,-0.158447265625
1789317491066361600,8.576361572265625,-0.2607269287109375,-0.4909210205078125,-0.0443572998046875
1789317491076316700,8.586316650390625,0.12396240234375,-0.6804962158203125,0.0128936767578125
1789317491086271500,8.596271484375,-0.9297637939453125,-0.464447021484375,0.027801513671875
1789317491096225800,8.606225830078126,-2.6474151611328125,-1.3927459716796875,-0.429412841796875
1789317491106180600,8.6161806640625,-0.72747802734375,-0.4785919189453125,0.1227569580078125
1789317491116135700,8.6261357421875,-0.598236083984375,-0.9511260986328125,0.5623321533203125
1789317491126089500,8.63608935546875,-0.0848541259765625,-0.47216796875,0.1668548583984375
1789317491136044800,8.646044921875,-0.1509246826171875,0.51611328125,0.1795654296875
1789317491145999600,8.65599951171875,-0.90753173828125,-0.3809356689453125,-0.0810394287109375
1789317491155954700,8.66595458984375,-0.51800537109375,-1.651275634765625,-0.367919921875
1789317491165908500,8.675908447265625,-0.4941558837890625,-1.6849212646484375,-0.0572967529296875
1789317491175863800,8.68586376953125,-0.19805908203125,-0.35723876953125,0.2772369384765625
1789317491185818600,8.695818603515624,-1.6044769287109375,-0.77825927734375,0.164764404296875
1789317491195772700,8.705772705078125,-0.970855712890625,-0.5738067626953125,-0.0108795166015625
1789317491205727500,8.7157275390625,-0.612579345703125,-0.73828125,0.3247222900390625
1789317491215682600,8.7256826171875,-0.6642303466796875,-0.7105255126953125,0.3171234130859375
1789317491225636600,8.73563671875,-0.96502685546875,0.3530120849609375,-0.005645751953125
1789317491235591700,8.745591796875,-1.775726318359375,-0.6743011474609375,-0.4875335693359375
1789317491245546500,8.75554638671875,-0.7029571533203125,-1.1573486328125,-0.250640869140625
1789317491255500500,8.76550048828125,-0.9006500244140625,-0.4683685302734375,0.2435455322265625
1789317491265455600,8.77545556640625,-0.458251953125,-0.5933074951171875,0.134613037109375
1789317491275410700,8.78541064453125,-0.365753173828125,-0.8627471923828125,0.0849761962890625
1789317491285364700,8.79536474609375,-0.457275390625,0.1782989501953125,0.15582275390625
1789317491295319600,8.805319580078125,-0.9439697265625,-1.2100982666015625,0.0068511962890625
1789317491305274600,8.815274658203125,-0.60650634765625,-0.328765869140625,0.1020660400390625
1789317491315229700,8.825229736328126,-1.096923828125,-0.7093658447265625,-0.1095123291015625
1789317491325183700,8.835183837890625,-1.4492034912109375,-0.8400726318359375,-0.4261932373046875
1789317491335138600,8.845138671875,-0.8162384033203125,-0.884979248046875,-0.172393798828125
1789317491345093600,8.85509375,-0.4508056640625,-1.02447509765625,0.2667999267578125
1789317491355047700,8.865047607421875,0.0927734375,0.380615234375,0.3742828369140625
1789317491365002800,8.875002685546875,-1.12860107421875,-0.8200531005859375,-0.0325927734375
1789317491374957600,8.88495751953125,-1.16827392578125,-0.719818115234375,-0.37200927734375
1789317491384911600,8.89491162109375,-0.4726104736328125,-0.1955718994140625,0.00250244140625
1789317491394866700,8.90486669921875,-1.387054443359375,-1.0090789794921875,-0.0076446533203125
1789317491404821800,8.91482177734375,-1.3990631103515625,-0.678436279296875,-0.274566650390625
1789317491414775600,8.924775634765625,-1.3928680419921875,-0.3123321533203125,-0.1494903564453125
1789317491424730600,8.934730712890625,-1.0054168701171875,-1.235931396484375,0.0225067138671875
1789317491434685700,8.944685791015624,-0.1490936279296875,0.486083984375,0.414703369140625
1789317491444639700,8.9546396484375,-0.0561065673828125,-0.0738067626953125,0.194671630859375
1789317491454594600,8.964594482421875,-0.20465087890625,-0.7797393798828125,-0.192840576171875
1789317491464549600,8.974549560546874,-0.916107177734375,-1.1618194580078125,-0.4932861328125
1789317491474503400,8.98450341796875,-0.927581787109375,0.0345611572265625,-0.54229736328125
1789317491484458800,8.994458740234375,-0.3405914306640625,0.314971923828125,-0.3087005615234375
1789317491494413600,9.00441357421875,-1.2996368408203125,-1.551422119140625,-0.4149932861328125
1789317491504368600,9.01436865234375,-0.8008270263671875,-1.2930145263671875,-0.4245147705078125
1789317491514322400,9.024322509765625,-1.4568939208984375,0.2246856689453125,0.1001129150390625
1789317491524277800,9.03427783203125,-0.940643310546875,1.1209259033203125,0.0165252685546875
1789317491534232600,9.044232666015626,-1.87017822265625,-0.792449951171875,-0.398590087890625
1789317491544186600,9.0541865234375,-1.2295684814453125,-1.3282012939453125,-0.334075927734375
1789317491554141400,9.064141357421875,-0.7398681640625,-1.2258148193359375,-0.211669921875
1789317491564096800,9.0740966796875,-0.8212432861328125,0.86578369140625,0.016021728515625
1789317491574050600,9.084050537109375,-0.164520263671875,-0.3767242431640625,-0.22662353515625
1789317491584005600,9.094005615234375,-0.4321746826171875,-0.9355621337890625,-0.0813140869140625
1789317491593960400,9.10396044921875,-0.8788909912109375,-1.491241455078125,-0.0049896240234375
1789317491603914800,9.113914794921875,-0.72418212890625,-0.992523193359375,0.0751953125
1789317491613869600,9.12386962890625,-0.368896484375,-0.1837310791015625,0.1254119873046875
1789317491623824600,9.13382470703125,-0.84149169921875,-0.414215087890625,0.048675537109375
1789317491633778700,9.14377880859375,-1.5213623046875,-0.9129638671875,-0.262786865234375
1789317491643733800,9.153733642578125,-0.72857666015625,-0.57177734375,-0.2041168212890625
1789317491653688600,9.1636884765625,-0.8187713623046875,0.155670166015625,0.0901947021484375
1789317491663643600,9.1736435546875,-0.7783660888671875,-0.5896453857421875,-0.22650146484375
1789317491673597700,9.18359765625,-1.402496337890625,-0.8572540283203125,-0.21258544921875
1789317491683552800,9.193552734375,-0.5235748291015625,-0.6610107421875,0.0144195556640625
1789317491693507600,9.203507568359376,-0.57012939453125,-1.3304595947265625,-0.034393310546875
1789317491703461600,9.213461669921875,-0.67138671875,0.20013427734375,-0.1337127685546875
1789317491713416700,9.223416748046875,-0.7308502197265625,-0.9650115966796875,-0.5817108154296875
1789317491723371800,9.233371826171876,-1.157867431640625,-1.0128936767578125,-0.36956787109375
1789317491733325800,9.243325927734375,-0.4560394287109375,-0.2431793212890625,-0.0254058837890625
1789317491743280600,9.25328076171875,-0.6851348876953125,-0.18377685546875,0.1342620849609375
1789317491753235500,9.2632353515625,-1.5451507568359375,0.0247039794921875,0.0604705810546875
1789317491763189500,9.273189453125,-1.0207672119140625,-0.9815216064453125,-0.227996826171875
1789317491773144800,9.283144775390625,-0.9516448974609375,-0.13800048828125,0.2109222412109375
1789317491783099600,9.293099609375,-0.52569580078125,-1.1578216552734375,0.0146026611328125
1789317491793053700,9.3030537109375,-0.263946533203125,-0.597259521484375,-0.22918701171875
1789317491803008500,9.313008544921875,-0.8848724365234375,-0.819061279296875,-0.2787933349609375
1789317491812963800,9.3229638671875,-0.3397674560546875,-0.6231842041015625,-0.2115325927734375
1789317491822917600,9.332917724609375,-0.2078857421875,-0.559814453125,-0.020721435546875
1789317491832872700,9.342872802734375,-0.4263153076171875,-1.3278656005859375,-0.1183624267578125
1789317491842827500,9.35282763671875,-0.3805999755859375,-0.75189208984375,-0.108306884765625
1789317491852782800,9.362782958984376,-1.6428680419921875,-0.314788818359375,0.0613250732421875
1789317491862736600,9.372736572265625,-0.768768310546875,-0.52313232421875,-0.13323974609375
1789317491872692200,9.382692138671874,-1.65228271484375,-0.515106201171875,0.040802001953125
1789317491882647300,9.392647216796876,-1.0819244384765625,-1.0753173828125,-0.0435791015625
1789317491892601300,9.402601318359375,-0.8406219482421875,-0.215911865234375,0.0536651611328125
1789317491902556200,9.41255615234375,-0.761383056640625,-0.098907470703125,0.033294677734375
1789317491912511200,9.42251123046875,-0.2754974365234375,-0.5695343017578125,-0.08837890625
1789317491922465300,9.43246533203125,-0.8417510986328125,-0.93743896484375,-0.1087799072265625
1789317491932420400,9.44242041015625,-0.5013885498046875,-0.4989776611328125,-0.17132568359375
1789317491942375200,9.452375244140624,-0.8069610595703125,-0.72686767578125,-0.1297454833984375
1789317491952329200,9.4623291015625,-0.6809539794921875,-1.124359130859375,-0.029876708984375
1789317491962284300,9.4722841796875,-0.53192138671875,-0.160125732421875,0.0884552001953125
1789317491972239400,9.4822392578125,-1.64794921875,-0.148406982421875,-0.160125732421875
1789317491982193200,9.492193115234375,-1.017242431640625,-0.926055908203125,-0.5159759521484375
1789317491992148200,9.502148193359375,-0.9516754150390625,-0.254180908203125,-0.1065673828125
1789317492002103000,9.51210302734375,-0.8807525634765625,-0.52734375,-0.1397247314453125
1789317492012057300,9.522057373046875,-0.8131256103515625,-0.8871307373046875,-0.3120269775390625
1789317492022012200,9.53201220703125,-0.793792724609375,-0.3604888916015625,-0.164794921875
1789317492031967200,9.54196728515625,-0.2077789306640625,-1.054840087890625,-0.2537078857421875
1789317492041921000,9.551921142578125,-0.338775634765625,-0.7363128662109375,-0.2115631103515625
1789317492051876400,9.56187646484375,-0.5125579833984375,-0.5478057861328125,-0.3072967529296875
1789317492061831200,9.5718310546875,-0.579559326171875,-0.22271728515625,-0.35333251953125
1789317492071786200,9.5817861328125,-1.0847015380859375,-0.5782928466796875,-0.33880615234375
1789317492081740000,9.591739990234375,-1.423614501953125,-1.142303466796875,-0.186004638671875
1789317492091695400,9.6016953125,-1.090484619140625,0.2806396484375,0.1598663330078125
1789317492101650200,9.611650146484376,-1.1603546142578125,-0.4237060546875,-0.0360260009765625
1789317492111604200,9.621604248046875,-0.6337432861328125,-1.0326690673828125,-0.1220703125
1789317492121559000,9.63155908203125,-0.4927520751953125,0.0296630859375,0.0897979736328125
1789317492131514400,9.641514404296874,-0.7717742919921875,-0.4865264892578125,-0.268890380859375
1789317492141468200,9.65146826171875,-0.60980224609375,-0.476470947265625,-0.386749267578125
1789317492151423200,9.66142333984375,-0.6345977783203125,-1.316497802734375,-0.141143798828125
1789317492161378000,9.6713779296875,-0.8405303955078125,-0.3514862060546875,0.2274322509765625
1789317492171332000,9.68133203125,-1.1759796142578125,-0.839935302734375,0.13671875
1789317492181287200,9.691287109375,-0.8863525390625,-0.1442413330078125,0.17694091796875
1789317492191242200,9.7012421875,-1.019500732421875,-0.2483367919921875,0.127532958984375
1789317492201196300,9.7111962890625,-1.396514892578125,-0.6967620849609375,-0.086181640625
1789317492211151000,9.721151123046875,-1.20257568359375,-0.41412353515625,-0.1555633544921875
1789317492221106200,9.731106201171874,-0.6939697265625,-0.5157470703125,-0.01953125
1789317492231060200,9.741060302734375,-0.39337158203125,-0.7189788818359375,0.0840911865234375
1789317492241015300,9.751015380859375,-0.495208740234375,-0.527069091796875,0.1601409912109375
1789317492250970000,9.76097021484375,-1.168548583984375,-0.63134765625,-0.156524658203125
1789317492260925200,9.77092529296875,-0.58197021484375,-0.515228271484375,-0.3177032470703125
1789317492270879200,9.780879150390625,-1.0568084716796875,-1.123565673828125,-0.084503173828125
1789317492280834300,9.790834228515624,-0.769012451171875,-0.84765625,-0.0934600830078125
1789317492290789000,9.8007890625,-0.8257598876953125,-0.292633056640625,-0.017791748046875
1789317492300743200,9.8107431640625,-1.0284271240234375,0.0554351806640625,-0.018310546875
1789317492310698200,9.8206982421875,-0.704925537109375,-0.454620361328125,-0.233123779296875
1789317492320653300,9.8306533203125,-0.72711181640625,-0.994293212890625,-0.25152587890625
1789317492330607000,9.840607177734375,-0.300079345703125,-0.5597381591796875,-0.21435546875
1789317492340562200,9.850562255859375,0.0517730712890625,-0.547576904296875,-0.1399688720703125
1789317492350517200,9.860517333984374,-0.7829742431640625,-0.422332763671875,0.0001983642578125
1789317492360471300,9.87047119140625,-1.493011474609375,-0.7221832275390625,-0.267822265625
1789317492370426000,9.880426025390625,-1.311767578125,-1.2568511962890625,-0.225250244140625
1789317492380381200,9.890381103515624,-0.957000732421875,-0.4575042724609375,0.394866943359375
1789317492390335200,9.900335205078125,-0.3208160400390625,-0.084075927734375,0.3218994140625
1789317492400290300,9.910290283203125,-1.0358428955078125,-0.02154541015625,0.11383056640625
1789317492410245000,9.9202451171875,-0.880035400390625,-0.1831817626953125,-0.114410400390625
1789317492420199200,9.93019921875,-0.706390380859375,-0.8600006103515625,-0.1400299072265625
1789317492430154200,9.940154296875,-0.9751434326171875,-1.1418914794921875,-0.17059326171875
1789317492440109300,9.950109375,-0.6083984375,-0.9960479736328125,-0.121856689453125
1789317492450063000,9.96006298828125,-0.4721527099609375,-0.38494873046875,-0.0003204345703125
1789317492460018200,9.97001806640625,-0.4450531005859375,-1.3029327392578125,0.033843994140625
1789317492469973200,9.97997314453125,-0.0652618408203125,-0.101043701171875,0.3852996826171875
1789317492479928300,9.98992822265625,-1.3855133056640625,-0.08343505859375,0.1016082763671875
1789317492489882000,9.999882080078125,-1.6806488037109375,-1.4626617431640625,-0.587371826171875
1789317492499837200,10.009837158203124,-0.817626953125,-1.03533935546875,-0.0047607421875
1789317492509792000,10.0197919921875,-0.539306640625,-0.7435302734375,0.209197998046875
1789317492519746300,10.029746337890625,-0.83807373046875,0.4040374755859375,-0.1613616943359375
1789317492529701000,10.039701171875,-0.5677032470703125,-0.604583740234375,-0.4299774169921875
1789317492539656200,10.04965625,-0.3842620849609375,-1.08612060546875,-0.190521240234375
1789317492549610200,10.0596103515625,-0.4245758056640625,-0.7137603759765625,-0.024505615234375
1789317492559565300,10.0695654296875,-1.4568634033203125,-0.950103759765625,-0.1280364990234375
1789317492569520000,10.07952001953125,-1.2184906005859375,-0.1696319580078125,-0.144805908203125
1789317492579474200,10.08947412109375,-1.08929443359375,-0.832763671875,-0.0697784423828125
1789317492589429200,10.09942919921875,-1.2567901611328125,-0.4335174560546875,0.2016143798828125
1789317492599384300,10.10938427734375,-0.3785858154296875,-0.4101715087890625,0.0733795166015625
1789317492609338400,10.11933837890625,-1.32757568359375,-0.0152740478515625,-0.15728759765625
1789317492619293200,10.129293212890625,-1.0815887451171875,-0.024658203125,-0.44830322265625
1789317492629248300,10.139248291015624,-0.74566650390625,-1.698760986328125,-0.2811126708984375
1789317492639202000,10.1492021484375,-0.38690185546875,-1.1419677734375,0.173858642578125
1789317492649157400,10.159157470703125,0.53729248046875,0.509552001953125,0.299591064453125
1789317492659112200,10.1691123046875,-0.62725830078125,-0.9399566650390625,0.0044708251953125
1789317492669066200,10.179066162109375,-1.133819580078125,-0.938079833984375,-0.1750335693359375
1789317492679021000,10.18902099609375,-0.2535400390625,-0.8739471435546875,-0.158935546875
1789317492688976400,10.198976318359374,-0.9847564697265625,0.558319091796875,0.1494293212890625
1789317492698931200,10.20893115234375,-2.2431182861328125,-1.196990966796875,-0.366180419921875
1789317492708885200,10.21888525390625,-1.638702392578125,-0.195587158203125,-0.187835693359375
1789317492718840000,10.228840087890624,-1.37890625,-0.3164215087890625,0.2264556884765625
1789317492728795400,10.23879541015625,-0.37371826171875,-1.30999755859375,0.17547607421875
1789317492738749200,10.248749267578125,0.3188323974609375,-0.036834716796875,0.3919830322265625
1789317492748704300,10.258704345703125,0.3595428466796875,-0.1327972412109375,0.03680419921875
1789317492758659000,10.2686591796875,-1.026153564453125,-0.641815185546875,-0.631744384765625
1789317492768613000,10.278613037109375,-0.8056488037109375,-1.199432373046875,-0.72943115234375
1789317492778568200,10.288568115234375,-0.63873291015625,-1.19500732421875,-0.045166015625
1789317492788523300,10.298523193359374,-0.850006103515625,-0.405609130859375,0.1694183349609375
1789317492798477000,10.30847705078125,-1.8071746826171875,0.12890625,0.0396575927734375
1789317492808432000,10.31843212890625,-1.1961517333984375,0.3184967041015625,-0.0397186279296875
1789317492818387200,10.32838720703125,-0.8654327392578125,0.2310028076171875,0.22186279296875
1789317492828341200,10.33834130859375,-1.0753173828125,-1.4636993408203125,-0.1689453125
1789317492838296000,10.348296142578125,-0.846099853515625,-0.3833160400390625,-0.4763336181640625
1789317492848251100,10.358251220703124,-0.6441497802734375,-1.14678955078125,-0.5652618408203125
1789317492858205400,10.368205322265625,-0.3032379150390625,-0.5998992919921875,-0.1032867431640625
1789317492868160300,10.37816015625,-0.2979736328125,-0.56927490234375,0.10968017578125
1789317492878114800,10.38811474609375,-0.8614654541015625,-0.818695068359375,0.03668212890625
1789317492888068900,10.39806884765625,-1.04962158203125,-0.9081573486328125,-0.0563507080078125
1789317492898024000,10.40802392578125,-0.61798095703125,-0.461639404296875,0.1123504638671875
1789317492907978800,10.417978759765624,-0.879669189453125,-0.082611083984375,0.3807373046875
1789317492917932800,10.427932861328125,-1.025482177734375,-0.3444366455078125,0.036285400390625
1789317492927888000,10.437887939453125,-1.44781494140625,-0.2563323974609375,-0.4099578857421875
1789317492937843000,10.447843017578125,-0.9973907470703125,-0.378173828125,-0.3530120849609375
1789317492947797800,10.4577978515625,-0.746368408203125,-1.1958465576171875,-0.0921630859375
1789317492957751800,10.467751708984375,-0.9272613525390625,-0.562774658203125,-0.10943603515625
1789317492967707000,10.477706787109375,-0.789947509765625,-0.6874847412109375,-0.2782440185546875
1789317492977662000,10.487661865234376,-0.5063323974609375,-1.2592010498046875,-0.2028656005859375
1789317492987615700,10.49761572265625,-0.1108551025390625,-0.4477081298828125,0.057281494140625
1789317492997570800,10.50757080078125,-0.1716461181640625,-0.0769500732421875,-0.2122955322265625
1789317493007526000,10.51752587890625,-1.23822021484375,-0.3269500732421875,-0.6333465576171875
1789317493017480000,10.52747998046875,-1.05462646484375,-0.8184051513671875,-0.5650177001953125
1789317493027434800,10.537434814453125,-1.1271209716796875,-0.6151275634765625,0.0545806884765625
1789317493037389800,10.547389892578124,-0.9294586181640625,-0.9087677001953125,-0.0019683837890625
1789317493047343600,10.557343505859375,-1.1463470458984375,0.2062530517578125,-0.144134521484375
1789317493057299000,10.567298828125,-0.8539276123046875,-0.3433685302734375,-0.2741546630859375
1789317493067253800,10.577253662109374,-0.8841705322265625,-0.633514404296875,-0.2689208984375
1789317493077207800,10.587207763671875,-0.8197479248046875,-0.55633544921875,-0.2075042724609375
1789317493087162600,10.59716259765625,-0.783721923828125,-1.1462860107421875,-0.258941650390625
1789317493097118000,10.607117919921874,-1.0088043212890625,-0.952667236328125,-0.143524169921875
1789317493107072000,10.617072021484375,-0.4781951904296875,-0.80938720703125,0.1139984130859375
1789317493117026800,10.62702685546875,0.09771728515625,-0.501678466796875,0.2147979736328125
1789317493126981600,10.636981689453124,0.4979248046875,0.5152587890625,-0.0494232177734375
1789317493136936000,10.64693603515625,-2.3584747314453125,0.051910400390625,-0.602935791015625
1789317493146890800,10.656890869140625,-2.524139404296875,-1.9102630615234375,-0.5343780517578125
1789317493156845800,10.666845703125,-0.25543212890625,-1.1826171875,0.482452392578125
1789317493166800000,10.6767998046875,-0.165069580078125,-1.3619537353515625,0.186004638671875
1789317493176755000,10.6867548828125,-0.5958404541015625,1.1504058837890625,0.3394927978515625
1789317493186709800,10.696709716796875,-0.5241241455078125,-0.0318756103515625,-0.2110137939453125
1789317493196664800,10.706664794921876,-0.2095794677734375,-0.897705078125,-0.3675384521484375
1789317493206619000,10.716618896484375,-0.982147216796875,-1.420013427734375,-0.124969482421875
1789317493216573700,10.72657373046875,-0.916290283203125,-0.8820343017578125,-0.21923828125
1789317493226528800,10.73652880859375,-1.4683837890625,0.1419525146484375,-0.1410980224609375
1789317493236482800,10.74648291015625,-1.3487548828125,-0.5476226806640625,-0.0474853515625
1789317493246438000,10.75643798828125,-1.4787445068359375,-0.5269927978515625,0.032806396484375
1789317493256392700,10.766392822265624,-0.922393798828125,-0.6024017333984375,-0.2038726806640625
1789317493266347000,10.776346923828125,-0.732574462890625,-0.3201751708984375,-0.3287200927734375
1789317493276301800,10.7863017578125,-0.61041259765625,-0.6557464599609375,-0.5225067138671875
1789317493286257000,10.7962568359375,-0.6243896484375,-1.0994873046875,-0.402923583984375
1789317493296210700,10.806210693359375,-0.40997314453125,-0.3962860107421875,-0.0487213134765625
1789317493306166000,10.816166015625,-0.2612762451171875,-0.5714111328125,-0.0909576416015625
1789317493316120800,10.826120849609374,-0.61273193359375,-0.801055908203125,-0.1261749267578125
1789317493326075000,10.836074951171875,-0.764251708984375,-1.183074951171875,-0.1723175048828125
1789317493336029700,10.84602978515625,-0.6470794677734375,-0.2978363037109375,-0.092010498046875
1789317493345985000,10.855985107421875,-1.0625,-0.4378662109375,-0.1160888671875
1789317493355938800,10.865938720703125,-0.9454498291015625,-0.2971343994140625,-0.0425567626953125
1789317493365894000,10.875893798828125,-1.058013916015625,-0.5375518798828125,-0.00396728515625
1789317493375848700,10.8858486328125,-1.00946044921875,-1.0586090087890625,-0.019927978515625
1789317493385802800,10.895802734375,-0.63214111328125,-0.401580810546875,0.182647705078125
1789317493395757800,10.9057578125,-0.8883514404296875,0.2964630126953125,0.1745452880859375
1789317493405713000,10.915712890625,-0.772216796875,-0.5433807373046875,-0.09375
1789317493415667000,10.9256669921875,-1.1756591796875,-2.1143341064453125,-0.2280120849609375
1789317493425621800,10.935621826171875,-0.52154541015625,-0.7022247314453125,0.013824462890625
1789317493435576800,10.945576904296875,-0.4067230224609375,0.2663116455078125,0.2136993408203125
1789317493445531000,10.95553076171875,-0.4853668212890625,0.4278717041015625,-0.0099945068359375
1789317493455485700,10.965485595703125,-1.18609619140625,-0.2599639892578125,-0.2660980224609375
1789317493465440800,10.975440673828125,-1.50030517578125,-1.9501190185546875,-0.0814208984375
1789317493475395800,10.985395751953124,-0.8841552734375,-0.7848358154296875,0.3473358154296875
1789317493485350000,10.995349853515625,-0.7099456787109375,-0.10986328125,0.353607177734375
1789317493495304700,11.0053046875,-0.6660919189453125,-0.20391845703125,0.098297119140625
1789317493505259800,11.015259765625,-0.414886474609375,-0.3121185302734375,-0.1070709228515625
1789317493515213800,11.0252138671875,-0.6879119873046875,-1.5181427001953125,-0.33544921875
1789317493525169000,11.0351689453125,-0.3712005615234375,-0.420379638671875,-0.4270782470703125
1789317493535123700,11.045123779296874,-0.6451416015625,-0.9536590576171875,-0.3579254150390625
1789317493545077800,11.055077880859375,-0.958740234375,-0.4430999755859375,-0.0028533935546875
1789317493555032800,11.06503271484375,-1.107879638671875,-0.1106109619140625,0.093719482421875
1789317493564988000,11.07498779296875,-1.656890869140625,-0.606292724609375,0.018798828125
1789317493574942000,11.08494189453125,-1.284881591796875,-0.3623046875,-0.0180511474609375
1789317493584896800,11.094896728515625,-1.0845184326171875,-0.5391845703125,0.074249267578125
1789317493594851800,11.104851806640625,-1.2805633544921875,-0.06829833984375,-0.2066192626953125
1789317493604806000,11.114805908203126,-1.2097320556640625,-0.3146514892578125,-0.4482421875
1789317493614761000,11.124760986328125,-0.6956329345703125,-0.864227294921875,0.012237548828125
1789317493624715800,11.1347158203125,-0.61279296875,-1.3929901123046875,0.3441925048828125
1789317493634669800,11.144669921875,0.1187744140625,-0.3159942626953125,0.477020263671875
1789317493644625000,11.154625,0.217529296875,-0.4921112060546875,0.41607666015625
1789317493654580000,11.164580078125,-0.049530029296875,-0.28265380859375,0.352294921875
1789317493664533800,11.17453369140625,-0.9744110107421875,-0.889617919921875,0.01849365234375
1789317493674488800,11.18448876953125,-1.4490509033203125,-0.6357879638671875,-0.3028411865234375
1789317493684444000,11.19444384765625,-1.363250732421875,-1.136810302734375,-0.215606689453125
1789317493694398000,11.20439794921875,-1.2874908447265625,-0.6513214111328125,0.2001495361328125
1789317493704352800,11.214352783203125,-1.205963134765625,0.3998260498046875,0.3192596435546875
1789317493714307800,11.224307861328125,-1.3455352783203125,0.1193389892578125,0.202850341796875
1789317493724262000,11.234261962890624,-0.8668060302734375,-1.050689697265625,-0.0172271728515625
1789317493734217000,11.244217041015625,-0.4908599853515625,-1.101348876953125,0.032470703125
1789317493744171800,11.254171875,-0.1288299560546875,-1.00189208984375,-0.04766845703125
1789317493754126800,11.264126953125,-0.2345123291015625,0.236053466796875,-0.026611328125
1789317493764080600,11.27408056640625,-0.653839111328125,-1.2600250244140625,-0.3625640869140625
1789317493774036000,11.284035888671875,-0.9063873291015625,-0.85858154296875,0.041259765625
1789317493783990800,11.29399072265625,-0.5945587158203125,-0.61053466796875,0.2664031982421875
1789317493793944800,11.30394482421875,-0.4049835205078125,-1.17706298828125,0.11773681640625
1789317493803899600,11.313899658203125,-0.17803955078125,0.150115966796875,0.36236572265625
1789317493813855000,11.32385498046875,-1.111846923828125,-0.122161865234375,0.0240325927734375
1789317493823809000,11.33380908203125,-1.4102783203125,-0.241546630859375,-0.47918701171875
1789317493833763800,11.343763916015625,-1.3647613525390625,-0.860748291015625,-0.163330078125
1789317493843718700,11.35371875,-1.296234130859375,-2.2284088134765625,0.0470123291015625
1789317493853672700,11.363672607421876,-0.5853271484375,0.0053253173828125,0.0587158203125
1789317493863628000,11.3736279296875,-0.806304931640625,-1.016632080078125,-0.1043853759765625
1789317493873582800,11.383582763671875,-0.252166748046875,0.370941162109375,0.228118896484375
1789317493883536400,11.393536376953126,-0.2625885009765625,-0.5522308349609375,-0.1140594482421875
1789317493893491200,11.4034912109375,-1.5008087158203125,-1.2259521484375,-0.4697113037109375
1789317493903446500,11.413446533203125,-1.1912994384765625,-0.3742828369140625,-0.225311279296875
1789317493913400300,11.423400390625,-0.4040679931640625,-0.994415283203125,-0.1149749755859375
1789317493923355400,11.43335546875,-0.7842254638671875,0.4639434814453125,0.25689697265625
1789317493933310200,11.443310302734375,-1.2979278564453125,-0.8181304931640625,0.0901031494140625
1789317493943264500,11.453264404296876,-0.59271240234375,-0.16796875,-0.04302978515625
1789317493953219300,11.46321923828125,-1.0627899169921875,-0.765869140625,-0.035888671875
1789317493963174400,11.47317431640625,-0.3543548583984375,-0.971282958984375,-0.2125701904296875
1789317493973128200,11.483128173828124,-0.0123291015625,-0.171844482421875,-0.1413726806640625
1789317493983083500,11.49308349609375,-0.809600830078125,-0.7564544677734375,-0.197784423828125
1789317493993038300,11.503038330078125,-1.102874755859375,-0.54742431640625,-0.4045257568359375
1789317494002992400,11.512992431640624,-1.8348541259765625,-0.3077545166015625,-0.2520294189453125
1789317494012947200,11.522947265625,-2.2556915283203125,-0.1410369873046875,-0.1187591552734375
1789317494022902500,11.532902587890625,-1.3394622802734375,-0.701568603515625,0.156707763671875
1789317494032857300,11.542857421875,-1.0339813232421875,-0.4202880859375,0.0781402587890625
1789317494042811400,11.552811279296876,-1.0088958740234375,-0.18621826171875,-0.1878204345703125
1789317494052766200,11.56276611328125,-0.49066162109375,0.152618408203125,-0.237030029296875
1789317494062721500,11.572721435546875,-0.16748046875,-0.5626983642578125,-0.299591064453125
1789317494072675600,11.582675537109376,-0.3393402099609375,-0.9021453857421875,-0.415435791015625
1789317494082630400,11.59263037109375,-0.384246826171875,-1.2635955810546875,-0.4833221435546875
1789317494092585200,11.602585205078125,-0.0080108642578125,-0.6004180908203125,-0.1658172607421875
1789317494102539300,11.612539306640626,-0.095062255859375,-1.2200164794921875,0.02496337890625
1789317494112494600,11.62249462890625,-0.6545257568359375,-0.2135009765625,0.2493133544921875
1789317494122449400,11.632449462890625,-1.4246063232421875,-0.412689208984375,-0.223602294921875
1789317494132403500,11.642403564453126,-1.3878021240234375,-0.6528167724609375,-0.354949951171875
1789317494142358300,11.652358154296875,-1.1687774658203125,-0.8040008544921875,0.198089599609375
1789317494152313300,11.662313232421875,-0.790008544921875,-0.42034912109375,0.07598876953125
1789317494162267400,11.672267333984376,-1.6753082275390625,0.3154449462890625,-0.2743072509765625
1789317494172222500,11.682222412109375,-0.6841888427734375,-0.8837890625,-0.267852783203125
1789317494182177300,11.69217724609375,-0.322601318359375,-0.9269256591796875,0.1802520751953125
1789317494192131300,11.70213134765625,-0.1140899658203125,-0.3520965576171875,0.0611419677734375
1789317494202086400,11.71208642578125,-0.974151611328125,-0.2470855712890625,-0.1943817138671875
1789317494212041500,11.72204150390625,-0.76580810546875,-0.848297119140625,-0.3700103759765625
1789317494221995300,11.731995361328124,-0.6771392822265625,-1.2538299560546875,-0.143890380859375
1789317494231950300,11.741950439453126,-1.1805877685546875,-0.5572662353515625,0.138671875
1789317494241905400,11.751905517578125,-0.6996917724609375,0.317474365234375,-0.1346282958984375
1789317494251859500,11.761859375,-1.0852203369140625,-0.45501708984375,-0.29254150390625
1789317494261814300,11.771814208984376,-0.8193817138671875,-0.7841949462890625,-0.0219573974609375
1789317494271769300,11.781769287109375,-0.57037353515625,-1.06597900390625,0.1092987060546875
1789317494281723100,11.79172314453125,-0.5363006591796875,-0.930145263671875,0.0774078369140625
1789317494291678500,11.801678466796876,-0.5526580810546875,-0.8277740478515625,-0.0611724853515625
1789317494301633300,11.81163330078125,-0.9814605712890625,-0.9898529052734375,-0.2241363525390625
1789317494311587300,11.82158740234375,-0.8757171630859375,-0.38720703125,-0.158721923828125
1789317494321542100,11.831542236328126,-0.7339324951171875,-0.3487548828125,-0.0303955078125
1789317494331497500,11.84149755859375,-0.813690185546875,-1.1631927490234375,-0.0763702392578125
1789317494341452300,11.851452392578125,-0.5366363525390625,0.1888885498046875,0.188568115234375
1789317494351406300,11.86140625,-1.4925384521484375,0.4277191162109375,0.23541259765625
1789317494361361200,11.871361083984375,-1.15985107421875,-0.738311767578125,-0.2121124267578125
1789317494371316500,11.88131640625,-1.1601104736328125,-0.6987762451171875,-0.077239990234375
1789317494381270500,11.8912705078125,-0.404205322265625,-1.3425140380859375,0.0079345703125
1789317494391225300,11.901225341796875,0.38916015625,-0.491302490234375,-0.0995635986328125
1789317494401180200,11.91118017578125,0.1689300537109375,-0.70550537109375,-0.1878814697265625
1789317494411134500,11.921134521484374,-0.4292449951171875,-0.3312835693359375,-0.2560272216796875
1789317494421089500,11.931089599609376,-0.3948822021484375,-0.4148101806640625,-0.557220458984375
1789317494431044400,11.94104443359375,-1.6490936279296875,-0.9151458740234375,-0.3180999755859375
1789317494440998400,11.950998291015624,-1.494964599609375,-0.6234588623046875,0.001007080078125
1789317494450953500,11.960953369140626,-1.397705078125,-0.65167236328125,0.01629638671875
1789317494460908300,11.970908203125,-1.660369873046875,0.245330810546875,-0.0396881103515625
1789317494470862300,11.9808623046875,-0.8260955810546875,0.0253448486328125,-0.048797607421875
1789317494480817400,11.9908173828125,-0.7965240478515625,-1.0077056884765625,-0.1287689208984375
1789317494490772500,12.0007724609375,-0.688140869140625,-0.669921875,-0.3924713134765625
1789317494500726500,12.0107265625,-0.532012939453125,-0.9686126708984375,-0.5730743408203125
1789317494510681300,12.020681396484376,-0.342803955078125,-0.770263671875,-0.3323974609375
1789317494520636400,12.030636474609375,-0.3848724365234375,-0.6385040283203125,-0.086822509765625
1789317494530590200,12.040590087890624,-1.1388702392578125,-0.7220458984375,-0.11895751953125
1789317494540545500,12.050545654296876,-0.6449737548828125,-0.424285888671875,-0.180145263671875
1789317494550500400,12.060500244140625,-0.9099578857421875,-0.226806640625,0.04443359375
1789317494560454400,12.070454345703125,-1.138671875,-0.4827880859375,0.0326995849609375
1789317494570409200,12.0804091796875,-1.414276123046875,-0.354705810546875,-0.0240020751953125
1789317494580364500,12.090364501953125,-1.2882843017578125,-0.777496337890625,0.10577392578125
1789317494590318300,12.100318359375,-0.92950439453125,-0.7279510498046875,0.292694091796875
1789317494600273400,12.1102734375,-0.9870147705078125,-0.5228424072265625,0.2249298095703125
1789317494610228200,12.120228271484375,-0.5160369873046875,-0.675262451171875,0.04388427734375
1789317494620182300,12.130182373046875,-0.198394775390625,-0.169891357421875,0.0829010009765625
1789317494630137300,12.140137451171874,-0.922393798828125,-0.8296966552734375,-0.115203857421875
1789317494640092400,12.150092529296876,-1.1468658447265625,-0.2848663330078125,-0.2645416259765625
1789317494650046500,12.16004638671875,-0.7011260986328125,-0.482269287109375,-0.0145111083984375
1789317494660001300,12.170001220703124,-1.293731689453125,-0.4916839599609375,0.314697265625
1789317494669956400,12.179956298828126,-1.352783203125,-0.3131561279296875,0.1940155029296875
1789317494679911400,12.189911376953125,-1.1500244140625,-0.4471282958984375,0.0896453857421875
1789317494689865500,12.199865478515624,-0.657440185546875,-1.05084228515625,-0.0764923095703125
1789317494699820300,12.2098203125,-0.3846893310546875,-0.3203125,0.007537841796875
1789317494709775400,12.219775390625,-0.56414794921875,-0.7073516845703125,-0.2618560791015625
1789317494719729400,12.2297294921875,-0.3346099853515625,-0.388671875,-0.3777618408203125
1789317494729684500,12.2396845703125,-0.6106719970703125,-1.45233154296875,-0.2048797607421875
1789317494739639300,12.249639404296875,-1.06842041015625,-0.5458526611328125,0.098876953125
1789317494749593300,12.25959326171875,-0.9978179931640625,-0.1000213623046875,0.0068206787109375
1789317494759548400,12.26954833984375,-0.8458099365234375,-1.1294097900390625,-0.081787109375
1789317494769503200,12.279503173828125,-0.3157196044921875,-0.0805511474609375,0.17901611328125
1789317494779457300,12.289457275390625,-0.6522369384765625,-0.384765625,-0.0820159912109375
1789317494789412400,12.299412353515624,-1.360015869140625,-0.179290771484375,-0.539276123046875
1789317494799367400,12.309367431640625,-0.6848907470703125,-0.8200836181640625,-0.4355010986328125
1789317494809321500,12.319321533203125,-1.457977294921875,-1.07940673828125,0.144317626953125
1789317494819276300,12.3292763671875,-0.7774200439453125,-0.6360015869140625,0.2863922119140625
1789317494829231400,12.3392314453125,-0.4748687744140625,-1.0826873779296875,0.0781707763671875
1789317494839185400,12.349185302734375,-0.4324798583984375,0.0069732666015625,0.1478729248046875
1789317494849140500,12.359140380859374,-1.0428466796875,-0.2097930908203125,-0.1274261474609375
1789317494859095300,12.36909521484375,-1.010223388671875,-0.904541015625,-0.51068115234375
1789317494869049300,12.37904931640625,-0.905670166015625,-1.1586456298828125,-0.2632598876953125
1789317494879004200,12.389004150390624,-0.4109649658203125,-0.9506988525390625,0.0045623779296875
1789317494888959200,12.398959228515626,-0.7104034423828125,0.5136871337890625,0.326416015625
1789317494898913000,12.4089130859375,-1.587677001953125,-1.5560150146484375,0.08740234375
1789317494908868400,12.418868408203124,-0.2124786376953125,-0.654144287109375,0.3135986328125
1789317494918823200,12.4288232421875,-0.2194671630859375,-0.4210052490234375,0.4061737060546875
1789317494928777200,12.438777099609375,-0.6450653076171875,-0.650634765625,-0.0469818115234375
1789317494938732000,12.44873193359375,-1.274261474609375,-0.3530120849609375,-0.3768157958984375
1789317494948687400,12.458687255859376,-0.4523162841796875,-1.0654449462890625,-0.4234161376953125
1789317494958641400,12.468641357421875,-1.2929534912109375,-0.14208984375,0.0028839111328125
1789317494968596200,12.47859619140625,-1.2147979736328125,-0.5584869384765625,0.0190887451171875
1789317494978551000,12.488551025390626,-0.6121978759765625,-0.8423004150390625,0.2214813232421875
1789317494988505300,12.49850537109375,-0.55499267578125,-0.876434326171875,0.48980712890625
1789317494998460400,12.50846044921875,-0.1568145751953125,-0.3083648681640625,0.26300048828125
1789317495008415200,12.518415283203124,-1.008819580078125,-0.19720458984375,-0.0445404052734375
1789317495018370000,12.5283701171875,-0.5155181884765625,-1.0140533447265625,-0.4062652587890625
1789317495028324400,12.538324462890625,-1.2554931640625,-0.3586578369140625,-0.3878021240234375
1789317495038279200,12.548279052734374,-1.6682281494140625,-1.0250091552734375,-0.3332366943359375
1789317495048234200,12.558234130859375,-0.5118255615234375,-0.5287322998046875,0.075958251953125
1789317495058188300,12.568188232421875,-0.6649322509765625,-0.2376556396484375,0.450927734375
1789317495068143400,12.578143310546874,-1.228179931640625,-0.2856597900390625,0.1854400634765625
1789317495078098200,12.58809814453125,-1.2246551513671875,-0.2796630859375,-0.2021331787109375
1789317495088052200,12.59805224609375,-0.8506927490234375,-1.0814361572265625,-0.1694183349609375
1789317495098007300,12.60800732421875,-0.811309814453125,-0.467620849609375,-0.150634765625
1789317495107962000,12.617962158203126,-0.7867889404296875,-1.2506256103515625,-0.373138427734375
1789317495117916400,12.62791650390625,-0.4024200439453125,-0.739898681640625,-0.150054931640625
1789317495127871200,12.637871337890624,0.0645294189453125,-0.212310791015625,0.1302947998046875
1789317495137826300,12.647826416015626,-0.442047119140625,0.140899658203125,0.14044189453125
1789317495147780000,12.657780029296875,-1.189727783203125,0.063690185546875,-0.19366455078125
1789317495157735400,12.6677353515625,-1.383758544921875,-1.9224700927734375,-0.303741455078125
1789317495167690200,12.677690185546876,-0.9613800048828125,-0.466278076171875,0.09185791015625
1789317495177644300,12.687644287109375,-1.683837890625,-0.32080078125,-0.2005767822265625
1789317495187599000,12.69759912109375,-0.7737579345703125,0.512603759765625,-0.1624298095703125
1789317495197554400,12.707554443359374,-0.4412841796875,-0.660003662109375,0.0921478271484375
1789317495207508200,12.71750830078125,-0.3408966064453125,-1.54296875,0.129058837890625
1789317495217463300,12.72746337890625,0.46759033203125,0.2070465087890625,0.1281890869140625
1789317495227418000,12.737418212890624,-0.900360107421875,-0.04742431640625,-0.039398193359375
1789317495237372200,12.7473720703125,-1.4246368408203125,-1.049285888671875,-0.6484222412109375
1789317495247327200,12.7573271484375,-1.8428497314453125,-0.8219451904296875,-0.428985595703125
1789317495257282300,12.7672822265625,-1.5195770263671875,-0.9974517822265625,0.1450347900390625
1789317495267236400,12.777236328125,-0.1922607421875,-0.0845794677734375,0.1122894287109375
