time,seconds_elapsed,z,y,x
1789317482541403600,0.051403564453125,5.795576621818542,7.315967741253972,0.062462009131908414
1789317482551359000,0.06135888671875,0.8170224855720997,3.015507512360811,-3.5651030500948426
1789317482561313800,0.071313720703125,-1.2113824534088373,-0.33549043023884295,-5.0187879469573495
1789317482571267800,0.081267822265625,-1.623629375591874,-3.0911943292468784,-1.7952093465685843
1789317482581222700,0.09122265625,-1.507405965656042,-8.082934694802761,1.679275567229092
1789317482591178000,0.101177978515625,2.9986487320184705,-1.1944371638268232,3.1467879139140247
1789317482601132800,0.1111328125,3.6576305271446703,10.584498997569083,3.6715918324798342
1789317482611086800,0.1210869140625,1.8001532327115535,3.3114328249305487,-0.6944800286825746
1789317482621041700,0.131041748046875,-5.69199934296608,-9.872820216000079,-2.972077535957098
1789317482630997000,0.1409970703125,-0.5679740749895572,-5.732835795745253,-0.7725574670322239
1789317482640951000,0.150950927734375,1.9402748201072215,9.583424012938142,1.4373174071684478
1789317482650905900,0.16090576171875,-4.8744911197036505,3.46128261013627,-1.282243749834597
1789317482660860700,0.170860595703125,-3.0961253559082746,-4.530936040952802,-1.5252379749447107
1789317482670816000,0.18081591796875,-1.5747019708156584,3.7491783455073833,2.8777050155624746
1789317482680770000,0.19077001953125,1.6355588828384875,-0.9724597155213356,1.1559710934408007
1789317482690724900,0.200724853515625,-0.6426864938855171,-3.217344089913368,-1.6592347958497702
1789317482700679700,0.2106796875,3.266612270951271,3.52551396702826,-1.801855068193376
1789317482710634000,0.220634033203125,4.2887423185706135,0.05550795221030712,-1.0106240995470435
1789317482720588800,0.2305888671875,1.1919243042230605,-4.645604038140178,-0.6654782444734126
1789317482730543900,0.2405439453125,3.48772930303514,0.42773499869406223,-2.014366769017279
1789317482740498700,0.250498779296875,-1.3567308355420826,5.213460624229907,-1.1845277642309664
1789317482750452700,0.26045263671875,-3.304171309494972,1.1035580385059118,-0.38119543890245255
1789317482760407800,0.27040771484375,-4.758471707907319,-6.394510483217239,0.46218361359965054
1789317482770363000,0.28036279296875,-1.2235340789735316,-3.2181022148042917,1.9972649736993013
1789317482780317000,0.29031689453125,-0.32089491865336894,6.686650432029366,2.363375144737959
1789317482790271700,0.300271728515625,0.6194125858038664,5.70354189672172,-1.0513201940074561
1789317482800226800,0.310226806640625,3.2100475031644105,0.9234510622024535,-4.669741869574785
1789317482810182000,0.320181884765625,1.5741250477105377,-9.450858540010453,-3.2234178568691014
1789317482820136000,0.330135986328125,3.895902692168951,-10.706979714334011,-0.17854096909575162
1789317482830090800,0.3400908203125,5.562128515949845,10.003173273575305,2.7335484735623
1789317482840045800,0.3500458984375,-1.331291858381033,1.4153215561985968,-0.5305529836118221
1789317482850000000,0.359999755859375,-4.433762783923745,-2.7770822026014326,-0.28347755360268057
1789317482859955000,0.369954833984375,-2.8271055859208105,0.07517477571070194,3.2491841662883756
1789317482869910000,0.379909912109375,-1.0915572195887564,-5.169652462163567,0.8598694013908504
1789317482879865000,0.389864990234375,-3.9682559807181357,7.434252175372839,-0.7144188740573824
1789317482889819100,0.399819091796875,-4.255892188370227,5.100840791743994,-2.3573298732243475
1789317482899774000,0.40977392578125,0.10102993245720862,-0.39533085869550705,0.3641017538256943
1789317482909729000,0.41972900390625,1.0312485890984535,-4.217659196087718,3.2791777380138636
1789317482919683000,0.42968310546875,3.8098593164414165,-1.835676966035366,1.1601762900456785
1789317482929638100,0.43963818359375,4.9799651720881455,2.588917007526755,-0.6984773546904325
1789317482939593000,0.449593017578125,-1.2211691034078598,-7.844483081558346,-0.23353461510837076
1789317482949548000,0.459548095703125,3.3189585442602634,3.361749053716659,1.604863592584431
1789317482959502000,0.469502197265625,-0.11807809789180755,3.5600492738366123,-0.7864014295980334
1789317482969457200,0.47945703125,-4.963416188347339,-4.695191952651739,-3.327381212429702
1789317482979412000,0.489411865234375,-0.12973755602538584,5.730180897322297,1.126888279884681
1789317482989366000,0.499365966796875,-2.958137857931852,-0.8679489552110433,2.45371358731091
1789317482999321000,0.509321044921875,-3.8403403794229027,0.8060510097026824,-0.7334740684654564
1789317483009276200,0.519276123046875,-1.4431348612755537,0.7829933747202158,-1.7458578711614012
1789317483019231000,0.52923095703125,2.000270731386542,1.0987883398860692,0.06286805091584101
1789317483029185000,0.53918505859375,1.9947738875359295,-1.6858762806683778,0.47658268929757175
1789317483039140000,0.54914013671875,0.541830748951435,-8.161684990912676,-1.0706460951156913
1789317483049095200,0.55909521484375,5.285512884005904,-0.27027356944084163,0.8295647909548133
1789317483059049200,0.56904931640625,7.124512856984138,5.264747743874788,2.5127085048541424
1789317483069004000,0.579004150390625,1.4161036464869976,-1.7335148146778343,-0.1369039770560339
1789317483078959000,0.588958984375,2.060692174601555,-1.7801374496430158,-1.4298555468551815
1789317483088914200,0.5989140625,-0.26864333789050576,-1.4177443994313477,-0.4772217909187078
1789317483098868200,0.6088681640625,-8.269806342935562,-1.2728051826208828,0.9391232631087303
1789317483108823000,0.618822998046875,-2.0189818615972994,1.617033046066761,2.7301106080681086
1789317483118778000,0.628778076171875,-1.3724655802905559,4.8301568879365915,3.248219412909448
1789317483128732000,0.63873193359375,-3.0922371162980795,2.660481776046753,-0.09769914406668394
1789317483138687200,0.648687255859375,-2.1159598883152007,-4.6770630062431096,-2.275361053459346
1789317483148642000,0.65864208984375,1.1016028127849102,1.474886090323329,0.1315627621585503
1789317483158597000,0.66859716796875,2.6629478738993404,-2.919644753408432,-0.2819052627846598
1789317483168551000,0.678551025390625,3.2942899669498202,-2.336477785462141,0.7004300231281667
1789317483178506200,0.68850634765625,6.206667359703779,5.166498382046818,3.5235885519236323
1789317483188461000,0.6984609375,2.947486700057983,-0.31988428030610083,1.792963759598881
1789317483198415000,0.7084150390625,-3.7293303202211856,-5.898823061281442,-2.1750474525779486
1789317483208370000,0.718369873046875,0.35692250984609125,-0.878415988689661,-2.0280232461869714
1789317483218325200,0.7283251953125,-3.927308468779921,10.420231979954242,-0.19320139914359896
1789317483228280000,0.738280029296875,-6.784746064600348,1.600313381934166,-3.168827896286547
1789317483238234000,0.748234130859375,-6.908001857391,-2.433241292646527,0.3765354112021625
1789317483248189000,0.75818896484375,0.6761433578073978,0.0888397284477949,3.43545317235291
1789317483258144300,0.768144287109375,1.0333078597158194,0.2393412555605173,2.8622438270583745
1789317483268098000,0.77809814453125,2.7799019361972808,1.0727361992627382,0.795473501586914
1789317483278053000,0.78805322265625,4.372278095391392,0.6842658739864825,-1.956657799631357
1789317483288008000,0.798008056640625,2.6187153489410875,0.5825982281476259,-3.751232355427742
1789317483297963300,0.80796337890625,1.1420125645846129,-6.085242289471626,-2.934773641218245
1789317483307917000,0.8179169921875,2.5818717651903627,-4.9594782643765205,-0.503033108523488
1789317483317872000,0.8278720703125,3.9670015967428682,4.815535072866082,2.3137015977695583
1789317483327827000,0.837826904296875,-8.273847727280854,5.618206377002597,2.7601591248512265
1789317483337781200,0.84778125,-3.441770100414753,2.9393250209122894,0.7196724106714129
1789317483347736000,0.857736083984375,-6.675128921061754,2.1393758352160455,2.4396412228167055
1789317483357691100,0.867691162109375,-0.6467442448437214,-3.1094881108283996,1.8115952487021683
1789317483367646000,0.87764599609375,-3.9803789647102352,-4.098624820384383,-0.4342278678447008
1789317483377600300,0.887600341796875,-0.5494891547501087,-0.17173194666802882,-0.028788652915135025
1789317483387555000,0.89755517578125,6.563168429267406,1.9375889420241117,1.8685203742340206
1789317483397510100,0.90751025390625,6.61834729565382,0.523818706920743,0.5107354265291244
1789317483407465000,0.91746484375,6.2587424148559565,-0.0987783541381359,-2.0755966060057283
1789317483417419300,0.927419189453125,-5.355395983049273,-3.918088220492005,-2.3191823672682044
1789317483427374000,0.9373740234375,-4.051833258593082,-5.938940552136302,-1.111706346713379
1789317483437329200,0.9473291015625,1.0713029515892267,5.415894583153724,2.675589621068537
1789317483447283000,0.957282958984375,-2.7539737142145633,5.422856238859891,3.390093981452286
1789317483457238300,0.96723828125,-1.1226239735037087,0.15823124458193777,1.1117154068026691
1789317483467193000,0.977193115234375,-5.382905921265483,-0.7274123572736978,-1.6125534164346753
1789317483477148200,0.987148193359375,2.520882166698575,-1.721740205731988,-2.0245124615870416
1789317483487102000,0.99710205078125,4.402302062255144,-2.252188559925556,-0.1991748109973967
1789317483497057300,1.007057373046875,5.530597067132592,-0.04038870901167393,0.4671926374007016
1789317483507012000,1.01701220703125,2.5527725119560953,2.603479201364517,1.0292360802322627
1789317483516966100,1.026966064453125,-0.5504974550098181,0.8705465704888105,0.38888818536214526
1789317483526921000,1.0369208984375,-1.22064654083848,-2.981684153214097,0.15660810035951434
1789317483536876300,1.046876220703125,-2.3085282867848873,-0.3568991289705038,1.5231757817178964
1789317483546831000,1.0568310546875,-1.9397709622383117,1.8995190313488244,1.3644631833598018
1789317483556785200,1.06678515625,-5.412773236262798,2.5525059699743986,-0.13571261184699832
1789317483566740000,1.076739990234375,-1.571868208694458,2.85110897732079,-0.53285556146577
1789317483576695000,1.086695068359375,0.5351514173179864,0.30200667831003664,0.03156681239157915
1789317483586650000,1.096650146484375,2.9329145693480965,-0.5181628731161355,-0.3893454276103526
1789317483596604200,1.106604248046875,3.058393298885226,-4.194392302268743,-0.7685125755555927
1789317483606559000,1.11655908203125,3.3176445390522478,2.102749693608284,0.4945439509890973
1789317483616514000,1.12651416015625,4.070246867161989,-1.5009756403476,-0.4785882569663226
1789317483626468000,1.136468017578125,-0.24559037908315656,-5.10661060731709,-0.5142965530768037
1789317483636423200,1.146423095703125,0.0859165344774723,1.6937492060005663,0.9743697869263589
1789317483646378000,1.1563779296875,-2.048483265891671,1.2953256419867276,0.5860699959114194
1789317483656333000,1.1663330078125,-5.059430922991037,0.1811485943108797,-0.12940079835169016
1789317483666287000,1.176287109375,-3.8808413166373965,-0.7495183906197548,0.5708165318738668
1789317483676242200,1.1862421875,-3.5502807440161703,2.519652917164564,2.368713437025994
1789317483686197000,1.196197021484375,-1.4879770425647496,1.531030002349615,1.7406620560839772
1789317483696151000,1.206151123046875,1.712367981752753,-3.376092051845789,0.060717065160721534
1789317483706106000,1.216106201171875,3.924990839487314,-1.9102029224485157,0.1305574941061437
1789317483716061200,1.226061279296875,2.939368860054016,0.5756178677409887,-0.3797409292452037
1789317483726016000,1.23601611328125,1.6422060657680033,0.7608429177105427,-2.4602304218590256
1789317483735970000,1.245969970703125,1.7138421459585427,-0.7454460266143084,-2.593296537785232
1789317483745925000,1.255925048828125,-0.23987843117713928,-4.736519403818249,-0.5097680428016931
1789317483755880200,1.265880126953125,-0.5862099889039993,-1.0371762255817651,2.6312784779161213
1789317483765835000,1.2758349609375,-0.6355418828278779,3.6386329812079667,3.26055253252089
1789317483775789000,1.2857890625,-0.2018751559972763,3.1547271824806926,1.0979472128868102
1789317483785744100,1.295744140625,-1.765354891052842,3.7550089513570066,-0.2696107216179371
1789317483795699200,1.30569921875,-0.4451128344744444,-2.357058216676116,-2.1504756136402485
1789317483805653000,1.315653076171875,-0.12780629570186136,-5.1785582376748325,-2.3479599873326715
1789317483815608000,1.325608154296875,2.4362679469913244,-3.8401188456267117,-0.17818915998339652
1789317483825563100,1.335563232421875,2.574251353314519,0.7728302926242351,2.917712324041128
1789317483835518200,1.345518310546875,4.007288014423847,7.432547709542512,3.225482972705364
1789317483845472000,1.355471923828125,0.44669045905470844,0.6564174975961447,0.01595686306655407
1789317483855427000,1.365427001953125,-1.4558318457633257,-8.287689205628633,-1.8137828218743204
1789317483865381600,1.375381591796875,1.588099212527275,-3.9923353599637745,-0.01709405040293932
1789317483875335700,1.385335693359375,-5.153153162783384,8.04994252578318,2.0028430660925802
1789317483885290500,1.39529052734375,-1.6783944004803895,2.8116490735918283,-2.0501615743674337
1789317483895245800,1.405245849609375,-0.984389222767949,-1.1192641416817903,-1.1287506396904587
1789317483905200600,1.41520068359375,1.4335691605508327,-0.5183581034272909,1.8146461607053874
1789317483915154700,1.42515478515625,0.12071546065807341,-7.46153415005207,-0.1854780018173158
1789317483925109500,1.435109619140625,-1.9775754999756812,0.3601099077105522,-0.5982908873200417
1789317483935064800,1.44506494140625,5.087155380740762,4.284360742485523,-0.47138899311199783
1789317483945019600,1.45501953125,2.5232512339174744,-4.22699985588491,-0.26253289218619463
1789317483954973700,1.4649736328125,2.94816416092813,-2.529792618384957,-0.18472849862426519
1789317483964928500,1.474928466796875,1.6584925991803408,0.7316162387043237,-1.3358107971101998
1789317483974883800,1.4848837890625,-3.988572208037972,1.248280397695303,-1.8934547628737985
1789317483984838000,1.494837890625,0.8948042289108037,1.6922867322325705,-0.41695539213493465
1789317483994792700,1.504792724609375,-5.993883271679282,-3.1755823389828204,1.3349023039631545
1789317484004747500,1.51474755859375,-3.2215731057852506,-0.7066150684386492,0.188675190423429
1789317484014702800,1.524702880859375,-4.185938362178206,1.193296177098155,-0.7006336559414863
1789317484024657000,1.534656982421875,1.4185317504167556,5.844833112418652,0.8325259057827293
1789317484034611700,1.54461181640625,3.7174528354227543,-2.532261638846993,-0.6537248975113034
1789317484044566500,1.55456640625,3.2964287325441837,-5.589867586746812,-1.8576893297486006
1789317484054520600,1.5645205078125,4.3419905091553925,2.4348247624456882,-1.5291162776827811
1789317484064475600,1.5744755859375,1.5180144534319637,-1.913718237093091,-3.096892833149433
1789317484074430700,1.5844306640625,2.7627672615230083,1.159095801332593,-1.2874663067884742
1789317484084385500,1.594385498046875,0.614442980697751,0.01804769786596298,0.6484622277427464
1789317484094339600,1.604339599609375,-5.062324890866876,-1.3171575345665216,0.9494258998058736
1789317484104294700,1.614294677734375,-4.434616770404577,1.4982517683416605,0.6778372291784733
1789317484114249700,1.624249755859375,-3.1053759993344543,3.7548581447094675,1.471884862680733
1789317484124203800,1.634203857421875,-0.2614507960379124,4.550684112995863,1.5352388522163032
1789317484134158600,1.64415869140625,0.7088742455422878,-4.173423748520016,-1.273118486353755
1789317484144113700,1.65411376953125,2.1994395510345695,-1.4757295554101466,-1.3018497830584645
1789317484154068700,1.66406884765625,5.988076046705245,4.024419181966781,-0.2153931745443493
1789317484164022800,1.674022705078125,4.442497294521331,-1.686771183681488,-1.106200077447295
1789317484173977600,1.6839775390625,0.5599310537874699,-2.513793085220456,-1.2514873770430683
1789317484183932700,1.6939326171875,0.6496458115041256,-5.928934121906757,-1.2912114846661686
1789317484193886700,1.70388671875,-3.4684359890222547,1.7435440412610768,1.6052331565491855
1789317484203841800,1.713841796875,-2.2676982637465,5.109373642289638,1.8168553611874578
1789317484213796600,1.723796630859375,-3.1770091569155454,0.11077683496773243,0.3915210180837661
1789317484223751700,1.733751708984375,-0.74333531807065,-5.328199348565936,-0.08867233599163592
1789317484233705700,1.743705810546875,-3.5564907045722007,0.7356406719148159,0.6467636071313172
1789317484243660800,1.753660888671875,-2.289468781527877,7.132858660525083,-2.4889906523972747
1789317484253615600,1.76361572265625,3.1352234405875206,-2.871428711771965,-4.591074283312261
1789317484263569700,1.773569580078125,-0.2862532288610935,-7.84138160841167,-1.5992498443558811
1789317484273524700,1.783524658203125,3.2935230742305515,-5.434480041158199,0.8241720650658011
1789317484283479800,1.793479736328125,7.40634826940298,1.9405512989610432,1.4892565609812736
1789317484293434600,1.8034345703125,5.576529966267943,10.326686265772581,1.4350195054896175
1789317484303388700,1.813388671875,0.5368476998418569,-4.527235432869196,-2.233489266283065
1789317484313343700,1.82334375,-3.5838445754438637,-8.056312645336986,-1.6981766670539975
1789317484323298800,1.833298828125,-1.4176532140165568,4.163516687011718,-0.6134698978818953
1789317484333253600,1.843253662109375,-3.134710814890265,-3.000901479381323,-3.1400922156676647
1789317484343207700,1.853207763671875,-3.132192110067606,-0.2822211968660354,0.7624967493321746
1789317484353162800,1.863162841796875,0.5970721591800451,10.191050299358368,4.617529744039476
1789317484363117600,1.87311767578125,-2.871154571005702,0.15558979016244412,1.419566061900556
1789317484373071600,1.883071533203125,0.022059856116771696,-4.997765617194771,-1.8893372445523737
1789317484383026700,1.893026611328125,1.3254963238447903,-1.7658020502984522,0.22662048833835868
1789317484392981800,1.902981689453125,4.13794502338171,-0.3755997377872467,1.7857491520449518
1789317484402936600,1.9129365234375,5.880771856284142,6.1410740668088195,-0.7317807816162705
1789317484412890600,1.922890625,-1.325541916552186,-0.2662514743179083,-4.38910589607358
1789317484422845700,1.932845703125,0.8728636152595282,-2.371332825744152,-2.295022031740844
1789317484432800800,1.94280078125,-1.241039925047755,-3.4066251372754572,1.1921113512277604
1789317484442754800,1.9527548828125,-3.6298973015666007,0.17343524345457553,1.8782918266639113
1789317484452709600,1.962709716796875,-1.4247738596767185,1.3584955071270466,1.5680030576989055
1789317484462664700,1.972664794921875,-1.1013467921972273,0.07337152568101883,3.599248773063719
1789317484472618800,1.98261865234375,1.3488444662064314,4.80468517754972,4.120212967336178
1789317484482573800,1.99257373046875,0.11356149725019932,-5.533855776667594,-1.4471689390972255
1789317484492528600,2.002528564453125,-0.38312019641995426,-3.4310201583415267,-2.7699674021601677
1789317484502483700,2.012483642578125,0.7049708083629608,0.37218963708281516,-1.1776580245919526
1789317484512437800,2.022437744140625,0.7308645435541867,4.368797852060198,-0.23828370933160184
1789317484522392800,2.032392822265625,0.9845242473244666,0.7584300113499164,0.24798622471112755
1789317484532347600,2.04234765625,-1.052536876320839,-5.219352020356059,1.4255847376681863
1789317484542301700,2.0523017578125,1.1653437558114528,-4.26340446369648,3.117728408168256
1789317484552256800,2.0622568359375,0.2652180396169424,3.6734266466915604,2.830523577670753
1789317484562211800,2.0722119140625,-0.2853735234171152,8.499846686187386,-1.5850065072089432
1789317484572166700,2.082166748046875,-2.714648835042119,-2.9068828869909047,-4.236524932338297
1789317484582120700,2.09212060546875,-3.425398226806521,-12.808695973241328,-1.2743395525813102
1789317484592075800,2.10207568359375,2.2789257602035997,0.6881026756703853,2.0195356960877775
1789317484602030800,2.11203076171875,1.6067881309062242,10.576451300191879,0.2314359257960692
1789317484611985700,2.121985595703125,1.9486989495813845,0.275204011580348,-1.5347190661258994
1789317484621939700,2.131939697265625,3.233019213429093,-2.6714503293067215,1.7629837780073283
1789317484631894800,2.141894775390625,-0.040188802525401114,-1.7470248691141603,1.6150091390237211
1789317484641849900,2.151849853515625,-4.923457102924585,4.088980209204554,-2.792221319544315
1789317484651803600,2.1618037109375,-3.311601167234778,1.2910790904581546,-3.240367822626233
1789317484661758700,2.1717587890625,-3.3142215788662432,0.284135506054759,1.7497757752574978
1789317484671713500,2.181713623046875,-0.26108722342252727,-0.6028367140561341,1.3242569913081823
1789317484681668900,2.1916689453125,-2.651113059198856,-4.208588585403561,0.054185361837036906
1789317484691622700,2.20162255859375,1.057814524462819,1.6059703847825526,0.47868419162146747
1789317484701577700,2.21157763671875,2.933737576168775,6.169743696454167,0.33076961226202545
1789317484711532500,2.221532470703125,1.2911223450779914,4.466789439734816,-1.2062823537908494
1789317484721486800,2.23148681640625,-3.422996426361799,-11.916720245754718,-2.675893280190229
1789317484731441700,2.241441650390625,-0.1736801581263542,-7.285936175605654,0.42475832097083327
1789317484741396700,2.251396728515625,4.627317270821333,11.775389867091178,2.4055288175955414
1789317484751350500,2.2613505859375,-1.1796171958357096,0.4074164332866668,-0.9723488024927676
1789317484761305900,2.271305908203125,2.7389935872256754,-1.45009827054739,-0.2899059426823631
1789317484771260700,2.2812607421875,2.0851339574187993,-1.573234820872545,2.47053612729609
1789317484781215700,2.2912158203125,-3.0568051529109477,0.5033803145259619,1.26467433700487
1789317484791169500,2.30116943359375,-0.8638906197309494,-1.7756810547560453,-2.0613006618887186
1789317484801124900,2.311124755859375,0.4619289447188377,-4.8480356589764355,0.6511449640206992
1789317484811079700,2.32107958984375,0.6440022526592016,-1.5881336993187665,2.641450912362337
1789317484821033700,2.33103369140625,0.8283119413495064,4.16442737211585,-0.8437670654390007
1789317484830988500,2.340988525390625,-0.6567647035986185,2.612895849007368,-4.2566812929213045
1789317484840943900,2.35094384765625,0.5711778394669293,0.881202404537797,-3.307610344032943
1789317484850898700,2.360898681640625,-0.49023383270502086,-2.260958141836524,0.16714757801983504
1789317484860852700,2.370852783203125,-5.577407333624363,2.2002233948886394,1.9260044488228856
1789317484870807800,2.380807861328125,-4.411100285738707,0.8280442303240299,-0.8613495569460093
1789317484880763100,2.39076318359375,-0.553205544924736,-0.10043138204216956,-0.08937916908673942
1789317484890717000,2.400717041015625,2.455849430295825,6.795807556840777,1.5138492965765296
1789317484900672000,2.410672119140625,0.036221652460098265,-3.8696974068105217,-3.5086671693846583
1789317484910626800,2.420626708984375,0.12157996853291987,-4.287431235972047,-5.365730914580822
1789317484920582100,2.43058203125,5.201354006850719,2.281791671028733,-1.4713902110315857
1789317484930536000,2.440535888671875,4.334389971023798,1.040845269483328,0.8072709068864583
1789317484940491000,2.450490966796875,3.1536703669041395,-4.22235466042757,-0.3802086198221892
1789317484950445800,2.46044580078125,2.5940917798161505,-1.0880763917356728,-0.06754084676615893
1789317484960400000,2.47039990234375,-1.8689625650435684,5.394276625585555,0.8706547801036387
1789317484970355000,2.48035498046875,-2.1609698273867366,1.9663310523837803,-0.31817462684400377
1789317484980310000,2.49031005859375,-3.948280529659986,-3.5207214720547197,-0.6422125927634537
1789317484990264800,2.500264892578125,-3.565423368090391,-0.9800240132957696,0.4077047852413729
1789317485000219000,2.510218994140625,-3.3019635703176258,5.447815323549508,1.345545716921985
1789317485010174000,2.520174072265625,0.9800742821782826,3.180894473916292,-0.029107253877632317
1789317485020129000,2.53012890625,3.543404428505897,-3.8048183996647595,-0.9313209187947213
1789317485030082800,2.540082763671875,4.89545382823348,-2.610456639161706,-0.4300591673253104
1789317485040038000,2.550037841796875,4.007885980316996,1.8734405872404574,-0.19129498100038617
1789317485049993000,2.559992919921875,-0.18734160373210906,-6.7710413643747565,-1.7575477244332431
1789317485059947000,2.569947021484375,3.5801375376194713,-1.4966910948961973,0.5972030920833349
1789317485069901800,2.57990185546875,0.4297825788736343,3.49500250890851,2.985078471827507
1789317485079857000,2.58985693359375,-7.314947750556469,0.0559662173718214,0.7904458826832473
1789317485089812000,2.59981201171875,-3.3994022002846003,0.7360971835106611,-1.155090876540169
1789317485099766000,2.60976611328125,-1.9034861814141273,-0.5639116478562355,1.2784234608940779
1789317485109720800,2.619720947265625,2.463993573784828,2.133801834475994,2.317453936040401
1789317485119676000,2.629676025390625,-2.8544039272129536,-2.3730887295007705,-0.5855745040120557
1789317485129630000,2.6396298828125,0.09738777656257153,-0.63238604914546,-1.9037611989632248
1789317485139585000,2.6495849609375,4.171359801727533,-0.4706862516701221,-0.19009714951794593
1789317485149539800,2.659539794921875,2.7423136715590952,-0.7650532288819551,1.1942932253114877
1789317485159495000,2.669494873046875,1.769439530017972,-7.154843697839975,0.41328364481963215
1789317485169449000,2.679448974609375,3.243621855986118,0.030387539479136465,1.5645751290768384
1789317485179404000,2.689404052734375,1.7489543758720159,11.304350564199686,1.353617671957612
1789317485189358800,2.69935888671875,-3.177418322238326,-0.8589128313183784,-3.3401839953795074
1789317485199313000,2.70931298828125,-4.7169238919883965,-6.673185970300436,-3.5081869846522804
1789317485209268000,2.71926806640625,-3.699933545345068,-5.075867678529024,-0.16156362214135006
1789317485219223000,2.72922314453125,-3.0818150910049673,3.157033705857396,1.2017696986719966
1789317485229177900,2.739177734375,3.2714614645481106,-2.8456922129690647,-0.31479360610358414
1789317485239132000,2.7491318359375,4.583405063858628,-5.647891905692219,1.1948176875770091
1789317485249087000,2.7590869140625,5.743706733849645,6.764982210466266,1.698830162526667
1789317485259042000,2.7690419921875,0.17650690598487853,-2.9049861134588717,-4.68238712387532
1789317485268996000,2.77899609375,1.25056120210886,-4.723862166818976,-5.265753121525049
1789317485278951000,2.788950927734375,1.6751847907841204,0.8344365617096423,-0.1630645647562109
1789317485288906000,2.798906005859375,0.604407324373722,0.6956658044010401,3.401275008419156
1789317485298861000,2.808861083984375,-1.3960937086373566,6.565286152073741,4.225607232482731
1789317485308815000,2.818815185546875,-3.5714667399078603,-4.484821355509758,0.06113309861570596
1789317485318770000,2.82877001953125,-4.675338082146644,2.0474229431837796,0.9619600949473679
1789317485328724700,2.838724853515625,-1.8544839578360317,4.261212506610155,0.3844302195725962
1789317485338679000,2.848678955078125,-3.752276311522722,-3.7963562762677667,-3.139963036330044
1789317485348634000,2.858634033203125,1.7785346906214952,-4.075999147078394,-1.9760686025440692
1789317485358589000,2.8685888671875,3.7767028967708347,-2.5193799454420804,1.6346661717824638
1789317485368543000,2.87854296875,3.6377789947271344,7.9720801184237,3.4603047050148246
1789317485378498000,2.888498046875,5.0042888814836735,-1.6422370454281567,-1.2692505588792264
1789317485388453000,2.898453125,1.7073825945556163,-5.5723406978845595,-1.9703858807325363
1789317485398408000,2.908407958984375,-3.297058847141266,-4.811514731308818,-0.014601868261024355
1789317485408362000,2.918362060546875,-0.8933201278328895,-2.483540570297837,0.8060309898279607
1789317485418316800,2.92831689453125,0.06877718362808227,5.126747970938682,1.3481674437277018
1789317485428272000,2.938272216796875,-1.319959732505679,-3.417128995633125,1.3384537128344178
1789317485438226000,2.948225830078125,0.12351064433455466,-1.6135568943887948,3.7213852064356208
1789317485448181000,2.958180908203125,-0.023751462465524672,4.456067554712296,2.537420336784422
1789317485458135800,2.9681357421875,0.287744344201684,-4.5171781492352485,-3.0714412887677547
1789317485468091100,2.978091064453125,2.278279863515496,-1.9158856442600487,-1.8513703558601438
1789317485478045000,2.988044921875,5.090111892458796,-0.943407808560133,1.704780741494149
1789317485488000000,2.998,2.484711952164769,-0.7307616677016019,2.791929058599472
1789317485497954800,3.007954833984375,-1.4020640152186155,3.2689959512174127,1.1468394732844083
1789317485507909000,3.0179091796875,-1.2717016052931547,-4.374318661308289,-0.5592336461078375
1789317485517864000,3.027864013671875,-1.799049655383825,-3.356725088074803,2.893487398844957
1789317485527819000,3.037819091796875,2.6317572013437744,-0.971317559748888,3.181479872588813
1789317485537772800,3.047772705078125,3.907442907837033,1.8741981276094912,-0.5882840186990798
1789317485547728100,3.05772802734375,1.410159058868885,0.9679536362737416,-3.548405013272166
1789317485557683000,3.067682861328125,5.396348755684494,0.08458966978788375,-1.9543787487834692
1789317485567638000,3.077637939453125,2.6221055759012697,0.15999182451367377,-0.6170403767798096
1789317485577591800,3.087591796875,-4.783700257188081,-5.745292541736364,-2.3008646202892065
1789317485587547100,3.097547119140625,-8.205600120484828,0.7578314609348773,1.4095853506341576
1789317485597502000,3.107501953125,-4.45391417607069,4.841781274756789,5.237966119933128
1789317485607456000,3.1174560546875,-6.747910079634189,0.6640180357277393,1.6428395413659511
1789317485617410800,3.127410888671875,-6.459461386555433,0.44324820964634415,-3.1575176899820563
1789317485627366100,3.1373662109375,2.2454098595708607,-1.3643588462024927,-4.142343842862546
1789317485637321000,3.147321044921875,6.394370197963714,6.427814202404022,-0.7463810424420982
1789317485647275000,3.15727490234375,6.304841318207979,-1.1639122617036104,-3.248488292978704
1789317485657229800,3.167229736328125,4.060431575590372,-5.482377518364787,-2.9607860343530774
1789317485667185200,3.17718505859375,1.778661531871557,-0.09292962810993194,1.7035399476528166
1789317485677139000,3.187138916015625,-0.6573281827002764,4.303563455605507,3.5144258790418506
1789317485687094000,3.197093994140625,-6.1646133478283875,-11.934653377330303,1.351560154905915
1789317485697048800,3.207048828125,2.8550439786821604,3.010831337243318,3.3987118799328804
1789317485707003000,3.2170029296875,-0.6936258230060338,9.902123467373848,2.267915559758991
1789317485716958000,3.2269580078125,-6.781045456516742,3.6715614373415706,-3.204925337845087
1789317485726913000,3.2369130859375,-0.35147593487799167,-1.38375971224308,-5.030884627464413
1789317485736867800,3.246867919921875,-3.8740561865419147,-3.177574974104762,-1.288208941849321
1789317485746822000,3.25682177734375,3.0215456234812734,1.1432622723847627,1.4224113683290778
1789317485756777000,3.26677685546875,4.943475808602571,-6.117545891705155,0.5855369850132615
1789317485766732000,3.27673193359375,8.400123160153626,6.1828971925377845,2.8706100888654587
1789317485776686000,3.28668603515625,1.2580255466401575,-1.1644243028789758,0.6722659318521619
1789317485786641000,3.296640869140625,-2.628876677471399,-1.0740747543901203,-3.536789686541259
1789317485796596000,3.306595947265625,1.2515303394019603,3.850618027809262,-3.1597137387216088
1789317485806551000,3.316551025390625,-8.758175550812481,0.861082576572895,-0.8571646724767983
1789317485816504800,3.3265048828125,-4.203845190268755,3.0936563354462385,1.5241276756152509
1789317485826460000,3.3364599609375,-6.211708276480436,-6.523739505198598,2.2211646222390233
1789317485836415000,3.3464150390625,-1.5605144555091857,4.175499385750293,5.093184724032879
1789317485846369000,3.356369140625,3.6898634022295473,3.8042981751829386,4.271657328256964
1789317485856323800,3.36632373046875,2.939516159570217,-4.896004447853565,1.3199138475373386
1789317485866279000,3.37627880859375,6.403851143014431,1.4630162043094634,0.12581848288550973
1789317485876232700,3.386232666015625,3.5364421882778405,-1.8559131138563154,-0.5828753645885736
1789317485886187500,3.3961875,-4.771321252608299,-2.088223155605793,-0.5051702666826546
1789317485896142800,3.406142822265625,1.6421604730606079,-3.155914930960536,-0.35707353568933903
1789317485906097700,3.41609765625,0.5008382288277149,1.1452636753350496,3.1931562818571924
1789317485916051700,3.4260517578125,0.9553981060832738,4.42993007389307,3.4510157754048705
1789317485926006500,3.436006591796875,-0.24786767636537552,-3.015026450845599,0.45852147436290974
1789317485935961600,3.445961669921875,2.4900538977146147,2.3514023828715085,0.5656411019973456
1789317485945915600,3.45591552734375,1.3235025196790695,4.899922498080134,0.5388359510496259
1789317485955870700,3.46587060546875,-4.703121576607227,-1.689622481459379,-2.3264475359655914
1789317485965825500,3.475825439453125,-3.554177166932821,-6.112596744865178,-1.564020125542581
1789317485975780600,3.485780517578125,-3.825830208033323,-4.052618856012821,2.6303280453234907
1789317485985734700,3.495734619140625,2.1387077266961336,3.884137435573339,5.541645115369558
1789317485995689700,3.505689697265625,-1.1122907955378294,5.871736901435256,5.8969496686249965
1789317486005644500,3.51564453125,-3.1431887203782796,-2.5159628304749724,0.7609839336164296
1789317486015598600,3.5255986328125,-3.650976914474368,2.018811181205511,-1.0560548213139176
1789317486025553700,3.5355537109375,-1.9412971488922832,8.116298035222291,0.15716507665514945
1789317486035508700,3.5455087890625,-1.443164087370038,-5.821680200368165,-0.6612478403620422
1789317486045462500,3.555462646484375,1.8988608597010372,-14.917058246034383,0.20487273037806153
1789317486055417600,3.56541748046875,12.044312021923064,3.0930554469436404,5.122762116172909
1789317486065372700,3.57537255859375,12.082228787863254,15.385193644177912,7.417552969506382
1789317486075327700,3.58532763671875,1.4980711510777474,-10.489845029884576,-2.1995826127670703
1789317486085281500,3.595281494140625,-7.357035664701462,-12.072196054148673,-5.638923586338758
1789317486095236600,3.605236572265625,-1.1466659433484077,0.5535474902302027,0.16447510740756988
1789317486105191700,3.615191650390625,-1.885011782568693,0.09340776701569557,3.4828970605731007
1789317486115145700,3.625145751953125,-1.2144073541879654,-1.1553583683699369,1.3174851590856909
1789317486125100500,3.6351005859375,3.8088644601851698,9.296900150442124,3.5446038674235343
1789317486135055600,3.6450556640625,-0.6785498344272375,15.172404295456408,4.017830451226234
1789317486145009400,3.655009521484375,-6.0533759096115825,-7.880482031178474,-5.294419244039059
1789317486154964700,3.66496484375,-11.231800876295566,-5.594432702705264,-7.754127103328704
1789317486164919600,3.67491943359375,2.0156991866648197,0.8872305787861346,-1.7673890272289514
1789317486174874600,3.68487451171875,3.1239678870797154,-5.743287631654739,-0.12387976990789175
1789317486184828400,3.694828369140625,4.697565111523867,-2.767607102769613,1.3352384040497243
1789317486194783700,3.70478369140625,9.426179441305994,5.56551348221302,4.730475155217945
1789317486204738600,3.714738525390625,9.1535058249861,5.32548775151968,3.0241525911092757
1789317486214692600,3.724692626953125,-7.328056822976469,-2.7862065892994403,-2.185409418246895
1789317486224647400,3.7346474609375,-11.627948896592855,-7.929096132221818,-5.127262350201606
1789317486234602800,3.744602783203125,3.988247798389196,1.0181015227556227,-0.1550571445904672
1789317486244556500,3.754556640625,-1.978405521059036,1.7061439926713704,1.3101542316757142
1789317486254511600,3.76451171875,2.8395354439049956,6.007114509174228,1.0226654696702957
1789317486264466400,3.774466552734375,3.17858561245203,2.863300934895873,1.1124952320687471
1789317486274421800,3.784421875,-1.7806114968955515,-4.157812337890267,-1.4498011872969567
1789317486284375600,3.79437548828125,-4.164696252185106,-1.3110416820347308,-2.5994746418982744
1789317486294330600,3.80433056640625,0.32696634752154347,-4.403324391040206,-0.3919052681609988
1789317486304285400,3.814285400390625,2.51106278347373,1.2145078919529915,1.6676725154578684
1789317486314239700,3.82423974609375,0.2658721196115017,-0.6084066231429577,0.7578003351442515
1789317486324194600,3.834194580078125,0.2406698738157749,-0.8295160564422607,0.8613518950335681
1789317486334149600,3.844149658203125,2.213658046001196,1.7666934461802244,0.10211480508446692
1789317486344103700,3.854103759765625,-1.658486169439554,-1.6241139442384243,-2.5864871500313282
1789317486354058800,3.864058837890625,0.6570604716747999,-1.7855296640753744,-2.350155889941752
1789317486364013600,3.874013671875,2.4744214442968366,-4.532048970630765,-0.24669088767096398
1789317486373968600,3.88396875,-1.8138088330984115,1.7931635199546814,1.7400053457409141
1789317486383922700,3.893922607421875,-1.0028618680477142,6.607280542716383,1.2443920119546352
1789317486393877500,3.90387744140625,-1.7232260603755711,0.20817045674920082,0.09895838688015937
1789317486403832600,3.91383251953125,-1.0177017097830772,-4.418118640068173,-0.8961768324382603
1789317486413786600,3.92378662109375,1.3150322129756211,-2.169254256129265,-1.1588434340067206
1789317486423741700,3.93374169921875,0.5559878691196442,0.8944757276087999,0.06721767922639846
1789317486433696500,3.943696533203125,3.4357845962643623,1.455792098274827,-0.04933423201143741
1789317486443651600,3.953651611328125,0.8461977266520261,-4.583326153403521,-1.190254325184226
1789317486453605600,3.963605712890625,0.8604349263191222,-6.482038544544578,0.2755148310951888
1789317486463560700,3.973560791015625,3.179447197717428,-1.3375725460857153,2.7288579776585102
1789317486473515500,3.983515625,6.090389589232206,3.1107237901031968,4.266583093732595
1789317486483469800,3.9934697265625,5.2090924921482795,0.13851824385225772,4.0871553318649525
1789317486493424600,4.003424560546875,-7.638149192586541,3.8453134916603564,1.4450786888197062
1789317486503379500,4.01337939453125,-6.285880012628436,-2.1886042687654492,-4.404672006256878
1789317486513333500,4.02333349609375,-5.111472075873613,-4.849003627225756,-1.8778525584638117
1789317486523288800,4.033288818359375,-2.83712195302248,0.8599369136691093,0.6211318838771432
1789317486533243600,4.04324365234375,4.796019640535116,1.8991005136758088,0.8359579991232603
1789317486543198500,4.053198486328125,2.137209012570977,0.04195873480737209,2.161771937549859
1789317486553152500,4.063152587890625,6.563416266548633,2.2598872977346183,1.8051380353868007
1789317486563107800,4.07310791015625,5.473722502744198,5.501553927999734,0.22450316739082335
1789317486573062700,4.083062744140625,-2.1215403187960384,-6.933225145974755,-3.9063399150311944
1789317486583016700,4.0930166015625,-2.7262410731583833,-5.104415143099427,-5.098959800302982
1789317486592971500,4.102971435546875,-4.177008621269464,2.6933289836376906,-1.9602309819430113
1789317486602926800,4.1129267578125,-1.5892998204886912,-7.0256766351789235,-0.5637303730051965
1789317486612880600,4.122880615234375,-0.9239473212867975,7.339453246259689,2.940995292212069
1789317486622835700,4.132835693359375,0.4071843780964613,7.279427524363994,2.0117510335609317
1789317486632790500,4.14279052734375,-2.660466578477621,-2.5037884085565802,-0.9187948338944464
1789317486642745900,4.152745849609375,1.5349486370980738,-6.011166999435424,-1.950483933302015
1789317486652699600,4.16269970703125,1.777083907291293,4.317128455099463,-0.14371610475629568
1789317486662654700,4.17265478515625,0.9902420404493808,2.957245293006301,-1.8761543762437998
1789317486672609500,4.182609619140625,1.4566577751934529,-9.56787280806303,-2.5172552083730695
1789317486682563600,4.1925634765625,3.5018870077252386,-0.24280805488824844,2.5092986964106556
1789317486692518700,4.2025185546875,1.0734984158068894,10.200885464674235,2.871046142195165
1789317486702473700,4.2124736328125,-5.151670230749249,-5.461877751171588,-3.364701766042411
1789317486712427500,4.222427490234375,-6.208700911357998,-0.8637649475246667,-2.1250022958181796
1789317486722382600,4.232382568359375,-1.464529531481862,1.9221803604900836,1.2073261637553572
1789317486732337700,4.242337646484375,0.6186293264716863,-6.239471897196769,1.8105596220441162
1789317486742292700,4.252292724609375,4.190990969392657,7.149652558937668,4.134686898368597
1789317486752246500,4.26224658203125,6.106598381233215,4.0420799263417715,1.2560431406512855
1789317486762201600,4.27220166015625,-0.017570143482089042,-5.079353182557225,-2.550634915405512
1789317486772156700,4.28215673828125,-0.19804770666360855,-1.0818576633512973,-2.912093315115571
1789317486782110700,4.29211083984375,1.356560739672184,-3.2367911331832406,-2.412066694931686
1789317486792065500,4.3020654296875,-3.026063393166661,-0.4613543597012758,-0.8798999436371028
1789317486802020600,4.3120205078125,-2.246881101167202,5.92301583777368,2.1898636211767792
1789317486811974400,4.321974365234375,-2.6106834336549043,-1.7494769384413957,3.8342315411537884
1789317486821929700,4.3319296875,-3.352545756563544,2.60696178278327,3.579853459981084
1789317486831884500,4.341884521484375,-2.9591724616765975,3.4675592061877247,-0.4536623804265633
1789317486841839600,4.351839599609375,-0.791933637022972,0.03379413305222988,-2.201255368284881
1789317486851793400,4.36179345703125,2.000021140539646,-4.908028647646308,-1.424295720770955
1789317486861748700,4.371748779296875,1.530164909952879,0.1878624127358198,-0.7502422479148954
1789317486871703800,4.381703857421875,0.6521861436367035,4.376525815963745,-1.954542999434471
1789317486881657900,4.391657958984375,-0.7159077974408865,-6.556217879477143,-2.137615839806199
1789317486891612700,4.40161279296875,0.9934481430143117,4.627077032324672,2.3326994359672066
1789317486901568000,4.411568115234375,2.857006218665838,-0.727749626404047,1.1718213543277234
1789317486911521800,4.421521728515625,-1.1603174520820378,-2.049469938841462,0.6812282598562538
1789317486921476900,4.431476806640625,-2.1730852125942706,8.454366206994653,0.7529745224229991
1789317486931431700,4.441431640625,-2.98915668105185,2.5622154630839824,-1.0682752743311226
1789317486941385700,4.4513857421875,-3.466795820599794,-6.78944328250587,-1.4399053778350352
1789317486951340800,4.4613408203125,2.003201524141431,-4.675124731656909,-1.6251536625497043
1789317486961296000,4.4712958984375,3.31987858171463,7.051846264702081,-0.4767692979108542
1789317486971250700,4.481250732421875,2.6260586974412203,1.423762052285671,-1.3861749566912651
1789317486981204700,4.491204833984375,3.6875691538125275,-5.636923352432251,-1.1878867923352867
1789317486991159800,4.501159912109375,2.9191841501593587,5.041058230954408,0.9475174358360469
1789317487001115000,4.511114990234375,-2.2966437877237795,0.16116028377115726,-1.4184049091666937
1789317487011069000,4.52106884765625,-1.1287883413523434,-5.566392018613219,-1.1377787264071404
1789317487021023700,4.531023681640625,-2.2680980767190455,0.19020517646968363,1.5800728501990438
1789317487030978800,4.540978759765625,-4.396827430236339,4.522820539036393,0.2513113140132278
1789317487040932900,4.550932861328125,-5.421909313398599,-1.1400678602576255,-2.3381283291481436
1789317487050888000,4.560887939453125,-0.41463060244917865,0.12315700859129428,-0.7843924278631806
1789317487060842800,4.5708427734375,3.3653631525605916,-3.0339591148525473,0.8170994963310658
1789317487070797800,4.5807978515625,4.235362026038765,1.9171248306661843,1.6857428635470568
1789317487080751900,4.590751953125,1.7681553354263304,1.2195885562181472,0.8075720087248831
1789317487090707000,4.60070703125,1.8377964424073696,-4.566719886517524,-0.3751489252798259
1789317487100661800,4.610661865234375,2.4681705672085283,0.20006138457357883,1.4465408703267573
1789317487110615800,4.62061572265625,-2.935282467523217,2.883006336840987,0.8177905473351478
1789317487120571000,4.63057080078125,-3.2452064948290587,-2.83756911226809,-2.0990277504757047
1789317487130526000,4.64052587890625,-5.46954083314538,-3.8959710812300443,-0.376777147536166
1789317487140479700,4.650479736328125,-2.4448165796279904,3.614441373759508,2.9827985441967844
1789317487150434800,4.660434814453125,-0.8992986177206039,1.6586965973198413,1.913992377859354
1789317487160390000,4.670389892578125,0.5647790783405303,-2.8582144254118202,-0.39216581879332657
1789317487170344700,4.6803447265625,3.8955917265236377,4.095841911667585,0.5852924356676638
1789317487180298800,4.690298828125,3.5520337251633403,-3.541915651252866,-0.17850005256347357
1789317487190253800,4.70025390625,3.2700112657397984,-5.556203217554092,-1.0693047635093331
1789317487200209000,4.710208984375,2.2115789016395806,1.7157874348074196,0.09643127955533563
1789317487210163000,4.720162841796875,0.6685574327230454,-0.43367783274650573,0.6942842138495295
1789317487220117800,4.73011767578125,1.8908891501694916,-4.0395851869165895,1.0328836429543793
1789317487230072800,4.74007275390625,1.969765118485689,2.40438461599648,2.039928495775163
1789317487240027000,4.75002685546875,-2.5288912856310604,1.6936434075385332,0.24847638284824788
1789317487249982000,4.75998193359375,-2.9162048420876263,-1.1893839720904826,-1.292367084442079
1789317487259936800,4.769936767578125,-1.3768430647224188,0.8471773853391409,-0.0575850507453084
1789317487269891800,4.779891845703125,-1.1544845081448554,-4.127815259033441,-0.02841558181904256
1789317487279845600,4.789845703125,0.21255495544373987,1.0469231280922888,0.6564893207233399
1789317487289801000,4.799801025390625,2.144367067632079,1.440228618440032,0.15616057578772305
1789317487299755800,4.809755859375,3.725824942448735,-3.2388650168478486,-0.4791353694550693
1789317487309709800,4.819709716796875,4.597680841970443,0.1354600253254175,-0.005640197844058275
1789317487319664600,4.82966455078125,-1.3714742311656474,3.9715532686978574,-1.229228052831441
1789317487329620000,4.839619873046875,-1.1160972020834683,-1.0930366444915531,-4.091244939266145
1789317487339573800,4.84957373046875,-7.770128974580764,0.7021697794675826,-1.3393037537924946
1789317487349528800,4.85952880859375,-2.7245547275066375,-4.459388223567605,0.8311194730509072
1789317487359483600,4.869483642578125,-2.1949580217063427,3.9517379766374825,2.667093010880053
1789317487369438000,4.87943798828125,0.7818266690284014,1.0608610525518656,0.5336559180632233
1789317487379392800,4.889392822265625,5.654375422492623,-0.5869377186566591,-0.3891399681661278
1789317487389347800,4.899347900390625,8.000425922942162,6.378641298434138,-0.18592333443202078
1789317487399302700,4.909302734375,7.576465766611695,-5.029365455073118,-3.7240579327762124
1789317487409257000,4.919257080078125,4.283272362726927,-6.517637681192159,-3.05453399310857
1789317487419211800,4.929211669921875,-1.0168336947768926,0.6846703631341456,0.11791998472064733
1789317487429166800,4.939166748046875,-3.3330782550275324,-2.1348177335202694,0.25176804480478165
1789317487439121000,4.949120849609375,-3.8669109909623858,-2.021681183683872,1.6971566763564943
1789317487449076000,4.959075927734375,-1.3990139799982308,0.9382470647960901,2.2064887388937175
1789317487459030800,4.96903076171875,-6.611234248778223,5.5651013942807905,1.1859682453628628
1789317487468984800,4.97898486328125,-6.561361087584495,3.220874017605185,-2.323193356475234
1789317487478939600,4.988939697265625,-4.6801574651271105,0.2858966705083847,-2.8527348249569533
1789317487488895000,4.99889501953125,0.1461047534584999,-4.905156891602277,-0.5757046692416071
1789317487498849800,5.008849853515625,3.988507326108217,-3.9942081680983303,1.1735380951177328
1789317487508803800,5.018803955078125,6.698891489443183,1.021233975562453,1.9218132807433603
1789317487518758700,5.028758544921875,5.958367137140035,0.24737375536859035,0.2786926574137062
1789317487528714000,5.0387138671875,3.2799387855142355,-4.149513296100497,-2.204214364220947
1789317487538668000,5.04866796875,1.8550111965805292,-1.6172767916947601,-1.6868261287391184
1789317487548622800,5.058622802734375,-2.4361790996640917,4.648185871326923,-1.096239239925146
1789317487558577700,5.06857763671875,-7.529539764785766,-3.749600370311737,-3.088504067249596
1789317487568531700,5.07853173828125,-7.091039626449346,2.9423411538630724,0.783362208032608
1789317487578487000,5.088487060546875,-1.8583616760522126,5.949658930027485,3.8429686820998787
1789317487588441900,5.09844189453125,1.3876853612542153,-3.2011832287073134,1.962767806944251
1789317487598396000,5.10839599609375,5.23876340779066,-0.28415537979900835,0.9754765791244804
1789317487608350700,5.118350830078125,9.56703460367322,4.931324767559767,0.1907698976803571
1789317487618306000,5.12830615234375,4.350376644706726,1.1663123085826634,-2.693546133519709
1789317487628260900,5.1382607421875,-0.6886217311084271,-4.825100773590803,-4.8067970551371575
1789317487638215000,5.14821484375,-0.4205839578956365,-0.9063473671883344,-0.6136915778085589
1789317487648169700,5.158169677734375,-3.009886749869585,-8.783018900167942,2.236549530636519
1789317487658124800,5.168124755859375,-2.1317957553505895,8.621380477491021,5.330954784753918
1789317487668078800,5.178078857421875,-5.182019776305556,8.305235383713246,2.52558143043071
1789317487678034000,5.188033935546875,-7.881910602676868,-0.18377368211746214,-1.9180919221326707
1789317487687988700,5.19798876953125,-4.700884026813506,5.169189520826936,-2.337423541879654
1789317487697942800,5.20794287109375,-1.449900117626786,-3.75166431710422,-1.5993737629964946
1789317487707897900,5.21789794921875,2.18936706983149,-3.8313948564231395,-0.41544126124493774
1789317487717853000,5.22785302734375,6.618187136656045,2.3805787929952142,1.1287179064646362
1789317487727807700,5.237807861328125,6.619806262290477,0.5674959360837936,3.3218077962115404
1789317487737761800,5.24776171875,2.934831801146269,-3.974424440219998,2.139402430962026
1789317487747716900,5.257716796875,0.34103988105952737,-4.569800316876173,0.05861497831493616
1789317487757672000,5.267671875,1.7722335446506738,0.1528197409272194,0.8383837649654596
1789317487767625700,5.277625732421875,-1.7066174554020166,5.5243339150846005,1.9000611754015087
1789317487777580800,5.287580810546875,-8.17743668679595,-1.0259317779898642,0.6963066595878452
1789317487787536000,5.297535888671875,-5.016630476662517,1.7462603144824504,0.6568842383250594
1789317487797490000,5.307489990234375,-3.747496676030755,6.280420578178763,3.5593443404376504
1789317487807444700,5.31744482421875,3.0648516812443733,-1.0606623151093721,2.175610931679606
1789317487817399800,5.32739990234375,3.3637627316266294,-4.1602994785308836,0.5372374298118054
1789317487827353600,5.337353515625,8.216309146025777,-2.0059528686761854,-0.23411014997400342
1789317487837309000,5.347308837890625,9.053982205438613,5.246179821527004,-0.42388343783244486
1789317487847263700,5.357263671875,1.7594728472769259,0.17120821505486963,-3.8626463192552327
1789317487857218800,5.36721875,-3.5760417927384376,-8.123361397737265,-4.6843248139396305
1789317487867172600,5.377172607421875,-2.950451979604363,-8.626316180327533,-0.4664909919373691
1789317487877127700,5.387127685546875,0.4768891979634762,0.9365157109588385,3.2175060024768114
1789317487887082500,5.39708251953125,-4.686619354617595,16.312970168364046,4.957216164663434
1789317487897036500,5.40703662109375,-5.220140540385246,3.4875597916871306,0.1814605098042637
1789317487906991400,5.416991455078125,-8.451439505892992,-2.2773019583940504,-1.6528554700762033
1789317487916946700,5.42694677734375,-0.6440320632755756,-0.7783107698619365,-0.4128768906496465
1789317487926900700,5.436900634765625,3.539622571879625,-1.1112053383886813,0.5919512359697371
1789317487936855600,5.44685546875,5.600112501907348,0.17972294542193412,-0.8289229859199374
1789317487946810400,5.456810302734375,5.520200176280737,1.7114391764700412,-0.5994543781414627
1789317487956765700,5.466765625,3.015309943962097,-2.6254215685814617,-1.4168047804936765
1789317487966719700,5.4767197265625,1.397200793096423,-6.173959852844476,-1.5576047055423259
1789317487976674600,5.486674560546875,2.1070511901944875,0.9990507853269577,-0.1528758550286293
1789317487986629400,5.49662939453125,-5.092540580910444,5.670221226400137,0.39433651389591395
1789317487996583700,5.506583740234375,-11.069558642506598,-3.157819303277135,-0.5326810816816985
1789317488006538800,5.516538818359375,-6.532185261982679,7.1857321725785726,2.2418819777056576
1789317488016493600,5.52649365234375,-1.4219301606833934,0.9529261630117892,2.5784233783021566
1789317488026447600,5.536447509765625,4.2157700213402505,-6.366654508042335,0.9888944252327084
1789317488036402700,5.546402587890625,8.913313505554198,5.352682632437348,0.668236384075135
1789317488046357500,5.556357421875,4.958694420522451,3.318697847497463,-2.737459801787138
1789317488056311600,5.5663115234375,2.2659850300878284,-12.29272213460207,-6.321397316211462
1789317488066266600,5.5762666015625,4.600293654817342,-4.5970144870162,-1.7447395346559582
1789317488076221400,5.586221435546875,4.841382046306133,-3.0704145760685204,1.507135624282062
1789317488086176500,5.596176513671875,0.8972165507495403,0.4119651826322078,2.981870323435962
1789317488096130600,5.606130615234375,-8.924363307356835,1.4314321485221384,2.995523877996206
1789317488106085600,5.616085693359375,-2.3589070594131947,6.772886115458607,1.9648644869625567
1789317488116040400,5.62604052734375,-6.565655569908023,2.345489359435439,1.092393305086717
1789317488125994800,5.635994873046875,-0.6881506064653397,-5.3103614940583705,-1.3549002591140566
1789317488135949600,5.645949462890625,5.069441444873809,3.8905215836524962,-0.4702215567678213
1789317488145904600,5.655904541015625,-2.0904414161771534,3.6335201682388782,-0.9497463639318943
1789317488155858400,5.6658583984375,2.529109896817803,-5.956332416442036,-2.5286115919068455
1789317488165813800,5.675813720703125,1.1263058768868446,-4.457096313238144,0.40454949954822655
1789317488175768600,5.6857685546875,4.233479281032086,-7.801410832551121,1.1761040731482206
1789317488185722600,5.69572265625,11.742249814033508,4.907696054691076,3.4312428611814974
1789317488195677400,5.705677490234375,9.2542697999835,1.0573679497390984,3.6450896100014445
1789317488205632800,5.7156328125,-0.6091892979532479,0.26891923222243785,1.3626800993353128
1789317488215587600,5.725587646484375,-5.736246480971574,8.705370427820085,-3.375610405808687
1789317488225541600,5.735541748046875,-7.3665166097521775,-3.242876590576768,-3.927652459912002
1789317488235496400,5.745496337890625,-5.5571577417999505,-7.208711481627821,1.3593443790413438
1789317488245451800,5.75545166015625,2.985395282691717,-2.475088968294859,0.739852955847606
1789317488255405600,5.765405517578125,-6.320727454125881,2.9078526088058947,1.2596386809252202
1789317488265360600,5.775360595703125,2.688057765236497,11.901880404019355,3.2402415658980606
1789317488275315500,5.7853154296875,-0.2280178975135088,-5.751325392159819,1.7977081776469945
1789317488285269500,5.79526953125,-6.9300845098614685,-8.987510376143454,-0.13262078331150115
1789317488295224600,5.805224609375,4.78568061735034,-2.5792788260877133,-1.482974119710922
1789317488305179600,5.8151796875,8.55569541465938,-2.5364403858363627,-0.42458939414471386
1789317488315133700,5.8251337890625,12.102467273771762,7.125076920607686,2.328764872997254
1789317488325088500,5.835088623046875,6.068752926963567,5.201918654996156,-0.39016310066878795
1789317488335043600,5.845043701171875,-4.0898511468201875,-5.839684059092402,-5.666210821714997
1789317488344998700,5.85499853515625,-11.592850695204735,-2.7496201951801775,-1.0194943653535098
1789317488354952400,5.864952392578125,-5.172508436116576,-6.927123906490206,5.894107138675451
1789317488364907500,5.874907470703125,-4.362217889147996,5.558292298787832,4.338333740213513
1789317488374862600,5.884862548828125,-5.364180178007484,4.764861701205373,1.9130040974743663
1789317488384816600,5.894816650390625,1.1204074664980173,-4.4528205356150865,2.402312193636596
1789317488394771500,5.904771484375,4.309554804974794,1.5933394512683152,2.5102073356881736
1789317488404726500,5.9147265625,3.371660206878185,-1.6265999158352613,-1.838144232931733
1789317488414680600,5.9246806640625,1.9896563983917235,-1.3792957185715435,-3.611356267225742
1789317488424635600,5.9346357421875,8.997747107997537,-6.322057241424917,-1.9818425097703933
1789317488434590500,5.944590576171875,11.121468862485886,0.5851292079299688,2.64990280662626
1789317488444544500,5.95454443359375,-4.2248850556880235,7.712715481010079,3.2698303562149404
1789317488454499600,5.96449951171875,-11.638575504547356,-11.730673942530155,-5.302279309889673
1789317488464454700,5.97445458984375,-5.228192329415679,5.888861639237404,1.6459154416799544
1789317488474409500,5.984409423828125,-2.9145430463552473,2.0283195987850426,5.672357069385051
1789317488484363500,5.994363525390625,-7.477799640676379,7.387441908881068,0.3536626312673092
1789317488494318600,6.004318603515625,-8.381321429049969,7.640409538733959,-3.7448452847391365
1789317488504273700,6.014273681640625,-3.692273970502615,-3.2678146324783564,-2.2682015370935202
1789317488514227700,6.024227783203125,1.094989532124996,-2.8768466451674697,0.9534403230790048
1789317488524182500,6.0341826171875,2.776240491080284,0.5668506239175796,2.46841928127259
1789317488534137600,6.0441376953125,3.4732290685176848,4.293699648717046,0.7218480742100626
1789317488544091600,6.054091552734375,1.0651116957336664,-2.056786399334669,-3.253877292540669
1789317488554046700,6.064046630859375,-1.191845393767953,-0.7313233932375908,-2.677622880461812
1789317488564001500,6.07400146484375,3.016771833208203,-4.3424435136199,-1.2471864649787545
1789317488573955600,6.08395556640625,4.9812920367777345,-1.5482172839939594,0.2897741695288569
1789317488583910400,6.093910400390625,4.1080929059535265,13.678441164219379,1.9306842772021888
1789317488593865700,6.10386572265625,-10.833568450939655,4.936730425995588,-3.0415643291592596
1789317488603820500,6.113820556640625,-2.6276754849880932,-9.802691033241151,-4.084722551760077
1789317488613774600,6.123774658203125,-0.9247907863736152,-4.641027816265821,3.340120574754476
1789317488623729400,6.1337294921875,5.127416663980484,-1.6104443153262138,2.396386456849426
1789317488633684700,6.143684814453125,6.070657299280167,5.352648730167746,-0.5552571436922997
1789317488643638500,6.153638427734375,-3.1650632830560204,-4.227399084335565,-3.4233070997461676
1789317488653593600,6.163593505859375,5.93217471126318,-3.0152286954194305,-3.140404058095813
1789317488663548400,6.17354833984375,3.4371669905334707,1.2926882792204617,0.8728519978869705
1789317488673502700,6.183502685546875,0.3772065884619951,-4.386103791648149,0.6543140225108712
1789317488683457500,6.19345751953125,1.7030325826525687,7.5301745555579656,0.7544509516511112
1789317488693412600,6.20341259765625,-7.874215371999144,5.830277348321676,2.2304764943331477
1789317488703366400,6.213366455078125,-5.745450947168469,-2.0887147385150193,2.6103639924421906
1789317488713321700,6.22332177734375,-7.871827015557884,-5.428142654830217,2.3147993298783898
1789317488723276500,6.233276611328125,-3.704378834316134,0.8779740901410579,0.9500864826064557
1789317488733231600,6.243231689453125,-0.5713263080269098,1.751722087019682,-0.4378270613804459
1789317488743185400,6.253185302734375,3.6587925566613673,-6.279627966496348,0.07380290283560753
1789317488753140700,6.263140625,7.900720517086982,0.5835831475317478,1.3548913451552391
1789317488763095600,6.273095458984375,8.142854618236422,6.3740294207245105,-0.600125774597004
1789317488773049600,6.283049560546875,-0.4301584264487028,-1.6752262918382883,-3.9274607367321845
1789317488783004400,6.29300439453125,-1.5417530564159154,-9.471063708171249,-2.3421318657010795
1789317488792959700,6.302959716796875,5.4390398964196445,5.014763513746857,2.3083690045699474
1789317488802913800,6.312913818359375,3.7582214836627243,3.1405157017767427,2.550923084697127
1789317488812868600,6.32286865234375,-13.30614631319642,-0.9008300650715827,0.90378884181194
1789317488822823400,6.332823486328125,-3.97494291113615,2.2445669790059326,-2.195237569300085
1789317488832777500,6.342777587890625,-6.152875563761592,-3.8760131658285855,0.17491481448784468
1789317488842732500,6.352732666015625,3.8731758965760466,-0.3298018632084131,2.7823025675982236
1789317488852687600,6.3626875,12.325249608719348,-5.302487984204292,-0.43067412088587875
1789317488862641700,6.3726416015625,11.179504871869087,6.825858411711454,1.8782191998191178
1789317488872596200,6.38259619140625,-3.7600843549251555,3.1733143940508364,-0.8275391303461045
1789317488882551600,6.392551513671875,-4.025181398510933,-7.955123138403892,-6.26716654433012
1789317488892506400,6.40250634765625,-7.19817722813189,-5.0046606374055145,1.2778833626680075
1789317488902460400,6.41246044921875,3.527205573377013,-8.240838022604585,1.432825210315734
1789317488912415200,6.422415283203125,3.4553713402658697,14.366404723680018,0.6890976780571043
1789317488922370600,6.43237060546875,-6.535528727191687,3.2459149353593584,-1.6607792488127946
1789317488932324400,6.442324462890625,4.626764897635579,2.9586668502420186,-1.7557400904893874
1789317488942279400,6.452279541015625,-11.073311273038387,0.9653454996019601,-2.22745159355402
1789317488952234200,6.462234130859375,-7.080815169554948,-7.863279551964998,-2.334936839630455
1789317488962188500,6.4721884765625,4.026104943096637,-2.91890241060853,1.8009873454481362
1789317488972143400,6.482143310546875,7.910281541636586,-1.1502899790644645,-0.022540771501511334
1789317488982098400,6.492098388671875,11.573694743835926,3.94849797180295,1.2169158298775553
1789317488992053200,6.50205322265625,4.899767015257478,4.795370821237563,0.8294275744412094
1789317489002007600,6.512007568359375,-2.5794647040486334,-3.5243209578514096,-5.886905828994513
1789317489011962400,6.52196240234375,-7.085077503174543,-3.758720665356517,-3.156978176277876
1789317489021917400,6.53191748046875,2.0303584111362696,-2.761811568233371,2.963841330270469
1789317489031871200,6.541871337890625,-0.6758078422427177,4.249811407151818,2.6232474394127725
1789317489041826600,6.55182666015625,-11.619133137452602,6.599336305713654,0.4109888849459588
1789317489051781400,6.561781494140625,-1.4206202471286058,6.769413470911979,-0.6234829039826989
1789317489061735400,6.5717353515625,-6.091534667614102,-6.1194105165332555,-0.8032606483317911
1789317489071690200,6.581690185546875,1.6942390353441237,-1.640903166475892,0.694448975957185
1789317489081645600,6.5916455078125,8.4940932372272,-1.5066723906844854,-1.3766902122482656
1789317489091599400,6.601599365234375,7.936754538020491,0.3384101170778274,-1.139059121606499
1789317489101554400,6.611554443359375,5.927152499186993,-3.6919612512916324,-0.7511838396139442
1789317489111509200,6.62150927734375,6.349967577135563,-0.21597323945462701,-1.5939716116920113
1789317489121463300,6.63146337890625,1.2666741325199604,5.011404850968718,-1.1855674825422464
1789317489131418400,6.64141845703125,-11.89148292864561,-5.3606975965887305,-3.5871442015111445
1789317489141373400,6.65137353515625,-3.4580934587061405,-2.761351549506187,-2.6661487157672643
1789317489151328300,6.661328369140625,-1.294490944728255,0.41170799300074573,-0.1501579743720591
1789317489161282300,6.6712822265625,-2.7340941247463224,10.732443825936317,2.8916160520151255
1789317489171237400,6.6812373046875,1.0202490561783313,6.490939059358835,-0.760305888224393
1789317489181192400,6.6911923828125,-6.875402487081289,-1.319872054222226,-3.1473867565900084
1789317489191146500,6.701146484375,0.149698394036293,-9.59663070051372,-0.7404325823664665
1789317489201101300,6.711101318359375,9.984470911192894,-7.071255898571014,0.6724605776414275
1789317489211056400,6.721056396484375,12.674363490641117,11.909347086638212,2.2296727767348288
1789317489221010400,6.731010498046875,-1.9268261404693126,-2.2574732223302125,-2.548670337334275
1789317489230965200,6.74096533203125,-2.6299001753002402,-6.411378031387925,-4.885589144562185
1789317489240920300,6.75092041015625,0.22817981007695196,5.882859183952212,1.5748206287592648
1789317489250874400,6.760874267578125,-2.175121686857939,-6.703645405972003,0.8837693324163556
1789317489260829400,6.770829345703125,-5.386668488669395,5.403344313660264,-0.21802049084063618
1789317489270784300,6.7807841796875,-10.24684642086029,8.648844238477945,-1.6377578541874884
1789317489280738300,6.79073828125,-3.5117011302530763,-3.6287446244001385,-1.1846961065351962
1789317489290693400,6.800693359375,1.5741683023303745,-0.18708558314442633,2.6474688574776053
1789317489300648400,6.8106484375,5.686603036880493,-0.16235387746989727,1.091839178335294
1789317489310603300,6.820603271484375,3.894900821650028,0.5920154603123664,-1.5072396691784262
1789317489320557300,6.830557373046875,-5.824530329102277,-1.3896481857597827,-2.694900762999058
1789317489330512400,6.840512451171875,3.2570529999673363,-5.9127311751246445,-2.318385663932562
1789317489340467500,6.850467529296875,5.40851733238399,3.535851236647367,2.5735510960906742
1789317489350421500,6.86042138671875,5.4259962904512875,-0.6203314542144537,1.5353719770766794
1789317489360376300,6.870376220703125,-1.8464894519507884,8.440058280178905,-0.8607062906064092
1789317489370331400,6.880331298828125,-10.105098693567514,1.506801570022106,-4.462897692993283
1789317489380285200,6.89028515625,-1.2322925549685955,-7.7023162520706645,-1.2771673233531415
1789317489390240500,6.900240478515625,-0.4192518325090408,-2.5522259839892385,4.244108519335091
1789317489400195300,6.9101953125,6.24553280467093,-1.6417203280776738,2.8459646001696584
1789317489410149400,6.9201494140625,6.637237289562821,10.536918915748595,1.4926656387723982
1789317489420104200,6.930104248046875,-6.829151023516059,-5.391556845232844,-4.136120730563998
1789317489430059500,6.9400595703125,1.66047062125504,-7.437074831578135,-4.167381253485382
1789317489440013300,6.950013427734375,2.9860137068510055,2.0199515834122894,1.5378063646167517
1789317489449968400,6.959968505859375,-2.9155764810562133,7.711984828647971,0.8121539296876639
1789317489459923200,6.969923095703125,-9.058106591892242,-0.045781507965922355,-3.898113938477635
1789317489469878500,6.97987841796875,-5.498609691241383,-5.01233482529521,1.1025098446272312
1789317489479832300,6.989832275390625,1.7456337070167063,10.055658663094043,7.426050748738646
1789317489489787400,6.999787353515625,1.8890753787457941,-7.3431988625288005,1.6634233335807918
1789317489499742200,7.0097421875,5.210487745898962,-5.102070625799894,-0.37858938458990304
1789317489509696500,7.019696533203125,6.9307344982028,10.879517716687918,0.7727309239029884
1789317489519651300,7.0296513671875,-1.3685539598047733,-3.0715958948075768,-4.903906599280238
1789317489529606400,7.0396064453125,-1.5864479381889105,-6.512168309870362,-4.313392483441532
1789317489539560200,7.049560302734375,2.0554069276750084,-10.497809725153445,1.427278682104498
1789317489549515500,7.059515625,8.291922313153743,14.377615853524206,6.24808716532886
1789317489559470300,7.06947021484375,-15.308179378080368,9.552661794927715,3.5966482351765032
1789317489569424400,7.07942431640625,-8.986583908948301,-6.489276679104567,-1.8267288126870989
1789317489579379200,7.089379150390625,4.363074213716388,2.032550952744484,4.846749710819125
1789317489589334500,7.09933447265625,1.6343611974865198,-4.112525919964909,3.6698058258458968
1789317489599288600,7.10928857421875,2.3088445131272075,-1.1181079573839903,-3.6898385600492354
1789317489609243400,7.119243408203125,0.9050877225160598,5.444962272205949,-6.0971244504451745
1789317489619198200,7.1291982421875,7.547124521315097,-3.0854017173200843,-5.246611783203482
1789317489629153500,7.139153564453125,2.035316325804591,-9.974013814586401,-1.5877791867926716
1789317489639107600,7.149107666015625,4.240553749462962,-4.533910088327527,0.6697117173247039
1789317489649062400,7.1590625,3.9684932966053483,19.315266316974164,4.036182977257669
1789317489659017200,7.169017333984375,-11.029798294526337,-4.302834556809067,0.19629399486407637
1789317489668971300,7.17897119140625,-8.627641291451454,-10.314847359418868,0.14357448606221004
1789317489678926600,7.188926513671875,-1.4126380162030459,3.740379537501931,4.916331781089306
1789317489688881400,7.19888134765625,3.7530157317131754,0.06111760878562927,0.10647669008839875
1789317489698835500,7.20883544921875,2.9310984598368406,4.650405885463953,-2.6103207378223536
1789317489708790300,7.218790283203125,2.40190390509665,2.30807528232038,-2.7026392482966184
1789317489718745300,7.228745361328125,3.4019226586729285,-7.398512753471731,-3.3223239290401336
1789317489728699400,7.238699462890625,0.2841308298796415,-6.261392637103795,-1.2786135766386986
1789317489738654500,7.248654541015625,3.4363258635342118,3.796568457713723,1.9800868982747195
1789317489748609300,7.258609375,1.4905337413102389,2.794499201348424,3.975394162034988
1789317489758564400,7.268564453125,-8.894984068137406,1.907725718680024,3.083753657852113
1789317489768518400,7.278518310546875,-3.316452114397287,-0.7993921363353729,0.11695155981360003
1789317489778473500,7.288473388671875,-0.7524713952064513,-6.485930875808,0.39987770834490655
1789317489788428300,7.29842822265625,4.6421547744691365,1.69269765112102,1.0438475931044668
1789317489798382300,7.30838232421875,3.6717829711377616,6.52295215421319,-0.3775921537134796
1789317489808337400,7.31833740234375,-1.8372499144405126,-2.7829835355997083,-3.9516596507042645
1789317489818292500,7.32829248046875,2.5250878016948697,-9.520319614249468,-3.412973921780288
1789317489828246300,7.338246337890625,2.7429484623312947,-2.3649586145371195,1.8522078295975923
1789317489838201300,7.348201416015625,4.606325920718908,2.5357810451447964,3.291219473463297
1789317489848156400,7.358156494140625,0.5910469075411557,0.7583037546217442,1.9342513220340012
1789317489858110500,7.3681103515625,-2.4901824925303457,8.010017342630029,0.9258180835947394
1789317489868065300,7.378065185546875,-0.5464882193684578,-4.43938705354631,-1.8085048814713953
1789317489878020600,7.3880205078125,-4.112504292654991,-0.4574070833802223,-1.2248413621798158
1789317489887975400,7.397975341796875,-0.7727139727681874,-2.74057062728405,-2.2568429616026577
1789317489897929500,7.407929443359375,-2.1881915963113308,-4.0130496466904875,-0.2563481391366571
1789317489907884500,7.417884521484375,1.465432033279538,-1.7639473623424768,2.502405722026527
1789317489917839600,7.427839599609375,7.49652129228115,0.5743827729880809,4.034410999149084
1789317489927793400,7.43779345703125,7.200083938536047,5.112470439261198,5.071659120923281
1789317489937748500,7.44774853515625,-1.5167583158910274,-9.44004254696369,0.5792135906780138
1789317489947703600,7.45770361328125,-6.8448834301769725,6.43635932790935,-1.0414392898537217
1789317489957657600,7.46765771484375,-0.2897650363743305,-2.4196347920984027,-1.2854089358672498
1789317489967612400,7.4776123046875,-5.530864778158068,-6.848548966947198,1.1813679850257932
1789317489977567500,7.4875673828125,-2.618480955663323,1.3092372629612683,1.6481583983011543
1789317489987521500,7.497521484375,-3.682386782738566,7.144954756510257,1.9130889992788433
1789317489997476600,7.5074765625,1.288741587421298,2.720364874601364,0.835715641734749
1789317490007431400,7.517431396484375,2.0555401986658572,-14.723976637345551,0.27484778202120214
1789317490017386500,7.527386474609375,9.79551544252336,3.563845158988237,2.8984251475080844
1789317490027340300,7.53734033203125,6.425768375790119,8.701474589425326,0.18877576472107319
1789317490037295600,7.547295654296875,-8.124366190865635,0.9684083943039178,-6.286217281758785
1789317490047250400,7.55725048828125,-2.604695591416955,-3.9416298395991323,-4.109916321988403
1789317490057204500,7.56720458984375,-3.5034254693388935,-4.222178134816884,2.6964626054883003
1789317490067159300,7.5771591796875,0.0004985971719026565,6.206126092433929,1.3113045707546174
1789317490077114600,7.587114501953125,-7.93752084621787,5.580548554259538,-1.8761317260205745
1789317490087068700,7.597068603515625,-2.323109185323119,6.968748879298567,-2.8655130579873918
1789317490097023500,7.6070234375,-1.9323042796194552,0.3550245672702789,-2.8492949136361476
1789317490106978300,7.616978271484375,0.49876668325066564,-4.2237084131240845,-2.6635160291761157
1789317490116932400,7.626932373046875,3.3620898299783466,-8.200997595125436,-3.754465930521488
1789317490126887700,7.6368876953125,8.691098156839608,10.755804827779532,-0.5468547876585275
1789317490136842500,7.646842529296875,4.205190759658813,6.894794585293531,-1.589788773049414
1789317490146797300,7.65679736328125,-6.848878637292981,-10.205397973662615,-4.019131596952676
1789317490156751400,7.66675146484375,1.767840862649679,-0.03282441123723984,-1.00333591530025
1789317490166706700,7.676706787109375,-3.845509891015291,-1.4279945752888916,1.8584722968198357
1789317490176661500,7.68666162109375,-2.010217540383339,4.244102966377139,2.7636168640896677
1789317490186615600,7.696615478515625,-4.195733195483684,-1.7239374235153198,1.488700096142292
1789317490196570400,7.7065703125,2.6396482468545437,4.1186546319782735,2.6420705055654046
1789317490206525400,7.716525390625,5.2844601600825785,-4.655617482632398,-0.41318303398936984
1789317490216479500,7.7264794921875,5.216341732624173,-5.690247530862688,-2.164329659208655
1789317490226434600,7.7364345703125,7.04325203935802,14.656563727807997,-0.8282451597236097
1789317490236389400,7.746389404296875,-0.07118716737926006,-8.937000086089968,-5.750812766462564
1789317490246343700,7.75634375,-5.910978778499365,-11.923347554939985,-2.053837194140255
1789317490256298500,7.766298583984375,4.460839006897807,6.328100613242388,3.3258786989122626
1789317490266253600,7.776253662109375,5.172416081658006,4.434821353065967,3.418567796264589
1789317490276208400,7.78620849609375,-4.443260680109262,-0.42813364262282844,-0.28105050911884755
1789317490286162700,7.79616259765625,-8.5702429954499,9.016965603208542,-3.6186949395507573
1789317490296117500,7.806117431640625,-6.148071962872147,-0.36993747424185275,-3.0848376536965367
1789317490306072600,7.816072509765625,-6.290500658166408,-9.792443779993057,0.3906034648474306
1789317490316026400,7.8260263671875,5.520954794040322,-3.615081425228715,0.3186663924163207
1789317490325981700,7.835981689453125,4.681413018146157,8.717266032797097,1.241913200750947
1789317490335936500,7.8459365234375,3.183152481976151,0.9827321032106876,0.7878036245461553
1789317490345890600,7.855890625,7.5422747431963675,-0.7975549840360879,0.5985102656917646
1789317490355845400,7.865845458984375,5.64306141679585,2.5007483102083206,-0.5034263456247746
1789317490365800700,7.87580078125,-3.351018400865793,-2.7703157772064206,-2.4638074035629627
1789317490375754500,7.88575439453125,-10.730668048435449,-5.900625726789236,-1.8814440070845186
1789317490385709600,7.89570947265625,-2.1058540893644095,-1.3667051170676945,1.3709370555490255
1789317490395664400,7.905664306640625,-7.363902627861499,8.961774461862444,3.988123587487638
1789317490405619500,7.915619384765625,-0.29208091210126874,-1.8473650657415388,-0.454080934632197
1789317490415573500,7.925573486328125,-1.7783757006675003,-4.727201540374756,-0.3069050448108464
1789317490425528600,7.935528564453125,4.401871854144335,8.937650658953189,-0.36218974619191135
1789317490435483400,7.9454833984375,4.496743263971806,-8.513098966470361,-4.217727000626922
1789317490445437400,7.9554375,4.522690190654993,-3.0121909351587295,-1.3676874061033129
1789317490455392500,7.965392578125,8.529946056374907,6.869280789330602,-0.06569481704067438
1789317490465347600,7.97534765625,1.0084726936668158,-10.320503193223475,-1.956509769462794
1789317490475301600,7.985301513671875,-1.6112188068300484,-2.7453438330352307,0.13225679057100787
1789317490485256400,7.99525634765625,5.515322925633192,0.8105629341691732,-0.48090983178168534
1789317490495211500,8.00521142578125,0.752792882245779,3.360350292834639,0.7415585907217115
1789317490505165600,8.01516552734375,-10.83616957334876,0.8019757230877875,-1.3131839547604323
1789317490515120400,8.025120361328124,-1.9325749132543801,2.2855150754660367,-2.2947902688115835
1789317490525075500,8.035075439453125,-4.915953010904789,-2.5118466273277997,0.408980212004669
1789317490535030500,8.045030517578125,2.516138771563768,-5.398512071198224,0.773561164182052
1789317490544984600,8.054984619140624,1.207225918251276,16.572986547684668,4.4274227672472595
1789317490554939400,8.064939453125,-0.3508125025331974,-10.821579906982183,-2.2379297329485417
1789317490564894500,8.07489453125,2.3864245964139696,-4.628480469381809,-1.6421299317918716
1789317490574848500,8.0848486328125,4.490053410944342,5.914468374180793,0.3665821724645793
1789317490584803600,8.094803466796876,5.2779287124872205,-8.685474471738933,-2.6081395943909884
1789317490594758400,8.10475830078125,6.122976684582233,7.263021163964271,-0.02727791955862194
1789317490604712400,8.11471240234375,-7.449346868652105,-1.077574286943674,-2.2647841298654674
1789317490614667500,8.12466748046875,-5.7338148699104785,2.207896998256445,-0.8949081276766956
1789317490624622600,8.13462255859375,-8.085843275725841,-8.39500800909698,2.8449115839853882
1789317490634576600,8.14457666015625,2.164872680044174,-2.9522230809301138,3.7772365652561186
1789317490644531500,8.154531494140626,9.941224474662542,3.392244729745388,1.6469541370779275
1789317490654486500,8.164486572265625,-2.7205554287374016,8.195856140583754,0.9629740212302654
1789317490664440300,8.1744404296875,-0.2938923454374075,-1.155842937016487,-5.15198528804779
1789317490674395600,8.184395751953126,5.108339623066783,-3.597678455007076,-4.832786067396402
1789317490684350500,8.1943505859375,0.4694371283918619,-9.005039018571376,-1.1714651613011955
1789317490694305500,8.204305419921875,3.956531640654802,0.4511632205545902,-0.7041327501036226
1789317490704259300,8.21425927734375,-8.741692033523321,14.522495449101925,-0.842692787270993
1789317490714214700,8.224214599609375,-5.080954188013076,-6.115407126110791,-4.978414435514807
1789317490724169500,8.23416943359375,-4.422223737299442,-2.3289900600552556,-0.7584181747816503
1789317490734123500,8.24412353515625,1.9099901564806698,-6.960682477220892,0.7845754562798887
1789317490744078300,8.254078369140625,5.9539212636470795,4.386670777881145,0.5043725039010867
1789317490754033700,8.26403369140625,-3.5771290034532544,8.500499597138166,-1.9566171753600239
1789317490763987500,8.273987548828124,1.703377450567484,-7.010276236951351,-4.745659572607279
1789317490773942500,8.283942626953126,-0.8895838639140129,-5.019183083754777,0.03801934953182935
1789317490783897300,8.2938974609375,3.569876840367913,-0.5283750550508499,1.5137512430295348
1789317490793851600,8.3038515625,7.3293719972282645,2.6613012757360934,0.5455795435583218
1789317490803806500,8.313806396484376,-2.631452080917358,10.624454575860499,2.4315163685500623
1789317490813761500,8.323761474609375,-4.785912672540545,-7.917706138679384,-0.8645006413880735
1789317490823716400,8.33371630859375,3.4833541566908357,2.701972308820486,2.227783309726417
1789317490833670700,8.343670654296876,-3.5875370002210136,3.6852637994796034,3.7188115565553304
1789317490843625500,8.35362548828125,-5.963777471750975,1.9213105919182298,-1.7309731673710047
1789317490853580500,8.36358056640625,-6.655779492947459,-1.1495423755675553,-2.499503863105178
1789317490863534300,8.373534423828126,1.501432151943445,-9.57188379727006,1.2759633543908595
1789317490873489700,8.38348974609375,8.354240529900789,3.413510805135965,2.736655499666929
1789317490883444500,8.393444580078125,7.481820566755533,8.518341543298959,0.9160652628000825
1789317490893398500,8.4033984375,-6.780696496948599,-2.241798683336377,-4.208500907120109
1789317490903353600,8.413353515625,0.3014075433731079,0.4413227945417165,-4.348208945278823
1789317490913308700,8.42330859375,-3.9557624098479747,-8.862156149768829,0.5703412790449336
1789317490923262700,8.4332626953125,0.6502227346092462,-0.3597697159707546,2.170555694116652
1789317490933217500,8.443217529296875,2.7760312322437763,-0.703159375026822,1.3745175443843007
1789317490943172600,8.453172607421875,-1.6267898854494094,6.663752956044673,2.051040256898105
1789317490953126700,8.463126708984374,3.341387818211317,-2.13606627227664,-0.4869099855119362
1789317490963081500,8.47308154296875,5.232519544965029,1.6273732382953165,-0.3865974075438455
1789317490973036500,8.48303662109375,6.08400310306549,4.127991784644126,-1.0465320829480886
1789317490982991600,8.49299169921875,1.2410732427954674,-7.180531681326031,-1.8585678661487997
1789317490992945700,8.502945556640626,-6.888776347917318,0.7135708789259195,0.7939451229758561
1789317491002900500,8.512900390625,-1.0659767881304025,1.4215174882292747,2.375445521759987
1789317491012855600,8.52285546875,-5.1273067738652225,1.700150889736414,3.001691460715234
1789317491022809900,8.532809814453126,-5.480974081307649,-2.763931629127264,-0.18624452921040355
1789317491032764700,8.5427646484375,-4.718419683504104,2.87397430460155,-0.21310360230244696
1789317491042719500,8.552719482421875,-2.089153714454174,-1.9377660521566866,-1.8891843920782208
1789317491052673500,8.562673583984376,2.2856799106389283,4.0907232534796,-1.3411229320436715
1789317491062628600,8.572628662109375,4.969201786011457,2.4548539895176886,0.1380780623367056
1789317491072583700,8.582583740234375,8.754383172792195,-1.9034201304405927,0.4840109761347994
1789317491082537700,8.592537841796876,2.0326894844323395,2.283337731426954,0.9678867085173726
1789317491092492500,8.602492431640625,-18.657640612632036,-8.014444511422514,-3.591660509891808
1789317491102447600,8.612447509765625,-0.8077724266678095,0.12804536515474318,0.3813326188834384
1789317491112401700,8.622401611328126,2.4511165565550326,-3.0524054566472767,6.241885972601175
1789317491122356700,8.632356689453125,6.300495982480049,-0.756892134258151,2.632951964086294
1789317491132311600,8.6423115234375,7.840043637806176,10.441492210125922,2.3691527052260932
1789317491142266600,8.6522666015625,-1.25367553473711,3.7351515737205743,0.3055227966722101
1789317491152220700,8.662220703125,2.7188252439439293,-9.064120153093338,-3.2618574776396154
1789317491162175700,8.67217578125,2.601549694606662,-11.913311314094067,-0.7070321248069406
1789317491172130600,8.682130615234374,6.143360716441273,1.5049340225845576,3.070327774567902
1789317491182084600,8.692084716796876,-6.046545771330595,-1.0917916128665208,2.5556676488757133
1789317491192039700,8.702039794921875,-3.266675399315357,-0.917702289417386,0.24275880891904233
1789317491201994800,8.711994873046875,2.7115830177307125,-0.8128139279663562,3.325058322440088
1789317491211948500,8.721948486328126,1.0812345630168914,-2.9526141260743137,3.947855874507129
1789317491221903600,8.731903564453125,0.4362888920277357,8.754072207146882,1.1466448274951428
1789317491231858700,8.741858642578125,-10.211825376361608,0.5047562790542841,-3.725138129228353
1789317491241812700,8.751812744140626,0.5916045414239168,-5.876699492278695,-2.4713000974059103
1789317491251767600,8.761767578125,-0.888710588210821,0.03791150524318218,2.8144670536220073
1789317491261722600,8.77172265625,3.0122096398591993,1.034356491985917,2.3813228893607854
1789317491271676400,8.781676513671876,4.286284404024482,-3.945863531646132,1.511851108496636
1789317491281631700,8.7916318359375,4.137653931480646,7.441123230186104,2.492311905774474
1789317491291586600,8.801586669921875,-1.1678583689808846,-5.033380535933375,1.0511994171719998
1789317491301540600,8.81154052734375,1.867109630653262,0.5977683247506618,1.7714741045854985
1789317491311495400,8.821495361328125,-1.6932734051823615,0.2026940711647272,0.34650472233667967
1789317491321450800,8.83145068359375,-6.504947126445174,-3.663647595477104,-3.231650263163447
1789317491331405600,8.841405517578124,-0.6123199971944093,-1.8746394416362047,-1.3076859418660403
1789317491341359600,8.851359619140625,2.8937872585743665,-6.010998072609305,3.1901322578608986
1789317491351314400,8.861314453125,8.712398134499788,9.072327424946426,4.907973702588677
1789317491361269800,8.871269775390624,-0.7113572945296764,-0.8050321880489587,1.3435270705759526
1789317491371223800,8.881223876953126,-5.247780242460966,-2.6074972048342224,-2.6956691170230505
1789317491381178600,8.8911787109375,3.9692368084490295,3.737574416953325,0.4365923319537192
1789317491391133400,8.901133544921874,-4.64683036506474,-3.426989295390248,1.3973441470898686
1789317491401087500,8.91108740234375,-5.874769400998949,-2.782525270438194,-1.6092779018953443
1789317491411042800,8.921042724609375,-5.482703681579232,3.5157127039819955,-0.540730021167919
1789317491420997600,8.93099755859375,-2.8508289913356304,-6.973872213661671,0.8407753362771123
1789317491430951700,8.94095166015625,5.758603858730196,8.52231278501749,4.834187166365981
1789317491440906500,8.950906494140625,7.617049705934524,6.838123434522748,3.600099544674158
1789317491450861600,8.960861572265625,6.154792211037874,-2.0144524014741183,-0.33495814999304707
1789317491460815600,8.970815673828126,0.3786649705767631,-5.212373413515091,-3.158773827522993
1789317491470770700,8.980770751953125,-2.642566180127859,3.1883138102620836,-4.324363082528114
1789317491480725500,8.9907255859375,5.635953046095371,10.7553757887125,-1.9885808781147003
1789317491490680600,9.0006806640625,-4.499222805827856,-8.881558184853196,-2.733266734011471
1789317491500634600,9.010634521484375,0.0015197569131851195,-7.90441878708303,-3.329731574948132
1789317491510589700,9.020589599609375,-5.4727896058082575,4.752615383094549,1.528301454168558
1789317491520544500,9.03054443359375,-1.815258447384834,17.817718897509575,1.8410861316025255
1789317491530498800,9.040498779296875,-8.90206730439663,-0.7595318351119756,-2.741319984346628
1789317491540453600,9.05045361328125,-5.468538962626457,-7.110468549540639,-2.24020279244706
1789317491550408700,9.06040869140625,0.9996323846071958,-8.257133323845267,-1.1517262954778968
1789317491560362500,9.070362548828125,-0.6509352667927741,12.603752077323197,1.4259336972363292
1789317491570317600,9.080317626953125,5.991581424477696,4.337094553807377,-0.8185968222167342
1789317491580272600,9.090272705078124,4.211867168682813,-3.547323647776246,0.027399390513822435
1789317491590226700,9.100226806640626,-0.3502583757817745,-7.997543060982227,0.9954239731319248
1789317491600181500,9.110181396484375,0.22360534176826477,-5.674720875906944,1.60180230531767
1789317491610136600,9.120136474609374,4.211337007328868,3.7144179977715015,2.317273903298378
1789317491620090600,9.130090576171876,1.1248854886949062,1.8526362841427324,1.8072329618394374
1789317491630045700,9.140045654296875,-7.198776947590709,-3.0028374158799647,-1.0875286947250367
1789317491640000500,9.15000048828125,0.4036012589126825,-1.2643851447999477,-1.380824535574019
1789317491649955600,9.15995556640625,0.02743979558944702,6.870861921042203,1.8544857114017008
1789317491659909600,9.16990966796875,0.8849848456859588,1.053286233383417,-0.7989752991627901
1789317491669864700,9.17986474609375,-5.722857422566413,-3.416528691652417,-1.3906341280572116
1789317491679819500,9.189819580078124,1.9015175116896628,-0.15718553492128848,1.16714634825401
1789317491689773600,9.199773681640625,2.6741338693022727,-7.681496751403808,0.8843765775945037
1789317491699728600,9.209728759765625,1.198273965510726,6.137351246893406,0.17212438005171715
1789317491709683700,9.21968359375,1.4182874202668665,-1.1778957788705826,-4.221717531567812
1789317491719637800,9.2296376953125,-3.7014597319990394,-6.322445948481559,-3.2377935882240534
1789317491729592600,9.239592529296875,3.013051935902238,3.6494407909482716,0.597909413721785
1789317491739547600,9.249547607421874,2.397942600250244,2.4360785618990657,2.1053835492432116
1789317491749501700,9.259501708984375,-6.835776579135656,7.075317156660557,2.1239497180253264
1789317491759456500,9.26945654296875,-2.4108418293118477,-4.478661663836241,-1.4329098198592662
1789317491769411600,9.27941162109375,-1.575475293275714,4.159499268063903,2.6899069002345204
1789317491779365600,9.28936572265625,2.2617495844751594,-4.859108257132768,1.6707967849582432
1789317491789320700,9.29932080078125,5.298434324899316,-0.9988000254362821,-0.9891782836753874
1789317491799275500,9.309275634765624,-0.18472060757875441,-1.5006956543624401,-1.485756005514413
1789317491809229600,9.3192294921875,3.3776141468465326,-1.1471394060790538,-1.1621637375358491
1789317491819184600,9.3291845703125,6.33309418374598,1.0417015940517187,0.7492793211668729
1789317491829139700,9.3391396484375,3.617998189458251,-6.926824631282686,0.1291842329915613
1789317491839093800,9.34909375,4.735854802429675,-2.913275218376517,-0.18145334941111504
1789317491849048600,9.359048583984375,-7.377014622890949,2.8253730630397795,1.7513585144042967
1789317491859003600,9.369003662109375,-0.5153378788232803,0.3216413531064987,-0.2879679968897253
1789317491868958700,9.378958740234374,-6.707407388854026,1.1181921285361052,1.1436236530430615
1789317491878913300,9.388913330078125,-4.201229454812407,-5.062375159749388,0.7229585927352309
1789317491888868000,9.3988681640625,0.5597147806882858,2.159102279949188,1.4105474736645818
1789317491898823200,9.4088232421875,-0.5843722520828247,5.176802918440103,1.7764561307817697
1789317491908777200,9.418777099609375,5.579136349374055,0.6154618023514747,0.3582682984318584
1789317491918732300,9.428732177734375,-0.2181575977563858,-3.2832723138511177,0.17805566979683934
1789317491928687000,9.43868701171875,2.6234002918869255,0.25513679058551786,-0.5958022123094647
1789317491938641400,9.448641357421875,0.405239673769474,-0.4048556428879499,-0.3294162979569286
1789317491948596200,9.45859619140625,0.751394121363759,-5.7441895489305255,0.6648575552918017
1789317491958551300,9.46855126953125,3.4276287623375654,2.718986571985483,2.006950939802825
1789317491968505000,9.478505126953126,-7.302371762099861,4.930454414466023,0.2292426170028746
1789317491978460400,9.48846044921875,-3.035508097860217,-3.2085704163491724,-3.960392407736182
1789317491988415200,9.498415283203125,-0.8170411902725696,1.8142881410479546,-0.5165278192602097
1789317491998369300,9.508369384765626,-1.186194236138463,1.836281361669302,0.18767025116458533
1789317492008324000,9.518323974609375,0.5099462489128113,-3.926891704672575,-1.978734314621985
1789317492018279400,9.528279541015625,-0.7747077769339085,2.513582072818279,-0.35021409824863076
1789317492028233200,9.538233154296876,5.6555731078445906,-4.230487698000669,-1.1797991282738745
1789317492038188300,9.548188232421875,4.721944350498914,-2.0171119760721923,-0.782028621341288
1789317492048143000,9.55814306640625,3.072491382342577,0.1217617548406124,-1.6440608998544513
1789317492058098400,9.568098388671874,2.304632448390126,3.175211752104759,-2.273634083536267
1789317492068052200,9.57805224609375,-1.5538544130980967,0.8043611569195985,-2.264141448047757
1789317492078007300,9.58800732421875,-6.175999249717592,-6.104924895063042,-1.0499346579331903
1789317492087962000,9.597962158203124,-2.5830992611587047,6.360985230234265,2.3546954330675303
1789317492097916200,9.607916259765625,-3.4777409929841756,3.7417449806362386,1.2027386167693883
1789317492107871200,9.617871337890625,1.1485142015635967,-5.982336041748523,-0.3759435827888548
1789317492117826300,9.627826416015624,3.301131211146712,5.91615355078876,2.205866953733563
1789317492127780000,9.637780029296875,0.6433657083213329,0.9159785343647002,-0.9907749052170663
1789317492137735200,9.647735107421875,1.5740420456022024,1.983127873405814,-2.7311586558163166
1789317492147690200,9.657690185546874,1.8976812945276498,-7.538236281460523,-0.8138149947676807
1789317492157644300,9.667644287109376,0.264511937174201,1.5375976903021336,3.1093387654855844
1789317492167599000,9.67759912109375,-3.38423970246613,-2.389305704808235,2.511471072013676
1789317492177554200,9.68755419921875,-1.040831825479865,3.041241088554263,2.7155174345701933
1789317492187508200,9.69750830078125,-1.2572984014093875,3.6645775698035954,2.4614707773089406
1789317492197463300,9.70746337890625,-5.527396225264668,-1.0579144777059555,0.4687281033396721
1789317492207418000,9.717418212890625,-4.140207707616686,0.7943816146969794,-0.6850844238277525
1789317492217372200,9.7273720703125,0.5894973400115966,1.2193091547548771,0.7170556523017585
1789317492227327200,9.7373271484375,3.8920325727373357,-1.8806787218004464,1.7789181369811295
1789317492237282300,9.7472822265625,3.822193897357583,0.6793155581027269,2.9030823256641622
1789317492247236400,9.757236328125,-3.6014024439662693,-0.7465197933256625,0.134469699113816
1789317492257191200,9.767191162109375,1.9471078809976576,0.9870289236217736,-2.2593828553438184
1789317492267146000,9.77714599609375,-1.8358289417266844,-4.900966454175115,-0.06834091110266745
1789317492277101300,9.787101318359374,-0.1971340989500284,-3.5506752962917085,0.2158569926638156
1789317492287055400,9.797055419921875,0.6275777720808983,1.9769225890249014,0.8276063503634185
1789317492297010200,9.80701025390625,-2.412577859324217,5.97739975439012,1.2518174857802689
1789317492306965000,9.816965087890624,1.0061655857682228,2.0827140367954966,-0.9758779264669865
1789317492316919300,9.826919189453125,0.6877180602669716,-4.001988738971948,-1.3860869861468672
1789317492326874400,9.836874267578125,4.227274581173062,-0.4968979667693376,-1.0481683058477937
1789317492336829200,9.8468291015625,8.342206393235921,0.8018804460197687,-0.3003758622378111
1789317492346783200,9.856783203125,2.225171958184242,1.0341115773141383,1.0694896916221828
1789317492356738000,9.866738037109375,-7.308161451417207,-0.31202421445548534,-1.084484577788785
1789317492366693400,9.876693359375,-4.430941296762228,-7.03567838923335,-1.8925106138914822
1789317492376647200,9.886647216796876,-2.368106264913082,-0.16950082661509513,4.4132457733348005
1789317492386602200,9.896602294921875,4.862209145757555,4.445768863537907,4.613359472617507
1789317492396557000,9.90655712890625,-0.9369470881134271,5.0483162392586465,2.5605177192553876
1789317492406511400,9.916511474609376,-1.6561135950893162,4.372100985258817,0.32468510471656914
1789317492416466200,9.926466064453125,1.6460405293643474,-2.0759014341712,-0.3037096097704023
1789317492426421200,9.936421142578125,-1.9575725763887166,-5.283854595404863,-0.4950506584022194
1789317492436375000,9.946375,1.5423644663125275,-4.814826632335782,-0.2606901138637215
1789317492446330400,9.956330322265625,3.269015824961662,1.994776810145378,1.1497350485954434
1789317492456285200,9.96628515625,3.3380724100530146,-6.488634874069691,1.4178732865080237
1789317492466240300,9.976240234375,7.1556819022297855,2.3457529788076874,4.672839251068234
1789317492476194000,9.986194091796875,-3.2785172282785173,6.651292118400335,3.155985658109188
1789317492486149400,9.9961494140625,-9.444148813238739,-8.312471180185675,-4.6079383243516085
1789317492496104200,10.006104248046874,-0.6298521467536687,-5.2260260912925,0.15433197212107477
1789317492506058200,10.016058349609375,2.4250866277635095,-2.4926801545649764,3.6017826754555102
1789317492516013000,10.026012939453125,0.35679508407413957,8.545495507684349,0.19643091911673544
1789317492525968400,10.035968505859374,1.781270837587118,1.971801592749357,-2.8679584053128955
1789317492535922200,10.045922119140625,4.114616170242429,-6.173454241409898,-1.1563888804614544
1789317492545877200,10.055877197265625,4.1205630959481,-0.4853308630943298,1.0235726476430893
1789317492555832000,10.06583203125,-4.587465737426281,-4.833469373485445,-0.19252623982839284
1789317492565786000,10.0757861328125,-5.463774524703622,4.198205138555169,-0.30651107705719766
1789317492575741200,10.0857412109375,-1.4180822530835866,-2.6155466557770968,-0.07240311904028057
1789317492585696300,10.0956962890625,-5.257474538001418,0.7956517807632685,2.944059648218751
1789317492595650300,10.105650390625,4.240069180816412,0.9960574487298727,2.0987854661524294
1789317492605605000,10.115605224609375,-3.4230946260392665,4.8177954190135,0.03019683921262622
1789317492615560200,10.125560302734375,-3.9755817935615774,6.134897424000501,-3.188541189277172
1789317492625514200,10.13551416015625,1.1032950036555529,-8.87079012260139,-2.235653896971047
1789317492635469300,10.14546923828125,2.647055308240652,-8.56140034830272,2.1867793914258478
1789317492645424000,10.155424072265625,13.044363508725166,11.211952851009368,4.224904344910383
1789317492655378200,10.165378173828126,4.0110248628646135,-2.531534493616223,1.4113292716920376
1789317492665333200,10.175333251953125,-4.236292000365257,-3.354201707077026,-0.4609703288197517
1789317492675288300,10.185288330078125,5.078811915287375,-4.310763011720776,-0.9282265329759567
1789317492685243100,10.1952431640625,0.6202583889782428,10.434155291366576,2.357179212707281
1789317492695197200,10.205197265625,-13.703138383102416,-4.205382482838631,-1.992736536489427
1789317492705152300,10.21515234375,-8.259803419837356,0.625222733387351,-1.8851693112179635
1789317492715107300,10.225107421875,-6.235507669740915,4.6951147957623,3.1531910589545964
1789317492725061000,10.23506103515625,3.2538825532376765,-8.12849700706005,2.4555755817905065
1789317492735016200,10.24501611328125,10.3646977242589,4.396646228450536,4.885075057560205
1789317492744971300,10.25497119140625,11.955076572155951,5.098128025653958,2.154667804633081
1789317492754925300,10.26492529296875,-0.7798240970343351,0.6856693110436201,-4.3794884651616215
1789317492764880100,10.274880126953125,-1.0043675964355467,-5.938165476110577,-6.920655002737045
1789317492774835200,10.284835205078124,2.1006302172362803,-6.148939977878332,-0.2134422596722841
1789317492784789200,10.294789306640626,0.37278117323517795,-0.45239013200104233,2.4689015118315814
1789317492794744300,10.304744384765625,-8.615426537522673,7.136680849161744,1.672225940978527
1789317492804699100,10.31469921875,-4.937916420909762,7.030237659484148,0.1238747284065932
1789317492814653200,10.324653076171876,0.11862754846811294,9.885208572930097,3.0289085534647104
1789317492824608300,10.334608154296875,-2.7133330762684342,-8.654788826096057,-0.30232926132790744
1789317492834563300,10.344563232421875,-0.46346974442005157,1.2932201941400765,-3.4732334524318573
1789317492844517000,10.35451708984375,1.0491548326671123,-4.551096785449982,-4.722398816268146
1789317492854472200,10.36447216796875,4.603014019691944,-1.190317453548312,-0.6227114812187851
1789317492864427000,10.374427001953125,5.113266558074951,0.8361001110076903,2.018951466459036
1789317492874380800,10.384380859375,0.5024450795024633,-2.31760591173172,1.239074470193684
1789317492884335900,10.3943359375,-2.6789871545523405,-3.287552767649293,0.15942856460772453
1789317492894291000,10.404291015625,1.8223387610346078,-0.08009586549997329,1.3944938722252844
1789317492904245000,10.414244873046876,0.01158931550681591,4.728453586262464,4.536121919158101
1789317492914199800,10.42419970703125,-1.7457359983474015,2.101311185237765,1.880304627791047
1789317492924155000,10.43415478515625,-5.699098945838212,2.8939865805387495,-2.868466939356923
1789317492934110000,10.44410986328125,-2.8059657672584057,2.515249713769555,-3.1416178177997467
1789317492944064000,10.45406396484375,0.8821241955578326,-5.488940530142187,-0.3481534393917769
1789317492954018800,10.464018798828125,-0.9955559289485215,-1.0586889692097903,-0.18771350578442214
1789317492963974000,10.473973876953124,-0.06589373714625835,0.008781272348761558,-1.6693934940315782
1789317492973927700,10.483927734375,2.6301047579616306,-6.914840763500332,-1.3789504122652112
1789317492983883000,10.493883056640625,6.396896501570939,0.1593324838221073,1.4154540965370832
1789317492993837800,10.503837890625,7.106077036583423,4.879188922131061,-0.6497657115567476
1789317493003792000,10.5137919921875,-3.5371558895051476,3.2092268344312904,-5.122303266489506
1789317493013746700,10.52374658203125,-2.431141690018773,-2.449010524186492,-5.471275694113969
1789317493023702000,10.533701904296874,-2.8989053322404623,-0.5682166515737772,0.6325932621553539
1789317493033655800,10.54365576171875,-1.1184171694636345,-3.6907448612391947,1.0919803403716535
1789317493043611000,10.55361083984375,-2.7220126418083903,5.982563420763611,-0.551767621076107
1789317493053565700,10.563565673828125,-0.9970984822154044,4.000459045186639,-1.7234113538146019
1789317493063519700,10.573519775390626,-0.21716917124092577,-1.505274214324355,-2.162628992770612
1789317493073474800,10.583474853515625,-0.4310638508558273,1.2552391307920217,-1.4923277851201593
1789317493083430000,10.593429931640625,0.5722504371345043,-5.7060530027598135,-2.0037445449769495
1789317493093383700,10.6033837890625,-1.9134172083199024,-3.6881869934499263,-0.9903772111363709
1789317493103338800,10.6133388671875,2.509283498841524,-2.9080297189384696,1.5198919377416371
1789317493113293800,10.6232939453125,8.242849946948885,0.40792555185258383,3.0041043670758603
1789317493123247900,10.633247802734376,13.152429915690421,9.02247004584372,0.6021649522744119
1789317493133202700,10.64320263671875,-10.528873556458949,9.29746479858756,-4.507955562859773
1789317493143157800,10.65315771484375,-20.07926682193279,-13.113810554438828,-6.195161046305299
1789317493153111800,10.66311181640625,4.706780683636665,-6.23790304044485,4.778634790492058
1789317493163067000,10.67306689453125,6.141358144447207,-9.046187021517753,2.847246748934686
1789317493173021700,10.683021728515625,3.7345705589622256,14.515570033752917,3.780947694733739
1789317493182976800,10.692976806640624,1.4410978024899959,8.466216219264268,-0.6163242643997073
1789317493192930800,10.702930908203125,6.52422056671381,-3.231219470530748,-3.671467913839221
1789317493202886000,10.712885986328125,-1.066382446321845,-6.986994730085134,-0.8883595828160643
1789317493212840700,10.7228408203125,-0.9009019612640142,-5.340903347316384,-1.7617258869007228
1789317493222794800,10.732794677734375,-5.871460422581434,7.278166126126051,-0.9705316700682044
1789317493232749800,10.742749755859375,-5.0331420510023825,0.36267245167493817,-0.26469313896000385
1789317493242705000,10.752704833984374,-6.633613838368654,0.37120471769869323,0.8213155065909028
1789317493252659000,10.762658935546876,-1.49239661257267,-0.4278010496675968,-1.4675728447005152
1789317493262613800,10.77261376953125,0.6488724890440702,2.146489466613531,-2.700267550729215
1789317493272568800,10.78256884765625,1.8781395587116478,0.30975334691405293,-4.4533165024384855
1789317493282523000,10.79252294921875,1.9463380656689404,-5.4559676503449674,-3.8539612007573245
1789317493292478000,10.80247802734375,3.2860973081439733,1.4566490073651075,-0.15262564312722532
1789317493302432800,10.812432861328125,5.571915750470757,0.5324450809687375,-0.4058048333715647
1789317493312386800,10.82238671875,2.3330437193602322,-1.5924182447701691,-0.9159680129706859
1789317493322342000,10.832341796875,0.37151802143156526,-5.952583877563476,-1.4348042553037403
1789317493332297000,10.842296875,1.8396569755822418,1.5284054990649223,-0.7315999451566487
1789317493342250800,10.852250732421876,-2.012865424543619,2.138249461534619,-0.6991228129871189
1789317493352205800,10.862205810546875,-1.3482774799734354,1.7278502130448816,-0.36155765883345153
1789317493362161000,10.872160888671875,-2.1214888808697463,1.7031220145016908,0.3237733966991305
1789317493372115000,10.882114990234374,-2.213044298017025,-5.208467053726316,-0.2442492301398888
1789317493382069800,10.89206982421875,1.514811857998371,1.1171300522625445,1.7901031094707547
1789317493392024800,10.90202490234375,-0.4239011196196079,7.817108167898654,2.0242299913838506
1789317493401978600,10.911978515625,0.5250555552393198,2.8300784642517565,-0.33369784773364664
1789317493411934000,10.921933837890625,-3.2560943840682506,-14.917910478949546,-2.063770413003117
1789317493421888800,10.931888671875,1.8001164078325032,-3.385194811233878,0.0767546105143614
1789317493431842800,10.9418427734375,4.409177793243527,7.839245765426755,2.277880488934368
1789317493441797600,10.951797607421875,3.183320824280381,9.912520942747593,0.5164803268566728
1789317493451753000,10.9617529296875,-2.296403549227118,4.932051912790537,-2.4508237110882996
1789317493461706800,10.971706787109374,-7.032260105222464,-12.58944531955123,-1.209824483377114
1789317493471661800,10.981661865234376,-1.213591361629963,-4.789791559800506,3.0918817269891496
1789317493481616600,10.99161669921875,1.1790402727305889,5.317777907794714,3.9710871124908325
1789317493491572000,11.001572021484375,1.1157008962422608,2.6902292640566823,1.4061816796705127
1789317493501525800,11.01152587890625,3.9251170962154864,4.528749929085373,-0.496930334668979
1789317493511480800,11.021480712890625,1.224113340166211,-9.21775471753478,-2.882803215484321
1789317493521435600,11.031435546875,3.9005525638014076,0.8363380114167929,-3.845377204546332
1789317493531390000,11.041389892578126,2.444174190071225,-2.807622886815667,-3.557053014630079
1789317493541344800,11.0513447265625,-1.513831030267477,-0.11901917813420294,-0.17422971830051392
1789317493551299800,11.0612998046875,-1.9928098939865826,5.069903801688552,1.0467388575665653
1789317493561254000,11.07125390625,-7.928473616409302,-0.5618325034946203,0.30240555970082056
1789317493571208700,11.081208740234375,-5.017214414030313,2.0432886198580262,-0.19909217421524225
1789317493581163800,11.091163818359375,-2.4881629694014786,-0.2589700851380825,0.8646812586519866
1789317493591117800,11.101117919921874,-4.038160122549534,4.761531679999828,-1.2515054972216486
1789317493601073000,11.111072998046875,-4.501742679694295,2.7652450498133896,-4.415912654456496
1789317493611027700,11.12102783203125,1.0135083497464656,-1.5547785422056912,-0.4011080903900787
1789317493620982000,11.13098193359375,1.4482757312953471,-8.561457046926021,3.190769678981602
1789317493630936800,11.140936767578125,8.349782381448149,1.870685151052475,4.742545824500918
1789317493640892000,11.150891845703125,10.21920788782835,1.2153145321607588,4.35928475830555
1789317493650845700,11.160845703125,7.97933345055282,3.043230801066756,3.868568402780592
1789317493660801000,11.170801025390626,-0.1646001950919628,-2.3223346938192844,0.9396663570094853
1789317493670755800,11.180755859375,-6.301025559312105,-1.198051847192645,-2.677398424056172
1789317493680710000,11.1907099609375,-5.17809588086009,-4.709693940734863,-2.377294802888483
1789317493690664700,11.200664794921876,-4.609695689412951,-2.852841500201821,1.6858998076744376
1789317493700620000,11.2106201171875,-3.4692461363613605,8.819571976539493,3.390239527402818
1789317493710574800,11.220574951171875,-5.1157273952305315,7.522050285813212,2.4513999035410583
1789317493720529000,11.23052880859375,-1.1134686071455477,-3.603547639301419,0.2058945477064699
1789317493730483700,11.240483642578125,2.822998150601983,-5.478735946992039,0.5717088776037097
1789317493740439000,11.25043896484375,6.075277944818139,-4.486627528148889,0.10471154357939957
1789317493750392800,11.260392822265626,6.152730017811059,7.408882756316661,0.3394165541740134
1789317493760348000,11.270347900390625,1.8892776233196258,-4.233758682495355,-2.9027783742815254
1789317493770302700,11.280302734375,-0.9573463175415993,-4.650238127681613,0.011067154796235263
1789317493780256800,11.2902568359375,1.922643886348605,0.5707675051003694,3.109425274725258
1789317493790211800,11.3002119140625,3.927383872103691,-6.43665801859498,1.6125038782045245
1789317493800167000,11.3101669921875,6.320819808584451,5.196656788945198,3.876694426091015
1789317493810120700,11.32012060546875,-1.3594576301574706,6.189155668410659,1.8284328401260077
1789317493820075800,11.33007568359375,-6.337990723615884,1.9192483986914157,-4.205804507642984
1789317493830030800,11.34003076171875,-4.912994161099196,0.5085761296033859,-1.6452303820252419
1789317493839985000,11.34998486328125,-5.438358928418159,-17.83412058173418,0.7964275874413549
1789317493849939700,11.359939697265625,1.8332272347956895,4.617778458103538,1.4618836931481956
1789317493859894800,11.369894775390625,0.4060463139772415,-3.5830262447983023,-0.31288872233033177
1789317493869848800,11.379848876953124,4.4237890869200225,7.2371952333122485,2.7675153328329323
1789317493879803400,11.389803466796875,6.3533630647927515,3.3643320559471843,0.39718547358624634
1789317493889758500,11.399758544921875,-5.301406618708372,-8.096500863340497,-4.101712557266652
1789317493899712300,11.409712158203124,-5.11283927257359,3.0003011754006144,-1.8321742186114192
1789317493909667600,11.41966748046875,3.5875872691035267,-5.377075315415859,-0.7827998979747295
1789317493919622400,11.429622314453125,1.9052309792548416,9.71270914902091,2.974744124817848
1789317493929576400,11.439576416015624,-5.504416916215419,-1.305651221168041,2.072251094970107
1789317493939531300,11.44953125,2.4506208819925783,2.726360315623879,0.17473982324711979
1789317493949486600,11.459486572265625,-2.4709400319218635,-0.20261866784095764,0.4075456856895238
1789317493959440400,11.4694404296875,3.3976164859116076,-4.986905200484395,-1.3157472293771804
1789317493969395500,11.4793955078125,7.9914663714170455,4.18854182267487,-0.7506693142205476
1789317493979350300,11.489350341796875,1.4111416401654482,-1.4132915116757154,-0.8814396473597734
1789317493989304300,11.49930419921875,-3.1885785986781117,0.05377250671982765,-3.100146866509318
1789317493999259400,11.50925927734375,-8.237784480252861,2.0114730934023854,-2.2035065082125365
1789317494009214500,11.51921435546875,-14.678949747139214,4.301622842931748,-0.8317246724024414
1789317494019169300,11.529169189453125,-5.645875889694691,-1.3457973535954952,1.8180961550287902
1789317494029123300,11.539123291015626,-2.0893185496270656,0.8413678222775459,1.8843980345845222
1789317494039078400,11.549078369140625,-1.8917168331652878,3.0019290688633915,-0.9253713627405464
1789317494049033500,11.559033447265625,2.2145412585765123,7.544721551826596,-1.4342505669437349
1789317494058987300,11.5689873046875,6.19010434743762,1.0948270350396632,-2.1174190010823306
1789317494068942300,11.5789423828125,4.713236727908253,-2.3458552701383826,-3.154062581092119
1789317494078897400,11.5888974609375,3.757438808852434,-6.719003718623519,-4.191417962633073
1789317494088851500,11.5988515625,7.488283625289798,-0.3791325880885124,-1.3067017531342804
1789317494098806300,11.60880615234375,7.225221302402019,-5.8156567022949455,0.8131670522529632
1789317494108761300,11.61876123046875,3.0320529889702796,2.0964561464220286,3.1086206803441048
1789317494118715400,11.62871533203125,-6.20112726123333,2.704461203026771,-0.8489195528313517
1789317494128670500,11.63867041015625,-5.144361369040608,-0.9657061496078968,-3.558298923037946
1789317494138625300,11.648625244140625,-4.268938132426142,-2.0974889966011045,2.00806576917693
1789317494148579300,11.658579345703124,0.869719472014904,0.24947978773713111,1.8171065594695508
1789317494158534400,11.668534423828126,-8.078005421707033,8.56793354946375,-1.7969044600486754
1789317494168489500,11.678489501953125,0.047529812937974925,-1.1209031410604715,-2.414922230493277
1789317494178443500,11.688443603515625,4.516574922645091,-4.74804383739531,1.816379852630198
1789317494188398300,11.6983984375,6.743874540507793,2.6372230655342337,1.6296055273920296
1789317494198353400,11.708353515625,-0.41566754428148267,3.0963094803035256,-1.2601157969176768
1789317494208307200,11.71830712890625,-0.47127194260358807,-1.3081810319066047,-3.006318535993993
1789317494218262500,11.728262451171876,1.9556196887552737,-6.880650909128785,-1.4235913718938826
1789317494228217300,11.73821728515625,-3.4262370157182214,-1.1956325110912323,1.9094918515697121
1789317494238171400,11.74817138671875,0.7173445522457361,8.39418558679819,-0.35964915833100675
1789317494248126200,11.758126220703126,-1.9069360296070574,2.340362517940998,-2.47772545427829
1789317494258081500,11.76808154296875,-0.8641536545813083,-1.9943787507385013,-0.10376297415029256
1789317494268035300,11.778035400390625,2.4648820470571517,-4.344412767866253,1.543603944979608
1789317494277990400,11.787990478515624,2.338276943838596,-3.65354705722332,1.4286946863822638
1789317494287945200,11.7979453125,2.7191888165593148,-1.9725334141552446,0.17854531647730618
1789317494297899500,11.8078994140625,-1.3454548237681387,-3.961064023387432,-1.5755369603350757
1789317494307854300,11.817854248046874,-1.2170756966143845,1.0441676919043064,-1.3734206890583038
1789317494317809400,11.827809326171876,1.1826292371332645,2.9720255135089158,0.08834339629821479
1789317494327763200,11.83776318359375,-0.17354864070117473,-5.7980935730755325,-0.25827380996961147
1789317494337718500,11.847718505859374,3.3169033652961253,4.830980479279161,2.005803961724788
1789317494347673300,11.85767333984375,-5.787338954827189,11.339473315507172,3.361121277207136
1789317494357628400,11.86762841796875,-3.8312680151730776,-1.377612880051136,-1.4259864503368735
1789317494367582200,11.877582275390624,-3.6500001783967018,-0.5161410118997096,-0.7021424530692398
1789317494377537500,11.88753759765625,2.7061954794734713,-7.469242240211367,0.6316843306168913
1789317494387492400,11.897492431640625,11.16416818652749,0.2458329556673765,-0.09586414719186723
1789317494397446400,11.9074462890625,10.293315911090373,-0.7968740160346031,-1.004883071677014
1789317494407401200,11.917401123046876,3.7690380612313743,2.081687616357207,-1.368139679915458
1789317494417356500,11.9273564453125,4.666024310356378,2.102486658757925,-4.809100948165357
1789317494427310600,11.937310546875,-6.519696367287636,-3.0798586962401866,-3.1498341497421265
1789317494437265400,11.947265380859376,-7.615316598531604,-1.2961813820332289,0.14167754813339561
1789317494447220200,11.95722021484375,-4.492387991371751,-1.294269410932064,0.7912609984584152
1789317494457174300,11.96717431640625,-8.725289180254936,6.3169736545503135,0.14671210823450237
1789317494467129300,11.97712939453125,-0.47401978000700473,7.081947388455271,0.11265095827654004
1789317494477084400,11.98708447265625,0.23820903666019438,-3.8881893413126467,-0.5204872974757104
1789317494487038500,11.99703857421875,1.1023188520997762,-1.3409434838235377,-2.944665212896466
1789317494496993300,12.0069931640625,2.3994489131599663,-2.993684972131252,-5.000564308002591
1789317494506948400,12.0169482421875,4.3609518147349355,-2.668281051620841,-3.0772397459134457
1789317494516902400,12.02690234375,4.720599365630745,-0.10375906516015529,-0.2941545035049319
1789317494526857500,12.036857421875,-2.6636282573789356,-1.975826610481739,-0.49247207661848513
1789317494536812300,12.046812255859376,1.2211632581889629,1.081029980355501,-1.3309579502515494
1789317494546766300,12.056766357421875,-0.038651509955525395,3.0085353352606297,0.5872896373668686
1789317494556721400,12.066721435546874,-2.8261639211565255,0.9278770619511604,0.9657283614397049
1789317494566676500,12.076676513671876,-5.4119554901391265,1.875425623577833,0.14550835846792906
1789317494576630300,12.08663037109375,-4.936014386680722,-1.6191326486945152,1.2298773105204104
1789317494586585300,12.09658544921875,-1.3615221614718436,-1.8613479983866215,3.129095897617936
1789317494596540400,12.10654052734375,-1.6751117255479095,0.4922486796587705,2.8840628601565954
1789317494606494500,12.116494384765625,2.2270435972750184,-1.2261907309621571,1.0542620926782489
1789317494616449300,12.12644921875,6.167764505335688,3.7460482307881113,1.4477591600753366
1789317494626404400,12.136404296875,0.45903380779922004,-2.0134107834666968,-0.13364837279357014
1789317494636358100,12.146358154296875,-4.129134524938464,1.942080992746353,-2.047785200624913
1789317494646313500,12.1563134765625,1.6059943501800298,1.2755629568964242,-0.2210368064545095
1789317494656268300,12.166268310546876,-4.072343547180295,0.5925210717469453,3.388747243018448
1789317494666223400,12.176223388671875,-5.330854246988892,1.9611708931416272,2.485565938645601
1789317494676177200,12.18617724609375,-3.486669564849138,2.1433909160763025,1.6091373243808746
1789317494686132500,12.196132568359374,0.8989759616374969,-5.194354941743612,-0.08943462560102343
1789317494696087300,12.20608740234375,4.2666520673155786,2.3907050502121447,0.8743879752825945
1789317494706041300,12.216041259765625,2.36769943767786,-1.077270335561037,-1.4277555058360099
1789317494715996200,12.22599609375,4.313219757223129,2.315406355860829,-3.1028929503470657
1789317494725951500,12.235951416015626,2.407785948872566,-7.24004536204636,-1.7849616549290717
1789317494735905500,12.245905517578125,-2.062980577799678,-1.8323960446685552,1.226072511409968
1789317494745860400,12.2558603515625,-2.1394483159303666,5.90125174973309,0.8992169307865202
1789317494755815200,12.265815185546876,-0.4754360765457153,-5.495590051159263,-0.3796780200768262
1789317494765769500,12.27576953125,4.377234841015935,3.506505899697542,2.3124369846612214
1789317494775724300,12.285724365234374,2.8425445625931025,2.829125693571567,0.6234088158331811
1789317494785679400,12.295679443359376,-5.750711644175649,3.2107331473410126,-4.324473557165265
1789317494795633400,12.30563330078125,0.9593950667649507,-0.29770225911438464,-4.268165979009867
1789317494805588500,12.31558837890625,-5.850588314944505,-5.810040031456947,1.1700394393470137
1789317494815543300,12.325543212890626,-0.8398451427549123,-0.002500584644079208,3.534175120128691
1789317494825497300,12.335497314453125,3.2270857317268846,-5.102756854498386,1.5460484155222773
1789317494835452400,12.345452392578125,3.996510599821806,4.308151367917657,2.141331060937047
1789317494845407500,12.355407470703126,-1.6824416300445795,5.100855989313125,0.10117628212533891
1789317494855361500,12.365361572265625,-2.2820652272731063,-3.048359980648756,-4.406859287168086
1789317494865316400,12.37531640625,-1.0855220310777425,-4.599561248889565,-2.536403268696368
1789317494875271400,12.385271484375,2.8151842619806526,-5.448957479321956,0.15215784295238555
1789317494885225200,12.39522509765625,3.0905116076797245,11.044015035927295,3.5949905310973524
1789317494895180300,12.40518017578125,-8.638013047862053,-7.3703405519545075,1.673611257857084
1789317494905135000,12.415135009765624,4.7151843548446895,-3.058473378384113,2.9833786821722983
1789317494915089400,12.42508935546875,6.230208978810906,2.957829230374098,4.902651338522136
1789317494925044200,12.435044189453125,2.521508189642429,-1.6264304044872522,0.5998619725616648
1789317494934999300,12.444999267578124,-5.020509948444366,3.2852339693129062,-2.6722432332500814
1789317494944953000,12.454953125,2.9107401469409466,-4.995293674123287,-3.839899942179024
1789317494954908200,12.464908203125,-3.051366761249304,3.5996173141151666,0.2558756262540817
1789317494964863200,12.47486328125,-5.238757562571764,0.982841408804059,0.7827349429797381
1789317494974818300,12.484818359375,2.042999866044521,-2.50628840867877,2.2012188356667757
1789317494984772000,12.494772216796875,2.0980466304838656,-3.184083625346422,5.3996337687045335
1789317494994727200,12.50472705078125,6.327167131784558,1.7912106323212384,3.654562371745705
1789317495004681500,12.514681396484375,-1.2423469159930944,4.900845458143949,0.8351227904081344
1789317495014636300,12.52463623046875,1.9498773457109928,-4.1174844191551205,-3.0673674634575843
1789317495024591000,12.534591064453124,-2.3160797250777483,1.943216718778014,-3.192164640471339
1789317495034545200,12.544545166015626,-9.554043604674934,-3.814287654277682,-2.878392997826636
1789317495044500200,12.554500244140625,2.4032325233519076,-0.7990969527810812,0.8455172701071947
1789317495054455300,12.564455322265625,2.1771996621757745,3.2559283798515795,5.105187296515703
1789317495064410000,12.57441015625,-3.283635301944613,2.4265906025856734,3.2183836620941757
1789317495074364200,12.5843642578125,-4.7045232600986955,3.7043110297769304,-0.996554584597051
1789317495084319200,12.5943193359375,-0.4429273071289062,-4.613365902358293,-1.2095659055061638
1789317495094274300,12.6042744140625,-0.3325210590392351,0.7802057898283005,-0.5318802866928279
1789317495104228400,12.614228271484375,0.3084177143961191,-5.430258624070882,-2.623306768384576
1789317495114183200,12.62418310546875,3.0934955919265743,-3.1711458178400993,-0.9096117758117616
1789317495124138200,12.63413818359375,8.439011401474476,3.7732273296147585,2.1777878373272714
1789317495134092300,12.64409228515625,4.924422733086347,5.911231291955709,2.4026630529008806
1789317495144047400,12.65404736328125,-3.3405098663330075,8.215213167482615,-0.6330795843675733
1789317495154002200,12.664002197265624,-5.763574048358202,-12.321770534431934,-2.6175536116853353
1789317495163956200,12.673956298828125,-1.317625152078271,-1.2475327941983938,1.5601394847169519
