time,seconds_elapsed,z,y,x
1789317482541403600,0.051403564453125,-0.1574118286371231,-0.9614906907081604,-0.1852898895740509
1789317482551359000,0.06135888671875,0.17980818450450897,0.6173029541969299,-0.5535906553268433
1789317482561313800,0.071313720703125,0.11979811638593674,1.2208055257797241,-0.5880610346794128
1789317482571267800,0.081267822265625,-0.5364086627960205,0.7203999161720276,-0.008338944986462593
1789317482581222700,0.09122265625,-1.042594313621521,-0.9144374132156372,0.9098145961761475
1789317482591178000,0.101177978515625,-0.685882568359375,-1.4110721349716187,1.0342071056365967
1789317482601132800,0.1111328125,0.5214537978172302,0.935394287109375,-0.44961944222450256
1789317482611086800,0.1210869140625,1.1302273273468018,0.9974674582481384,-1.0786153078079224
1789317482621041700,0.131041748046875,0.2885715365409851,1.190582513809204,-0.5657128691673279
1789317482630997000,0.1409970703125,-0.7716213464736938,-0.5979880690574646,-0.10721638053655624
1789317482640951000,0.150950927734375,-0.962660551071167,-0.6360198855400085,-0.7604929804801941
1789317482650905900,0.16090576171875,-0.3995015025138855,-0.5065237283706665,-0.35951218008995056
1789317482660860700,0.170860595703125,0.04998869076371193,-0.1903308928012848,0.7078148722648621
1789317482670816000,0.18081591796875,0.06422052532434464,0.9823508858680725,0.9251776933670044
1789317482680770000,0.19077001953125,-0.1680673062801361,-0.07630620896816254,0.9242226481437683
1789317482690724900,0.200724853515625,-0.3646667003631592,-0.7816941738128662,0.3951173424720764
1789317482700679700,0.2106796875,-0.2852701246738434,-1.371754765510559,-0.42620500922203064
1789317482710634000,0.220634033203125,-0.31259575486183167,-0.8018997311592102,-0.43599945306777954
1789317482720588800,0.2305888671875,-0.4022521376609802,0.4905960261821747,0.1442790925502777
1789317482730543900,0.2405439453125,-0.1800571233034134,0.9282415509223938,0.08538415282964706
1789317482740498700,0.250498779296875,-0.065730020403862,2.0838325023651123,-0.749047577381134
1789317482750452700,0.26045263671875,-0.3160398602485657,0.4566577076911926,-1.2192878723144531
1789317482760407800,0.27040771484375,-0.8630111217498779,-1.5265696048736572,-0.4347973167896271
1789317482770363000,0.28036279296875,-0.881014347076416,-1.8292466402053833,0.6131288409233093
1789317482780317000,0.29031689453125,-0.06815896928310394,-0.20885959267616272,0.8428800106048584
1789317482790271700,0.300271728515625,0.6161624789237976,0.5168305039405823,0.6769298315048218
1789317482800226800,0.310226806640625,0.25981152057647705,0.11968684941530228,0.484407514333725
1789317482810182000,0.320181884765625,-0.9209271669387817,-0.18752127885818481,1.1618142127990723
1789317482820136000,0.330135986328125,-1.5332190990447998,-0.46773430705070496,1.3843801021575928
1789317482830090800,0.3400908203125,-0.6809833645820618,1.4520663022994995,-1.052847146987915
1789317482840045800,0.3500458984375,0.3087681531906128,0.6919823288917542,-2.385763168334961
1789317482850000000,0.359999755859375,0.3697900176048279,0.17030656337738037,-2.668482780456543
1789317482859955000,0.369954833984375,-0.46844419836997986,-0.4812336564064026,-1.3265587091445923
1789317482869910000,0.379909912109375,-1.0105221271514893,-1.5506839752197266,0.846059262752533
1789317482879865000,0.389864990234375,-0.5770457983016968,-0.12925690412521362,1.546968936920166
1789317482889819100,0.399819091796875,0.07586455345153809,0.5433792471885681,1.6278843879699707
1789317482899774000,0.40977392578125,-0.052878785878419876,0.40702036023139954,1.1390291452407837
1789317482909729000,0.41972900390625,-0.6812503933906555,-0.0073144943453371525,0.6005886793136597
1789317482919683000,0.42968310546875,-0.588790237903595,-1.4798521995544434,-0.28046169877052307
1789317482929638100,0.43963818359375,-0.06075923517346382,-1.9413689374923706,-0.9488728642463684
1789317482939593000,0.449593017578125,0.02458016201853752,0.02713644690811634,-0.2998115122318268
1789317482949548000,0.459548095703125,0.14738649129867554,1.4988360404968262,-0.5197092890739441
1789317482959502000,0.469502197265625,-0.06604776531457901,1.831482172012329,-0.5877812504768372
1789317482969457200,0.47945703125,-0.4475371241569519,-0.050760746002197266,-0.4942064583301544
1789317482979412000,0.489411865234375,-0.6613735556602478,-1.5545368194580078,-0.5225046277046204
1789317482989366000,0.499365966796875,-0.48210954666137695,-1.1025214195251465,0.3976026475429535
1789317482999321000,0.509321044921875,0.2294447422027588,-0.22622692584991455,1.068953037261963
1789317483009276200,0.519276123046875,0.44775986671447754,0.7003784775733948,1.234627366065979
1789317483019231000,0.52923095703125,0.032644689083099365,0.5153372287750244,0.6337243318557739
1789317483029185000,0.53918505859375,-0.5351711511611938,-0.44533416628837585,0.009438162669539452
1789317483039140000,0.54914013671875,-0.7051770091056824,-1.4919428825378418,0.09751395881175995
1789317483049095200,0.55909521484375,-0.26847922801971436,-1.3099523782730103,-0.07838907092809677
1789317483059049200,0.56904931640625,0.4240310490131378,-0.15887364745140076,-0.33519265055656433
1789317483069004000,0.579004150390625,0.6640931367874146,1.4048117399215698,-0.254489004611969
1789317483078959000,0.588958984375,0.29488319158554077,1.31221342086792,-0.3149084150791168
1789317483088914200,0.5989140625,-0.28438305854797363,0.8603447079658508,-0.5994760990142822
1789317483098868200,0.6088681640625,-0.3995741009712219,-0.02295365184545517,-1.039699673652649
1789317483108823000,0.618822998046875,-0.11631597578525543,-1.620513916015625,-0.8885874152183533
1789317483118778000,0.628778076171875,0.3274630606174469,-0.8501282930374146,-0.33886224031448364
1789317483128732000,0.63873193359375,0.7325496077537537,-0.2948016822338104,0.7652415037155151
1789317483138687200,0.648687255859375,0.43952837586402893,0.3167807459831238,1.838805913925171
1789317483148642000,0.65864208984375,-0.11929942667484283,0.8258231282234192,1.4095044136047363
1789317483158597000,0.66859716796875,-0.29406672716140747,-0.3786218762397766,0.7091492414474487
1789317483168551000,0.678551025390625,-0.004441901110112667,-1.0258268117904663,-0.4011767506599426
1789317483178506200,0.68850634765625,0.4821850061416626,-0.4318156838417053,-1.401031494140625
1789317483188461000,0.6984609375,0.9532437920570374,0.08906842023134232,-1.362597107887268
1789317483198415000,0.7084150390625,1.018349528312683,0.7060418725013733,-0.5087288022041321
1789317483208370000,0.718369873046875,0.6772487759590149,0.6724656224250793,-0.04897983372211456
1789317483218325200,0.7283251953125,0.44283226132392883,1.8106637001037598,-0.7909111976623535
1789317483228280000,0.738280029296875,0.22520029544830322,-0.8066897988319397,-0.661209225654602
1789317483238234000,0.748234130859375,-0.2223292738199234,-0.6271181702613831,0.19673074781894684
1789317483248189000,0.75818896484375,-0.04642673581838608,-1.322284460067749,1.2618627548217773
1789317483258144300,0.768144287109375,0.6956950426101685,-0.8371104001998901,1.746141791343689
1789317483268098000,0.77809814453125,1.2499500513076782,0.1670604944229126,1.4927185773849487
1789317483278053000,0.78805322265625,1.323027491569519,1.0762794017791748,0.38901200890541077
1789317483288008000,0.798008056640625,0.7657375931739807,0.920634925365448,-0.9908263087272644
1789317483297963300,0.80796337890625,-0.24055489897727966,-0.07348500192165375,-1.2913709878921509
1789317483307917000,0.8179169921875,-0.6891082525253296,-0.9822447896003723,-0.8170949220657349
1789317483317872000,0.8278720703125,-0.0450427271425724,-0.3387094736099243,-0.6179757118225098
1789317483327827000,0.837826904296875,1.021318793296814,2.826293706893921,-0.547928512096405
1789317483337781200,0.84778125,1.3954790830612183,1.1277693510055542,-0.4652451276779175
1789317483347736000,0.857736083984375,0.4497033953666687,-0.6715590953826904,-0.1677785962820053
1789317483357691100,0.867691162109375,-0.3571723401546478,-2.031442880630493,1.0279591083526611
1789317483367646000,0.87764599609375,-0.16002251207828522,-1.1084437370300293,1.940171480178833
1789317483377600300,0.887600341796875,0.5802521109580994,-0.06770892441272736,1.8942694664001465
1789317483387555000,0.89755517578125,0.9575350284576416,1.0816806554794312,1.0000460147857666
1789317483397510100,0.90751025390625,0.9148661494255066,0.7600950002670288,-0.2514464259147644
1789317483407465000,0.91746484375,0.5177075862884521,-0.3337959945201874,-1.4353103637695312
1789317483417419300,0.927419189453125,-0.07507076114416122,1.4078749418258667,-1.9634144306182861
1789317483427374000,0.9373740234375,-0.11249925941228867,-0.21802309155464172,-1.39584219455719
1789317483437329200,0.9473291015625,0.16492995619773865,-0.4204963147640228,-0.8740913271903992
1789317483447283000,0.957282958984375,0.5443149209022522,0.07596807926893234,0.23653775453567505
1789317483457238300,0.96723828125,0.8768427968025208,0.3363722264766693,1.2475395202636719
1789317483467193000,0.977193115234375,0.8707994222640991,0.7163974642753601,1.3012970685958862
1789317483477148200,0.987148193359375,0.35763272643089294,-0.6029636859893799,0.755000650882721
1789317483487102000,0.99710205078125,-0.18516021966934204,-1.2509995698928833,0.26213371753692627
1789317483497057300,1.007057373046875,-0.08431608229875565,-0.9030525088310242,-0.07702958583831787
1789317483507012000,1.01701220703125,0.40028661489486694,1.2351419925689697,-0.35369303822517395
1789317483516966100,1.026966064453125,0.7664813995361328,2.0214688777923584,-0.5827488899230957
1789317483526921000,1.0369208984375,0.5903010368347168,0.7947190403938293,-0.6201576590538025
1789317483536876300,1.046876220703125,0.11141542345285416,-0.49323195219039917,-0.7057614922523499
1789317483546831000,1.0568310546875,-0.08707424998283386,-0.893992006778717,-0.41754522919654846
1789317483556785200,1.06678515625,0.2565033435821533,-0.11219679564237595,-0.006175543647259474
1789317483566740000,1.076739990234375,0.5275539755821228,-0.1771870255470276,0.5132830142974854
1789317483576695000,1.086695068359375,0.3008660078048706,-0.17515769600868225,0.9708465933799744
1789317483586650000,1.096650146484375,0.003390541300177574,-0.679500937461853,1.2073519229888916
1789317483596604200,1.106604248046875,-0.0779048427939415,-0.47988662123680115,1.2060227394104004
1789317483606559000,1.11655908203125,0.20105400681495667,0.8616788983345032,0.10186584293842316
1789317483616514000,1.12651416015625,0.3963577151298523,0.4544195234775543,-0.5999053120613098
1789317483626468000,1.136468017578125,0.2552775740623474,0.6460544466972351,-1.1307950019836426
1789317483636423200,1.146423095703125,0.09272942692041397,0.3331250548362732,-1.5164659023284912
1789317483646378000,1.1563779296875,0.04628005996346474,0.2412009835243225,-1.1903338432312012
1789317483656333000,1.1663330078125,0.08480667322874069,0.09038164466619492,-0.2352481484413147
1789317483666287000,1.176287109375,0.05561888962984085,0.006470503285527229,0.872721791267395
1789317483676242200,1.1862421875,0.12636549770832062,0.2891967296600342,1.1525970697402954
1789317483686197000,1.196197021484375,0.25375041365623474,-0.3528207838535309,0.9596296548843384
1789317483696151000,1.206151123046875,0.2531317472457886,-1.5667591094970703,0.861413300037384
1789317483706106000,1.216106201171875,0.255251407623291,-1.1404272317886353,0.5794607400894165
1789317483716061200,1.226061279296875,0.45174553990364075,0.8378470540046692,-0.04723857715725899
1789317483726016000,1.23601611328125,0.556976318359375,1.6644119024276733,-0.821715235710144
1789317483735970000,1.245969970703125,0.2013857066631317,0.7975968718528748,-1.207431435585022
1789317483745925000,1.255925048828125,-0.26098158955574036,-0.48032787442207336,-0.716053307056427
1789317483755880200,1.265880126953125,-0.16319911181926727,-0.5189900994300842,-0.1030580997467041
1789317483765835000,1.2758349609375,0.5275910496711731,0.1136305183172226,0.3266083300113678
1789317483775789000,1.2857890625,1.1580733060836792,0.6854175925254822,0.4456537961959839
1789317483785744100,1.295744140625,1.092029333114624,1.0709991455078125,0.11999362707138062
1789317483795699200,1.30569921875,0.38695353269577026,-0.29896262288093567,0.17316283285617828
1789317483805653000,1.315653076171875,-0.2894044518470764,-1.2459418773651123,0.4992058575153351
1789317483815608000,1.325608154296875,-0.2519689202308655,-1.1127828359603882,0.8859946131706238
1789317483825563100,1.335563232421875,0.5228351950645447,1.0785918235778809,0.5102239847183228
1789317483835518200,1.345518310546875,1.3128013610839844,2.2269277572631836,-0.7060201168060303
1789317483845472000,1.355471923828125,1.1110305786132812,1.4640583992004395,-1.3790937662124634
1789317483855427000,1.365427001953125,0.3225015103816986,-1.1315981149673462,-0.676642894744873
1789317483865381600,1.375381591796875,-0.23588909208774567,-1.9566099643707275,0.28419652581214905
1789317483875335700,1.385335693359375,0.18460460007190704,1.5541799068450928,0.20558267831802368
1789317483885290500,1.39529052734375,0.9898378252983093,0.7449392676353455,0.4421198070049286
1789317483895245800,1.405245849609375,0.7948259711265564,0.6151304244995117,0.4964812994003296
1789317483905200600,1.41520068359375,0.10006112605333328,-0.3844970166683197,0.6221743822097778
1789317483915154700,1.42515478515625,-0.09313470125198364,-1.0703399181365967,0.9855480790138245
1789317483925109500,1.435109619140625,0.38788092136383057,0.2591693103313446,0.3440508544445038
1789317483935064800,1.44506494140625,0.8023249506950378,0.25708991289138794,-0.29112371802330017
1789317483945019600,1.45501953125,0.5542839765548706,0.37026843428611755,-0.1721755713224411
1789317483954973700,1.4649736328125,0.12084305286407471,0.27381351590156555,-0.09689678996801376
1789317483964928500,1.474928466796875,-0.020252391695976257,0.7983129620552063,-0.22621425986289978
1789317483974883800,1.4848837890625,0.2590663433074951,1.0505563020706177,-0.6362390518188477
1789317483984838000,1.494837890625,0.29038137197494507,-0.07174146175384521,-0.5639393329620361
1789317483994792700,1.504792724609375,-0.09809554368257523,0.8063613176345825,0.05919589847326279
1789317484004747500,1.51474755859375,-0.006223269272595644,-0.10834924876689911,0.41252201795578003
1789317484014702800,1.524702880859375,0.22726139426231384,-0.17606118321418762,0.3809414505958557
1789317484024657000,1.534656982421875,0.2540779411792755,-0.6219382882118225,0.08352387696504593
1789317484034611700,1.54461181640625,-0.03551578149199486,-1.385831356048584,0.844997763633728
1789317484044566500,1.55456640625,-0.26789942383766174,-0.5980851054191589,1.4224388599395752
1789317484054520600,1.5645205078125,-0.1657019555568695,1.3964046239852905,0.8860630989074707
1789317484064475600,1.5744755859375,0.041027747094631195,2.272747039794922,-0.23685163259506226
1789317484074430700,1.5844306640625,-0.11478368937969208,0.9450644254684448,-1.6483403444290161
1789317484084385500,1.594385498046875,-0.5834125876426697,-0.16933347284793854,-2.1984379291534424
1789317484094339600,1.604339599609375,-0.6161782741546631,-0.3114597499370575,-1.5647475719451904
1789317484104294700,1.614294677734375,-0.16641384363174438,-0.3588506579399109,-0.24130068719387054
1789317484114249700,1.624249755859375,0.08030273765325546,0.448480486869812,1.004716157913208
1789317484124203800,1.634203857421875,-0.04001109302043915,0.41653209924697876,1.5965583324432373
1789317484134158600,1.64415869140625,-0.4235757887363434,-0.8762083649635315,1.978161334991455
1789317484144113700,1.65411376953125,-0.6508129835128784,-0.7108551263809204,1.1298844814300537
1789317484154068700,1.66406884765625,-0.5199114084243774,-0.1707623451948166,-0.11628555506467819
1789317484164022800,1.674022705078125,-0.29207491874694824,0.5997555255889893,-1.0227513313293457
1789317484173977600,1.6839775390625,-0.3067350685596466,0.8951411247253418,-1.3655614852905273
1789317484183932700,1.6939326171875,-0.5776249170303345,0.38467320799827576,-0.8996047377586365
1789317484193886700,1.70388671875,-0.6849263310432434,1.1204708814620972,-0.8429683446884155
1789317484203841800,1.713841796875,-0.5127631425857544,0.2886601388454437,-0.651999294757843
1789317484213796600,1.723796630859375,-0.4771635830402374,-0.8561097979545593,0.1907215416431427
1789317484223751700,1.733751708984375,-0.6132962703704834,-1.8740558624267578,1.6002464294433594
1789317484233705700,1.743705810546875,-0.4450622498989105,0.8999033570289612,1.6064907312393188
1789317484243660800,1.753660888671875,-0.006804401520639658,1.2205758094787598,0.353443443775177
1789317484253615600,1.76361572265625,-0.457489550113678,-0.5903976559638977,-0.2844323515892029
1789317484263569700,1.773569580078125,-1.4148749113082886,-0.9510158896446228,-0.17147979140281677
1789317484273524700,1.783524658203125,-1.6243796348571777,-1.2194452285766602,0.3497953712940216
1789317484283479800,1.793479736328125,-0.8970242738723755,-0.7064917683601379,0.33006584644317627
1789317484293434600,1.8034345703125,0.00712771899998188,1.6157951354980469,-0.6789484024047852
1789317484303388700,1.813388671875,0.1404539793729782,1.054680585861206,-0.39467179775238037
1789317484313343700,1.82334375,-0.6279164552688599,0.9952136278152466,-0.32269319891929626
1789317484323298800,1.833298828125,-1.320892572402954,-0.10625629872083664,-0.9112401008605957
1789317484333253600,1.843253662109375,-1.49021577835083,-1.407710075378418,-0.4994160830974579
1789317484343207700,1.853207763671875,-1.1528866291046143,-1.0680824518203735,-0.005344227887690067
1789317484353162800,1.863162841796875,-0.6569194197654724,0.886105477809906,-0.014942792244255543
1789317484363117600,1.87311767578125,-0.4583863615989685,0.9516730308532715,0.536055862903595
1789317484373071600,1.883071533203125,-0.6183816194534302,-1.0668525695800781,0.8644388318061829
1789317484383026700,1.893026611328125,-1.1050742864608765,-1.5084712505340576,0.8226969838142395
1789317484392981800,1.902981689453125,-1.166215419769287,-1.0767086744308472,0.43263334035873413
1789317484402936600,1.9129365234375,-0.5344908833503723,-0.06806931644678116,-0.5752109885215759
1789317484412890600,1.922890625,-0.21026886999607086,1.3148812055587769,-0.9832174181938171
1789317484422845700,1.932845703125,-0.5882630944252014,0.6548576354980469,-0.9398576617240906
1789317484432800800,1.94280078125,-1.2915042638778687,0.23007364571094513,-0.4115895628929138
1789317484442754800,1.9527548828125,-1.258495569229126,-0.19821766018867493,-0.23141959309577942
1789317484452709600,1.962709716796875,-0.6592951416969299,-1.272763729095459,0.23250439763069153
1789317484462664700,1.972664794921875,-0.17710500955581665,-0.6141232848167419,0.5785666108131409
1789317484472618800,1.98261865234375,0.026725346222519875,-0.02230416238307953,0.571992039680481
1789317484482573800,1.99257373046875,-0.1568453460931778,-0.3929004669189453,0.8370422720909119
1789317484492528600,2.002528564453125,-0.5054648518562317,-0.27546945214271545,0.4026964604854584
1789317484502483700,2.012483642578125,-0.5947745442390442,0.03658474609255791,-0.49695172905921936
1789317484512437800,2.022437744140625,-0.4371609687805176,-0.0880754292011261,-1.4357421398162842
1789317484522392800,2.032392822265625,-0.5504828095436096,-0.30218765139579773,-1.132673978805542
1789317484532347600,2.04234765625,-0.6975790858268738,-0.5039857029914856,0.2339390218257904
1789317484542301700,2.0523017578125,-0.485469251871109,-0.6810303926467896,1.3942816257476807
1789317484552256800,2.0622568359375,0.24113112688064575,0.4182173013687134,0.9650450944900513
1789317484562211800,2.0722119140625,0.9386975169181824,0.7811513543128967,-0.5286841988563538
1789317484572166700,2.082166748046875,0.4488053619861603,-0.12788671255111694,-0.929912269115448
1789317484582120700,2.09212060546875,-0.7367804646492004,-0.9777237772941589,-0.05286087840795517
1789317484592075800,2.10207568359375,-0.9490322470664978,-1.1308324337005615,-0.03047141805291176
1789317484602030800,2.11203076171875,0.11871995776891708,-0.44666731357574463,-0.5088111162185669
1789317484611985700,2.121985595703125,0.8512516617774963,-0.48526743054389954,0.11212888360023499
1789317484621939700,2.131939697265625,0.49089527130126953,0.7444912791252136,0.9042983651161194
1789317484631894800,2.141894775390625,0.07603231072425842,1.8379030227661133,0.7300160527229309
1789317484641849900,2.151849853515625,0.3019861876964569,0.5048446655273438,-0.9001544117927551
1789317484651803600,2.1618037109375,0.20951032638549805,-1.5945526361465454,-1.6398532390594482
1789317484661758700,2.1717587890625,-0.09542946517467499,-0.7268781661987305,-1.0754896402359009
1789317484671713500,2.181713623046875,0.09214363247156143,-0.8979474306106567,0.4592897891998291
1789317484681668900,2.1916689453125,0.3132281005382538,0.38747888803482056,2.018131732940674
1789317484691622700,2.20162255859375,0.6590983867645264,1.1000432968139648,1.9205156564712524
1789317484701577700,2.21157763671875,0.933002233505249,0.7795795202255249,0.304605096578598
1789317484711532500,2.221532470703125,0.6306599378585815,-0.21356120705604553,-1.3656374216079712
1789317484721486800,2.23148681640625,-0.26862794160842896,-0.9788305759429932,-0.7222251892089844
1789317484731441700,2.241441650390625,-0.4530736804008484,-1.1597702503204346,-0.09524597227573395
1789317484741396700,2.251396728515625,0.34976404905319214,-0.11288723349571228,-0.3053992688655853
1789317484751350500,2.2613505859375,0.9731024503707886,0.8428632616996765,0.3448951244354248
1789317484761305900,2.271305908203125,0.7622454166412354,0.7630703449249268,0.8658995628356934
1789317484771260700,2.2812607421875,0.0735226571559906,0.7447757720947266,0.8359605669975281
1789317484781215700,2.2912158203125,-0.06360436230897903,0.6582280397415161,-0.2244570255279541
1789317484791169500,2.30116943359375,0.23312556743621826,-1.6920877695083618,-0.7653998732566833
1789317484801124900,2.311124755859375,0.23553898930549622,-1.5478472709655762,-0.32169580459594727
1789317484811079700,2.32107958984375,0.44856762886047363,-0.18606634438037872,0.2620808184146881
1789317484821033700,2.33103369140625,0.8400473594665527,1.4552408456802368,0.08779477328062057
1789317484830988500,2.340988525390625,0.6141884326934814,1.559995174407959,-0.3244583010673523
1789317484840943900,2.35094384765625,-0.04700538516044617,-0.022410783916711807,-0.6747710704803467
1789317484850898700,2.360898681640625,-0.5546936392784119,-1.2384135723114014,-0.3129206895828247
1789317484860852700,2.370852783203125,-0.22474431991577148,0.5425605773925781,-0.19578586518764496
1789317484870807800,2.380807861328125,0.5825114250183105,0.09011213481426239,0.31184035539627075
1789317484880763100,2.39076318359375,0.839938759803772,-0.2571684718132019,0.5024567246437073
1789317484890717000,2.400717041015625,0.49450838565826416,-0.2818567752838135,0.22394467890262604
1789317484900672000,2.410672119140625,-0.019466331228613853,-0.6535717248916626,0.6630025506019592
1789317484910626800,2.420626708984375,-0.24851469695568085,-0.6851917505264282,0.8045082688331604
1789317484920582100,2.43058203125,-0.215138778090477,0.10468407720327377,0.42474234104156494
1789317484930536000,2.440535888671875,-0.0036552981473505497,0.8698211312294006,-0.06878375262022018
1789317484940491000,2.450490966796875,0.1145230233669281,0.6082518100738525,-0.20360924303531647
1789317484950445800,2.46044580078125,0.047681938856840134,0.6054301857948303,-0.7794738411903381
1789317484960400000,2.47039990234375,0.005344416946172714,1.2487620115280151,-1.6895583868026733
1789317484970355000,2.48035498046875,-0.12714757025241852,-0.16849270462989807,-1.5457205772399902
1789317484980310000,2.49031005859375,-0.5102153420448303,-0.83414626121521,-0.1334647685289383
1789317484990264800,2.500264892578125,-0.4932786524295807,-0.6819231510162354,1.1623563766479492
1789317485000219000,2.510218994140625,-0.0811859518289566,0.5069035291671753,1.3818590641021729
1789317485010174000,2.520174072265625,0.0831606462597847,-0.16262122988700867,1.0983549356460571
1789317485020129000,2.53012890625,-0.2908097207546234,-0.7768798470497131,1.045838475227356
1789317485030082800,2.540082763671875,-0.5220616459846497,-0.8811897039413452,0.5848416686058044
1789317485040038000,2.550037841796875,-0.3945361375808716,0.43028903007507324,-0.49335217475891113
1789317485049993000,2.559992919921875,-0.34052935242652893,0.7286144495010376,-0.6457499265670776
1789317485059947000,2.569947021484375,-0.3352701663970947,0.40879568457603455,-0.981928825378418
1789317485069901800,2.57990185546875,-0.3479401469230652,0.8004454970359802,-1.316632866859436
1789317485079857000,2.58985693359375,-0.185333251953125,0.7004712224006653,-1.177944302558899
1789317485089812000,2.59981201171875,-0.1457568109035492,-1.034876823425293,-0.37824586033821106
1789317485099766000,2.60976611328125,-0.4225897192955017,-1.3199446201324463,0.8633410334587097
1789317485109720800,2.619720947265625,-0.42165201902389526,-1.2040350437164307,1.762160301208496
1789317485119676000,2.629676025390625,-0.1905927062034607,0.836342453956604,1.961550235748291
1789317485129630000,2.6396298828125,0.05076238885521889,1.1041337251663208,0.9441686272621155
1789317485139585000,2.6495849609375,-0.13346482813358307,0.19757477939128876,-0.5134348273277283
1789317485149539800,2.659539794921875,-0.4895686209201813,-0.8528667688369751,-1.6265168190002441
1789317485159495000,2.669494873046875,-0.7062394618988037,-1.6429709196090698,-1.064966082572937
1789317485169449000,2.679448974609375,-0.39763182401657104,-0.7553366422653198,-0.5997337102890015
1789317485179404000,2.689404052734375,0.3239569365978241,1.1076369285583496,-0.5549099445343018
1789317485189358800,2.69935888671875,0.43682968616485596,1.3883260488510132,0.30783334374427795
1789317485199313000,2.70931298828125,-0.3473941683769226,0.5595322847366333,1.1288306713104248
1789317485209268000,2.71926806640625,-1.0745407342910767,-0.24625879526138306,1.08428156375885
1789317485219223000,2.72922314453125,-0.7617684006690979,-1.3518654108047485,-0.05082027241587639
1789317485229177900,2.739177734375,-0.2347123622894287,-2.645050287246704,0.11983136087656021
1789317485239132000,2.7491318359375,-0.020985892042517662,-1.2245631217956543,0.8056098222732544
1789317485249087000,2.7590869140625,0.33747348189353943,1.8763571977615356,0.04986755922436714
1789317485259042000,2.7690419921875,0.23941758275032043,1.8551384210586548,-0.339669793844223
1789317485268996000,2.77899609375,-0.4796697199344635,0.25573262572288513,-0.9429362416267395
1789317485278951000,2.788950927734375,-1.2931745052337646,-0.9437286853790283,-1.200025200843811
1789317485288906000,2.798906005859375,-1.2159260511398315,-1.0911788940429688,-0.9542090892791748
1789317485298861000,2.808861083984375,-0.3201471269130707,-0.014927437528967857,-0.4543100595474243
1789317485308815000,2.818815185546875,0.38583874702453613,0.3981184661388397,0.976883053779602
1789317485318770000,2.82877001953125,0.6014604568481445,1.3205883502960205,0.8446032404899597
1789317485328724700,2.838724853515625,0.11979688704013824,-0.1325405091047287,0.07073287665843964
1789317485338679000,2.848678955078125,-0.719441831111908,-1.6741315126419067,-0.27758872509002686
1789317485348634000,2.858634033203125,-1.071739912033081,-2.4701616764068604,0.29176127910614014
1789317485358589000,2.8685888671875,-0.608425498008728,-1.2379560470581055,0.9098812937736511
1789317485368543000,2.87854296875,0.4730381667613983,1.561376929283142,0.3381056785583496
1789317485378498000,2.888498046875,0.9250372648239136,1.271165132522583,0.3231239914894104
1789317485388453000,2.898453125,0.39952391386032104,0.7244956493377686,-0.13025973737239838
1789317485398408000,2.908407958984375,-0.41021600365638733,0.40652382373809814,-0.7885181903839111
1789317485408362000,2.918362060546875,-0.5750163793563843,-1.1839559078216553,-1.3035203218460083
1789317485418316800,2.92831689453125,-0.08412303775548935,-1.1665611267089844,-1.3648602962493896
1789317485428272000,2.938272216796875,0.4437892436981201,-1.0016543865203857,0.24581633508205414
1789317485438226000,2.948225830078125,0.7321111559867859,0.6840754747390747,1.413968563079834
1789317485448181000,2.958180908203125,0.8116954565048218,1.7013449668884277,1.294597864151001
1789317485458135800,2.9681357421875,0.6109611392021179,-0.07504475116729736,0.8116013407707214
1789317485468091100,2.978091064453125,0.19220943748950958,-1.3769763708114624,-0.14624659717082977
1789317485478045000,2.988044921875,-0.12728212773799896,-1.2852320671081543,-0.4893572926521301
1789317485488000000,2.998,0.13281071186065674,0.6861897706985474,-0.7724478840827942
1789317485497954800,3.007954833984375,0.8571993112564087,1.6287342309951782,-1.0365182161331177
1789317485507909000,3.0179091796875,1.052489995956421,0.4362339973449707,-0.44670626521110535
1789317485517864000,3.027864013671875,0.5683125853538513,-0.4326767027378082,0.1929103285074234
1789317485527819000,3.037819091796875,0.23927158117294312,-1.5038502216339111,0.8479986786842346
1789317485537772800,3.047772705078125,0.6330580711364746,-1.8244962692260742,0.920785665512085
1789317485547728100,3.05772802734375,1.0824830532073975,-0.02868729829788208,0.7776498198509216
1789317485557683000,3.067682861328125,0.9857070446014404,1.2587089538574219,0.3339966833591461
1789317485567638000,3.077637939453125,0.35425078868865967,2.694455146789551,-0.6425114870071411
1789317485577591800,3.087591796875,-0.1960727572441101,1.3304569721221924,-1.4304124116897583
1789317485587547100,3.097547119140625,-0.2461140900850296,-1.1706560850143433,-2.3362042903900146
1789317485597502000,3.107501953125,0.1638285219669342,-0.9723318815231323,-1.5643724203109741
1789317485607456000,3.1174560546875,0.9477227926254272,-0.21641622483730316,0.19101029634475708
1789317485617410800,3.127410888671875,1.2675882577896118,-0.34255605936050415,2.035599946975708
1789317485627366100,3.1373662109375,0.7156983613967896,-0.9409470558166504,2.9592056274414062
1789317485637321000,3.147321044921875,0.0065459273755550385,-0.22521911561489105,2.169113874435425
1789317485647275000,3.15727490234375,-0.134847953915596,-0.15467144548892975,1.144662857055664
1789317485657229800,3.167229736328125,-0.01876351796090603,1.0355217456817627,-0.07483121752738953
1789317485667185200,3.17718505859375,0.31362590193748474,2.9161860942840576,-2.0629029273986816
1789317485677139000,3.187138916015625,0.4916094243526459,0.5884626507759094,-3.4351420402526855
1789317485687094000,3.197093994140625,0.07812970876693726,-1.9774280786514282,-1.9263077974319458
1789317485697048800,3.207048828125,-0.053980208933353424,-2.074331045150757,-0.2721235156059265
1789317485707003000,3.2170029296875,0.3911043107509613,0.5417212247848511,1.2506027221679688
1789317485716958000,3.2269580078125,0.8636208176612854,1.9587581157684326,2.0297958850860596
1789317485726913000,3.2369130859375,0.39686593413352966,0.9819298386573792,2.104278087615967
1789317485736867800,3.246867919921875,-0.4639521539211273,0.5449727773666382,0.8340268135070801
1789317485746822000,3.25682177734375,-0.6144613027572632,-1.8224985599517822,-0.4729950726032257
1789317485756777000,3.26677685546875,-0.2305029034614563,-2.753392219543457,-0.45667338371276855
1789317485766732000,3.27673193359375,0.4970788061618805,-0.6181929707527161,-0.6793149709701538
1789317485776686000,3.28668603515625,1.0505818128585815,2.408771514892578,-0.13014522194862366
1789317485786641000,3.296640869140625,1.1498702764511108,2.849891185760498,-0.47753170132637024
1789317485796596000,3.306595947265625,0.1920258104801178,1.124654769897461,-1.0362558364868164
1789317485806551000,3.316551025390625,-0.7772721648216248,-0.918186604976654,-1.3544596433639526
1789317485816504800,3.3265048828125,-0.7665230631828308,-1.5986393690109253,-0.45629701018333435
1789317485826460000,3.3364599609375,-0.2157222032546997,-0.5451803207397461,1.54674232006073
1789317485836415000,3.3464150390625,0.6214314103126526,1.1406224966049194,2.0183074474334717
1789317485846369000,3.356369140625,0.9359227418899536,0.9803984761238098,1.6786634922027588
1789317485856323800,3.36632373046875,0.5974698662757874,-0.20916995406150818,0.9702000021934509
1789317485866279000,3.37627880859375,0.07861022651195526,-1.1124836206436157,-0.37540823221206665
1789317485876232700,3.386232666015625,-0.23865193128585815,-0.5947757363319397,-1.183942198753357
1789317485886187500,3.3961875,0.05338098108768463,1.1844555139541626,-1.6071784496307373
1789317485896142800,3.406142822265625,0.2859252095222473,-0.12127341330051422,-0.859412431716919
1789317485906097700,3.41609765625,0.1723288893699646,0.4788976311683655,-0.23270322382450104
1789317485916051700,3.4260517578125,0.31513088941574097,-0.05866013094782829,0.3470056653022766
1789317485926006500,3.436006591796875,0.4502791464328766,-0.714898943901062,1.1600139141082764
1789317485935961600,3.445961669921875,0.46118485927581787,-0.4126339852809906,1.003416895866394
1789317485945915600,3.45591552734375,0.43946385383605957,1.4749077558517456,0.1244983971118927
1789317485955870700,3.46587060546875,0.407260537147522,1.3879804611206055,-0.6920374035835266
1789317485965825500,3.475825439453125,-0.06297729164361954,0.2630252540111542,-0.8533381223678589
1789317485975780600,3.485780517578125,-0.36958181858062744,-0.696665346622467,-0.6291355490684509
1789317485985734700,3.495734619140625,0.03517260402441025,-1.3429367542266846,-0.3941859304904938
1789317485995689700,3.505689697265625,0.7236689925193787,0.08371859788894653,0.12824824452400208
1789317486005644500,3.51564453125,1.1747124195098877,0.6734694838523865,1.1303685903549194
1789317486015598600,3.5255986328125,1.1456462144851685,1.4398454427719116,0.7769982218742371
1789317486025553700,3.5355537109375,0.5992140173912048,0.479475736618042,-0.4181515574455261
1789317486035508700,3.5455087890625,-0.1675562709569931,-1.8535659313201904,0.07292985916137695
1789317486045462500,3.555462646484375,-0.46163928508758545,-2.901071071624756,2.0776448249816895
1789317486055417600,3.56541748046875,0.23377163708209991,-1.1074680089950562,2.406388759613037
1789317486065372700,3.57537255859375,1.5009249448776245,3.2143805027008057,0.5304437875747681
1789317486075327700,3.58532763671875,1.890380620956421,2.8041796684265137,-0.26995617151260376
1789317486085281500,3.595281494140625,1.0785024166107178,0.7042750120162964,-2.2268667221069336
1789317486095236600,3.605236572265625,-0.3320792317390442,-1.2850040197372437,-3.2344956398010254
1789317486105191700,3.615191650390625,-0.7983174920082092,-0.9156704545021057,-2.476684331893921
1789317486115145700,3.625145751953125,0.10958286374807358,-1.7754203081130981,-0.12415057420730591
1789317486125100500,3.6351005859375,1.2565743923187256,0.21315963566303253,1.3296562433242798
1789317486135055600,3.6450556640625,1.885712742805481,3.3047215938568115,1.589581847190857
1789317486145009400,3.655009521484375,1.610444188117981,1.5188100337982178,2.0178375244140625
1789317486154964700,3.66496484375,0.4495297074317932,-0.9538593292236328,0.7451690435409546
1789317486164919600,3.67491943359375,-0.5767907500267029,-1.49247407913208,-0.23984397947788239
1789317486174874600,3.68487451171875,-0.40185901522636414,-1.896480917930603,-0.21864280104637146
1789317486184828400,3.694828369140625,0.4070098400115967,-0.4796083867549896,0.1717233508825302
1789317486194783700,3.70478369140625,0.9464008808135986,2.378225564956665,0.25873246788978577
1789317486204738600,3.714738525390625,1.22971510887146,2.7354180812835693,-0.2768699526786804
1789317486214692600,3.724692626953125,0.951748251914978,2.1694881916046143,-1.366195559501648
1789317486224647400,3.7346474609375,0.036406468600034714,-1.9032821655273438,-1.5601959228515625
1789317486234602800,3.744602783203125,-0.7215049266815186,-2.1188838481903076,-0.7732106447219849
1789317486244556500,3.754556640625,-0.3540709614753723,-0.3378632962703705,0.5208805799484253
1789317486254511600,3.76451171875,0.5808281898498535,0.8088682889938354,1.2728159427642822
1789317486264466400,3.774466552734375,0.715364933013916,2.3001949787139893,1.4867655038833618
1789317486274421800,3.784421875,0.43469905853271484,2.0387566089630127,0.8422597646713257
1789317486284375600,3.79437548828125,0.03527921065688133,-0.5195723176002502,-0.7727823257446289
1789317486294330600,3.80433056640625,-0.6475510597229004,-1.8392446041107178,-1.130708932876587
1789317486304285400,3.814285400390625,-0.6161676049232483,-1.1218127012252808,-0.9871706366539001
1789317486314239700,3.82423974609375,0.1566961705684662,-0.1381552368402481,0.2551948130130768
1789317486324194600,3.834194580078125,0.7098596096038818,1.5288020372390747,1.101564884185791
1789317486334149600,3.844149658203125,0.5496954917907715,2.0043585300445557,1.1229419708251953
1789317486344103700,3.854103759765625,0.07037872076034546,1.2386394739151,0.16724108159542084
1789317486354058800,3.864058837890625,-0.48599258065223694,-1.3038365840911865,-0.6124817728996277
1789317486364013600,3.874013671875,-0.8730350732803345,-1.874208688735962,-0.5481498837471008
1789317486373968600,3.88396875,-0.3580344319343567,0.7568104267120361,-0.563029408454895
1789317486383922700,3.893922607421875,0.6285333633422852,1.6716123819351196,-0.6802926659584045
1789317486393877500,3.90387744140625,0.6074022054672241,1.4407273530960083,-0.18280906975269318
1789317486403832600,3.91383251953125,-0.08123903721570969,-0.5532333254814148,0.5796757936477661
1789317486413786600,3.92378662109375,-0.5617756247520447,-2.0581865310668945,1.1664994955062866
1789317486423741700,3.93374169921875,-0.5191903710365295,-0.6342596411705017,1.1544245481491089
1789317486433696500,3.943696533203125,-0.10702919960021973,0.8431940674781799,0.8674426078796387
1789317486443651600,3.953651611328125,0.14906330406665802,1.9603261947631836,0.27818891406059265
1789317486453605600,3.963605712890625,-0.06566835939884186,1.2343754768371582,-0.40335795283317566
1789317486463560700,3.973560791015625,-0.44024035334587097,0.045766543596982956,-1.2799112796783447
1789317486473515500,3.983515625,-0.5416895747184753,-1.1178323030471802,-1.4136805534362793
1789317486483469800,3.9934697265625,-0.17349930107593536,-1.5123114585876465,-0.6297844052314758
1789317486493424600,4.003424560546875,0.5305125117301941,2.456507921218872,-0.3457445204257965
1789317486503379500,4.01337939453125,0.8747377991676331,0.9382713437080383,0.39065468311309814
1789317486513333500,4.02333349609375,-0.023994101211428642,0.8378069996833801,0.6764445900917053
1789317486523288800,4.033288818359375,-0.9401758313179016,-1.0687243938446045,0.35970449447631836
1789317486533243600,4.04324365234375,-1.066234827041626,-2.4889297485351562,0.16798031330108643
1789317486543198500,4.053198486328125,-0.5993578433990479,-1.2126495838165283,0.40497100353240967
1789317486553152500,4.063152587890625,0.2473553717136383,0.20366095006465912,0.6449966430664062
1789317486563107800,4.07310791015625,0.7075525522232056,2.212219715118408,0.03695547953248024
1789317486573062700,4.083062744140625,0.21483318507671356,1.8001610040664673,-0.03845210745930672
1789317486583016700,4.0930166015625,-0.5333297252655029,0.6498051285743713,-0.9232953786849976
1789317486592971500,4.102971435546875,-1.2073091268539429,-0.9366992712020874,-1.5073764324188232
1789317486602926800,4.1129267578125,-1.4086774587631226,-1.8729453086853027,-0.5491319298744202
1789317486612880600,4.122880615234375,-0.7846276760101318,-0.31747275590896606,-0.10218562930822372
1789317486622835700,4.132835693359375,0.010665984824299812,1.0826919078826904,0.5143784880638123
1789317486632790500,4.14279052734375,0.16735120117664337,0.8538560271263123,1.2800716161727905
1789317486642745900,4.152745849609375,-0.4298032820224762,-0.6311686635017395,1.5746854543685913
1789317486652699600,4.16269970703125,-0.985788881778717,-0.011274547316133976,0.18743066489696503
1789317486662654700,4.17265478515625,-0.9289410710334778,-0.6652505397796631,-0.8976311683654785
1789317486672609500,4.182609619140625,-0.906629741191864,-1.381917119026184,-0.3294399082660675
1789317486682563600,4.1925634765625,-0.7640534043312073,0.08788876235485077,-0.190072700381279
1789317486692518700,4.2025185546875,-0.11684788018465042,2.104588031768799,-0.8086162805557251
1789317486702473700,4.2124736328125,0.0738791972398758,0.933830201625824,-0.309142529964447
1789317486712427500,4.222427490234375,-0.46754327416419983,0.23772600293159485,-0.43375304341316223
1789317486722382600,4.232382568359375,-1.0545209646224976,-1.6513351202011108,0.024852614849805832
1789317486732337700,4.242337646484375,-1.078940510749817,-2.4585607051849365,1.1704590320587158
1789317486742292700,4.252292724609375,-0.3786352276802063,-0.7088080048561096,1.1886385679244995
1789317486752246500,4.26224658203125,0.4746415317058563,0.5391586422920227,1.1709513664245605
1789317486762201600,4.27220166015625,0.7829455733299255,1.9842008352279663,0.5921945571899414
1789317486772156700,4.28215673828125,0.18381643295288086,1.5287995338439941,-0.7733190655708313
1789317486782110700,4.29211083984375,-0.8363543152809143,-0.567480206489563,-1.6325900554656982
1789317486792065500,4.3020654296875,-1.1457579135894775,-1.0769264698028564,-2.0129551887512207
1789317486802020600,4.3120205078125,-0.5721161961555481,-0.9039694666862488,-1.3537746667861938
1789317486811974400,4.321974365234375,-0.002337830374017358,0.18260130286216736,0.6451138854026794
1789317486821929700,4.3319296875,0.6153661012649536,1.2247614860534668,1.6365128755569458
1789317486831884500,4.341884521484375,0.8708781599998474,0.7330198884010315,1.4512908458709717
1789317486841839600,4.351839599609375,0.32740822434425354,-1.0137711763381958,0.6780427098274231
1789317486851793400,4.36179345703125,-0.5045091509819031,-1.8804110288619995,0.4096512496471405
1789317486861748700,4.371748779296875,-0.47089558839797974,-0.34881317615509033,-0.4523402154445648
1789317486871703800,4.381703857421875,0.19793839752674103,0.4748576283454895,-0.9438465237617493
1789317486881657900,4.391657958984375,0.30359211564064026,1.0868903398513794,-0.4449882507324219
1789317486891612700,4.40161279296875,0.10304201394319534,1.0624029636383057,-0.5998935699462891
1789317486901568000,4.411568115234375,-0.19329963624477386,-0.7827376127243042,0.057282134890556335
1789317486911521800,4.421521728515625,-0.2595733404159546,-0.6606858372688293,0.4071153700351715
1789317486921476900,4.431476806640625,0.24843314290046692,0.4229053556919098,-0.0909402146935463
1789317486931431700,4.441431640625,0.5046181082725525,0.7195789813995361,-0.18789862096309662
1789317486941385700,4.4513857421875,0.012840881012380123,-0.3754788041114807,0.4972091317176819
1789317486951340800,4.4613408203125,-0.4465116262435913,-1.6188364028930664,0.9135861992835999
1789317486961296000,4.4712958984375,-0.32480278611183167,-0.6282880902290344,0.14921772480010986
1789317486971250700,4.481250732421875,-0.05657720938324928,0.044511664658784866,0.0854986384510994
1789317486981204700,4.491204833984375,-0.10793813318014145,0.6394312381744385,0.3594993054866791
1789317486991159800,4.501159912109375,-0.09509855508804321,1.603484869003296,-0.6056133508682251
1789317487001115000,4.511114990234375,-0.034155841916799545,0.6230575442314148,-1.1827526092529297
1789317487011069000,4.52106884765625,-0.334734708070755,-1.110840082168579,-0.7350972890853882
1789317487021023700,4.531023681640625,-0.4669276475906372,-0.4817372262477875,-0.24719393253326416
1789317487030978800,4.540978759765625,0.03390424698591232,0.2731072008609772,0.12852464616298676
1789317487040932900,4.550932861328125,0.24028804898262024,0.6172989010810852,0.6719596982002258
1789317487050888000,4.560887939453125,-0.1674288660287857,-0.2438005954027176,0.8572366833686829
1789317487060842800,4.5708427734375,-0.6080195903778076,-1.2392209768295288,1.1299512386322021
1789317487070797800,4.5807978515625,-0.44962042570114136,-0.9972302913665771,0.5086060166358948
1789317487080751900,4.590751953125,-0.031141681596636772,0.615995466709137,-0.11865179985761642
1789317487090707000,4.60070703125,0.26733601093292236,0.6558958888053894,-0.3696095645427704
1789317487100661800,4.610661865234375,0.16857774555683136,0.6586567759513855,-0.919888973236084
1789317487110615800,4.62061572265625,-0.05313645675778389,0.9678518772125244,-1.5093659162521362
1789317487120571000,4.63057080078125,-0.28198081254959106,-0.6971322298049927,-0.8557044863700867
1789317487130526000,4.64052587890625,-0.4450486898422241,-0.5972104072570801,0.24048195779323578
1789317487140479700,4.650479736328125,-0.1694605052471161,-0.21322837471961975,0.8369046449661255
1789317487150434800,4.660434814453125,0.2590159773826599,-0.23261940479278564,1.1683876514434814
1789317487160390000,4.670389892578125,0.3811671733856201,-0.5361398458480835,1.1620866060256958
1789317487170344700,4.6803447265625,0.2854441702365875,-0.2019282579421997,0.22683677077293396
1789317487180298800,4.690298828125,0.006840754300355911,-0.31253331899642944,0.1250496804714203
1789317487190253800,4.70025390625,-0.1257946640253067,-0.1465151011943817,-0.03118707984685898
1789317487200209000,4.710208984375,0.015117458067834377,0.8460682034492493,-0.7077719569206238
1789317487210163000,4.720162841796875,0.2394188642501831,0.41322362422943115,-0.9856323003768921
1789317487220117800,4.73011767578125,0.13656066358089447,-0.4499787986278534,-0.466879665851593
1789317487230072800,4.74007275390625,0.06121251732110977,-0.16669707000255585,-0.2629649043083191
1789317487240027000,4.75002685546875,0.24909533560276031,0.4410248100757599,0.09417243301868439
1789317487249982000,4.75998193359375,0.3681713044643402,0.36680683493614197,0.2924443483352661
1789317487259936800,4.769936767578125,0.09309390932321548,0.1780606508255005,0.27271512150764465
1789317487269891800,4.779891845703125,-0.1825103610754013,-0.6246782541275024,0.42459458112716675
1789317487279845600,4.789845703125,-0.06651400029659271,-0.8298586010932922,0.060154035687446594
1789317487289801000,4.799801025390625,0.14816059172153473,-0.6463451385498047,-0.013479428365826607
1789317487299755800,4.809755859375,0.19765597581863403,-0.49963346123695374,0.5120391845703125
1789317487309709800,4.819709716796875,0.1560746133327484,0.5698862075805664,0.39028891921043396
1789317487319664600,4.82966455078125,0.13168539106845856,2.043924331665039,-0.5488793849945068
1789317487329620000,4.839619873046875,-0.0051192655228078365,0.5579138398170471,-1.2600886821746826
1789317487339573800,4.84957373046875,-0.3961179256439209,-0.04149366170167923,-1.4845024347305298
1789317487349528800,4.85952880859375,-0.596979022026062,-1.708024501800537,-0.310447096824646
1789317487359483600,4.869483642578125,-0.2451498657464981,-0.8603373765945435,0.6054872870445251
1789317487369438000,4.87943798828125,0.2617388367652893,-0.9531087875366211,1.8086050748825073
1789317487379392800,4.889392822265625,0.3798612058162689,-0.41559073328971863,2.2024824619293213
1789317487389347800,4.899347900390625,0.23203060030937195,0.6344521641731262,1.2379229068756104
1789317487399302700,4.909302734375,-0.14580324292182922,0.27751561999320984,0.6971020698547363
1789317487409257000,4.919257080078125,-0.5254492163658142,0.892269492149353,-0.6300067901611328
1789317487419211800,4.929211669921875,-0.4053930938243866,1.7391520738601685,-2.557096004486084
1789317487429166800,4.939166748046875,-0.18976548314094543,0.014804537408053875,-3.231346368789673
1789317487439121000,4.949120849609375,-0.18718861043453217,-1.2351421117782593,-2.1850686073303223
1789317487449076000,4.959075927734375,-0.09911247342824936,-1.3127564191818237,-0.09301265329122543
1789317487459030800,4.96903076171875,0.23302926123142242,0.9031651020050049,1.4886558055877686
1789317487468984800,4.97898486328125,0.3477318286895752,1.50391685962677,2.1815333366394043
1789317487478939600,4.988939697265625,-0.13964234292507172,0.11045800894498825,1.66681969165802
1789317487488895000,4.99889501953125,-0.7305595874786377,-1.959229588508606,1.118569254875183
1789317487498849800,5.008849853515625,-0.7062978744506836,-2.3269171714782715,0.5570433735847473
1789317487508803800,5.018803955078125,-0.02769879810512066,-0.6423062682151794,-0.12928536534309387
1789317487518758700,5.028758544921875,0.6942625641822815,1.1219732761383057,-0.5811662673950195
1789317487528714000,5.0387138671875,0.7856425642967224,1.4049723148345947,-0.8050819635391235
1789317487538668000,5.04866796875,0.15578898787498474,1.0475313663482666,-1.1944257020950317
1789317487548622800,5.058622802734375,-0.4530034065246582,1.1471613645553589,-1.8021916151046753
1789317487558577700,5.06857763671875,-0.6311350464820862,-0.6965540051460266,-0.9961451888084412
1789317487568531700,5.07853173828125,-0.3611029088497162,-0.24159954488277435,-0.3765527009963989
1789317487578487000,5.088487060546875,0.01959465816617012,-0.6679908037185669,0.7306389212608337
1789317487588441900,5.09844189453125,0.20649908483028412,-1.5547014474868774,2.0866479873657227
1789317487598396000,5.10839599609375,0.18185871839523315,-1.0480918884277344,2.6723833084106445
1789317487608350700,5.118350830078125,0.30915048718452454,0.3324269652366638,1.689424991607666
1789317487618306000,5.12830615234375,0.4397822618484497,2.1043195724487305,-0.25168633460998535
1789317487628260900,5.1382607421875,0.0859968513250351,1.6963191032409668,-2.153629779815674
1789317487638215000,5.14821484375,-0.6622688174247742,-0.00823979452252388,-3.174551248550415
1789317487648169700,5.158169677734375,-1.072411060333252,-1.5205708742141724,-1.992188811302185
1789317487658124800,5.168124755859375,-0.3003055453300476,-0.4684869945049286,-1.1742936372756958
1789317487668078800,5.178078857421875,0.7728859186172485,0.5862405300140381,0.5413723587989807
1789317487678034000,5.188033935546875,1.1390769481658936,1.2282367944717407,1.888002872467041
1789317487687988700,5.19798876953125,0.5489076972007751,0.2882191240787506,1.8489407300949097
1789317487697942800,5.20794287109375,-0.5454522967338562,-1.463502287864685,1.6506491899490356
1789317487707897900,5.21789794921875,-0.9075435400009155,-2.0967214107513428,1.098443627357483
1789317487717853000,5.22785302734375,-0.25575488805770874,-1.1391735076904297,0.2775956392288208
1789317487727807700,5.237807861328125,0.535956859588623,1.1030011177062988,-0.22118540108203888
1789317487737761800,5.24776171875,0.9104785323143005,2.164876937866211,-0.690984845161438
1789317487747716900,5.257716796875,0.6603518724441528,1.245234489440918,-1.1900142431259155
1789317487757672000,5.267671875,0.028327828273177147,-0.4799557030200958,-1.6200920343399048
1789317487767625700,5.277625732421875,-0.35799068212509155,-0.19403213262557983,-1.7122793197631836
1789317487777580800,5.287580810546875,-0.1558634340763092,-0.1601407527923584,-0.44843921065330505
1789317487787536000,5.297535888671875,0.3864360749721527,0.19495543837547302,0.65728360414505
1789317487797490000,5.307489990234375,0.6038094162940979,0.3137851357460022,1.2293202877044678
1789317487807444700,5.31744482421875,0.45558223128318787,-1.4927223920822144,1.8438512086868286
1789317487817399800,5.32739990234375,0.1800616979598999,-1.7590137720108032,2.206124782562256
1789317487827353600,5.337353515625,0.2153264880180359,-0.8880850076675415,1.932045340538025
1789317487837309000,5.347308837890625,0.783245325088501,1.8432422876358032,-0.13926495611667633
1789317487847263700,5.357263671875,0.9271570444107056,2.4479987621307373,-2.104804277420044
1789317487857218800,5.36721875,0.11161722987890244,1.050986647605896,-2.958284854888916
1789317487867172600,5.377172607421875,-0.8890236616134644,-1.306491732597351,-2.0187337398529053
1789317487877127700,5.387127685546875,-0.8511945605278015,-1.5764302015304565,-0.8792701363563538
1789317487887082500,5.39708251953125,0.36178484559059143,1.0700799226760864,-0.34611132740974426
1789317487897036500,5.40703662109375,1.283716082572937,1.308364987373352,1.0151370763778687
1789317487906991400,5.416991455078125,0.9812925457954407,0.6987950801849365,1.7754076719284058
1789317487916946700,5.42694677734375,0.01648443192243576,-1.4863789081573486,1.7383819818496704
1789317487926900700,5.436900634765625,-0.6180015206336975,-2.1252269744873047,1.2762948274612427
1789317487936855600,5.44685546875,-0.278205007314682,-1.5664715766906738,0.599707841873169
1789317487946810400,5.456810302734375,0.5415936708450317,1.0767416954040527,-0.39759236574172974
1789317487956765700,5.466765625,0.8053643107414246,2.0181620121002197,-0.9406145811080933
1789317487966719700,5.4767197265625,0.2480669766664505,1.3410567045211792,-1.1921534538269043
1789317487976674600,5.486674560546875,-0.4166548252105713,-0.010987046174705029,-1.6231884956359863
1789317487986629400,5.49662939453125,-0.5581985712051392,0.6874272227287292,-1.7950290441513062
1789317487996583700,5.506583740234375,-0.17098692059516907,-0.10943160206079483,-0.6723745465278625
1789317488006538800,5.516538818359375,0.31441834568977356,0.0458824560046196,0.0015207489486783743
1789317488016493600,5.52649365234375,0.3282526731491089,-1.2801333665847778,1.6272519826889038
1789317488026447600,5.536447509765625,0.05406719818711281,-2.2303662300109863,3.2080886363983154
1789317488036402700,5.546402587890625,0.11072248965501785,-0.9341956377029419,2.742873430252075
1789317488046357500,5.556357421875,0.46950191259384155,1.866951823234558,1.027234435081482
1789317488056311600,5.5663115234375,0.35170072317123413,1.4739960432052612,-0.2340436726808548
1789317488066266600,5.5762666015625,-0.3612484633922577,0.8048707246780396,-1.863853096961975
1789317488076221400,5.586221435546875,-0.8933888077735901,-0.3697410225868225,-2.5063042640686035
1789317488086176500,5.596176513671875,-0.5577725172042847,-0.3800363838672638,-2.5620808601379395
1789317488096130600,5.606130615234375,0.3692203164100647,1.1636030673980713,-1.6425299644470215
1789317488106085600,5.616085693359375,1.1027095317840576,0.5571320652961731,-0.5995834469795227
1789317488116040400,5.62604052734375,0.6695059537887573,0.3748418688774109,0.9797200560569763
1789317488125994800,5.635994873046875,-0.07992415875196457,-2.0485265254974365,2.5526866912841797
1789317488135949600,5.645949462890625,-0.46298229694366455,-2.1082053184509277,2.533460855484009
1789317488145904600,5.655904541015625,-0.1383933573961258,1.3395426273345947,1.3318132162094116
1789317488155858400,5.6658583984375,0.30377739667892456,1.2562626600265503,0.2491418421268463
1789317488165813800,5.675813720703125,0.09715893119573593,1.20232355594635,-1.0499072074890137
1789317488175768600,5.6857685546875,-0.32364553213119507,-0.6321930885314941,-1.1981337070465088
1789317488185722600,5.69572265625,-0.298575758934021,-1.9473294019699097,-1.2653871774673462
1789317488195677400,5.705677490234375,-0.045264389365911484,-1.476682186126709,-0.22939439117908478
1789317488205632800,5.7156328125,0.6412037014961243,2.448153495788574,-0.06395477056503296
1789317488215587600,5.725587646484375,1.3082270622253418,3.268460988998413,-1.0371731519699097
1789317488225541600,5.735541748046875,0.35217100381851196,-0.2614315152168274,-1.2305117845535278
1789317488235496400,5.745496337890625,-1.1336606740951538,-1.703972578048706,-0.1405436396598816
1789317488245451800,5.75545166015625,-1.0609530210494995,-2.840282678604126,1.1724586486816406
1789317488255405600,5.765405517578125,0.2190961390733719,1.1452256441116333,1.341602087020874
1789317488265360600,5.775360595703125,1.2282670736312866,2.603391647338867,0.3501727283000946
1789317488275315500,5.7853154296875,0.7859429121017456,1.63099205493927,0.022769052535295486
1789317488285269500,5.79526953125,-0.0975782722234726,-1.8346363306045532,-0.49688854813575745
1789317488295224600,5.805224609375,-0.5133837461471558,-3.4129955768585205,-0.015888389199972153
1789317488305179600,5.8151796875,-0.3564061224460602,-2.418637990951538,1.0462441444396973
1789317488315133700,5.8251337890625,0.34132689237594604,0.924741804599762,1.0209195613861084
1789317488325088500,5.835088623046875,0.8786157965660095,4.365199089050293,0.03214384242892265
1789317488335043600,5.845043701171875,0.49366921186447144,3.8660788536071777,-1.4916596412658691
1789317488344998700,5.85499853515625,-0.7734678387641907,-1.8179810047149658,-3.055311679840088
1789317488354952400,5.864952392578125,-1.53631591796875,-1.3824886083602905,-1.7709649801254272
1789317488364907500,5.874907470703125,-0.3268343508243561,-0.492977499961853,-0.5467365384101868
1789317488374862600,5.884862548828125,0.9903006553649902,0.10608329623937607,1.271925449371338
1789317488384816600,5.894816650390625,0.8704511523246765,0.25400733947753906,3.0009615421295166
1789317488394771500,5.904771484375,0.21345943212509155,0.2307635098695755,2.7999420166015625
1789317488404726500,5.9147265625,-0.15303567051887512,-0.7215077877044678,1.4146308898925781
1789317488414680600,5.9246806640625,-0.29845547676086426,-0.2990769147872925,-0.6278641819953918
1789317488424635600,5.9346357421875,-0.552164614200592,-1.1389496326446533,-0.8593758940696716
1789317488434590500,5.944590576171875,-0.3941669762134552,-0.44919753074645996,-1.4368547201156616
1789317488444544500,5.95454443359375,0.09817767143249512,3.8783490657806396,-2.5125582218170166
1789317488454499600,5.96449951171875,0.36243754625320435,0.02177167311310768,-1.778141975402832
1789317488464454700,5.97445458984375,-0.1254514902830124,-1.0342767238616943,-1.4023739099502563
1789317488474409500,5.984409423828125,-0.5639523863792419,-0.621252179145813,0.3799799382686615
1789317488484363500,5.994363525390625,0.10966633260250092,0.5911496877670288,0.9334205985069275
1789317488494318600,6.004318603515625,0.4524223506450653,0.33834460377693176,1.2194489240646362
1789317488504273700,6.014273681640625,-0.20305559039115906,-0.45529264211654663,1.5037500858306885
1789317488514227700,6.024227783203125,-0.7325943112373352,-1.898002028465271,1.5098316669464111
1789317488524182500,6.0341826171875,-0.5857638716697693,-1.1542292833328247,0.7898287177085876
1789317488534137600,6.0441376953125,0.1571456789970398,0.005285393912345171,-0.08448094874620438
1789317488544091600,6.054091552734375,0.7153251767158508,1.0224874019622803,-0.6480952501296997
1789317488554046700,6.064046630859375,0.46293842792510986,0.8470907211303711,-1.020232915878296
1789317488564001500,6.07400146484375,-0.43702206015586853,-0.5718401074409485,-0.25812631845474243
1789317488573955600,6.08395556640625,-0.8823491930961609,-1.336429476737976,0.5610630512237549
1789317488583910400,6.093910400390625,-0.21093007922172546,0.8496253490447998,-0.20565935969352722
1789317488593865700,6.10386572265625,0.7157860398292542,2.3240888118743896,-0.47525325417518616
1789317488603820500,6.113820556640625,0.5079656839370728,-0.6281909942626953,0.4587101638317108
1789317488613774600,6.123774658203125,-0.6664308309555054,-0.9508329033851624,1.2466322183609009
1789317488623729400,6.1337294921875,-0.7562355399131775,-2.287966012954712,1.8446823358535767
1789317488633684700,6.143684814453125,0.19571883976459503,-0.781921923160553,0.9239711165428162
1789317488643638500,6.153638427734375,0.7138984203338623,1.712839961051941,0.47898030281066895
1789317488653593600,6.163593505859375,0.6084801554679871,1.035433053970337,-0.46798330545425415
1789317488663548400,6.17354833984375,-0.3110356628894806,0.6775960326194763,-1.3805453777313232
1789317488673502700,6.183502685546875,-0.9163777828216553,-0.4877220094203949,-1.4498767852783203
1789317488683457500,6.19345751953125,-0.48319339752197266,-0.6808003187179565,-1.5809941291809082
1789317488693412600,6.20341259765625,0.3046919107437134,1.2136448621749878,-0.725248396396637
1789317488703366400,6.213366455078125,0.6674115061759949,1.0119106769561768,0.9414978623390198
1789317488713321700,6.22332177734375,0.38717663288116455,-0.018863430246710777,2.159538507461548
1789317488723276500,6.233276611328125,0.2510491609573364,-1.274890661239624,1.6663557291030884
1789317488733231600,6.243231689453125,0.335069477558136,-1.7059026956558228,0.9492753744125366
1789317488743185400,6.253185302734375,0.31523722410202026,-1.3286173343658447,0.9856176972389221
1789317488753140700,6.263140625,0.46799853444099426,0.24514617025852203,0.5238319635391235
1789317488763095600,6.273095458984375,0.903313398361206,1.479356050491333,-0.8009151220321655
1789317488773049600,6.283049560546875,0.7601626515388489,1.794381856918335,-1.5082228183746338
1789317488783004400,6.29300439453125,-0.01809391751885414,0.319501131772995,-1.0151745080947876
1789317488792959700,6.302959716796875,-0.41853880882263184,-1.0185692310333252,-0.7864528894424438
1789317488802913800,6.312913818359375,-0.133612260222435,-1.2596479654312134,0.2530992329120636
1789317488812868600,6.32286865234375,0.7106819748878479,3.009451150894165,0.6862226724624634
1789317488822823400,6.332823486328125,1.3266057968139648,0.8214237093925476,0.5439863801002502
1789317488832777500,6.342777587890625,0.44660335779190063,-0.2959986925125122,0.28390073776245117
1789317488842732500,6.352732666015625,-0.4486078917980194,-1.8559600114822388,0.6358361840248108
1789317488852687600,6.3626875,-0.48497840762138367,-3.6677582263946533,2.114994525909424
1789317488862641700,6.3726416015625,0.22973573207855225,0.7382161021232605,1.1469074487686157
1789317488872596200,6.38259619140625,1.1270420551300049,5.3352766036987305,-0.5723162293434143
1789317488882551600,6.392551513671875,0.9224382638931274,0.5527670979499817,-2.6907548904418945
1789317488892506400,6.40250634765625,-0.8049185872077942,-1.3576215505599976,-2.710643768310547
1789317488902460400,6.41246044921875,-1.4288121461868286,-2.7532758712768555,-0.7529163360595703
1789317488912415200,6.422415283203125,-0.2114218920469284,-0.9434171915054321,-0.12631899118423462
1789317488922370600,6.43237060546875,0.8789016604423523,1.6706585884094238,1.504719853401184
1789317488932324400,6.442324462890625,0.9827039837837219,2.6680402755737305,1.7685075998306274
1789317488942279400,6.452279541015625,0.10146810859441757,2.220282554626465,0.6298522353172302
1789317488952234200,6.462234130859375,-0.9384502172470093,-3.095275402069092,-0.31435075402259827
1789317488962188500,6.4721884765625,-1.4481922388076782,-2.637432098388672,-0.15662327408790588
1789317488972143400,6.482143310546875,-0.5116072297096252,-2.0918807983398438,0.7185601592063904
1789317488982098400,6.492098388671875,0.6479730606079102,0.6443300247192383,1.0099382400512695
1789317488992053200,6.50205322265625,0.9712770581245422,4.95476770401001,0.023184575140476227
1789317489002007600,6.512007568359375,0.3368622362613678,3.456427812576294,-1.6645512580871582
1789317489011962400,6.52196240234375,-1.2069666385650635,-2.2528769969940186,-2.8374249935150146
1789317489021917400,6.53191748046875,-2.1184678077697754,-2.5901334285736084,-1.7175157070159912
1789317489031871200,6.541871337890625,-1.044100046157837,-0.7189921140670776,-0.05204213038086891
1789317489041826600,6.55182666015625,0.862583577632904,3.067429542541504,0.9453103542327881
1789317489051781400,6.561781494140625,1.309333086013794,2.5783634185791016,1.2463728189468384
1789317489061735400,6.5717353515625,-0.009530815295875072,-1.0023818016052246,1.2828452587127686
1789317489071690200,6.581690185546875,-1.3767553567886353,-2.765873908996582,1.0805635452270508
1789317489081645600,6.5916455078125,-1.5654475688934326,-3.354257822036743,1.215511441230774
1789317489091599400,6.601599365234375,-0.7136045694351196,-0.48311805725097656,0.8160077929496765
1789317489101554400,6.611554443359375,0.2852846384048462,2.2895209789276123,0.5400681495666504
1789317489111509200,6.62150927734375,0.7288995981216431,3.526021718978882,-1.1698613166809082
1789317489121463300,6.63146337890625,-0.08114782720804214,1.8819432258605957,-3.348651170730591
1789317489131418400,6.64141845703125,-1.2529349327087402,-2.1545259952545166,-3.69232439994812
1789317489141373400,6.65137353515625,-1.5601509809494019,-3.0339179039001465,-1.5654809474945068
1789317489151328300,6.661328369140625,-0.9696200489997864,-1.0598503351211548,1.332740068435669
1789317489161282300,6.6712822265625,0.06499476730823517,2.772503137588501,2.591494560241699
1789317489171237400,6.6812373046875,0.5236305594444275,3.1780247688293457,2.443366765975952
1789317489181192400,6.6911923828125,-0.18535125255584717,-0.5817927122116089,0.5968781113624573
1789317489191146500,6.701146484375,-1.4780970811843872,-2.7114651203155518,0.3905028700828552
1789317489201101300,6.711101318359375,-1.7119783163070679,-3.2661876678466797,0.6132282614707947
1789317489211056400,6.721056396484375,-0.4403703808784485,-0.07654982805252075,-0.8022525310516357
1789317489221010400,6.731010498046875,0.6672361493110657,3.3076012134552,-1.1584599018096924
1789317489230965200,6.74096533203125,0.6491777896881104,2.9821317195892334,-1.7111355066299438
1789317489240920300,6.75092041015625,-0.6161937117576599,0.12218211591243744,-2.2397356033325195
1789317489250874400,6.760874267578125,-1.7268931865692139,-2.6343538761138916,-0.8188681602478027
1789317489260829400,6.770829345703125,-1.2615448236465454,-0.9460791349411011,0.020010661333799362
1789317489270784300,6.7807841796875,0.11843028664588928,0.87605220079422,0.8492870926856995
1789317489280738300,6.79073828125,0.4817110598087311,0.7581027746200562,1.952519178390503
1789317489290693400,6.800693359375,-0.22677847743034363,0.26192817091941833,1.9243005514144897
1789317489300648400,6.8106484375,-0.760473370552063,-1.3203024864196777,1.3424615859985352
1789317489310603300,6.820603271484375,-0.5560129284858704,-1.0633295774459839,-0.1982378214597702
1789317489320557300,6.830557373046875,-0.0861901193857193,0.9394927024841309,-1.4447040557861328
1789317489330512400,6.840512451171875,-0.027537724003195763,-0.6114926338195801,-1.3743590116500854
1789317489340467500,6.850467529296875,-0.4983707368373871,-0.4716094434261322,-0.9431456923484802
1789317489350421500,6.86042138671875,-0.6473013758659363,-0.7583117485046387,0.31132858991622925
1789317489360376300,6.870376220703125,-0.09541847556829453,2.02789568901062,0.018537694588303566
1789317489370331400,6.880331298828125,0.26813071966171265,1.7961616516113281,0.019148090854287148
1789317489380285200,6.89028515625,-0.2504500448703766,-1.2259447574615479,0.44584983587265015
1789317489390240500,6.900240478515625,-1.0135455131530762,-1.5314275026321411,0.8198471665382385
1789317489400195300,6.9101953125,-0.6953781247138977,-2.1951348781585693,1.2741172313690186
1789317489410149400,6.9201494140625,0.4065196216106415,0.7120274305343628,-0.06949246674776077
1789317489420104200,6.930104248046875,0.8981297612190247,2.465846300125122,-0.33545950055122375
1789317489430059500,6.9400595703125,0.5073878765106201,0.20455464720726013,-0.7018758654594421
1789317489440013300,6.950013427734375,-0.7302262187004089,-0.4520457088947296,-1.149432897567749
1789317489449968400,6.959968505859375,-0.959524393081665,0.4390847384929657,-1.855791449546814
1789317489459923200,6.969923095703125,-0.26771458983421326,-0.49373477697372437,-0.8110731244087219
1789317489469878500,6.97987841796875,0.10186346620321274,-0.26143336296081543,0.826804518699646
1789317489479832300,6.989832275390625,0.3312748968601227,0.13812355697155,1.3055700063705444
1789317489489787400,6.999787353515625,0.4013945758342743,-1.5184394121170044,2.807050943374634
1789317489499742200,7.0097421875,0.3996645510196686,-1.372258186340332,2.6571080684661865
1789317489509696500,7.019696533203125,0.5998716950416565,1.676374912261963,0.17352518439292908
1789317489519651300,7.0296513671875,0.6192895770072937,2.1549935340881348,-2.036724805831909
1789317489529606400,7.0396064453125,-0.20029078423976898,-0.06450815498828888,-2.740622043609619
1789317489539560200,7.049560302734375,-1.2728538513183594,-1.3624590635299683,-1.2733502388000488
1789317489549515500,7.059515625,-0.812786340713501,-1.2048293352127075,-1.2443747520446777
1789317489559470300,7.06947021484375,0.38558822870254517,3.6743099689483643,-0.5963846445083618
1789317489569424400,7.07942431640625,1.302757740020752,-0.8904838562011719,0.9614548087120056
1789317489579379200,7.089379150390625,0.6496617794036865,-1.5015993118286133,2.0696609020233154
1789317489589334500,7.09933447265625,0.07873252034187317,-1.835912823677063,2.8778300285339355
1789317489599288600,7.10928857421875,0.5607298612594604,-0.775542140007019,1.795569658279419
1789317489609243400,7.119243408203125,0.8501523733139038,1.4833989143371582,-0.3267688751220703
1789317489619198200,7.1291982421875,0.14373750984668732,0.8106784820556641,-1.3974506855010986
1789317489629153500,7.139153564453125,-0.7853978872299194,-0.37675368785858154,-1.1833908557891846
1789317489639107600,7.149107666015625,-0.9370422959327698,-1.0198591947555542,-0.9150155186653137
1789317489649062400,7.1590625,-0.15032905340194702,1.9219948053359985,-2.179013252258301
1789317489659017200,7.169017333984375,0.6384361386299133,2.0094566345214844,-0.8792738914489746
1789317489668971300,7.17897119140625,0.8293957114219666,-1.0916554927825928,0.5431721210479736
1789317489678926600,7.188926513671875,0.23586483299732208,-0.9328780174255371,1.3207693099975586
1789317489688881400,7.19888134765625,0.1841616928577423,-2.097513198852539,1.8004056215286255
1789317489698835500,7.20883544921875,0.46767449378967285,-0.5186921954154968,1.0748549699783325
1789317489708790300,7.218790283203125,0.34354108572006226,1.352778434753418,0.2633991241455078
1789317489718745300,7.228745361328125,-0.11097930371761322,1.114776849746704,-0.06761252135038376
1789317489728699400,7.238699462890625,-0.513665497303009,0.44832897186279297,-0.7503522038459778
1789317489738654500,7.248654541015625,-0.5204609036445618,-0.20497116446495056,-1.6247295141220093
1789317489748609300,7.258609375,-0.1777493804693222,0.03275058791041374,-1.5759962797164917
1789317489758564400,7.268564453125,0.5140904188156128,1.6059359312057495,-1.1329104900360107
1789317489768518400,7.278518310546875,0.8021581172943115,-0.5509006977081299,0.2134774923324585
1789317489778473500,7.288473388671875,0.20815767347812653,-1.710294246673584,1.9140201807022095
1789317489788428300,7.29842822265625,-0.14221739768981934,-1.8144137859344482,2.453373432159424
1789317489798382300,7.30838232421875,0.12075437605381012,1.0517306327819824,1.2919951677322388
1789317489808337400,7.31833740234375,0.3911331295967102,1.920590877532959,0.06948704272508621
1789317489818292500,7.32829248046875,0.024019846692681313,0.34846144914627075,-0.7227420806884766
1789317489828246300,7.338246337890625,-0.5570172071456909,-0.46826106309890747,-1.5656483173370361
1789317489838201300,7.348201416015625,-0.5041135549545288,-1.3134416341781616,-1.721166968345642
1789317489848156400,7.358156494140625,0.12172827124595642,-0.39420655369758606,-1.1387451887130737
1789317489858110500,7.3681103515625,0.8278476595878601,1.1152492761611938,-0.5070308446884155
1789317489868065300,7.378065185546875,0.689703106880188,0.3928690254688263,1.1282058954238892
1789317489878020600,7.3880205078125,-0.019483184441924095,0.942409873008728,1.4074300527572632
1789317489887975400,7.397975341796875,-0.5797310471534729,-0.709587037563324,1.3518600463867188
1789317489897929500,7.407929443359375,-0.621201753616333,-0.4004361033439636,0.41597047448158264
1789317489907884500,7.417884521484375,-0.2691344618797302,-0.6496419310569763,-0.18291667103767395
1789317489917839600,7.427839599609375,0.16724297404289246,-0.353608101606369,-0.6325889825820923
1789317489927793400,7.43779345703125,0.35548797249794006,0.49605053663253784,-0.8301233649253845
1789317489937748500,7.44774853515625,0.424497127532959,0.7551385760307312,-0.247417613863945
1789317489947703600,7.45770361328125,0.6246107816696167,1.5906102657318115,-1.3389068841934204
1789317489957657600,7.46765771484375,-0.04483397305011749,-0.9745164513587952,-0.6864354014396667
1789317489967612400,7.4776123046875,-0.7977708578109741,-0.9136336445808411,0.28786155581474304
1789317489977567500,7.4875673828125,-0.5346027612686157,-1.0502772331237793,0.9790796637535095
1789317489987521500,7.497521484375,0.3433431386947632,0.8579456210136414,0.38137415051460266
1789317489997476600,7.5074765625,0.6713110208511353,-0.1879490464925766,0.5492475032806396
1789317490007431400,7.517431396484375,0.11128044873476028,-1.1241271495819092,1.8158596754074097
1789317490017386500,7.527386474609375,-0.1696116179227829,-0.9765294194221497,1.2010748386383057
1789317490027340300,7.53734033203125,0.32288408279418945,1.1565707921981812,-0.8724638819694519
1789317490037295600,7.547295654296875,0.811951220035553,2.2244880199432373,-2.682080030441284
1789317490047250400,7.55725048828125,0.061300128698349,-0.4921487271785736,-2.5902745723724365
1789317490057204500,7.56720458984375,-1.0454845428466797,-1.140769362449646,-1.0452207326889038
1789317490067159300,7.5771591796875,-0.7418355345726013,-1.681510329246521,0.411037802696228
1789317490077114600,7.587114501953125,0.3776935338973999,0.27470794320106506,1.6063919067382812
1789317490087068700,7.597068603515625,1.0771777629852295,0.7498766183853149,1.82518470287323
1789317490097023500,7.6070234375,0.4955688714981079,1.005107045173645,1.4976856708526611
1789317490106978300,7.616978271484375,-0.4790617823600769,-0.7835165858268738,0.9408552646636963
1789317490116932400,7.626932373046875,-0.9129151701927185,-2.312765121459961,0.6733564734458923
1789317490126887700,7.6368876953125,-0.22262969613075256,-0.8593844175338745,-1.1511151790618896
1789317490136842500,7.646842529296875,0.4982771575450897,1.1352958679199219,-1.626189112663269
1789317490146797300,7.65679736328125,0.33338141441345215,2.5359549522399902,-0.7941092252731323
1789317490156751400,7.66675146484375,-0.2879670262336731,0.9830449223518372,-0.2714635729789734
1789317490166706700,7.676706787109375,-0.7588858008384705,-0.12097170203924179,0.09994378685951233
1789317490176661500,7.68666162109375,-0.39420217275619507,-1.3546583652496338,0.09754610806703568
1789317490186615600,7.696615478515625,0.08499637991189957,-0.911956250667572,0.7428430914878845
1789317490196570400,7.7065703125,0.4247973561286926,-0.5053145885467529,0.8426263332366943
1789317490206525400,7.716525390625,0.2699028551578522,-0.7249130010604858,1.9162476062774658
1789317490216479500,7.7264794921875,0.035075776278972626,0.044196635484695435,1.6152434349060059
1789317490226434600,7.7364345703125,0.1406775563955307,2.0636825561523438,-1.053045630455017
1789317490236389400,7.746389404296875,-0.29119381308555603,0.4764137268066406,-1.5184080600738525
1789317490246343700,7.75634375,-0.9478025436401367,0.008232674561440945,-1.5022423267364502
1789317490256298500,7.766298583984375,-0.9907851219177246,-1.0882405042648315,-1.3973174095153809
1789317490266253600,7.776253662109375,-0.4020710289478302,-1.743951439857483,-0.2815791070461273
1789317490276208400,7.78620849609375,0.3308165967464447,0.9436873197555542,0.9463724493980408
1789317490286162700,7.79616259765625,0.7483395934104919,3.131051778793335,0.5392403602600098
1789317490296117500,7.806117431640625,-0.19443301856517792,-0.18398338556289673,0.17573030292987823
1789317490306072600,7.816072509765625,-1.6306883096694946,-2.1040186882019043,0.6314914226531982
1789317490316026400,7.8260263671875,-1.626405954360962,-3.2211406230926514,1.2190427780151367
1789317490325981700,7.835981689453125,-0.20457851886749268,-0.2354581654071808,0.2524269223213196
1789317490335936500,7.8459365234375,0.7464357614517212,1.7257822751998901,0.17549961805343628
1789317490345890600,7.855890625,0.5649277567863464,2.141526222229004,-0.21700824797153473
1789317490355845400,7.865845458984375,-0.19718502461910248,0.5404899716377258,-0.9967266321182251
1789317490365800700,7.87580078125,-0.8684731721878052,-0.17701274156570435,-1.5644192695617676
1789317490375754500,7.88575439453125,-0.957313060760498,-0.6881452798843384,-1.1085703372955322
1789317490385709600,7.89570947265625,-0.5094915628433228,-0.8033067584037781,-0.30614373087882996
1789317490395664400,7.905664306640625,0.23769555985927582,1.0722061395645142,-0.13087591528892517
1789317490405619500,7.915619384765625,0.4986099898815155,-1.101845383644104,1.0455020666122437
1789317490415573500,7.925573486328125,-0.041700150817632675,-0.7304815649986267,1.5585967302322388
1789317490425528600,7.935528564453125,-0.25578925013542175,-0.960203230381012,0.8049783706665039
1789317490435483400,7.9454833984375,-0.438457727432251,-1.5502710342407227,1.3607263565063477
1789317490445437400,7.9554375,-0.41977405548095703,0.5992416143417358,0.5471537709236145
1789317490455392500,7.965392578125,-0.04555707052350044,1.3121411800384521,-0.7524200081825256
1789317490465347600,7.97534765625,-0.06878383457660675,0.9107303619384766,-1.1447795629501343
1789317490475301600,7.985301513671875,-0.22807577252388,0.3381586968898773,-1.8504717350006104
1789317490485256400,7.99525634765625,-0.2665126621723175,-1.7731927633285522,-1.3734111785888672
1789317490495211500,8.00521142578125,-0.21138861775398254,-0.3034605383872986,-0.8260548710823059
1789317490505165600,8.01516552734375,0.00120619498193264,1.9948844909667969,0.08902056515216827
1789317490515120400,8.025120361328124,0.09162837266921997,0.9111476540565491,0.26593923568725586
1789317490525075500,8.035075439453125,-0.4309682548046112,-0.9040112495422363,0.8527305722236633
1789317490535030500,8.045030517578125,-0.6104795336723328,-2.477024555206299,1.2286012172698975
1789317490544984600,8.054984619140624,-0.10489065200090408,0.6828528046607971,-0.487692654132843
1789317490554939400,8.064939453125,0.27103373408317566,-0.7440696954727173,0.6717356443405151
1789317490564894500,8.07489453125,0.3314872086048126,0.09343317896127701,0.2997932434082031
1789317490574848500,8.0848486328125,0.0992949977517128,0.18502528965473175,-0.03551669418811798
1789317490584803600,8.094803466796876,-0.20702551305294037,-0.797768771648407,0.21951080858707428
1789317490594758400,8.10475830078125,-0.41134583950042725,0.24533973634243011,-0.7162705659866333
1789317490604712400,8.11471240234375,-0.21067821979522705,2.7915475368499756,-1.348199725151062
1789317490614667500,8.12466748046875,0.12418908625841141,0.010084696114063263,-1.846619963645935
1789317490624622600,8.13462255859375,-0.4797127842903137,-1.1010750532150269,-0.3504180312156677
1789317490634576600,8.14457666015625,-0.6419105529785156,-2.20784592628479,1.2800171375274658
1789317490644531500,8.154531494140626,0.04264623671770096,-2.9453351497650146,2.503922939300537
1789317490654486500,8.164486572265625,0.8161693215370178,3.9234206676483154,1.1893188953399658
1789317490664440300,8.1744404296875,0.9895379543304443,2.382611036300659,0.17402902245521545
1789317490674395600,8.184395751953126,-0.09213797003030777,-0.7353127002716064,-1.1571722030639648
1789317490684350500,8.1943505859375,-1.4563106298446655,-2.400000810623169,-0.9158464074134827
1789317490694305500,8.204305419921875,-1.1225042343139648,-2.1280884742736816,-1.1722861528396606
1789317490704259300,8.21425927734375,0.32178518176078796,2.606748580932617,-1.7610466480255127
1789317490714214700,8.224214599609375,0.900550127029419,1.424903392791748,-0.33773642778396606
1789317490724169500,8.23416943359375,0.16926926374435425,0.2161383032798767,0.8880995512008667
1789317490734123500,8.24412353515625,-0.7466118335723877,-2.2654762268066406,2.444592237472534
1789317490744078300,8.254078369140625,-0.6500698328018188,-2.275639533996582,1.8292821645736694
1789317490754033700,8.26403369140625,0.30893898010253906,1.5713434219360352,0.05432900786399841
1789317490763987500,8.273987548828124,0.7609280347824097,0.4786441922187805,-0.5387346148490906
1789317490773942500,8.283942626953126,0.1134718582034111,0.8372513055801392,-1.0404428243637085
1789317490783897300,8.2938974609375,-0.49108168482780457,-0.39110323786735535,-0.9755333065986633
1789317490793851600,8.3038515625,-0.4147964417934418,-1.730230689048767,-0.6439761519432068
1789317490803806500,8.313806396484376,0.010285869240760803,1.6959677934646606,-0.8328118324279785
1789317490813761500,8.323761474609375,0.5402143597602844,0.3486049771308899,0.7569261193275452
1789317490823716400,8.33371630859375,0.5642690658569336,-0.012413428165018559,0.8167353868484497
1789317490833670700,8.343670654296876,0.09378183633089066,1.0864789485931396,0.50218266248703
1789317490843625500,8.35362548828125,0.2782003879547119,-0.3754177689552307,-0.6354608535766602
1789317490853580500,8.36358056640625,0.12181085348129272,-1.2339258193969727,-0.5401302576065063
1789317490863534300,8.373534423828126,-0.30928435921669006,-1.5758426189422607,1.006280541419983
1789317490873489700,8.38348974609375,0.01681612990796566,-1.284714698791504,1.5557339191436768
1789317490883444500,8.393444580078125,0.6324252486228943,0.9077723622322083,0.9326966404914856
1789317490893398500,8.4033984375,0.8572053909301758,3.9017722606658936,-0.2587704658508301
1789317490903353600,8.413353515625,0.38714200258255005,0.14350897073745728,-1.6302001476287842
1789317490913308700,8.42330859375,-0.8365433216094971,-1.672329306602478,-1.2751530408859253
1789317490923262700,8.4332626953125,-1.0858805179595947,-2.171639919281006,-0.42343446612358093
1789317490933217500,8.443217529296875,-0.24108953773975372,-1.542287826538086,1.1049065589904785
1789317490943172600,8.453172607421875,0.8429195284843445,2.0516462326049805,1.3165287971496582
1789317490953126700,8.463126708984374,1.006292700767517,1.9376400709152222,1.59837007522583
1789317490963081500,8.47308154296875,0.3412909507751465,0.82846599817276,0.2468978613615036
1789317490973036500,8.48303662109375,-0.599215030670166,-1.0636454820632935,-1.0228527784347534
1789317490982991600,8.49299169921875,-1.0854939222335815,-1.753598690032959,-1.189466953277588
1789317490992945700,8.502945556640626,-0.5551666617393494,0.9566149115562439,-1.3932626247406006
1789317491002900500,8.512900390625,0.2324853241443634,0.8031347990036011,-0.8553531169891357
1789317491012855600,8.52285546875,0.4135800898075104,1.3971574306488037,-0.2669268846511841
1789317491022809900,8.532809814453126,0.20567749440670013,-1.089748740196228,0.4631614089012146
1789317491032764700,8.5427646484375,-0.20452265441417694,-0.8204492330551147,0.5547248721122742
1789317491042719500,8.552719482421875,-0.40183117985725403,-1.4865649938583374,1.0564184188842773
1789317491052673500,8.562673583984376,-0.17378193140029907,-0.6172309517860413,0.6230707764625549
1789317491062628600,8.572628662109375,-0.06282878667116165,-0.07799886167049408,0.6817085146903992
1789317491072583700,8.582583740234375,-0.08051367849111557,0.2929762303829193,0.7469468116760254
1789317491082537700,8.592537841796876,-0.012764986604452133,2.87398362159729,-0.3557831943035126
1789317491092492500,8.602492431640625,0.13641849160194397,0.04942738637328148,-1.8989770412445068
1789317491102447600,8.612447509765625,-0.2669808864593506,-2.778625726699829,-2.212529420852661
1789317491112401700,8.622401611328126,-0.7466607093811035,-1.6523776054382324,-0.3597038686275482
1789317491122356700,8.632356689453125,0.006366472225636244,-1.6856721639633179,1.682067632675171
1789317491132311600,8.6423115234375,0.7992021441459656,1.3067547082901,2.0237131118774414
1789317491142266600,8.6522666015625,0.8879056572914124,4.083000659942627,1.318037748336792
1789317491152220700,8.662220703125,0.42624956369400024,0.7389993667602539,0.7147225141525269
1789317491162175700,8.67217578125,-0.5587027072906494,-2.2127909660339355,0.09804252535104752
1789317491172130600,8.682130615234374,-0.8301405310630798,-2.1899218559265137,-1.2372593879699707
1789317491182084600,8.692084716796876,0.15225321054458618,1.7941632270812988,-2.1601667404174805
1789317491192039700,8.702039794921875,1.301818609237671,0.678900957107544,-2.141051769256592
1789317491201994800,8.711994873046875,0.9361357688903809,-0.018300216645002365,-0.7963008880615234
1789317491211948500,8.721948486328126,0.23874971270561218,-0.8566638231277466,0.8126785159111023
1789317491221903600,8.731903564453125,0.38087865710258484,-0.34690845012664795,0.9770208597183228
1789317491231858700,8.741858642578125,0.7031543254852295,0.7508153915405273,1.0396337509155273
1789317491241812700,8.751812744140626,0.611518383026123,-0.5231705904006958,1.1058719158172607
1789317491251767600,8.761767578125,0.3251478970050812,0.2890254855155945,0.17716482281684875
1789317491261722600,8.77172265625,0.29485923051834106,-0.5556069612503052,-0.405125230550766
1789317491271676400,8.781676513671876,0.3049742579460144,-0.7104356288909912,-0.3547646701335907
1789317491281631700,8.7916318359375,0.6592984795570374,0.266813725233078,-0.957150936126709
1789317491291586600,8.801586669921875,0.7930659055709839,0.33135786652565,-0.10273455083370209
1789317491301540600,8.81154052734375,0.7120040655136108,0.3966740071773529,0.03986787050962448
1789317491311495400,8.821495361328125,0.3477881848812103,0.8324772715568542,0.39008650183677673
1789317491321450800,8.83145068359375,0.4403202533721924,0.35022246837615967,0.13777916133403778
1789317491331405600,8.841405517578124,0.3295123875141144,-1.37016761302948,0.22654558718204498
1789317491341359600,8.851359619140625,-0.11274199932813644,-0.9256879091262817,0.7720520496368408
1789317491351314400,8.861314453125,0.17691157758235931,0.009864440187811852,0.22240588068962097
1789317491361269800,8.871269775390624,0.7707245945930481,2.0281898975372314,-0.2398959845304489
1789317491371223800,8.881223876953126,1.1774624586105347,1.0295103788375854,-1.0146470069885254
1789317491381178600,8.8911787109375,0.53746497631073,-0.5772266983985901,-1.4547836780548096
1789317491391133400,8.901133544921874,-0.39536353945732117,-0.6249593496322632,-0.5990086197853088
1789317491401087500,8.91108740234375,-0.3320218324661255,-0.6530927419662476,0.35627129673957825
1789317491411042800,8.921042724609375,0.10875635594129562,0.5559000968933105,0.894152045249939
1789317491420997600,8.93099755859375,0.24512527883052826,0.0823279395699501,1.5941824913024902
1789317491430951700,8.94095166015625,0.36583125591278076,-0.3122000992298126,0.4093181788921356
1789317491440906500,8.950906494140625,0.2692732810974121,-0.7868052124977112,-0.16797925531864166
1789317491450861600,8.960861572265625,0.19531096518039703,-1.1461982727050781,-0.1608901023864746
1789317491460815600,8.970815673828126,0.2766686677932739,-0.14033381640911102,0.17710712552070618
1789317491470770700,8.980770751953125,0.6182993650436401,1.4497323036193848,-0.7654427886009216
1789317491480725500,8.9907255859375,0.18630030751228333,1.1530239582061768,-1.4577972888946533
1789317491490680600,9.0006806640625,-0.6411813497543335,0.13792262971401215,-0.47481435537338257
1789317491500634600,9.010634521484375,-0.7012673616409302,-2.291393995285034,0.8674800395965576
1789317491510589700,9.020589599609375,-0.039857082068920135,1.6181186437606812,0.4827253818511963
1789317491520544500,9.03054443359375,0.9654833078384399,2.250617742538452,-1.0559366941452026
1789317491530498800,9.040498779296875,0.6490917205810547,-0.4651291072368622,-1.2966159582138062
1789317491540453600,9.05045361328125,-0.6077975034713745,-2.0573055744171143,0.1632075160741806
1789317491550408700,9.06040869140625,-1.15985107421875,-2.2702982425689697,2.0103278160095215
1789317491560362500,9.070362548828125,-0.22788554430007935,0.9561304450035095,1.3725746870040894
1789317491570317600,9.080317626953125,0.49080005288124084,1.0184173583984375,1.1986305713653564
1789317491580272600,9.090272705078124,0.26824796199798584,1.3348212242126465,0.5093845129013062
1789317491590226700,9.100226806640626,-0.3381563723087311,0.4996766746044159,-0.0619746632874012
1789317491600181500,9.110181396484375,-0.6110132336616516,-0.6782239675521851,-0.9633916020393372
1789317491610136600,9.120136474609374,-0.3722881078720093,-1.1880117654800415,-1.539214849472046
1789317491620090600,9.130090576171876,0.17681175470352173,-0.24891753494739532,-1.2602726221084595
1789317491630045700,9.140045654296875,0.5252878665924072,1.037940263748169,-0.10425995290279388
1789317491640000500,9.15000048828125,0.20817410945892334,0.5270881652832031,0.7569139003753662
1789317491649955600,9.15995556640625,-0.4213043451309204,0.9098931550979614,0.4498922824859619
1789317491659909600,9.16990966796875,-0.4934254288673401,-1.2575901746749878,0.27691012620925903
1789317491669864700,9.17986474609375,-0.2671308219432831,-0.6389447450637817,0.20125353336334229
1789317491679819500,9.189819580078124,-0.02504066750407219,-0.929657518863678,0.47830432653427124
1789317491689773600,9.199773681640625,0.0920424833893776,-0.5414196252822876,1.175418496131897
1789317491699728600,9.209728759765625,0.5537600517272949,1.59247624874115,-0.23286007344722748
1789317491709683700,9.21968359375,0.3985697329044342,0.5875117182731628,-0.6724910140037537
1789317491719637800,9.2296376953125,-0.31281810998916626,0.5764548182487488,-1.086733102798462
1789317491729592600,9.239592529296875,-0.805584728717804,-1.0243712663650513,-0.9918237328529358
1789317491739547600,9.249547607421874,-0.664516270160675,-0.8681765198707581,-0.5422800183296204
1789317491749501700,9.259501708984375,0.04815380647778511,1.5119616985321045,-0.05389472842216492
1789317491759456500,9.26945654296875,0.6397489905357361,0.028620915487408638,1.0455048084259033
1789317491769411600,9.27941162109375,0.39152491092681885,0.29083251953125,1.014082908630371
1789317491779365600,9.28936572265625,-0.12545566260814667,-1.186464786529541,1.5943344831466675
1789317491789320700,9.29932080078125,-0.14186523854732513,-1.971547245979309,1.1252456903457642
1789317491799275500,9.309275634765624,0.0366954505443573,0.7353849411010742,0.31705597043037415
1789317491809229600,9.3192294921875,0.28238752484321594,1.0467787981033325,-0.5711226463317871
1789317491819184600,9.3291845703125,0.07462741434574127,0.6183722019195557,-1.070580244064331
1789317491829139700,9.3391396484375,-0.266708642244339,-0.636263906955719,-0.337546706199646
1789317491839093800,9.34909375,-0.17745548486709595,-1.2564934492111206,0.1388789564371109
1789317491849048600,9.359048583984375,0.15040704607963562,2.6521952152252197,-0.383880615234375
1789317491859003600,9.369003662109375,0.5013130903244019,0.6400580406188965,-0.7713718414306641
1789317491868958700,9.378958740234374,0.11748452484607697,0.4793413579463959,-1.1381587982177734
1789317491878913300,9.388913330078125,-0.2816231846809387,-1.9924840927124023,-0.215255007147789
1789317491888868000,9.3988681640625,-0.19941623508930206,-1.613754153251648,0.49812546372413635
1789317491898823200,9.4088232421875,0.18463397026062012,-0.3249523639678955,1.1426136493682861
1789317491908777200,9.418777099609375,0.3787284195423126,0.366237610578537,1.5458182096481323
1789317491918732300,9.428732177734375,0.20428228378295898,1.614281177520752,1.2228524684906006
1789317491928687000,9.43868701171875,0.11777912080287933,0.7216304540634155,-0.23780784010887146
1789317491938641400,9.448641357421875,-0.11680382490158081,-0.2556881308555603,-1.5129176378250122
1789317491948596200,9.45859619140625,-0.26876869797706604,-1.5416297912597656,-1.402332067489624
1789317491958551300,9.46855126953125,0.036223944276571274,-1.1539169549942017,-1.053116798400879
1789317491968505000,9.478505126953126,0.5222353339195251,2.1826393604278564,-0.4806400239467621
1789317491978460400,9.48846044921875,0.6623218655586243,0.5506278276443481,0.6117913126945496
1789317491988415200,9.498415283203125,0.054986339062452316,0.28695544600486755,0.6518917083740234
1789317491998369300,9.508369384765626,-0.4371245503425598,-1.117954134941101,0.6469489336013794
1789317492008324000,9.518323974609375,-0.3077813684940338,-1.639548897743225,0.6789550185203552
1789317492018279400,9.528279541015625,0.1141272634267807,-0.14041556417942047,0.369570791721344
1789317492028233200,9.538233154296876,0.3841433525085449,-0.07191649079322815,0.664985716342926
1789317492038188300,9.548188232421875,0.3472614884376526,0.581204354763031,0.2616260051727295
1789317492048143000,9.55814306640625,0.15888701379299164,1.1741760969161987,-0.6603843569755554
1789317492058098400,9.568098388671874,0.05646050348877907,0.5804634690284729,-1.7314637899398804
1789317492068052200,9.57805224609375,-0.11332874000072479,0.23868699371814728,-1.7966499328613281
1789317492078007300,9.58800732421875,-0.29420024156570435,0.06571201235055923,-0.4846145808696747
1789317492087962000,9.597962158203124,-0.011457106098532677,0.682387113571167,-0.07554562389850616
1789317492097916200,9.607916259765625,0.3324619233608246,-0.15409600734710693,0.7940635681152344
1789317492107871200,9.617871337890625,0.31427788734436035,-1.6160246133804321,1.7266496419906616
1789317492117826300,9.627826416015624,0.12619425356388092,-0.29500776529312134,1.3254828453063965
1789317492127780000,9.637780029296875,0.20986874401569366,1.3266105651855469,0.4212389290332794
1789317492137735200,9.647735107421875,0.22560563683509827,0.9972743391990662,-0.690337061882019
1789317492147690200,9.657690185546874,-0.3108101487159729,-0.028522027656435966,-0.699428915977478
1789317492157644300,9.667644287109376,-0.5041806697845459,0.020040448755025864,-1.1337769031524658
1789317492167599000,9.67759912109375,-0.14032527804374695,-0.11036393791437149,-0.5834329724311829
1789317492177554200,9.68755419921875,0.38416218757629395,0.09429573267698288,-0.26569411158561707
1789317492187508200,9.69750830078125,0.4792507290840149,0.7133126258850098,0.2173883467912674
1789317492197463300,9.70746337890625,0.247903510928154,0.7312325239181519,0.5867637395858765
1789317492207418000,9.717418212890625,-0.10136670619249344,0.02393774688243866,0.31910014152526855
1789317492217372200,9.7273720703125,-0.4318828284740448,-1.4739502668380737,0.2777785360813141
1789317492227327200,9.7373271484375,-0.34490251541137695,-2.0168535709381104,0.7087231278419495
1789317492237282300,9.7472822265625,0.09060901403427124,-0.34989461302757263,0.9567315578460693
1789317492247236400,9.757236328125,0.6449544429779053,2.885566234588623,0.42704930901527405
1789317492257191200,9.767191162109375,0.7069008946418762,1.5086392164230347,-0.598787248134613
1789317492267146000,9.77714599609375,-0.12601163983345032,-0.22498390078544617,-1.1202678680419922
1789317492277101300,9.787101318359374,-0.5954566597938538,-2.342231512069702,-0.9072320461273193
1789317492287055400,9.797055419921875,-0.32127144932746887,-1.4233731031417847,-0.22610419988632202
1789317492297010200,9.80701025390625,0.5000008344650269,1.0970555543899536,0.379480242729187
1789317492306965000,9.816965087890624,0.9535194635391235,1.2952218055725098,0.9886522889137268
1789317492316919300,9.826919189453125,0.4704066216945648,0.5322035551071167,1.2985174655914307
1789317492326874400,9.836874267578125,-0.14106610417366028,-0.6510492563247681,0.8637039661407471
1789317492336829200,9.8468291015625,-0.37035495042800903,-1.3546662330627441,0.4383726418018341
1789317492346783200,9.856783203125,0.03428569436073303,1.7426960468292236,-0.7863655686378479
1789317492356738000,9.866738037109375,0.736596941947937,2.6751809120178223,-1.7950767278671265
1789317492366693400,9.876693359375,0.6048897504806519,-0.34647464752197266,-1.730401635169983
1789317492376647200,9.886647216796876,-0.17956534028053284,-0.9238215684890747,-0.9698758721351624
1789317492386602200,9.896602294921875,-0.2157178819179535,-1.9234886169433594,0.33474138379096985
1789317492396557000,9.90655712890625,0.4365464448928833,0.09602430462837219,1.3225040435791016
1789317492406511400,9.916511474609376,1.0206016302108765,1.4377979040145874,1.6871366500854492
1789317492416466200,9.926466064453125,0.8853738307952881,1.4027003049850464,1.463442325592041
1789317492426421200,9.936421142578125,0.3086439371109009,0.33318257331848145,0.5389431118965149
1789317492436375000,9.946375,-0.22209450602531433,-0.9478520154953003,-0.4631101191043854
1789317492446330400,9.956330322265625,-0.19113191962242126,-1.1108084917068481,-1.3803590536117554
1789317492456285200,9.96628515625,0.0970679223537445,-0.9903241395950317,-0.3325340747833252
1789317492466240300,9.976240234375,0.4710514545440674,0.7810973525047302,0.07648549228906631
1789317492476194000,9.986194091796875,0.7577260732650757,4.3978590965271,-0.33487194776535034
1789317492486149400,9.9961494140625,0.8501451015472412,-0.41415935754776,-0.40297502279281616
1789317492496104200,10.006104248046874,-0.10236318409442902,-2.3180031776428223,-0.021784255281090736
1789317492506058200,10.016058349609375,-0.6347781419754028,-1.7074565887451172,0.694532573223114
1789317492516013000,10.026012939453125,0.32771384716033936,1.0243463516235352,0.016987930983304977
1789317492525968400,10.035968505859374,0.8761987090110779,1.067387580871582,0.22562885284423828
1789317492535922200,10.045922119140625,0.32935529947280884,1.1125918626785278,0.5545438528060913
1789317492545877200,10.055877197265625,-0.28745946288108826,0.11804662644863129,0.3509608805179596
1789317492555832000,10.06583203125,-0.37736964225769043,1.4196369647979736,-0.5444892048835754
1789317492565786000,10.0757861328125,-0.031674791127443314,0.7133150696754456,-1.7441126108169556
1789317492575741200,10.0857412109375,0.02834220789372921,-0.7541428804397583,-1.5997525453567505
1789317492585696300,10.0956962890625,-0.0063253287225961685,-0.9667457342147827,-0.6677803993225098
1789317492595650300,10.105650390625,-0.04853669926524162,-1.6589462757110596,0.9258663654327393
1789317492605605000,10.115605224609375,0.04214084520936012,1.7477048635482788,1.5869252681732178
1789317492615560200,10.125560302734375,0.3989199995994568,1.8655436038970947,1.0526045560836792
1789317492625514200,10.13551416015625,-0.1106923446059227,-0.5631614327430725,1.3048548698425293
1789317492635469300,10.14546923828125,-0.9214935898780823,-1.0467356443405151,1.1063079833984375
1789317492645424000,10.155424072265625,-0.6170697212219238,-1.2505232095718384,-0.21401581168174744
1789317492655378200,10.165378173828126,0.2499205470085144,0.42632970213890076,-0.943998396396637
1789317492665333200,10.175333251953125,0.8202660083770752,1.907271385192871,-1.4448652267456055
1789317492675288300,10.185288330078125,0.48462191224098206,0.19863443076610565,-0.9961938261985779
1789317492685243100,10.1952431640625,-0.24784429371356964,1.2389142513275146,-1.7027262449264526
1789317492695197200,10.205197265625,-0.678699254989624,-0.14766836166381836,-0.6134994626045227
1789317492705152300,10.21515234375,-0.4446141719818115,-0.7560341358184814,0.015048818662762642
1789317492715107300,10.225107421875,-0.19255316257476807,-0.16534820199012756,1.2279090881347656
1789317492725061000,10.23506103515625,0.03504088893532753,-1.815535068511963,2.914013385772705
1789317492735016200,10.24501611328125,0.0807977244257927,-1.0186835527420044,3.022408962249756
1789317492744971300,10.25497119140625,0.3093876838684082,0.7013031840324402,1.6302568912506104
1789317492754925300,10.26492529296875,0.8246017694473267,3.348721981048584,-1.3674914836883545
1789317492764880100,10.274880126953125,0.20883360505104065,0.3836042582988739,-3.149810314178467
1789317492774835200,10.284835205078124,-1.3049044609069824,-1.255944013595581,-2.856985092163086
1789317492784789200,10.294789306640626,-1.6162221431732178,-1.6481103897094727,-1.7399779558181763
1789317492794744300,10.304744384765625,-0.32053276896476746,0.6656103730201721,-0.3028668463230133
1789317492804699100,10.31469921875,1.1135531663894653,1.0178496837615967,0.8380782604217529
1789317492814653200,10.324653076171876,0.9805597066879272,1.3165546655654907,1.5341973304748535
1789317492824608300,10.334608154296875,-0.027040332555770874,-0.7481017112731934,2.4497039318084717
1789317492834563300,10.344563232421875,-0.6011371612548828,-1.9324547052383423,1.4690402746200562
1789317492844517000,10.35451708984375,-0.775691568851471,-1.9093499183654785,0.9217460751533508
1789317492854472200,10.36447216796875,-0.3488108515739441,0.5341399908065796,-0.10513927787542343
1789317492864427000,10.374427001953125,0.13840021193027496,1.8681814670562744,-0.9457117319107056
1789317492874380800,10.384380859375,0.13971687853336334,2.3059232234954834,-1.7278231382369995
1789317492884335900,10.3943359375,-0.16817229986190796,0.2543046176433563,-1.8527123928070068
1789317492894291000,10.404291015625,-0.41225311160087585,-2.0990283489227295,-1.2391985654830933
1789317492904245000,10.414244873046876,-0.4943513870239258,-1.2150784730911255,-0.09850636124610901
1789317492914199800,10.42419970703125,-0.026347428560256958,0.15097716450691223,1.2291936874389648
1789317492924155000,10.43415478515625,0.5468708872795105,2.0003104209899902,1.4677321910858154
1789317492934110000,10.44410986328125,0.41258949041366577,1.0044294595718384,0.735279381275177
1789317492944064000,10.45406396484375,-0.4338630437850952,-1.121681809425354,0.35419759154319763
1789317492954018800,10.464018798828125,-0.7725889086723328,-1.4538074731826782,-0.5631764531135559
1789317492963974000,10.473973876953124,-0.34616905450820923,-1.4944201707839966,-0.6071202158927917
1789317492973927700,10.483927734375,0.015371842309832573,-0.9260355234146118,0.43886423110961914
1789317492983883000,10.493883056640625,0.14524155855178833,0.8572974801063538,0.9549297094345093
1789317492993837800,10.503837890625,0.32191887497901917,1.7070562839508057,0.28258857131004333
1789317493003792000,10.5137919921875,0.24632132053375244,2.6163277626037598,-1.3304890394210815
1789317493013746700,10.52374658203125,-0.40501728653907776,-0.7532612085342407,-2.0288360118865967
1789317493023702000,10.533701904296874,-1.1436800956726074,-1.3899286985397339,-1.4946684837341309
1789317493033655800,10.54365576171875,-0.8813865184783936,-2.116328477859497,0.37200313806533813
1789317493043611000,10.55361083984375,0.19345150887966156,0.3894207179546356,1.1703523397445679
1789317493053565700,10.563565673828125,0.6721318364143372,1.559052586555481,1.7560088634490967
1789317493063519700,10.573519775390626,0.2220754623413086,2.1527724266052246,1.0987486839294434
1789317493073474800,10.583474853515625,-0.6450953483581543,0.2762794494628906,-0.17095573246479034
1789317493083430000,10.593429931640625,-1.1631797552108765,-2.0517234802246094,-0.8379875421524048
1789317493093383700,10.6033837890625,-0.8941357731819153,-2.0474774837493896,-0.7219400405883789
1789317493103338800,10.6133388671875,-0.23035794496536255,-1.1268178224563599,0.20982272922992706
1789317493113293800,10.6232939453125,0.14071999490261078,0.5378514528274536,1.3293448686599731
1789317493123247900,10.633247802734376,0.46075084805488586,1.554595947265625,0.7564207911491394
1789317493133202700,10.64320263671875,0.3930002748966217,5.47731876373291,-1.7120506763458252
1789317493143157800,10.65315771484375,-0.7726666927337646,-2.5877838134765625,-2.2672197818756104
1789317493153111800,10.66311181640625,-2.1980814933776855,-2.644479990005493,-0.2748478949069977
1789317493163067000,10.67306689453125,-1.6189312934875488,-3.233187198638916,2.5900113582611084
1789317493173021700,10.683021728515625,0.6358364224433899,2.6752755641937256,1.6389930248260498
1789317493182976800,10.692976806640624,1.9543386697769165,3.811668634414673,0.6019257307052612
1789317493192930800,10.702930908203125,1.0194910764694214,1.632800579071045,-0.6319361925125122
1789317493202886000,10.712885986328125,-1.1172105073928833,-1.2520500421524048,-1.1738898754119873
1789317493212840700,10.7228408203125,-2.007370710372925,-2.853311538696289,-1.448508381843567
1789317493222794800,10.732794677734375,-1.0872654914855957,-0.6530182361602783,-1.4795784950256348
1789317493232749800,10.742749755859375,0.3404677212238312,0.7804961204528809,-0.17416483163833618
1789317493242705000,10.752704833984374,0.9746752977371216,1.9861801862716675,1.0125890970230103
1789317493252659000,10.762658935546876,0.5464842915534973,0.20928630232810974,1.3906347751617432
1789317493262613800,10.77261376953125,-0.4602568745613098,-1.3845939636230469,0.8350545167922974
1789317493272568800,10.78256884765625,-1.064176321029663,-2.3608360290527344,0.4795222580432892
1789317493282523000,10.79252294921875,-0.976845383644104,-1.3587101697921753,0.712511420249939
1789317493292478000,10.80247802734375,-0.3101957440376282,1.1293840408325195,0.45565593242645264
1789317493302432800,10.812432861328125,0.2245260775089264,1.9324078559875488,-0.006455050315707922
1789317493312386800,10.82238671875,0.21031971275806427,1.302656888961792,-0.7189220190048218
1789317493322342000,10.832341796875,-0.2611807882785797,-0.48013997077941895,-0.8563203811645508
1789317493332297000,10.842296875,-0.5407927632331848,-1.2307500839233398,-1.1608219146728516
1789317493342250800,10.852250732421876,-0.45990949869155884,-0.2988528907299042,-0.6177276968955994
1789317493352205800,10.862205810546875,-0.10674503445625305,0.6951062083244324,0.05569947138428688
1789317493362161000,10.872160888671875,-0.022298650816082954,1.1565645933151245,0.7550851702690125
1789317493372115000,10.882114990234374,-0.19974693655967712,0.29436013102531433,1.0850260257720947
1789317493382069800,10.89206982421875,-0.3206634521484375,-0.7797188758850098,0.4848732054233551
1789317493392024800,10.90202490234375,-0.043529581278562546,0.25422680377960205,-1.0209171772003174
1789317493401978600,10.911978515625,0.13169759511947632,-0.7278665900230408,-1.0916917324066162
1789317493411934000,10.921933837890625,-0.24086372554302216,-0.9084132313728333,0.6872119903564453
1789317493421888800,10.931888671875,-0.32922232151031494,-0.5522505044937134,1.374193787574768
1789317493431842800,10.9418427734375,-0.052440255880355835,1.407697081565857,0.46787428855895996
1789317493441797600,10.951797607421875,0.32295170426368713,1.517446756362915,-1.1972386837005615
1789317493451753000,10.9617529296875,0.07580101490020752,0.8573141098022461,-2.104051351547241
1789317493461706800,10.971706787109374,-0.745732843875885,-1.051302194595337,-0.5094434022903442
1789317493471661800,10.981661865234376,-0.9459258913993835,-1.692362666130066,0.8272301554679871
1789317493481616600,10.99161669921875,-0.31508365273475647,-1.0308605432510376,1.53719961643219
1789317493491572000,11.001572021484375,0.5674535036087036,0.4311771094799042,1.308022379875183
1789317493501525800,11.01152587890625,0.8521727323532104,0.6541022062301636,0.5719776153564453
1789317493511480800,11.021480712890625,0.23655825853347778,0.07412216812372208,0.2716792821884155
1789317493521435600,11.031435546875,-0.42159682512283325,-0.6761364936828613,-0.8406802415847778
1789317493531390000,11.041389892578126,-0.871483564376831,-0.5857328176498413,-1.0716437101364136
1789317493541344800,11.0513447265625,-0.6102683544158936,0.8364226818084717,-1.2760580778121948
1789317493551299800,11.0612998046875,0.0338994525372982,1.5863467454910278,-1.2400147914886475
1789317493561254000,11.07125390625,0.3743607997894287,0.8399835824966431,-0.7671303153038025
1789317493571208700,11.081208740234375,0.2258722484111786,-1.4745465517044067,-0.14005841314792633
1789317493581163800,11.091163818359375,-0.26926180720329285,-1.166304111480713,0.8917697668075562
1789317493591117800,11.101117919921874,-0.19254441559314728,0.2719067633152008,1.0994994640350342
1789317493601073000,11.111072998046875,0.07427617162466049,0.7061783671379089,0.7671507596969604
1789317493611027700,11.12102783203125,-0.33116215467453003,0.05893323943018913,0.602953314781189
1789317493620982000,11.13098193359375,-0.8198960423469543,-0.48911935091018677,0.8996667861938477
1789317493630936800,11.140936767578125,-0.47261473536491394,-1.1906647682189941,0.5466549396514893
1789317493640892000,11.150891845703125,0.2170172929763794,-0.9990455508232117,0.3160836398601532
1789317493650845700,11.160845703125,0.8236424922943115,0.3818332850933075,-0.5316208004951477
1789317493660801000,11.170801025390626,0.9268485307693481,1.9248337745666504,-1.3096556663513184
1789317493670755800,11.180755859375,0.488381952047348,1.6727335453033447,-2.2404160499572754
1789317493680710000,11.1907099609375,-0.49917542934417725,-1.3102763891220093,-1.6422984600067139
1789317493690664700,11.200664794921876,-0.8940385580062866,-1.2902861833572388,-0.4022599756717682
1789317493700620000,11.2106201171875,0.024866219609975815,-0.39762407541275024,0.43028801679611206
1789317493710574800,11.220574951171875,0.9784321188926697,1.0344703197479248,1.01718008518219
1789317493720529000,11.23052880859375,0.9486820697784424,-0.19291964173316956,1.9805978536605835
1789317493730483700,11.240483642578125,0.33385998010635376,-1.308144450187683,2.27827525138855
1789317493740439000,11.25043896484375,-0.07107000797986984,-1.7035876512527466,2.0177526473999023
1789317493750392800,11.260392822265626,0.35522592067718506,1.3084768056869507,-0.555092990398407
1789317493760348000,11.270347900390625,0.5809952020645142,0.8608389496803284,-1.5480903387069702
1789317493770302700,11.280302734375,0.29875448346138,0.8819921612739563,-2.405461311340332
1789317493780256800,11.2902568359375,-0.15513405203819275,-0.4176064431667328,-1.7535613775253296
1789317493790211800,11.3002119140625,-0.14952890574932098,-2.205960750579834,0.3837616443634033
1789317493800167000,11.3101669921875,0.3238763213157654,-1.343993902206421,1.3962233066558838
1789317493810120700,11.32012060546875,0.9809484481811523,2.1667227745056152,1.5288783311843872
1789317493820075800,11.33007568359375,1.4254175424575806,3.609581708908081,0.11851795762777328
1789317493830030800,11.34003076171875,0.5647701025009155,-0.7935324311256409,-1.1010297536849976
1789317493839985000,11.34998486328125,-0.7758394479751587,-2.1623854637145996,-0.2591148018836975
1789317493849939700,11.359939697265625,-0.47856736183166504,-2.392820358276367,-0.31179505586624146
1789317493859894800,11.369894775390625,0.4276565611362457,-1.0589089393615723,0.8825235366821289
1789317493869848800,11.379848876953124,1.1142189502716064,2.1257119178771973,0.6010103821754456
1789317493879803400,11.389803466796875,1.0726698637008667,2.114055871963501,0.569948136806488
1789317493889758500,11.399758544921875,0.512178361415863,1.8146827220916748,-0.2937392592430115
1789317493899712300,11.409712158203124,-0.4393618702888489,-0.6380756497383118,-1.422467827796936
1789317493909667600,11.41966748046875,-0.9991276860237122,-2.6916959285736084,-0.8784015774726868
1789317493919622400,11.429622314453125,-0.534591555595398,-0.847124457359314,-0.7686668038368225
1789317493929576400,11.439576416015624,0.2801455557346344,1.0381567478179932,0.7372479438781738
1789317493939531300,11.44953125,0.9356659054756165,1.2564988136291504,1.099223256111145
1789317493949486600,11.459486572265625,0.5714333653450012,1.20138680934906,1.1526896953582764
1789317493959440400,11.4694404296875,0.003712389850988984,-1.370010495185852,0.9069110751152039
1789317493969395500,11.4793955078125,-0.5051462054252625,-2.116853713989258,0.021533511579036713
1789317493979350300,11.489350341796875,-0.44307616353034973,0.3380853831768036,-0.6581716537475586
1789317493989304300,11.49930419921875,0.3435124158859253,1.5386509895324707,-1.3152754306793213
1789317493999259400,11.50925927734375,0.5171704292297363,3.251525402069092,-2.0658059120178223
1789317494009214500,11.51921435546875,-0.0926189124584198,-1.4305193424224854,-2.3543190956115723
1789317494019169300,11.529169189453125,-1.0665698051452637,-1.6482303142547607,-0.4114050567150116
1789317494029123300,11.539123291015626,-0.8281764388084412,-1.7175019979476929,1.7826156616210938
1789317494039078400,11.549078369140625,0.20236195623874664,-0.6467373967170715,3.120452404022217
1789317494049033500,11.559033447265625,0.8194336891174316,0.8204281330108643,2.761281728744507
1789317494058987300,11.5689873046875,0.47227418422698975,1.1374446153640747,1.6085939407348633
1789317494068942300,11.5789423828125,-0.29237207770347595,0.2758781313896179,-0.09183865040540695
1789317494078897400,11.5888974609375,-0.9482372403144836,-0.9832532405853271,-1.0993285179138184
1789317494088851500,11.5988515625,-1.0220264196395874,-1.2862309217453003,-1.5184516906738281
1789317494098806300,11.60880615234375,-0.5635890364646912,-1.1332744359970093,-0.30368927121162415
1789317494108761300,11.61876123046875,0.19035455584526062,2.2847468852996826,-0.3005584478378296
1789317494118715400,11.62871533203125,0.6473067402839661,3.772153854370117,-0.76646488904953
1789317494128670500,11.63867041015625,0.17888441681861877,-1.091375470161438,-1.4638642072677612
1789317494138625300,11.648625244140625,-1.1091461181640625,-1.7791093587875366,-0.7247837781906128
1789317494148579300,11.658579345703124,-1.1511081457138062,-1.8010298013687134,0.35076844692230225
1789317494158534400,11.668534423828126,-0.001998916734009981,1.1744405031204224,0.5310444235801697
1789317494168489500,11.678489501953125,0.3726186156272888,0.39036381244659424,1.5156397819519043
1789317494178443500,11.688443603515625,-0.28170403838157654,0.2855350375175476,1.860964059829712
1789317494188398300,11.6983984375,-0.561886191368103,-0.9125316143035889,1.014846920967102
1789317494198353400,11.708353515625,-0.2148992121219635,0.9266080260276794,-1.1399543285369873
1789317494208307200,11.71830712890625,0.0032517623621970415,-0.3632591664791107,-1.805389642715454
1789317494218262500,11.728262451171876,-0.19230316579341888,-1.278992772102356,-1.1008577346801758
1789317494228217300,11.73821728515625,-0.32183772325515747,0.4449712634086609,-0.2792258858680725
1789317494238171400,11.74817138671875,0.13450837135314941,0.42053601145744324,-0.10024839639663696
1789317494248126200,11.758126220703126,0.15218989551067352,0.5918771028518677,0.49300989508628845
1789317494258081500,11.76808154296875,-0.24546369910240173,-0.32470250129699707,1.0795830488204956
1789317494268035300,11.778035400390625,-0.5856457352638245,-1.2114861011505127,1.5798461437225342
1789317494277990400,11.787990478515624,-0.4185471832752228,-0.7988970279693604,1.3790345191955566
1789317494287945200,11.7979453125,0.22281019389629364,0.5826614499092102,0.3973366916179657
1789317494297899500,11.8078994140625,0.7192476987838745,1.8836572170257568,-1.0813921689987183
1789317494307854300,11.817854248046874,0.46821409463882446,1.0530858039855957,-2.704127311706543
1789317494317809400,11.827809326171876,-0.4310546815395355,-0.763713538646698,-2.9497158527374268
1789317494327763200,11.83776318359375,-1.011536717414856,-2.641477346420288,-0.8803241848945618
1789317494337718500,11.847718505859374,-0.60987389087677,-1.6939831972122192,0.7775269746780396
1789317494347673300,11.85767333984375,0.23621797561645508,2.9734535217285156,1.6250548362731934
1789317494357628400,11.86762841796875,0.8520920872688293,2.380113124847412,1.7910277843475342
1789317494367582200,11.877582275390624,0.41387882828712463,-0.9213743805885315,0.7284387350082397
1789317494377537500,11.88753759765625,-0.5010465979576111,-2.5263075828552246,0.7068790793418884
1789317494387492400,11.897492431640625,-0.5504176020622253,-3.207606077194214,0.42849671840667725
1789317494397446400,11.9074462890625,-0.09483513981103897,-1.0218442678451538,0.3226933479309082
1789317494407401200,11.917401123046876,0.6404604315757751,3.4694225788116455,-0.8802695870399475
1789317494417356500,11.9273564453125,0.8019470572471619,2.7114152908325195,-2.109116554260254
1789317494427310600,11.937310546875,-0.24032016098499298,1.0624363422393799,-2.819146156311035
1789317494437265400,11.947265380859376,-1.2942928075790405,-1.765997052192688,-2.283219337463379
1789317494447220200,11.95722021484375,-1.1714515686035156,-1.6991798877716064,-0.29943951964378357
1789317494457174300,11.96717431640625,0.17220047116279602,0.0009924055775627494,1.0425511598587036
1789317494467129300,11.97712939453125,0.9311882853507996,0.45033586025238037,2.087202310562134
1789317494477084400,11.98708447265625,0.43910521268844604,0.5602940917015076,2.621674060821533
1789317494487038500,11.99703857421875,-0.12776832282543182,-0.17074280977249146,1.5150946378707886
1789317494496993300,12.0069931640625,-0.41212430596351624,-1.3716832399368286,0.19708354771137238
1789317494506948400,12.0169482421875,-0.39741724729537964,-0.7774214148521423,-1.0240410566329956
1789317494516902400,12.02690234375,-0.10573720186948776,0.21085500717163086,-1.482179880142212
1789317494526857500,12.036857421875,0.34227973222732544,2.010657548904419,-1.5138273239135742
1789317494536812300,12.046812255859376,0.44389617443084717,0.6371124386787415,-1.076459527015686
1789317494546766300,12.056766357421875,-0.005951955448836088,0.40298891067504883,-0.5102067589759827
1789317494556721400,12.066721435546874,-0.26384493708610535,-0.3958476483821869,0.45203471183776855
1789317494566676500,12.076676513671876,-0.11542855948209763,0.12384479492902756,0.9081644415855408
1789317494576630300,12.08663037109375,-0.04238821566104889,0.46901410818099976,1.235545039176941
1789317494586585300,12.09658544921875,0.117759108543396,-0.1092902272939682,0.8523931503295898
1789317494596540400,12.10654052734375,0.39227351546287537,-0.3997132480144501,-0.11008940637111664
1789317494606494500,12.116494384765625,0.36497876048088074,-1.2150479555130005,-0.41914311051368713
1789317494616449300,12.12644921875,0.132613405585289,-0.7601010799407959,-0.5473484396934509
1789317494626404400,12.136404296875,-0.0005515723023563623,0.7075347304344177,0.03588225319981575
1789317494636358100,12.146358154296875,0.238113671541214,1.5707497596740723,-0.10962517559528351
1789317494646313500,12.1563134765625,-0.007306210696697235,0.59930419921875,-0.07376544177532196
1789317494656268300,12.166268310546876,-0.27944523096084595,0.4931209981441498,-0.20883475244045258
1789317494666223400,12.176223388671875,0.08329221606254578,-0.8693943023681641,-0.2979406714439392
1789317494676177200,12.18617724609375,0.3692640960216522,-1.1064022779464722,0.24249528348445892
1789317494686132500,12.196132568359374,0.3405008912086487,-1.674244999885559,1.5490550994873047
1789317494696087300,12.20608740234375,0.2640812397003174,-0.4801175892353058,1.8996819257736206
1789317494706041300,12.216041259765625,0.19166749715805054,1.129560947418213,1.5641225576400757
1789317494715996200,12.22599609375,0.1560601145029068,1.419303297996521,0.16308481991291046
1789317494725951500,12.235951416015626,-0.30091673135757446,0.44356316328048706,-0.41679346561431885
1789317494735905500,12.245905517578125,-0.32244232296943665,0.6001525521278381,-1.7918392419815063
1789317494745860400,12.2558603515625,0.12638555467128754,-0.6078194975852966,-2.332446813583374
1789317494755815200,12.265815185546876,0.16141732037067413,-1.7268016338348389,-0.682788074016571
1789317494765769500,12.27576953125,0.07760605216026306,-1.270618200302124,0.9117937088012695
1789317494775724300,12.285724365234374,0.08116944879293442,0.5012491941452026,2.2829575538635254
1789317494785679400,12.295679443359376,0.3347550928592682,3.1459038257598877,1.6854029893875122
1789317494795633400,12.30563330078125,-0.014304986223578453,1.1343642473220825,0.6702415347099304
1789317494805588500,12.31558837890625,-0.8039809465408325,-0.8138514757156372,-1.0374090671539307
1789317494815543300,12.325543212890626,-0.8989802598953247,-1.9930838346481323,-1.5951306819915771
1789317494825497300,12.335497314453125,-0.29115933179855347,-2.509021759033203,-0.49962544441223145
1789317494835452400,12.345452392578125,0.5152004957199097,-0.06857883930206299,0.2789114713668823
1789317494845407500,12.355407470703126,0.8910588026046753,3.1543331146240234,0.7622427344322205
1789317494855361500,12.365361572265625,0.5243274569511414,2.187337875366211,0.6707765460014343
1789317494865316400,12.37531640625,-0.6230185031890869,-0.3837527930736542,0.40704476833343506
1789317494875271400,12.385271484375,-1.323245644569397,-2.3535149097442627,0.28784051537513733
1789317494885225200,12.39522509765625,-0.6699336171150208,-0.2878725528717041,-1.1407722234725952
1789317494895180300,12.40518017578125,0.2263467013835907,0.9295178055763245,-0.44402167201042175
1789317494905135000,12.415135009765624,0.7354456186294556,0.2355414181947708,0.08916927874088287
1789317494915089400,12.42508935546875,0.5312337875366211,-0.264095276594162,0.5956487059593201
1789317494925044200,12.435044189453125,0.45880991220474243,-0.8545734882354736,0.33443740010261536
1789317494934999300,12.444999267578124,0.357957661151886,0.47183990478515625,-0.5758201479911804
1789317494944953000,12.454953125,-0.054056793451309204,-0.7702323198318481,-0.4251722991466522
1789317494954908200,12.464908203125,-0.3583533465862274,1.5971118211746216,-0.987461507320404
1789317494964863200,12.47486328125,-0.12107183784246445,0.5022678971290588,-0.8685101270675659
