time,seconds_elapsed,z,y,x
1789315930899277600,0.055277587890625,9.364321243286133,2.391657820892334,-0.3790320503234863
1789315930909310500,0.065310546875,9.296834683990477,2.485929511260986,-0.1301847152709961
1789315930919344600,0.0753447265625,9.27079774093628,2.634669289398193,0.14320318679809568
1789315930929378600,0.085378662109375,9.290699542236327,2.781014865875244,0.43948564224243164
1789315930939411700,0.09541162109375,9.287856427764892,2.907458641052246,0.7089829666137695
1789315930949445400,0.1054453125,9.119963036346435,3.028665100097656,1.1640309196472167
1789315930959479600,0.1154794921875,8.977657675170898,3.2746693206787105,1.7932570434570312
1789315930969512700,0.1255126953125,9.060556907653808,3.5927988662719725,2.1990742248535153
1789315930979546600,0.135546630859375,9.220369868469238,3.6866216438293455,2.5034371109008786
1789315930989580500,0.14558056640625,9.409960712432861,3.510797459411621,2.5644892532348633
1789315930999613400,0.155613525390625,9.529820433044433,3.1699229980468746,2.3796868125915527
1789315931009647600,0.165647705078125,9.611073651885986,2.7035025871276854,2.089389861297607
1789315931019681800,0.175681884765625,9.682750064086914,2.263418394470215,1.7488146751403808
1789315931029715500,0.185715576171875,9.676016371917724,1.9291279876708982,1.4899416206359863
1789315931039748600,0.19574853515625,9.613767128753661,1.7904139289855956,1.3108254089355469
1789315931049782500,0.205782470703125,9.485976615142821,1.924938134765625,1.2319663917541503
1789315931059816700,0.215816650390625,9.27603505706787,2.255188326263428,1.1361983253479002
1789315931069849600,0.225849609375,8.94443812713623,2.606088507080078,1.1424831047058104
1789315931079883500,0.235883544921875,8.640224878692626,2.9110499435424804,1.2867337547302244
1789315931089917700,0.245917724609375,8.632742998504638,3.1364041748046874,1.3181576515197753
1789315931099950600,0.25595068359375,8.879345769500732,3.2453403503417966,1.0037690460205078
1789315931109984500,0.265984619140625,9.047688073730468,3.271227655792236,0.8683470146179199
1789315931120018400,0.276018310546875,9.04634133529663,3.2703298301696777,1.1043255157470702
1789315931130051600,0.286051513671875,9.062352558898926,3.3343747245788573,1.1602899795532227
1789315931140085800,0.296085693359375,9.087042763519287,3.453186981964111,1.0283096130371092
1789315931150119400,0.306119384765625,9.121309774780272,3.5359365768432616,0.9509469718933105
1789315931160152600,0.316152587890625,9.082553635406494,3.527856146240234,0.9204209007263183
1789315931170186500,0.3261865234375,9.035567427825928,3.431339891815185,0.7362170104980469
1789315931180220700,0.336220703125,9.030779024505614,3.303399740600586,0.4242226066589355
1789315931190253600,0.346253662109375,8.863484183502196,3.23052622756958,-0.11956044540405272
1789315931200287500,0.35628759765625,8.548048114776611,2.813635863494873,-0.011222820281982421
1789315931210321700,0.36632177734375,8.157793244171142,2.5068787757873534,0.27293898925781246
1789315931220354600,0.3763544921875,7.996633544921875,2.523787825012207,0.3450643142700195
1789315931230388700,0.386388671875,8.268225795745849,2.8871079269409177,0.4703109886169433
1789315931240422400,0.39642236328125,8.910620028686523,3.1296704826354977,0.39324762268066404
1789315931250455600,0.40645556640625,9.401880281829833,3.0979473106384274,0.14110826034545898
1789315931260489700,0.41648974609375,9.565583820343017,3.084779201507568,-0.1967734489440918
1789315931270523600,0.426523681640625,9.763255094909667,2.9602807151794432,0.841412245941162
1789315931280557600,0.4365576171875,10.945541802215576,3.35816710357666,6.368576416015625
1789315931290590500,0.446590576171875,9.42253027114868,5.208436074066162,4.755931960296631
1789315931300624600,0.456624755859375,7.34855308303833,5.870432833099365,2.984073094177246
1789315931310658800,0.466658935546875,6.228365981292725,4.919485861206055,0.6545148788452148
1789315931320691700,0.476691650390625,7.095515895080566,3.7825393478393554,0.01915361328125
1789315931330725600,0.4867255859375,7.864204265594482,3.587561550140381,0.17836802368164062
1789315931340759600,0.496759521484375,8.118438554382324,3.6074633514404293,0.3661632164001465
1789315931350792700,0.506792724609375,8.160486721038819,3.6783915756225585,0.5927145484924317
1789315931360826400,0.516826416015625,8.021323749542235,3.617339433288574,1.2144587921142578
1789315931370860500,0.526860595703125,7.518242125701904,3.3188124137878416,2.184110464477539
1789315931380893700,0.536893798828125,3.70263286743164,3.076549133300781,4.027346467590331
1789315931390927600,0.546927734375,3.2224457969665528,3.905242182922363,4.849754737854004
1789315931400961500,0.55696142578125,7.906701345062255,5.109226342773437,4.7292964668273925
1789315931410994400,0.566994384765625,10.896311030578612,5.368398672485351,6.302885507965088
1789315931421028600,0.577028564453125,12.400168948364257,5.256020832061767,5.646574977874756
1789315931431062800,0.587062744140625,11.600804869079589,5.142745166015625,1.9256863227844236
1789315931441095700,0.597095703125,9.96601404800415,4.73094248046875,1.5625158584594725
1789315931451129600,0.607129638671875,9.906009368896484,4.158877921295166,3.0404864707946775
1789315931461163500,0.61716357421875,9.192537274169922,3.9564182434082027,2.4166473007202147
1789315931471196700,0.62719677734375,7.659649661254883,3.6127006675720215,0.4085106582641601
1789315931481230600,0.637230712890625,7.162254266357421,2.9607296279907227,1.4835072036743162
1789315931491264500,0.647264404296875,7.268197689819336,2.8725930793762204,2.704550050354004
1789315931501297700,0.657297607421875,7.521085240173339,3.078644059753418,2.952499559783935
1789315931511331600,0.66733154296875,8.490287999725341,3.2517747673034667,3.151218297576904
1789315931521365800,0.67736572265625,9.501538925933838,3.597587269592285,3.1159038230895995
1789315931531398700,0.687398681640625,10.82239005432129,3.7454292221069334,3.444358363342285
1789315931541432600,0.6974326171875,11.223718107604979,4.376301359558105,3.2881367050170898
1789315931551466800,0.707466796875,9.795127904510498,5.144241542053222,2.73268191986084
1789315931561499600,0.717499755859375,8.53607710647583,5.33068999633789,2.776376100158691
1789315931571533600,0.727533447265625,7.874080347442627,5.034257903289794,2.7027543991088865
1789315931581567500,0.7375673828125,7.630919241333007,4.374954621124267,2.775328636932373
1789315931591600600,0.7476005859375,8.141183470153807,3.545214108276367,2.7578210372924805
1789315931601634600,0.757634521484375,8.816348338317871,2.793584424591064,2.680009483337402
1789315931611668500,0.76766845703125,8.522160809326172,3.1133599838256836,2.517503045654297
1789315931621702700,0.77770263671875,8.437465925598143,4.157830458068847,1.9033903198242186
1789315931631735600,0.787735595703125,8.141632382965087,4.798728314971924,2.271648462677002
1789315931641769700,0.797769775390625,7.640047135162353,4.560954162597656,3.226486012268066
1789315931651803400,0.807803466796875,8.429235857391356,4.028094655609131,3.5440170074462887
1789315931661836500,0.81783642578125,9.064597122955321,3.8605005393981933,3.67090969543457
1789315931671870700,0.82787060546875,9.605686698150635,3.923946883392334,3.7749078300476073
1789315931681904600,0.837904541015625,9.910498497009277,4.0830116561889644,2.9652187561035155
1789315931691937800,0.847937744140625,9.520991814422606,4.509029914093017,2.6213515426635743
1789315931701971500,0.857971435546875,8.659378491973877,4.401590114593506,2.814084776306152
1789315931712005600,0.868005615234375,7.606827587127685,3.312228359222412,2.448370472717285
1789315931722038500,0.87803857421875,6.789058082580566,3.283497939300537,2.346167989349365
1789315931732072700,0.88807275390625,7.012616662597656,3.699041564941406,2.7168203338623047
1789315931742106600,0.898106689453125,8.500612994384765,3.9428012214660644,3.4843116035461423
1789315931752139500,0.908139404296875,9.384073406982422,3.8585552505493164,3.611503566741943
1789315931762173700,0.918173583984375,9.559747953796386,3.843890765380859,2.6892870147705077
1789315931772207600,0.92820751953125,9.271246653747559,3.8256349777221677,2.337189733123779
1789315931782240500,0.938240478515625,8.82308203048706,3.481468489074707,2.5809493896484375
1789315931792274400,0.9482744140625,8.251466384124756,2.605938869476318,3.116352735900879
1789315931802308600,0.95830859375,8.192509168243408,1.0205284576416016,3.0430303100585934
1789315931812341800,0.968341796875,9.511415007781983,0.6434416961669921,3.8953661010742184
1789315931822375400,0.97837548828125,11.52374150314331,3.0850784767150876,4.017769660949707
1789315931832409600,0.98840966796875,9.980528895568847,7.631966704559326,1.6373346603393553
1789315931842442500,0.9984423828125,6.8782420944213865,6.115389590454101,1.3925275405883788
1789315931852476700,1.0084765625,7.404218271636963,3.686920919036865,2.0130746833801267
1789315931862510600,1.018510498046875,8.754548007965088,1.9384055191040037,3.736151690673828
1789315931872543500,1.02854345703125,9.479542198181152,1.0691606788635253,3.765480661010742
1789315931882577700,1.03857763671875,10.133009613800048,1.215506255340576,2.3132477165222167
1789315931892611600,1.048611572265625,10.816404550170898,1.4969745880126952,1.2970587493896484
1789315931902644700,1.058644775390625,11.228805786132812,1.4251485382080078,0.8913912055969238
1789315931912678400,1.068678466796875,10.53433766708374,0.7779659019470214,0.556053335571289
1789315931922712600,1.078712646484375,7.928099522399902,-0.3022679595947265,-0.3066074501037597
1789315931932745700,1.088745849609375,6.340444546508789,-0.5659294174194336,1.393724641418457
1789315931942779600,1.098779541015625,8.730755628967284,-0.524779076385498,4.02210915145874
1789315931952813600,1.1088134765625,9.140014475250243,-1.3829507339477538,5.391891776275634
1789315931962847700,1.11884765625,7.906701345062255,-0.14200608596801756,4.93534744720459
1789315931972880600,1.128880615234375,8.495824591064453,2.060210528564453,4.019565312194824
1789315931982914600,1.13891455078125,8.500313719177246,2.934094134521484,4.779873976898193
1789315931992948500,1.148948486328125,7.88425570449829,0.5363011718749999,1.8929156875610351
1789315932002981600,1.158981689453125,8.127716085815429,-1.8363526733398436,-0.40357261734008787
1789315932013015600,1.169015625,7.659350386047363,-3.027168724060058,0.9496002334594726
1789315932023049500,1.179049560546875,8.531288703155518,-4.42388611755371,2.8871079269409177
1789315932033082400,1.189082275390625,7.336282799530029,-6.761674401092529,6.288819573211669
1789315932043116500,1.199116455078125,4.802768530273437,-8.994716361999512,8.16587367477417
1789315932053150700,1.209150634765625,3.5781343811035153,-10.567257939910888,7.8350249328613275
1789315932063183600,1.21918359375,3.4576761100769042,-10.780341887664795,6.219088449859619
1789315932073217500,1.229217529296875,4.359990860748291,-9.892691622161864,6.338499257659912
1789315932083251700,1.239251708984375,6.041169338989257,-9.688286655426024,8.424746729278564
1789315932093284600,1.24928466796875,8.554183256530761,-10.94808564147949,11.14785184249878
1789315932103318800,1.25931884765625,10.395174695587158,-12.67939271697998,12.929137877655029
1789315932113352400,1.2693525390625,10.006565838623047,-12.760047385406493,13.442993408966064
1789315932123385600,1.279385498046875,8.786420817565917,-10.232069707489012,12.156858204650879
1789315932133419800,1.289419677734375,10.088866520690917,-6.532130316925048,10.520571007537841
1789315932143453700,1.29945361328125,13.424587983703612,-0.3494038047790527,12.113612937164305
1789315932153486800,1.30948681640625,15.97994934310913,4.189254354858398,13.045256658172606
1789315932163520500,1.3195205078125,15.60241366882324,5.7146600875854485,11.383979981231688
1789315932173554700,1.3295546875,14.6203420753479,3.5474586723327635,8.012644768524169
1789315932183587600,1.339587646484375,12.16912848815918,3.689015845489502,6.318447818756103
1789315932193621800,1.349621826171875,8.162880922698974,5.404910247802734,6.104615682983398
1789315932203655700,1.35965576171875,6.259191327667236,5.382165332031249,5.589862326049804
1789315932213688600,1.3696884765625,5.602132609558105,3.0180408302307127,5.041141233062744
1789315932223722800,1.37972265625,3.953425491333008,0.6820481979370117,3.866486043548584
1789315932233756400,1.38975634765625,4.302230745697021,0.620547142791748,3.214365366363525
1789315932243789600,1.39978955078125,7.810634003448486,3.3206080650329586,5.0571524566650385
1789315932253823500,1.409823486328125,7.298574123382568,2.8296470870971677,7.940818718719482
1789315932263857700,1.419857666015625,6.614730274200439,1.2297218276977537,9.151237295532226
1789315932273890800,1.429890869140625,5.551255824279785,1.0956465347290039,10.235212097167969
1789315932283924500,1.439924560546875,5.842600238800048,0.9056067779541015,10.786925942230225
1789315932293958700,1.449958740234375,5.7721209274291985,-0.31962592163085934,11.274295617675781
1789315932303991600,1.459991455078125,4.498854557037353,-1.6418237884521483,9.304017288970947
1789315932314025700,1.470025634765625,3.464110527038574,-2.045396405792236,4.639364266967773
1789315932324059600,1.4800595703125,0.9193734375,-2.9899089607238767,2.4793454566955564
1789315932334092500,1.490092529296875,-0.12943652725219726,-3.84329221496582,-2.596511700439453
1789315932344126700,1.500126708984375,-2.2931962776184083,-5.61859274597168,3.5051112304687497
1789315932354160600,1.51016064453125,4.31584776763916,-8.225728716278075,14.067431129455565
1789315932364193800,1.52019384765625,2.5278280403137208,-10.352527978515624,5.019593418121338
1789315932374227500,1.5302275390625,-5.492148970794678,-9.965265859985351,7.5242276298522945
1789315932384261600,1.54026171875,-5.971138940429687,-9.933243412780762,10.378564921569824
1789315932394294800,1.550294677734375,-8.584709327697754,-10.321702632141113,10.991181271362304
1789315932404328700,1.56032861328125,-8.825027319335938,-9.51919616317749,10.3544732673645
1789315932414362600,1.570362548828125,-7.781903583526611,-6.955455097961425,7.454646144104004
1789315932424395500,1.5803955078125,-2.3355437194824216,-7.00363840637207,11.324723490142821
1789315932434429700,1.5904296875,-2.5836428665161133,-8.136095791625976,5.248987864685058
1789315932444463600,1.600463623046875,-1.8984522789001463,-7.3940429145812985,5.189282460784912
1789315932454496500,1.61049658203125,2.8989292976379395,-10.610203932189942,13.047052309417724
1789315932464530700,1.62053076171875,1.8733131614685057,-10.337863493347168,9.220669143676757
1789315932474564600,1.630564697265625,-1.1212345649719238,-7.6671315414428705,5.8177603965759275
1789315932484598500,1.6405986328125,-1.5483002861022948,-6.544550238037109,3.4712931320190425
1789315932494631400,1.65063134765625,0.3024175971984863,-6.172850430297851,2.9746459251403805
1789315932504665600,1.66066552734375,0.9247603912353515,-6.496815842437743,4.795137012481689
1789315932514699800,1.67069970703125,0.6609492958068848,-8.4651488822937,5.906495495605468
1789315932524732700,1.680732666015625,0.8144774772644042,-9.668833766937256,6.356006857299804
1789315932534766600,1.6907666015625,1.996913822174072,-8.72072990951538,5.93717120437622
1789315932544800500,1.700800537109375,3.0793922477722164,-8.794950160980225,5.972784954071044
1789315932554833700,1.710833740234375,3.018340105438232,-9.199570241546631,5.904849481964111
1789315932564867800,1.720867919921875,1.8333599212646483,-9.252093040466308,6.190208392333984
1789315932574901500,1.730901611328125,0.4617816452026367,-9.356390450286865,5.531054747772217
1789315932584934700,1.7409345703125,-0.3238157745361328,-9.564835632324218,4.739022911071777
1789315932594968600,1.750968505859375,-1.1119570335388183,-10.133308889007568,5.398924743652343
1789315932605002800,1.761002685546875,-1.3299790222167969,-10.13166287536621,4.6267947082519525
1789315932615035600,1.77103564453125,-0.8113350875854491,-10.868927349090576,2.636016027832031
1789315932625069600,1.781069580078125,-5.454739569854736,-9.2963857711792,0.6232406196594238
1789315932635103700,1.791103759765625,-4.451269799041747,-6.6258034568786615,-1.0324994659423827
1789315932645136600,1.80113671875,0.3414730117797851,-5.87971036453247,1.1909656883239745
1789315932655170600,1.811170654296875,2.1613655487060544,-4.817433015441894,6.284180807495117
1789315932665203500,1.821203369140625,1.27042325592041,-8.124124783325195,7.639448584747314
1789315932675237600,1.831237548828125,-1.7202338928222656,-5.26709401473999,10.027365465545653
1789315932685271800,1.841271728515625,-4.818779753875732,-7.729231147003174,7.070227140045166
1789315932695878700,1.851878662109375,-3.333476898956299,-11.711835971069336,5.236418305969238
1789315932715372500,1.87137255859375,-1.3543699516296386,-8.263886305236817,4.434510387420654
1789315932725405700,1.88140576171875,0.8224082702636718,-7.305158177947997,5.20963317489624
1789315932735439600,1.891439697265625,3.847332430267334,-6.704961749267578,8.131756301116942
1789315932745473500,1.9014736328125,4.0800189041137696,-6.43501551208496,10.793659634399413
1789315932755506700,1.911506591796875,3.3653497085571287,-6.429927833557128,11.224167020416258
1789315932765540600,1.92154052734375,3.362207318878174,-7.100603573608398,10.223540364074706
1789315932775574800,1.93157470703125,3.7940614433288573,-7.8621093391418455,9.492111756896971
1789315932785607700,1.941607666015625,2.675669992828369,-7.508814956665039,6.4478843460083
1789315932795641600,1.9516416015625,3.1432875045776365,-7.254879943084716,5.08199229888916
1789315932805675800,1.96167578125,4.121917433166503,-9.131485131835937,5.204695133972168
1789315932815708700,1.971708740234375,5.552602562713623,-7.349301271057128,3.669862232208252
1789315932825742800,1.981742919921875,6.298246742248534,-7.148188331604003,-0.6099228729248046
1789315932835776500,1.991776611328125,2.8956372703552242,-8.375067044830322,0.3206733848571777
1789315932845809700,2.0018095703125,0.6854898628234863,-9.338134662628173,1.6199766983032227
1789315932855843600,2.011843505859375,-0.2211643783569336,-9.49989291229248,1.11719434967041
1789315932865877500,2.02187744140625,-0.2688987739562988,-8.300248242950438,2.9070097282409666
1789315932875910400,2.031910400390625,0.12734160079956053,-6.198288822937012,4.514267230224609
1789315932885944600,2.041944580078125,-0.18749591751098632,-7.742848168945312,4.546140039825439
1789315932895978800,2.051978759765625,-1.1525088241577148,-7.3748893013000485,3.0433295852661133
1789315932906012400,2.062012451171875,-1.1273697067260742,-5.302109214019775,1.8487725944519042
1789315932916045600,2.072045654296875,0.23986907882690428,-5.101445187377929,1.0119991142272948
1789315932926079700,2.082079833984375,0.8322843521118164,-4.515015418243408,-0.03007715835571289
1789315932936113700,2.09211376953125,0.10145429534912109,-4.025101903533935,-2.0727800872802735
1789315932946146800,2.102146728515625,-1.6314987937927246,-5.188983185577392,-3.0349498794555663
1789315932956180500,2.112180419921875,-1.8254291282653807,-5.2542251808166505,1.3992612327575682
1789315932966214700,2.122214599609375,-2.516605220031738,-4.92277788848877,3.379415643310547
1789315932976247600,2.13224755859375,-2.7060464263916013,-3.762188633728027,2.2405238410949706
1789315932986281700,2.14228173828125,-2.9870658462524413,-3.0529063919067383,0.8610147720336914
1789315932996315600,2.152315673828125,-3.1604958290100096,-3.2128689903259278,0.4688146125793457
1789315933006348500,2.1623486328125,-1.1716624374389648,-3.2333693420410152,-0.31543606872558594
1789315933016382700,2.1723828125,0.761655403137207,-3.3219548034667965,-1.1493664344787597
1789315933026416600,2.182416748046875,0.2551321144104004,-3.6258687767028808,-1.7606360458374022
1789315933036449800,2.19244970703125,0.23657705154418943,-3.693205698394775,-1.5580267303466795
1789315933046483500,2.2024833984375,0.17238251953125,-7.841459349822998,-1.1088146438598632
1789315933056517600,2.212517578125,3.997269309234619,-37.22699270095825,1.9915268684387206
1789315933066550800,2.22255078125,-2.1417630226135254,-58.56247188262939,13.42593472213745
1789315933076584700,2.232584716796875,-4.1840170387268065,-38.05703248901367,5.408501550292969
1789315933086619400,2.242619384765625,4.362385062408447,-19.832519089508054,-2.0458453186035155
1789315933096652300,2.25265234375,5.092915843963623,-9.208548497772217,-2.2602760047912596
1789315933106686500,2.2626865234375,5.3390697021484375,-5.1213469886779786,-1.497872413635254
1789315933116719400,2.27271923828125,4.130297138977051,-5.397877280426025,0.5089174903869629
1789315933126753300,2.282753173828125,0.7827543052673339,-6.470629261779785,2.719064897918701
1789315933136787500,2.292787353515625,-0.49380409240722656,-7.370250535583495,2.3892636192321777
1789315933146821400,2.3028212890625,-0.469263525390625,-8.185326563262938,1.2632406509399414
1789315933156854300,2.312854248046875,0.8351274665832519,-8.61867706375122,1.0308534523010253
1789315933166888200,2.32288818359375,2.7486931434631345,-9.17323402328491,0.8512883277893066
1789315933176922400,2.33292236328125,3.327940307617187,-9.885658654785155,0.8224082702636718
1789315933186955500,2.34295556640625,2.477849080657959,-10.333224727630615,0.9638158058166504
1789315933196989200,2.3529892578125,1.4547767837524412,-10.011952792358398,1.3193547523498534
1789315933207023400,2.3630234375,1.442207225036621,-10.11939259185791,1.41093296585083
1789315933217056300,2.37305615234375,1.5581763679504395,-9.950002824401855,2.130540202331543
1789315933227090400,2.38309033203125,1.4236521621704101,-9.228001386260987,2.4480711975097655
1789315933237124400,2.393124267578125,1.5750854171752928,-9.128941292572021,2.326415825653076
1789315933247157200,2.4031572265625,1.797895809173584,-8.84178673095703,2.2840683837890623
1789315933257191400,2.41319140625,2.104353621673584,-8.744372650909423,1.8032827629089354
1789315933267225300,2.423225341796875,2.0636521934509275,-8.849867161560057,1.2600982612609863
1789315933277258500,2.433258544921875,1.8710685974121093,-8.813355586242675,1.1682207725524902
1789315933287292200,2.443292236328125,1.9832968002319336,-7.786093436431885,1.6457143661499023
1789315933297326300,2.453326416015625,1.742380258178711,-4.164264875030518,3.1051299156188965
1789315933307359500,2.463359375,-0.37229835815429685,-8.55448253173828,2.7425580017089843
1789315933317393400,2.473393310546875,1.6102502540588377,-15.08541574783325,1.108964281463623
1789315933327427300,2.48342724609375,2.2979846809387205,-13.791649025726317,0.20380641632080077
1789315933337460200,2.493460205078125,3.916764278411865,-9.113079706573485,0.1466448516845703
1789315933347494400,2.503494384765625,1.9659388381958007,-8.317456567382813,1.34060329208374
1789315933357528600,2.513528564453125,2.390909632873535,-8.01863027267456,1.66636435546875
1789315933367561200,2.523561279296875,2.7940333374023436,-7.827543052673339,2.860921346282959
1789315933377595400,2.533595458984375,1.7206828056335448,-7.460033097839355,3.3452982696533202
1789315933387629300,2.54362939453125,2.1588217094421385,-6.78681351852417,2.5344120948791504
1789315933397662500,2.553662353515625,1.6907552848815917,-6.178835934448242,2.1978771240234374
1789315933407696100,2.563696044921875,1.4324807807922362,-6.759878749847411,1.6569371864318847
1789315933417730300,2.573730224609375,1.3341688751220702,-8.064868292236328,0.668431175994873
1789315933427763500,2.583763427734375,0.9925462257385254,-9.721506203460693,0.6636427726745605
1789315933437797400,2.59379736328125,1.2114660400390624,-11.878681899261474,0.7615057655334472
1789315933447831300,2.603831298828125,1.3492822731018066,-12.202348036193847,1.2891279563903808
1789315933457864200,2.6138642578125,1.1939584403991699,-11.073033040618895,1.4098855026245116
1789315933467898400,2.6238984375,1.0862193656921386,-10.314968939971923,1.6071078643798826
1789315933477932500,2.6339326171875,0.7386112121582031,-9.501688563537597,1.7363947540283202
1789315933487965400,2.64396533203125,0.4831798225402832,-9.833584768676758,1.0978910987854003
1789315933497999400,2.653999267578125,0.3935468978881836,-11.131541343688964,1.1490671592712403
1789315933508033300,2.664033203125,0.5331587821960448,-11.794884841156005,1.6135422813415525
1789315933518066400,2.67406640625,0.47494975433349607,-11.909507245635986,1.7624316970825193
1789315933528100400,2.684100341796875,0.18959084396362302,-11.639860283660887,1.7069161460876463
1789315933538134300,2.69413427734375,-0.12090718383789062,-11.169698932647705,1.7597382202148437
1789315933548167200,2.704167236328125,-0.29269115295410153,-10.627861169433594,1.704073031616211
1789315933558201300,2.714201416015625,-0.2587234169006348,-10.040084661865233,1.5480010108947753
1789315933568235500,2.724235595703125,-0.2284966209411621,-9.72360112991333,1.388636962890625
1789315933578268400,2.734268310546875,-0.3098994773864746,-9.728090258026123,1.1999439445495605
1789315933588302300,2.74430224609375,-0.28535891036987304,-9.73661960144043,1.0702081420898437
1789315933598336500,2.75433642578125,-0.24824878463745115,-9.642796823883057,1.0705074172973632
1789315933608369400,2.764369384765625,-0.16310498809814453,-9.507973342895507,1.1168950744628905
1789315933618403300,2.7744033203125,0.007481880187988281,-9.430760339355468,1.2880804931640624
1789315933628437200,2.784437255859375,0.30301614761352536,-9.476998358917236,1.5843629486083983
1789315933638470400,2.794470458984375,0.5349544334411621,-9.49315922012329,1.8994997421264648
1789315933648504300,2.80450439453125,0.6347627151489258,-9.555109188079834,2.084002907562256
1789315933658538200,2.814538330078125,0.6401496688842773,-9.406668685150146,2.0329764846801757
1789315933668571100,2.824571044921875,0.3945943611145019,-9.37838717803955,1.9381062438964842
1789315933678605300,2.834605224609375,0.4412812934875488,-9.389909273529053,2.1766285842895505
1789315933688639500,2.844639404296875,0.6462848106384277,-9.19358473739624,2.625691033172607
1789315933698672400,2.85467236328125,0.44532150878906246,-9.055768504333496,3.011307138061523
1789315933708706300,2.864706298828125,0.376039298248291,-9.195230751037597,2.9809307044982907
1789315933718740500,2.874740478515625,0.24361001892089842,-9.379733916473388,2.8151322395324705
1789315933728773400,2.8847734375,-0.3547907585144043,-9.459640396881102,2.6240450195312497
1789315933738807600,2.8948076171875,-0.5641337661743163,-9.343671253967285,2.3473650901794434
1789315933748841200,2.90484130859375,-0.921917276763916,-9.228300661468506,2.038064163208008
1789315933758874400,2.914874267578125,-1.2376526206970213,-9.280075272369384,1.8101660926818846
1789315933768908300,2.924908203125,-1.5806220085144043,-9.362076679229736,1.7254712089538573
1789315933778942500,2.9349423828125,-1.64077632522583,-9.428216500091553,1.7302596122741698
1789315933788975400,2.944975341796875,-1.523161168670654,-9.513809209442138,1.7953519699096678
1789315933799009300,2.95500927734375,-1.3431471313476562,-9.5890769241333,1.8562544746398926
1789315933809043500,2.96504345703125,-1.2051812606811523,-9.633818567657471,1.935712042236328
1789315933819076400,2.975076416015625,-1.0848726272583007,-9.661800799560547,2.022501852416992
1789315933829110300,2.9851103515625,-0.9923965881347656,-9.637709145355224,2.1499930908203124
1789315933839143200,2.99514306640625,-0.9525929855346679,-9.57575917739868,2.2671593345642087
1789315933849177300,3.00517724609375,-0.843357534790039,-9.477596909332275,2.379387537384033
1789315933859211500,3.01521142578125,-0.7342717216491699,-9.340977777099608,2.4102128837585446
1789315933869245200,3.0252451171875,-0.6329670639038085,-9.205705383300781,2.418293314361572
1789315933879278300,3.0352783203125,-0.5811924530029297,-9.11098478012085,2.3460183517456055
1789315933889312300,3.045312255859375,-0.486471849822998,-9.126098178100586,2.2049100914001465
1789315933899345400,3.055345458984375,-0.4584896179199218,-9.277082520294188,2.1371242568969726
1789315933909379300,3.06537939453125,-0.5027823486328125,-9.44213279724121,2.170194167327881
1789315933919413200,3.075413330078125,-0.670975015258789,-9.483582413482665,2.1625626495361328
1789315933929446400,3.0854462890625,-0.755220986175537,-9.46098713531494,2.169296341705322
1789315933939480300,3.095480224609375,-0.881664761352539,-9.349207845306395,2.1472996139526366
1789315933949514500,3.105514404296875,-0.9935936889648437,-9.280973097991943,2.092681888580322
1789315933959548200,3.115548095703125,-1.0963947227478026,-9.208997410583496,2.101211231994629
1789315933969581300,3.125581298828125,-1.1361983253479002,-9.143755415344238,2.042104378509521
1789315933979615500,3.135615478515625,-1.0860697280883789,-9.147945268249511,1.992574331665039
1789315933989649400,3.1456494140625,-0.9970353538513183,-9.176825325775146,1.9520225410461425
1789315933999682300,3.155682373046875,-1.0498574279785156,-9.318232861328125,2.046892781829834
1789315934009716200,3.16571630859375,-1.061828436279297,-9.53790086364746,2.0964228286743163
1789315934019749400,3.175749267578125,-1.1118073959350585,-9.654917469787597,2.1344307800292968
1789315934029783300,3.185783203125,-1.1846809089660644,-9.717465988159178,2.107346373748779
1789315934039817200,3.195817138671875,-1.3299790222167969,-9.704297879028319,1.9720739799499512
1789315934049850000,3.20585009765625,-1.398812319946289,-9.740659816741942,1.7586907569885253
1789315934059884300,3.21588427734375,-1.3926771781921385,-9.909301396179199,1.4953285743713378
1789315934069918500,3.22591845703125,-1.3564648780822752,-10.151714314270018,1.1309610092163085
1789315934079951400,3.235951416015625,-1.3539210388183593,-10.328735599517822,0.9091980804443359
1789315934089984800,3.24598486328125,-1.4251485382080078,-10.303446844482421,0.8415618835449218
1789315934100018700,3.256018798828125,-1.719934617614746,-10.146177722930908,0.9534908111572266
1789315934110051800,3.2660517578125,-1.955464205932617,-9.894487273406982,1.1474211456298828
1789315934120085800,3.276085693359375,-2.0114286697387693,-9.571569324493408,1.2702736183166503
1789315934130119700,3.28611962890625,-2.00439570236206,-9.43599765548706,1.376516316986084
1789315934140152600,3.296152587890625,-1.9647417373657226,-9.680505500030517,1.5304934112548827
1789315934150186800,3.306186767578125,-1.830367169189453,-10.05594624786377,1.6856676063537597
1789315934160221000,3.316220947265625,-1.7570447433471679,-10.331728351593018,1.9373580558776855
1789315934170253800,3.32625390625,-1.8276736923217773,-10.291326198577881,2.0473416946411134
1789315934180287700,3.336287841796875,-1.8587983139038085,-10.06223102722168,1.8227356513977049
1789315934190321700,3.34632177734375,-1.8631378044128417,-9.936984352874756,1.7956512451171873
1789315934200354800,3.356354736328125,-1.8330606460571288,-9.964218396759033,1.9250877723693847
1789315934210388700,3.366388671875,-1.7175404159545897,-9.999682508850096,2.2559365142822263
1789315934220422700,3.376422607421875,-1.7348983779907226,-10.014646269226073,2.296488304901123
1789315934230455800,3.386455810546875,-1.8939631507873533,-10.160692570495605,2.513313192749023
1789315934240489700,3.39648974609375,-2.0145710594177246,-10.306738871765136,2.457199091339111
1789315934250524000,3.40652392578125,-2.03671742477417,-10.369137752532959,2.2939444656372068
1789315934260556800,3.416556884765625,-1.9400515327453611,-10.267533819580077,2.156726782989502
1789315934270590700,3.4265908203125,-1.781884585571289,-10.062380664825438,2.0886416732788087
1789315934280625000,3.436625,-1.7209820808410643,-9.782857621002197,1.8930653251647949
1789315934290657800,3.44665771484375,-1.3643956710815428,-9.961973832702636,1.9681834022521971
1789315934300692000,3.45669189453125,-1.3603554557800293,-10.288632721710204,1.7853262504577636
1789315934310725600,3.4667255859375,-1.8240823898315428,-10.17610524368286,1.5493477493286132
1789315934320758800,3.4767587890625,-2.070385885620117,-9.737816702270507,1.399560507965088
1789315934330792700,3.486792724609375,-2.0202572883605954,-9.233687615203857,1.196502279663086
1789315934340826600,3.49682666015625,-1.8167501472473144,-9.022100043487548,1.015740054321289
1789315934350859500,3.506859619140625,-1.8270751419067381,-9.063699297332763,1.037437506866455
1789315934360893700,3.516893798828125,-1.8701707717895506,-9.23817674331665,0.9775824653625488
1789315934370927900,3.526927978515625,-1.5918448287963867,-9.677213472747802,1.0111012886047364
1789315934380960800,3.536960693359375,-1.1879729362487792,-9.951499200439452,1.2237363235473633
1789315934390994700,3.54699462890625,-1.2071265495300292,-9.981426721191406,1.5677531745910644
1789315934401028900,3.55702880859375,-1.4193126716613769,-9.80620108718872,1.8415899894714354
1789315934411061800,3.567061767578125,-1.5634136840820312,-9.48732335357666,2.0849007331848144
1789315934421096000,3.577095947265625,-1.703923394012451,-9.058162705993652,2.1625626495361328
1789315934431129600,3.587129638671875,-1.7525556152343749,-8.767267204284668,2.037914525604248
1789315934441162800,3.597162841796875,-1.5589245559692382,-8.875604829406738,1.7215806312561035
1789315934451196700,3.60719677734375,-1.393724641418457,-9.393201300811768,1.6910545600891111
1789315934461230800,3.61723095703125,-1.398812319946289,-10.027964015960693,1.924938134765625
1789315934471263700,3.627263671875,-1.5559318038940428,-10.225635290527343,2.080411605072021
1789315934481297700,3.637297607421875,-1.4143746307373046,-10.035894808959961,2.2245126174926755
1789315934491331800,3.647331787109375,-1.0742483573913573,-9.807996738433838,2.3958476737976073
1789315934501364700,3.65736474609375,-1.0544961936950683,-9.69801309967041,2.2782325172424316
1789315934511399000,3.66739892578125,-0.9718962364196777,-9.71581997451782,2.0419547409057617
1789315934521432800,3.677432861328125,-1.0781389350891113,-9.636362406921386,2.0184616371154784
1789315934531465700,3.6874658203125,-1.3763666793823242,-9.303718013763428,1.935712042236328
1789315934541500000,3.6975,-1.392976453399658,-8.837896153259276,1.7334020019531249
1789315934551533800,3.707533935546875,-1.2369044326782226,-8.55463216934204,1.69823716506958
1789315934561566700,3.717566650390625,-1.2286743644714355,-8.566004627227782,1.7943045066833494
1789315934571600600,3.7276005859375,-1.0072107109069823,-8.825775507354736,1.8541595481872557
1789315934581634800,3.737634765625,-1.0209773704528808,-9.20016879196167,1.907580172729492
1789315934591667700,3.747667724609375,-1.1854290969848633,-9.655366382598876,1.6901567344665527
1789315934601701600,3.75770166015625,-1.082777700805664,-9.88939959487915,1.3370119895935058
1789315934611735800,3.76773583984375,-0.9112930068969726,-9.977087230682372,0.9814730430603027
1789315934621768700,3.777768798828125,-1.1843816337585449,-10.20827732849121,0.9852139831542969
1789315934631803000,3.787802978515625,-1.4502876556396485,-10.583269163513183,1.2713210815429687
1789315934641836500,3.79783642578125,-1.6551415351867675,-10.716745906066894,1.6358382843017578
1789315934651869700,3.80786962890625,-1.8171990600585937,-10.596736547851561,1.9499276145935058
1789315934661904000,3.81790380859375,-1.827823329925537,-10.400711286926269,1.9490297889709471
1789315934671937800,3.827937744140625,-1.7022773803710936,-10.082432103729248,1.7363947540283202
1789315934681971000,3.837970947265625,-1.6925509361267088,-9.771634800720214,1.4797662635803221
1789315934692004600,3.848004638671875,-1.8320131828308104,-9.707889181518555,1.0232219345092772
1789315934702038800,3.858038818359375,-1.788917552947998,-9.501688563537597,0.6106710609436035
1789315934712071700,3.86807177734375,-1.3492822731018066,-9.48732335357666,0.6076783088684081
1789315934722105900,3.87810595703125,-1.5301941360473632,-9.78779566192627,0.7052420265197753
1789315934732139800,3.888139892578125,-2.5356091957092284,-9.610924014282226,0.7849988693237304
1789315934742172700,3.898172607421875,-3.6468180412292477,-9.041702569580078,1.3633482078552246
1789315934752206800,3.908206787109375,-2.0808605178833006,-9.130736943817139,1.9271826988220213
1789315934762240800,3.91824072265625,-0.44158056869506834,-7.952191176605224,1.8803461288452148
1789315934772273700,3.928273681640625,-0.3284545402526855,-7.997232095336914,2.3005285202026364
1789315934782307800,3.938307861328125,0.2838625343322754,-9.047388798522949,1.6581342872619629
1789315934792341800,3.948341796875,-0.45280338897705075,-9.216628928375243,0.8062474090576172
1789315934802375000,3.958375,-0.37888241271972656,-9.904213717651366,0.524779076385498
1789315934812408600,3.96840869140625,0.35718496017456053,-10.932373693084717,0.16639701538085935
1789315934822442800,3.97844287109375,0.39010523300170896,-11.469273415374754,-0.060603229522705075
1789315934832475600,3.9884755859375,0.37394437179565426,-11.484237175750732,0.11477204208374023
1789315934842509800,3.998509765625,0.21188684692382811,-10.997017137908935,0.007781155395507812
1789315934852543700,4.008543701171875,0.9507973342895507,-10.104728106689452,0.3480570663452148
1789315934862576600,4.01857666015625,1.9391537071228027,-9.18700068283081,0.5313631309509277
1789315934872610800,4.02861083984375,1.7360954788208007,-8.383895663452147,0.4029740669250488
1789315934882644700,4.038644775390625,1.2565069587707518,-7.524676542663574,0.0037409400939941405
1789315934892678700,4.0486787109375,1.3865420364379881,-6.627299832916259,-0.2745850028991699
1789315934902711800,4.0587119140625,1.8397943382263182,-5.922805994415283,-0.3446154014587402
1789315934912745700,4.068745849609375,2.3237223487854,-5.341763179016113,-0.06539163284301758
1789315934922780000,4.07877978515625,2.823811220550537,-5.162048416900634,0.9349357482910156
1789315934932812800,4.088812744140625,2.740163800048828,-5.302707764434814,1.8620903411865233
1789315934942846700,4.0988466796875,2.4799440071105954,-5.425410599517822,2.520495797729492
1789315934952881000,4.108880859375,1.7304092498779295,-5.597344206237793,2.8184242668151853
1789315934962913800,4.118913818359375,0.752677146911621,-6.332064840698242,3.0033763450622555
1789315934972947700,4.12894775390625,0.0570119270324707,-8.466794895935058,3.2022447204589843
1789315934982981600,4.138981689453125,0.6024409927368164,-11.369764408874511,3.6330513816833494
1789315934993014800,4.149014892578125,2.4199393280029295,-13.791499388122558,3.957615344238281
1789315935003048700,4.159048583984375,2.4747066909790036,-15.025710343933104,3.775656018066406
1789315935013082600,4.16908251953125,0.730979694366455,-14.336479541015624,2.372953120422363
1789315935023115800,4.17911572265625,-0.5873275947570801,-11.164910529327392,-1.20667763671875
1789315935033149700,4.189149658203125,-1.5945383056640625,-8.758588223266601,-3.5549405525207516
1789315935043183900,4.199183837890625,-2.044797855377197,-8.742576999664307,-4.078522528076172
1789315935053216800,4.209216796875,-0.9587281272888183,-11.73383269882202,-2.637362766265869
1789315935063250700,4.219250732421875,0.8592191207885742,-14.027328251647948,-0.5155015449523925
1789315935073284900,4.229284912109375,1.1908160507202148,-14.312088611602782,0.11282675323486327
1789315935083317200,4.239317138671875,0.5686228942871093,-12.945897289276122,0.411802685546875
1789315935093351400,4.249351318359375,-0.25258827514648435,-11.667094327545165,1.4972738632202147
1789315935103385300,4.25938525390625,-0.203656778717041,-11.404480332946777,2.4193407775878906
1789315935113418200,4.269418212890625,0.20874445724487303,-11.624447610473633,2.93693724899292
1789315935123452400,4.279452392578125,-0.11417349166870117,-10.894515379333495,3.5480572227478024
1789315935133486300,4.289486328125,-1.025316860961914,-9.420136069488525,4.084358394622803
1789315935143519500,4.29951953125,-1.1972504676818847,-8.355165243530273,4.594622623443604
1789315935153553200,4.30955322265625,-0.7945756759643554,-8.314164540100098,4.7849616554260255
1789315935163587300,4.31958740234375,-0.6772597946166992,-8.784176253509521,4.733486319732665
1789315935173620500,4.329620361328125,-0.7636006919860839,-8.800786027526854,4.309862263488769
1789315935183654400,4.339654296875,-0.9515455223083495,-8.461557579803467,3.571999239349365
1789315935193688300,4.349688232421875,-1.2753612968444823,-8.14058491973877,2.4799440071105954
1789315935203721200,4.35972119140625,-1.1489175216674803,-8.49133546295166,1.6124948181152343
1789315935213755400,4.36975537109375,-0.8655039001464844,-9.28217019882202,1.6959926010131834
1789315935223789600,4.37978955078125,-0.7930792999267577,-9.392902025604247,2.0504840843200682
1789315935233822500,4.389822509765625,-0.6591536445617675,-8.986336656188964,2.0929811637878415
1789315935243856400,4.3998564453125,-0.6546645164489746,-8.463951781463622,1.9674352142333984
1789315935253890300,4.409890380859375,-0.7754220626831054,-8.154501216888427,1.5406687683105469
1789315935263923500,4.41992333984375,-0.8274959487915039,-8.043320477294921,0.9020154754638672
1789315935273957400,4.429957275390625,-0.9496002334594726,-8.057835324859619,0.28371289672851563
1789315935283991300,4.4399912109375,-0.8556278182983398,-8.202235612487792,-0.020949264526367185
1789315935294024200,4.450024169921875,-0.7220014381408691,-8.47128402404785,0.24390929412841794
1789315935304058400,4.460058349609375,-0.601393529510498,-8.946383415985107,0.8233060958862304
1789315935314092300,4.47009228515625,-0.47016135101318357,-9.502586389160156,1.4387655601501463
1789315935324125200,4.480125244140625,-0.7628525039672851,-9.943418769836425,1.9550152931213378
1789315935334159400,4.490159423828125,-1.1743559143066407,-9.99070425262451,2.1918916198730467
1789315935344193500,4.500193603515625,-1.3780126930236816,-9.591770401000977,2.000205849456787
1789315935354226400,4.510226318359375,-1.4654010536193847,-9.285013313293456,1.5056535690307615
1789315935364260400,4.52026025390625,-1.6844705055236815,-9.325714741516112,1.0082581741333008
1789315935374294300,4.530294189453125,-1.9340660285949707,-9.702651865386962,0.747589468383789
1789315935384327400,4.540327392578125,-2.207154655456543,-10.22773021697998,0.6120177993774414
1789315935394361300,4.550361328125,-2.487425887298584,-10.595240171813964,0.49530046844482417
1789315935404395300,4.560395263671875,-2.7256489524841307,-10.721833584594727,0.3093009269714355
1789315935414428200,4.57042822265625,-2.7377695983886716,-10.91651210708618,0.21293431015014647
1789315935424462300,4.58046240234375,-2.781164503479004,-11.391761136627197,0.5746083984375
1789315935434496500,4.59049658203125,-2.912546319580078,-11.66484976348877,0.9540893615722655
1789315935444529400,4.600529296875,-2.7852047187805176,-11.459098058319091,1.0869675537109373
1789315935454563300,4.610563232421875,-2.185307565307617,-11.195137325286865,1.4525322196960448
1789315935464597200,4.62059716796875,-1.1260229682922362,-11.033528713226318,1.6329951698303222
1789315935474630400,4.63063037109375,-0.3628711891174316,-11.087547888183593,1.3015478775024414
1789315935484664300,4.640664306640625,-0.46312838363647457,-11.406575259399414,0.8364742050170898
1789315935494698200,4.6506982421875,-0.5205892234802246,-11.926865207672119,0.19692308654785154
1789315935504731400,4.6607314453125,-0.3730465461730957,-12.700491619110107,-0.2615665313720703
1789315935514765300,4.670765380859375,-0.3043628860473633,-13.122170386505125,-0.2775777549743652
1789315935524799200,4.68079931640625,-0.956333925628662,-13.256245679473876,0.008828618621826172
1789315935534833400,4.69083349609375,-1.1745055519104004,-12.553846767425537,0.028131869506835935
1789315935544866300,4.7008662109375,-1.1008838508605956,-11.268609388732909,-0.08259995727539061
1789315935554900500,4.710900390625,-1.1646294700622557,-10.346093561553955,-0.06539163284301758
1789315935564933400,4.720933349609375,-1.1586439659118652,-10.020931048583984,-0.30271687240600587
1789315935574967300,4.73096728515625,-0.8969277969360351,-10.351480515289307,-0.7487865692138671
1789315935585001200,4.741001220703125,-0.2700958747863769,-11.314099220275878,-1.0676643028259276
1789315935595034400,4.751034423828125,0.08035539321899414,-12.390592141723632,-1.5879542510986326
1789315935605068500,4.761068603515625,-0.5348047958374023,-12.712612265014648,-2.0611083541870117
1789315935615102200,4.771102294921875,-0.830638338470459,-12.2322755569458,-2.150442003631592
1789315935625136400,4.781136474609375,-0.5951087501525879,-12.196063256835936,-2.263418394470215
1789315935635169300,4.791169189453125,-0.7842506813049316,-11.259780770111083,-2.6596587692260742
1789315935645203500,4.801203369140625,-1.1538555625915528,-11.495160720825195,-2.5225907241821286
1789315935655237400,4.8112373046875,-1.158045415496826,-11.24885722503662,-2.542043612670898
1789315935665270300,4.821270263671875,-0.8131307388305664,-11.966219897460936,-2.3313538665771483
1789315935675304400,4.831304443359375,-0.5891232460021972,-12.152817989349364,-2.2726959259033204
1789315935685338400,4.84133837890625,-0.7240963645935058,-12.992883496856688,-1.9234417587280273
1789315935695371300,4.851371337890625,-0.6280290229797363,-11.796381217193602,-1.6109984420776366
1789315935705405200,4.8614052734375,-0.25303718795776364,-13.08775373764038,-1.541716231536865
1789315935715439400,4.871439453125,-0.09292495193481445,-13.819930532836914,-1.908178723144531
1789315935725472500,4.881472412109375,0.49365445480346676,-12.396128733062744,-2.424278818511963
1789315935735506200,4.891506103515625,0.6750152305603027,-10.836904901885985,-1.9306243637084959
1789315935745540400,4.901540283203125,0.626981559753418,-9.870844532012939,-1.6118962677001951
1789315935755573200,4.9115732421875,1.058536408996582,-8.905083437347411,-1.4628572143554686
1789315935765607400,4.921607421875,1.566705711364746,-7.6568065467834465,-1.239897184753418
1789315935775641300,4.931641357421875,2.6134207496643067,-7.4603323730468745,-2.143259398651123
1789315935785674200,4.94167431640625,2.657713480377197,-8.008604553222655,-2.61746096496582
1789315935795708400,4.95170849609375,2.8803742347717285,-7.950096250152588,-2.615515676116943
1789315935805742300,4.961742431640625,3.7006875785827633,-8.55538035736084,-2.795679351043701
1789315935815775500,4.971775390625,4.505737886810302,-8.692448402404784,-3.2697312797546383
1789315935825809200,4.98180908203125,5.880907465362548,-7.407360661315917,-3.384952234649658
1789315935835843300,4.99184326171875,7.6756608848571775,-1.2705728935241698,-3.171868286895752
1789315935845876500,5.00187646484375,-1.6074071395874023,-4.106504759979248,0.7915829238891601
1789315935855910400,5.011910400390625,6.104316407775879,-19.175759646606444,-1.3525743003845214
1789315935865944300,5.0219443359375,0.2653074714660644,-9.622446109771728,-2.945017679595947
1789315935875977200,5.031977294921875,1.5894506271362303,-8.897302281951903,-2.2349872497558594
1789315935886011400,5.042011474609375,3.0986954986572264,-6.158634857940673,-2.4735095901489257
1789315935896045600,5.052045654296875,-1.1239280418395996,-0.7924807495117187,-3.0879215911865234
1789315935906078500,5.062078369140625,3.7439328460693355,-15.557223112487792,-2.2589292663574216
1789315935916112400,5.0721123046875,3.2830490264892576,-10.218901598358153,-4.02839393081665
1789315935926146300,5.082146240234375,2.9318495704650878,-6.843077257537842,-3.7825393478393554
1789315935936179500,5.092179443359375,2.6068366950988766,-6.43531478729248,-3.7825393478393554
1789315935946213000,5.102213134765625,2.3968951370239258,-6.049399407196044,-3.791667241668701
1789315935956247300,5.112247314453125,2.240074928283691,-5.7885810638427735,-3.596390168762207
1789315935966281500,5.122281494140625,2.189198143005371,-5.145887555694579,-3.1982045051574706
1789315935976314400,5.132314453125,2.3452701637268065,-4.875492405700683,-2.599654090118408
1789315935986348300,5.142348388671875,2.4536077888488768,-4.69263525390625,-2.060809078979492
1789315935996382200,5.15238232421875,2.4052748428344723,-3.802590786743164,-1.690007096862793
1789315936006415400,5.162415283203125,2.5403975990295407,-3.371634487915039,-1.4353238952636718
1789315936016449500,5.172449462890625,2.318036119842529,-3.366397171783447,-1.2033856094360351
1789315936026483200,5.182483154296875,2.2301988464355467,-3.549104685974121,-0.4560954162597656
1789315936036516400,5.192516357421875,2.089539498901367,-3.7859810127258298,0.4011784156799316
1789315936046550300,5.20255029296875,1.6415245132446288,-4.059967465209961,1.0021230323791503
1789315936056584400,5.21258447265625,1.649604943847656,-4.502894772338867,0.9831190567016601
1789315936066617300,5.222617431640625,2.449567573547363,-4.8500540130615235,0.2654571090698242
1789315936076651300,5.2326513671875,2.880074959564209,-4.899883335113525,-1.0592845970153808
1789315936086685400,5.242685546875,2.8850130004882812,-4.71133995437622,-1.931222914123535
1789315936096718600,5.252718505859375,3.080439710998535,-5.37573091506958,-2.5116671791076657
1789315936106752500,5.26275244140625,3.519775715637207,-6.663811408233642,-2.3259669128417966
1789315936116786400,5.272786376953125,4.043058415985107,-8.125920434570313,-1.9602526092529295
1789315936126819300,5.2828193359375,4.7010149597167965,-9.099163409423827,-2.2246622550964354
1789315936136853500,5.292853515625,5.178358915710449,-9.80066449584961,-2.5321675308227536
1789315936146887400,5.302887451171875,5.839757124328613,-10.13869584274292,-2.8854619132995603
1789315936156920300,5.31292041015625,5.941809970092773,-9.567978022003173,-2.4435820693969723
1789315936166954500,5.32295458984375,6.3706713424682615,-9.284265125274658,-1.4740800346374512
1789315936176988400,5.332988525390625,7.341370478057861,-9.705644617462157,-0.8587702079772949
1789315936187021600,5.343021484375,8.704569048309326,-10.721683946990966,-0.3176806327819824
1789315936197055500,5.353055419921875,9.11741919708252,-11.823016710662841,-0.5562029731750487
1789315936207089400,5.36308935546875,7.540538128662109,-10.9681370803833,-1.6246154640197752
1789315936217122600,5.37312255859375,7.181707154846191,-10.697891567993164,-2.196979298400879
1789315936227156500,5.383156494140625,7.483825476837158,-10.844386782073974,-1.6654665298461913
1789315936237190400,5.3931904296875,7.274632106781006,-10.773757833099365,-1.2358569694519042
1789315936247223300,5.403223388671875,7.835473845672607,-10.550348890686035,-1.180341418457031
1789315936257257500,5.413257568359375,7.388655960845947,-12.043283263397216,-1.2575544219970702
1789315936267291600,5.423291748046875,5.663633664703369,-15.103821173095703,-2.710086641693115
1789315936277325300,5.4333251953125,5.44591095123291,-16.065392414855957,-3.3918355644226073
1789315936287358500,5.4433583984375,6.479457880401611,-14.354585691070556,-2.0575170516967773
1789315936297392400,5.453392333984375,6.873304053497314,-11.49156941833496,-0.3033154228210449
1789315936307426600,5.463426513671875,6.242132640838623,-7.696610149383544,0.23912089080810545
1789315936317459500,5.47345947265625,5.476437022399902,-5.25407554321289,-0.06479308242797852
1789315936327493400,5.483493408203125,4.747701892089843,-5.266345826721191,-0.761655403137207
1789315936337527600,5.493527587890625,3.6891654830932614,-5.793968017578124,-1.6285060417175292
1789315936347560400,5.503560546875,2.455852352905273,-5.345653756713867,-1.992424694061279
1789315936357594400,5.513594482421875,2.1613655487060544,-4.555716846466064,-1.9479823257446287
1789315936367628500,5.523628662109375,2.2450129692077634,-4.219481150817871,-1.9232921211242675
1789315936377661400,5.533661376953125,2.428019758605957,-3.927538185882568,-1.7648258987426757
1789315936387695600,5.543695556640625,3.846434604644775,-4.1201217819213865,-1.1477204208374023
1789315936397729300,5.553729248046875,4.977545251464844,-5.593303990936279,-1.5090952339172363
1789315936407762400,5.563762451171875,5.0017865432739255,-7.287949853515625,-2.013523596191406
1789315936417796400,5.57379638671875,5.297021535491943,-7.446864988708495,-2.1398177337646485
1789315936427830500,5.58383056640625,6.015730946350097,-8.754099095153808,-2.57286895904541
1789315936437863400,5.593863525390625,5.523872142791748,-8.019977011108399,-2.1347300552368162
1789315936447897300,5.6038974609375,5.383661708068847,-7.360374453735351,-1.1073182678222655
1789315936457931500,5.613931640625,6.30737463607788,-7.2435074851989745,0.7612064903259277
1789315936467964400,5.62396435546875,7.051372801971435,-8.177695045471191,2.3343466186523436
1789315936477998600,5.63399853515625,6.81210227355957,-9.680954412841796,2.394800210571289
1789315936488032500,5.644032470703125,5.88015927734375,-9.867851779937743,2.349011103820801
1789315936498066400,5.65406640625,6.139930157470703,-10.270227296447754,1.8918682243347167
1789315936508099600,5.664099609375,6.714388918304443,-10.1253780960083,0.9654618194580078
1789315936518133500,5.674133544921875,6.838438491821289,-9.241768045806884,-0.1388636962890625
1789315936528167400,5.68416748046875,6.750152305603027,-8.544606449890136,-1.3673884231567381
1789315936538200300,5.694200439453125,6.930016705322266,-8.266130869293212,-2.2436662307739255
1789315936548234500,5.704234375,7.092223867797851,-7.927351334381103,-2.4992472579956053
1789315936558268700,5.7142685546875,7.069778227233886,-7.5587939163208,-2.3861212295532224
1789315936568301300,5.72430126953125,6.725462100982666,-6.9415388008117676,-2.1543325813293457
1789315936578335500,5.73433544921875,6.3432876609802245,-6.392219157409667,-1.7782932830810545
1789315936588369400,5.744369384765625,6.258892052459716,-6.140528707885742,-1.425597451019287
1789315936598402600,5.754402587890625,6.1194298057556145,-6.157587394714355,-0.853532891845703
1789315936608436500,5.7644365234375,5.909488247680664,-6.434865874481201,-0.08035539321899414
1789315936618470400,5.774470458984375,5.654505770874023,-6.879289557647705,0.4531026641845703
1789315936628503600,5.784503662109375,5.4872109298706055,-7.39942986831665,0.9311948081970214
1789315936638537500,5.794537353515625,5.473893183135986,-8.022371212768554,1.5083470458984374
1789315936648571400,5.8045712890625,5.331587821960449,-8.285883032989501,1.9051859710693357
1789315936658604300,5.814604248046875,4.885218849945068,-7.950545162963866,2.24082311630249
1789315936668638500,5.824638427734375,4.574271909332275,-7.543081967926025,2.551770056915283
1789315936678672600,5.834672607421875,4.528333164978027,-7.2888476791381835,2.7225065628051754
1789315936688705500,5.84470556640625,4.625148694610595,-7.0278796981811515,2.6765678184509274
1789315936698739500,5.854739501953125,4.994304663085937,-7.021295643615722,2.3069629371643066
1789315936708773400,5.8647734375,5.280561399078369,-7.183652443695068,1.735197653198242
1789315936718807600,5.8748076171875,5.258415033721923,-7.254431030273437,1.0890624801635742
1789315936728840400,5.88484033203125,5.631611217498779,-7.388356685638428,0.4267664459228515
1789315936738874400,5.894874267578125,6.110900462341308,-7.535001537322998,-0.17896657409667968
1789315936748908500,5.904908447265625,6.273107624816894,-7.752574613189696,-0.6744166801452637
1789315936758941400,5.91494140625,6.3064768104553215,-8.071601984405516,-0.8728361427307129
1789315936768975600,5.9249755859375,5.963956335449218,-8.441057228088379,-0.7567173622131347
1789315936779009500,5.935009521484375,5.153070160675049,-8.80332986679077,-0.5334580574035644
1789315936789042400,5.94504248046875,4.7370776222229,-8.883685260009765,-0.3510498184204101
1789315936799076600,5.95507666015625,4.742763851165771,-8.824877681732177,-0.12120645904541015
1789315936809110500,5.965110595703125,4.840177931213379,-8.717437882232666,0.033219548034667964
1789315936819143400,5.975143310546875,4.799177227783203,-8.411129707336425,0.11956044540405272
1789315936829177300,5.98517724609375,4.950610482788085,-7.989002027130127,0.11237784042358398
1789315936839211500,5.99521142578125,5.3673512092590325,-7.7319246238708494,0.12419921112060546
1789315936849244400,6.005244384765625,5.305550878906249,-7.694964135742187,-0.08259995727539061
1789315936859278300,6.0152783203125,5.3013610260009765,-7.759158667755126,-0.32890345306396485
1789315936869312500,6.0253125,5.715707550811767,-8.010998754882811,-0.5478232673645019
1789315936879345400,6.035345458984375,6.0425160774230955,-8.399757249450683,-0.7583633758544921
1789315936889379600,6.045379638671875,5.769277812957763,-8.882338521575928,-0.7636006919860839
1789315936899413500,6.05541357421875,5.615899269104004,-9.044695321655272,-0.2861070983886719
1789315936909447400,6.065447509765625,5.525967069244384,-8.937105884552002,0.3447650390625
1789315936919480600,6.07548046875,5.303455952453613,-8.708609263610839,0.8143278396606445
1789315936929514500,6.085514404296875,5.197811804199218,-8.309525774383545,1.185578734588623
1789315936939548400,6.09554833984375,5.054758255004883,-7.879467301177978,1.6891092712402342
1789315936949581300,6.105581298828125,4.139425032806396,-7.539341027832031,1.9940707077026365
1789315936959615500,6.115615478515625,3.9401077445983885,-7.285406014251708,2.067243495941162
1789315936969649700,6.125649658203125,3.979462434387207,-7.5251254554748535,1.898003366088867
1789315936979682600,6.1356826171875,3.8118683181762694,-8.024316501617431,1.5312415992736816
1789315936989716500,6.145716552734375,3.612251754760742,-8.551789054870605,1.1080664558410644
1789315936999750400,6.15575048828125,3.405901499176025,-8.942792113494873,0.8053495834350586
1789315937009783600,6.165783447265625,3.3268928443908687,-9.340528864288329,0.47719431838989257
1789315937019817500,6.1758173828125,3.1618425674438475,-9.71013374557495,0.38890813217163084
1789315937029851400,6.185851318359375,2.984671644592285,-10.043825601959227,0.5395931991577149
1789315937039884500,6.195884521484375,2.551770056915283,-10.43827032546997,0.47315410308837885
1789315937049918500,6.20591845703125,2.3240216239929197,-10.679486142730712,0.3354875076293945
1789315937059952400,6.215952392578125,2.231246309661865,-10.906486387634276,0.2561795776367187
1789315937069985300,6.2259853515625,2.105700360107422,-11.145308003234863,0.14380173721313474
1789315937080019500,6.23601953125,2.213439434814453,-11.10804823989868,0.21772271347045896
1789315937090054400,6.246054443359375,2.395398760986328,-10.967089617156981,0.2702455123901367
1789315937100087300,6.25608740234375,2.4717139389038083,-10.78932014389038,0.12300211029052734
1789315937110121500,6.26612158203125,2.5451860023498534,-10.66826332244873,-0.4251204322814941
1789315937120155600,6.27615576171875,2.4856302360534666,-10.639233627319335,-0.9240122032165526
1789315937130189300,6.286189208984375,2.3745991340637205,-10.63698906326294,-1.0519523544311522
1789315937140222500,6.296222412109375,2.236633263397217,-10.594641621398925,-0.9021651130676269
1789315937150256400,6.30625634765625,2.3796868125915527,-10.397419259643554,-0.7742249618530272
1789315937160290600,6.31629052734375,2.431162148284912,-10.191817192077636,-0.51714755859375
1789315937170323500,6.326323486328125,2.3828292022705075,-9.872789820861815,-0.10579378585815429
1789315937180357400,6.336357421875,1.7087117973327637,-9.683647889709473,0.9172785110473632
1789315937190391600,6.3463916015625,1.2170026313781737,-9.504681315612793,1.777994007873535
1789315937200424400,6.356424560546875,0.8726865051269531,-9.339631038665772,1.783829874420166
1789315937210458600,6.366458740234375,1.3615525566101074,-9.188347421264648,1.14278237991333
1789315937220492300,6.3764921875,2.4756045166015626,-9.22575682220459,0.3919008842468262
1789315937230525400,6.386525390625,3.3367689262390137,-9.539846152496338,0.30196868438720703
1789315937240559600,6.3965595703125,3.821145849609375,-10.102034629821777,0.6533177780151367
1789315937250593500,6.406593505859375,4.405929605102539,-10.526406874084472,0.8864531646728515
1789315937260626400,6.41662646484375,4.248510845947266,-10.904990011596679,0.7603086647033691
1789315937270660400,6.426660400390625,4.131643877410888,-11.066748261260985,0.528669654083252
1789315937280694500,6.436694580078125,4.352957893371582,-10.851719024658202,0.4311059364318847
1789315937290728400,6.446728515625,4.348768040466308,-10.384400788116455,0.42766427154541015
1789315937300761300,6.45676123046875,4.3807904876708985,-9.828946002960205,-0.05566518859863281
1789315937310795500,6.46679541015625,4.151695316314697,-9.379584278869629,-0.3016694091796875
1789315937320829400,6.476829345703125,3.667019117736816,-9.03317322616577,-0.25827450408935543
1789315937330862600,6.486862548828125,3.3915362892150878,-8.78477480392456,-0.1514332550048828
1789315937340896300,6.496896240234375,3.472340595245361,-8.800786027526854,0.0526724365234375
1789315937350930400,6.506930419921875,3.51783042678833,-9.126996003723145,0.5038298118591308
1789315937360963600,6.516963623046875,3.8235400512695312,-9.357737188720703,0.9858125335693358
1789315937370997500,6.52699755859375,4.133289891052246,-9.42327845916748,1.3418003929138183
1789315937381031400,6.537031494140625,4.574870459747314,-9.294290844726563,1.6500538566589356
1789315937391064300,6.547064208984375,5.145887555694579,-9.131335494232177,1.3730746520996093
1789315937401098500,6.557098388671875,5.539135178375243,-9.11053586730957,0.8562263687133789
1789315937411132700,6.567132568359375,5.620837310028076,-9.16156229019165,0.5430348640441894
1789315937421165600,6.57716552734375,5.542576843261719,-9.076717768859863,0.3344400444030762
1789315937431199500,6.587199462890625,5.3119852958679195,-8.875904104614257,0.23508067550659179
1789315937441233400,6.5972333984375,5.148132119750977,-8.585756790924071,0.20290859069824219
1789315937451267600,6.607267578125,5.086780702209472,-8.337059093475341,0.34326866302490233
1789315937461300500,6.617300537109375,5.231629902648925,-8.187571127319336,0.5964554885864257
1789315937471334400,6.62733447265625,5.52282467956543,-8.25475841140747,0.715716658782959
1789315937481368600,6.63736865234375,5.792172366333007,-8.451382222747803,0.6054337448120117
1789315937491401500,6.6474013671875,5.559635530090332,-8.697984993743896,0.2690484115600586
1789315937501435400,6.657435302734375,5.26050996017456,-9.059060531616211,0.12913725204467771
1789315937511469300,6.66746923828125,5.084386500549316,-9.495553421783447,0.09591770401000976
1789315937521502500,6.67750244140625,5.054608617401123,-9.787496386718749,-0.05357026214599609
1789315937531536600,6.68753662109375,4.945223529052734,-9.81188731613159,-0.174926358795166
1789315937541570300,6.6975703125,4.5875896560668945,-9.521440727233886,0.06539163284301758
1789315937551603500,6.707603515625,4.436006763458252,-9.063848934936523,0.31693244476318355
1789315937561637400,6.717637451171875,4.339191233825684,-8.805574430847168,0.4601356315612793
1789315937571671600,6.727671630859375,4.36717346572876,-8.817395801544189,0.43499651412963863
1789315937581705500,6.73770556640625,4.703259523773193,-9.030030836486816,0.34401685104370117
1789315937591738400,6.74773828125,4.805312369537353,-9.343521616363525,0.15337854385375976
1789315937601772500,6.7577724609375,4.958092362976074,-9.559299040985106,-0.06688800888061523
1789315937611806500,6.767806396484375,5.227589687347412,-9.432406352996825,-0.5223848747253418
1789315937621839600,6.777839599609375,5.485564916229248,-9.003096067810057,-0.6908768165588378
1789315937631873300,6.787873291015625,5.5169888130187985,-8.566902452850341,-0.5940612869262695
1789315937641907500,6.797907470703125,5.581632257843017,-8.262539566802978,-0.256628490447998
1789315937651940600,6.807940673828125,5.867888993835449,-8.20448017654419,-0.08903437423706054
1789315937661974500,6.817974609375,6.1179334297180175,-8.288875785064697,-0.13063362808227538
1789315937672008400,6.828008544921875,6.282684431457519,-8.343044597625733,-0.06479308242797852
1789315937682041300,6.838041259765625,6.178686296844482,-8.240542839050292,0.03456628646850586
1789315937692075500,6.848075439453125,6.28866993560791,-7.949946612548827,-0.05162497329711914
1789315937702109700,6.858109619140625,6.342539472961425,-7.757662291717529,-0.32456396255493164
1789315937712142600,6.868142578125,6.3715691680908195,-7.505223654174804,-0.6661866119384765
1789315937722176500,6.878176513671875,6.13529139175415,-7.096712995910644,-1.0052654220581054
1789315937732210400,6.88821044921875,5.837961473083496,-6.684012484741211,-1.1291653579711913
1789315937742244600,6.89824462890625,5.341463903808593,-6.702118634796142,-1.2114660400390624
1789315937752277200,6.90827734375,5.376329465484619,-7.697956887817383,-1.3204022155761719
1789315937762311400,6.9183115234375,5.606621737670898,-8.652794437408447,-1.5313912368774414
1789315937772345600,6.928345703125,5.303007039642334,-8.817695076751708,-1.848922232055664
1789315937782378500,6.93837841796875,4.948515556335449,-8.685565072631835,-1.919850456237793
1789315937792412400,6.948412353515625,4.3534068061828615,-8.106916458892822,-1.8882769218444824
1789315937802446300,6.9584462890625,3.975422219085693,-7.474697583007812,-1.6959926010131834
1789315937812479500,6.9684794921875,3.4145804801940915,-6.988525008392333,-1.3973159439086913
1789315937822513700,6.978513671875,2.886808651733398,-6.569090805053711,-1.0000281059265137
1789315937832547300,6.98854736328125,2.9749452003479,-6.468833610534667,-0.7317278823852539
1789315937842580500,6.99858056640625,3.1872809600830077,-6.853851165008544,-0.7116764434814453
1789315937852614400,7.008614501953125,3.483862690734863,-7.4770917846679685,-1.0407295341491698
1789315937862648600,7.018648681640625,3.6100071907043456,-8.280944992065429,-1.4463970779418944
1789315937872681500,7.028681396484375,3.9169139160156248,-9.258677095031738,-1.8154034088134765
1789315937882715400,7.03871533203125,4.696076918792724,-10.331129801177978,-1.8797475784301756
1789315937892749600,7.04874951171875,5.3384711517333985,-11.254543453979492,-1.4317325927734375
1789315937902783500,7.058783447265625,4.976797063446044,-10.757297696685791,-0.8562263687133789
1789315937912816600,7.068816650390625,4.252999974060058,-9.088688777160645,-0.8560767311096191
1789315937922850300,7.078850341796875,4.414010035705566,-7.799111907958984,-0.9906009368896483
1789315937932884500,7.088884521484375,4.773589197540283,-7.351845110321045,-0.6501753883361816
1789315937942917600,7.098917724609375,4.651484912872315,-7.829937254333496,-0.6075286712646484
1789315937952951600,7.10895166015625,4.038718925476074,-7.479934899139404,-1.0175357055664063
1789315937962985500,7.1189853515625,3.3291374084472656,-6.006303777313232,-1.7977461715698242
1789315937973018400,7.129018310546875,4.14346524810791,-5.665578953552246,-2.5686791061401366
1789315937983052500,7.139052490234375,4.911405430603027,-6.031293257141113,-2.9701567970275877
1789315937993086500,7.14908642578125,4.598962113952637,-6.216993523406982,-2.663399709320068
1789315938003119400,7.159119384765625,4.830451486968994,-6.245125392913818,-2.168248878479004
1789315938013153500,7.169153564453125,5.097853884887695,-6.4543187629699705,-1.7126023750305175
1789315938023187500,7.1791875,4.855740242004394,-6.020968262481689,-1.0544961936950683
1789315938033221400,7.189221435546875,4.9726072105407715,-5.507112731170654,-0.7951742263793945
1789315938043254300,7.199254150390625,5.034706816101074,-5.430049365234375,-0.9733926124572754
1789315938053288400,7.209288330078125,5.337722963714599,-5.876567974853515,-1.3792097938537597
1789315938063322600,7.219322509765625,5.978770458221435,-5.84215132598877,-1.871218235015869
1789315938073355500,7.22935546875,6.917147871398925,-5.945101997375488,-1.872564973449707
1789315938083389400,7.239389404296875,7.939471980285644,-6.469581798553467,-1.4516343940734862
1789315938093422800,7.2494228515625,8.418312312316894,-6.6401686668396,-1.273116732788086
1789315938103456000,7.2594560546875,8.393921382904052,-6.996306163787842,-1.3970166687011718
1789315938113490000,7.269489990234375,7.965359285736083,-7.342268303680419,-1.416619194793701
1789315938123523800,7.27952392578125,7.76978293762207,-8.131905938720703,-0.9867103591918944
1789315938133557000,7.289556884765625,7.680748563385009,-8.72058027191162,-0.2581248664855957
1789315938143591000,7.2995908203125,7.818864071655273,-9.219771318054198,0.4756979423522949
1789315938153625000,7.309625,7.709927896118163,-8.686313260650634,1.3148656242370604
1789315938163658800,7.31965869140625,7.321019763946532,-7.704840217590331,1.7190367919921874
1789315938173692000,7.32969189453125,7.045088022613525,-7.590367450714111,1.4456488899230957
1789315938183726000,7.33972607421875,6.509385401153564,-7.757811929321289,0.6061819328308106
1789315938193760000,7.349760009765625,5.9968766082763665,-7.6005428077697745,-0.018704700469970702
1789315938203793200,7.359793212890625,5.776759693145752,-7.227346623992919,-0.1183633445739746
1789315938213826800,7.369826904296875,5.984307049560546,-7.212831776428223,-0.3446154014587402
1789315938223861000,7.379861083984375,5.925499471282959,-7.390900524902343,-0.6509235763549804
1789315938233894000,7.389893798828125,5.438728346252441,-7.334636785888671,-0.8910919303894043
1789315938243928000,7.399927978515625,5.314828410339355,-7.14369920349121,-0.9510966094970703
1789315938253962000,7.4099619140625,5.341164628601074,-6.827814221954346,-0.6009446166992187
1789315938263995000,7.419994873046875,5.500827951812743,-6.61428136138916,-0.3730465461730957
1789315938274029000,7.430029052734375,5.970241114807129,-6.619069764709472,-0.38247371520996093
1789315938284063000,7.44006298828125,6.178087746429443,-6.372018080902099,-0.3628711891174316
1789315938294096000,7.450095947265625,6.235099673461914,-6.226271054840088,-0.26066870574951173
1789315938304130000,7.460130126953125,6.555473783111572,-6.216394972991943,-0.30526071166992186
1789315938314164000,7.4701640625,6.795193224334716,-6.332214478302002,-0.29553426742553707
1789315938324198000,7.480197998046875,6.14202508392334,-6.518214019775391,-0.3769371238708496
1789315938334230800,7.490230712890625,5.9102364356994626,-6.449231084442138,-0.4261678955078125
1789315938344265000,7.500264892578125,6.17374825592041,-6.340145271301269,-0.20470424194335937
1789315938354299100,7.510299072265625,6.088903734588623,-6.295553265380859,0.09172785110473632
1789315938364332000,7.52033203125,5.616797094726562,-6.357353595733642,0.2998737579345703
1789315938374366000,7.530365966796875,5.351190348052978,-6.57552522201538,0.47210663986206053
1789315938384400000,7.54039990234375,5.6489691795349115,-7.0001967414855955,0.6081272216796875
1789315938394433000,7.55043310546875,6.182127961730957,-7.5525091369628905,0.8059481338500976
1789315938404467000,7.560467041015625,5.75865354309082,-8.238896825408935,0.9202712631225586
1789315938414500900,7.5705009765625,5.224896210479736,-8.805125518035888,0.9917980377197265
1789315938424534000,7.580533935546875,4.90931050415039,-9.362375954437255,1.1279682571411132
1789315938434568000,7.59056787109375,4.4856864479064935,-9.908702845764159,1.2381015335083008
1789315938444602000,7.60060205078125,4.38602780380249,-10.247332743072509,1.4317325927734375
1789315938454635800,7.6106357421875,3.895216463470459,-10.472387699127196,1.4645032279968262
1789315938464669000,7.6206689453125,3.8344635963439937,-10.653748474884033,1.3088801200866698
1789315938474703000,7.630703125,4.71148959197998,-10.817302375793457,0.6907271789550781
1789315938484737000,7.640737060546875,4.880729721832275,-11.001955178833008,0.33144729232788084
1789315938494770200,7.650770263671875,4.940285488128662,-10.794707097625732,0.36840778045654293
1789315938504803800,7.660803955078125,6.186916365051269,-10.245088179016113,0.18555062866210936
1789315938514838000,7.670838134765625,7.102249587249755,-9.76744494781494,-0.30705636291503907
1789315938524871000,7.680870849609375,6.985083343505859,-9.516801961517334,-1.0069114356994628
1789315938534904800,7.69090478515625,6.0811225791931145,-9.349207845306395,-1.392976453399658
1789315938544939000,7.70093896484375,5.12658430480957,-9.017760552978515,-1.5490484741210937
1789315938554973000,7.710972900390625,4.185064501953125,-8.533084354400634,-1.5726912155151367
1789315938565006000,7.721006103515625,3.6979941017150875,-8.190563879394531,-1.6246154640197752
1789315938575039700,7.731039794921875,3.584718435668945,-8.278101877593993,-1.3784616058349608
1789315938585074000,7.741073974609375,2.9707553474426267,-8.377012333679199,-0.8129811012268066
1789315938595107000,7.751107177734375,1.7583914817810058,-8.411578620147704,-0.21173720932006834
1789315938605141000,7.76114111328125,0.942267990875244,-8.380453998565674,0.049829322052001954
1789315938615175000,7.7711748046875,0.6162076522827148,-8.11454797668457,0.1388636962890625
1789315938625207800,7.781207763671875,0.49200844116210934,-7.901464028930664,0.3101987525939941
1789315938635242000,7.791241943359375,0.26830022354125976,-7.826345951843261,0.05132569808959961
1789315938645276200,7.801276123046875,0.2932897033691406,-7.525574368286132,-0.8813654861450195
1789315938655309000,7.81130908203125,-0.3796306007385254,-7.209839024353027,-0.6783072578430175
1789315938665343000,7.821343017578125,-0.6889315277099609,-6.927622503662109,0.2549824768066406
1789315938675377000,7.831376953125,-0.5380968231201172,-6.72291826171875,1.2979565750122068
1789315938685411000,7.8414111328125,-0.6337152519226074,-6.937049672698974,2.131886940765381
1789315938695444000,7.85144384765625,-0.8034042945861816,-7.522132703399658,2.4907179145812988
1789315938705478000,7.861477783203125,-0.5259761772155761,-8.233809146881104,2.410811434173584
1789315938715512000,7.871511962890625,0.04578910675048828,-9.148992731475829,1.8987515541076658
1789315938725545000,7.881544921875,1.1309610092163085,-10.892270815277099,1.6576853744506834
1789315938735579100,7.8915791015625,3.56900648727417,-13.531878145599364,1.4839561164855957
1789315938745612800,7.90161279296875,6.0324903579711915,-16.773926468658445,1.340004741668701
1789315938755646000,7.91164599609375,7.601739908599853,-19.68303112335205,0.7181108604431152
1789315938765680000,7.92168017578125,7.978677032470703,-21.304953110504147,-0.21083938369750976
1789315938775714000,7.931714111328125,6.842029794311523,-19.66342859725952,0.7062894897460937
1789315938785748000,7.941748046875,5.4233156730651855,-15.122525873565673,-0.21577742462158203
1789315938795780900,7.95178076171875,4.822819969177246,-10.924891812896728,0.7152677459716796
1789315938805815000,7.96181494140625,4.748300442504883,-8.602516202545166,1.2825439018249511
1789315938815849000,7.971848876953125,5.689969882965087,-7.1309800071716305,0.5458779785156249
1789315938825881900,7.9818818359375,6.044311728668212,-6.599317601013183,-1.0763432838439941
1789315938835916000,7.991916015625,5.449053340911865,-7.192181787109375,-1.5891513519287108
1789315938845950000,8.001949951171875,4.735431608581543,-8.486696697235107,-1.9777602088928221
1789315938855983000,8.011983154296875,4.701463872528076,-9.419238243865966,-2.187851404571533
1789315938866016800,8.022016845703124,4.612878411102295,-9.67197615661621,-2.1378724449157716
1789315938876051000,8.032051025390626,4.62873999710083,-9.430610701751709,-2.092232975769043
1789315938886084000,8.042083984375,4.344727825164795,-8.856151940917968,-1.8532617225646972
1789315938896118000,8.052117919921875,3.6629789024353023,-8.164078023529052,-1.463306127166748
1789315938906152000,8.06215185546875,2.634669289398193,-7.697208699798583,-0.8981248977661133
1789315938916185900,8.072185791015626,1.8465280303955076,-7.406462835693359,-0.2882020248413086
1789315938926219000,8.082218994140625,1.6080056900024413,-7.100753211212158,-0.4251204322814941
1789315938936253200,8.092253173828125,1.2654852149963378,-6.918494609832763,-0.4542997650146484
1789315938946286800,8.102286865234374,1.5536872398376464,-6.747309191131591,-0.2684498611450195
1789315938956320000,8.112320068359375,1.7313070755004882,-6.515221267700195,-0.0618003303527832
1789315938966354000,8.12235400390625,1.8595465019226074,-6.640467942047119,-0.09591770401000976
1789315938976388000,8.13238818359375,2.5674820053100587,-6.969371395111083,-0.08454524612426757
1789315938986421000,8.1424208984375,3.1970074043273926,-7.480832724761963,0.1197100830078125
1789315938996455000,8.152454833984375,3.706074532318115,-8.176198669433592,0.14829086532592772
1789315939006489000,8.162489013671875,4.094833026885986,-8.965836304473877,0.19617489852905273
1789315939016523000,8.17252294921875,4.516212519073486,-9.4741552444458,0.34656069030761716
1789315939026556000,8.182555908203126,5.371989974975586,-9.785401460266113,0.7606079399108886
1789315939036589800,8.19258984375,6.763769327545166,-9.967660061645507,0.4086602958679199
1789315939046624000,8.2026240234375,7.390152336883545,-10.495132614898681,0.05401917495727539
1789315939056657200,8.2126572265625,8.939799361419677,-11.997494156646727,-0.3176806327819824
1789315939066690800,8.22269091796875,8.942492838287354,-12.475436663055419,-0.7709329345703124
1789315939076725000,8.23272509765625,8.667159647369385,-11.725004080200195,-0.8201637062072753
1789315939086758100,8.242758056640625,8.355913431549071,-11.315445958709716,-1.1872247482299805
1789315939096792300,8.252792236328125,8.391227906036377,-10.951976219177245,-1.6834230422973633
1789315939106826000,8.262825927734376,8.068758869934081,-10.184784224700927,-1.691204197692871
1789315939116860200,8.272860107421875,7.391648712921143,-9.73572177581787,-1.4107833282470703
1789315939126893000,8.28289306640625,6.742071875,-9.55181716079712,-1.3961188430786131
1789315939136927200,8.29292724609375,6.192303318786621,-9.380033191680907,-1.6083049652099608
1789315939146961200,8.302961181640624,5.44621022644043,-9.208398860168456,-1.3316250358581543
1789315939156994000,8.312994140625,4.68605119934082,-8.971672171020508,-1.2541127571105957
1789315939167028200,8.3230283203125,4.228908319854736,-8.661024505615234,-1.3311761230468748
1789315939177062100,8.333062255859375,4.207959055328369,-8.06920778274536,-0.9322422714233398
1789315939187095000,8.343094970703126,4.460098417663574,-7.49489865951538,-0.3203741096496582
1789315939197129200,8.353129150390625,4.696675469207763,-7.27822340927124,-0.051774610900878905
1789315939207163100,8.3631630859375,4.575917922973632,-7.2270473487854,-0.12345102310180664
1789315939217197000,8.373197021484375,4.563049089050293,-7.121403200531005,-0.2241571304321289
1789315939227230000,8.38322998046875,4.481197319793701,-7.007080071258544,-0.04997895965576172
1789315939237264100,8.39326416015625,3.856759599304199,-7.337330262756347,-0.20081366424560546
1789315939247298300,8.40329833984375,3.2535704185485836,-6.796689600372314,-0.4906617027282715
1789315939257331200,8.413331298828124,2.903568063354492,-5.6215854980468745,-0.8885480911254883
1789315939267365000,8.423365234375,2.2028151649475096,-4.547037865447998,-1.4037503608703612
1789315939277399000,8.43339892578125,1.9026421318054199,-3.545663021087646,-1.8587983139038085
1789315939287432200,8.44343212890625,1.9131167640686033,-2.9918542495727536,-1.9877859283447263
1789315939297466000,8.453466064453124,1.9958663589477539,-2.6626515213012696,-1.8026842124938964
1789315939307500000,8.4635,1.8842367065429686,-2.4452280830383297,-1.4686930809020995
1789315939317534200,8.4735341796875,2.0979192047119137,-2.6562171043395995,-0.9171288734436035
1789315939327567000,8.483567138671875,3.0262708984374997,-3.259855197906494,-0.771232209777832
1789315939337601300,8.493601318359374,4.10515802154541,-4.02869320602417,-1.1611878051757811
1789315939347635000,8.503635009765626,5.147533569335937,-4.877138419342041,-0.9801263046264648
1789315939357668000,8.513668212890625,6.114491764831542,-5.519831927490234,-0.4346972389221191
1789315939367702300,8.523702392578125,6.373813732147217,-5.828983216857909,0.7598597518920898
1789315939377736200,8.533736083984374,6.335506505584717,-6.65872372970581,2.4474726470947266
1789315939387769300,8.543769287109376,6.800879453277587,-7.734767738342285,2.5719711334228514
1789315939397803000,8.553802978515625,7.447313901519775,-8.579920924377442,1.4522329444885254
1789315939407837200,8.563837158203125,8.02476541442871,-8.987234481811523,0.6715735656738281
1789315939417871400,8.573871337890624,9.616909518432617,-9.791237326812743,-0.1632546257019043
1789315939427904300,8.583904296875,10.710461126708983,-12.452691747283934,-0.4038718925476074
1789315939437938200,8.593938232421875,9.1554271484375,-13.590536086273193,-1.2802993377685545
1789315939447972000,8.60397216796875,7.765593084716796,-11.458649145507811,-1.0755950958251952
1789315939458005200,8.614005126953124,7.38671067199707,-10.327837773895263,-1.0624269866943359
1789315939468039000,8.624038818359375,7.537994289398193,-10.69310316467285,-0.4499602745056152
1789315939478073000,8.634072998046875,7.851185794067383,-11.852644956207275,0.2045546043395996
1789315939488106200,8.644106201171875,7.528866395568847,-12.115857501220702,0.2699462371826172
1789315939498140200,8.65414013671875,6.865672535705566,-10.447697494506835,0.5406406623840332
1789315939508174000,8.664174072265626,5.7843912109375,-8.001421948242188,1.2822446266174317
1789315939518208000,8.6742080078125,4.613177686309815,-5.747430722808837,0.4655225852966308
1789315939528241200,8.6842412109375,3.273322582244873,-3.9330747772216794,-0.8735843307495117
1789315939538275300,8.694275390625,2.475754154205322,-3.4062007743835445,-1.0589853218078613
1789315939548309000,8.70430908203125,2.7247511268615723,-3.9326258644104,-1.002871220397949
1789315939558342100,8.714342041015625,3.010259674835205,-4.505588249206543,-0.9931447761535644
1789315939568376000,8.7243759765625,3.686172731018066,-4.844218146514892,-0.6748655929565429
1789315939578410200,8.73441015625,4.395305335235595,-5.031265151214599,-0.42497079467773435
1789315939588443100,8.744443115234375,4.195688771820068,-5.0769046203613275,-0.10070610733032226
1789315939598477000,8.75447705078125,3.8486791687011714,-4.931157594299316,0.12868833923339842
1789315939608511200,8.76451123046875,3.56242243270874,-4.836436991119385,0.20874445724487303
1789315939618545200,8.774545166015624,3.7945103561401363,-5.206490785217285,0.2362777763366699
1789315939628578300,8.784578369140625,6.414066247558593,-6.113893214416503,-0.009127893829345703
1789315939638612000,8.794612060546875,5.571456900787354,-7.530961322021484,-0.1466448516845703
1789315939648646100,8.804646240234375,3.808725928497314,-8.717587519836425,0.11537059249877929
1789315939658679300,8.81467919921875,6.045209554290771,-9.463231699371338,0.4435258575439453
1789315939668713200,8.824713134765625,7.9846625366210935,-9.98456911087036,0.6637924102783203
1789315939678747100,8.8347470703125,8.894010254669189,-10.121637155914305,0.9201216255187987
1789315939688780000,8.844780029296874,9.253589416503905,-9.888052856445311,1.372027188873291
1789315939698814200,8.854814208984376,9.677063835144043,-9.489418280029296,1.3979144943237305
1789315939708848000,8.86484814453125,9.217526753997802,-9.093327542877196,1.467795255279541
1789315939718882000,8.874882080078125,7.940968356323242,-8.858695780181884,1.5517419509887695
1789315939728915200,8.884915283203124,6.854300077819824,-8.693046952819824,1.1659762084960936
1789315939738949000,8.89494921875,6.3426891105651855,-8.625859668731689,0.7462427299499511
1789315939748983000,8.904983154296875,5.456834496307373,-8.636334300994873,0.7257423782348632
1789315939759016000,8.915015869140625,5.143942266845703,-8.54236188583374,0.6979097839355468
1789315939769050000,8.925050048828124,4.9263691909790035,-8.5172227684021,0.985064345550537
1789315939779084300,8.935084228515626,4.626046520233154,-8.570643392944335,1.2472294273376463
1789315939789118000,8.945117919921875,4.102314907073974,-8.731803092193603,1.2551602203369139
1789315939799151000,8.955151123046875,3.6815339653015133,-9.303269100952148,1.0229226593017577
1789315939809185000,8.96518505859375,3.4784757369995116,-9.827748902130127,0.797418790435791
1789315939819219200,8.97521923828125,3.258059546661377,-10.262296503448486,0.3886088569641113
1789315939829252400,8.98525244140625,3.5058594184875487,-10.466701470184326,-0.2745850028991699
1789315939839286000,8.9952861328125,3.8756139373779295,-10.546159037780761,-0.7998129920959473
1789315939849320200,9.0053203125,3.846434604644775,-10.555137294006347,-1.012597664642334
1789315939859354000,9.01535400390625,3.6309564552307125,-10.401908387756347,-1.0468646759033202
1789315939869387300,9.02538720703125,3.423109823608398,-10.288034171295166,-0.6459855354309082
1789315939879421200,9.035421142578125,3.0750527572631836,-10.173860679626465,-0.07212532501220703
1789315939889455000,9.045455078125,2.9294553688049314,-10.186729513549803,0.3372831588745117
1789315939899488300,9.05548828125,2.8425159210205075,-10.181043284606933,0.5541080467224121
1789315939909522200,9.065522216796875,3.0538042175292968,-10.060435375976562,0.8518868782043456
1789315939919556000,9.07555615234375,3.3357214630126952,-9.905710093688965,0.5122095176696777
1789315939929589000,9.085589111328124,3.6378397850036617,-9.485378064727783,-0.1457470260620117
1789315939939623200,9.095623046875,4.0535330482482905,-8.902689235687255,0.013168109130859374
1789315939949657000,9.105656982421875,4.048146094512939,-8.29336491317749,0.4465186096191406
1789315939959690000,9.11568994140625,3.444508000946045,-7.87782128753662,0.3877110313415527
1789315939969724200,9.12572412109375,2.9568390502929685,-7.55235949935913,-0.005835866546630859
1789315939979758000,9.135758056640626,2.803161231231689,-7.317578099060058,0.35404257049560545
1789315939989792000,9.1457919921875,3.397222518157959,-7.222707858276367,0.6453869850158691
1789315939999825200,9.1558251953125,3.8043864379882812,-7.543530880737304,0.6717232032775878
1789315940009859000,9.165859130859374,4.191349281311035,-8.300846793365478,0.8782230964660644
1789315940019893200,9.175893310546876,4.581454514312744,-9.383923769378661,0.8041524826049804
1789315940029926100,9.185926025390625,4.858284081268311,-10.43153663330078,0.7363666481018066
1789315940039960000,9.1959599609375,5.309142181396484,-11.267711563110351,0.845901374053955
1789315940049994200,9.205994140625,5.70762712020874,-11.825410912322997,0.8406640579223632
1789315940060028200,9.216028076171876,5.667973155212402,-12.099397364807128,0.2684498611450195
1789315940070061300,9.226061279296875,5.756408979034424,-11.775431952667235,0.5349544334411621
1789315940080095000,9.236094970703125,5.757157167053222,-11.054777252960205,1.1405378158569335
1789315940090128600,9.246128662109374,5.206939698028564,-10.406247878265381,0.8476970252990722
1789315940100161800,9.256161865234375,4.90302572479248,-9.887603943634033,0.8728361427307129
1789315940110195700,9.26619580078125,4.808903672027587,-9.42911432571411,0.7582137382507323
1789315940120229600,9.276229736328125,4.516062881469726,-9.025840983581542,0.3000233955383301
1789315940130263800,9.286263916015624,4.205415216064453,-8.64396581878662,0.054767362976074214
1789315940140296700,9.296296630859375,4.033182334136963,-8.208520391845703,-0.09636661682128905
1789315940150331000,9.306330810546875,3.9701849029541014,-7.786991262054443,-0.11537059249877929
1789315940160364500,9.316364501953124,3.8359599723815916,-7.557896090698241,-0.41060558471679687
1789315940170397700,9.326397705078126,3.844040402984619,-7.505074016571045,-0.5461772537231445
1789315940180431600,9.336431640625,4.173093493652344,-7.747038021850585,-0.26186580657958985
1789315940190465800,9.3464658203125,4.409221632385254,-8.182184173583984,-0.37140053253173827
1789315940200499000,9.3564990234375,4.677821131134033,-8.846275859069824,-0.15292963104248045
1789315940210532600,9.36653271484375,5.394136340332031,-9.945513696289062,0.006584054565429687
1789315940220566800,9.37656689453125,6.101024380493164,-10.904840373992919,-0.11671733093261719
1789315940230601000,9.38660107421875,6.028300505065918,-11.1979804397583,-0.5668272430419922
1789315940240633600,9.396633544921874,5.795314756011963,-10.75714805908203,-0.29867665710449215
1789315940250667800,9.406667724609376,5.359420416259765,-9.520991814422606,0.31094694061279293
1789315940260701700,9.41670166015625,4.830002574157715,-8.042422651672362,0.6594529197692871
1789315940270734800,9.42673486328125,4.667795411682128,-6.859238118743896,0.5626373901367188
1789315940280768500,9.4367685546875,5.054458979797363,-5.877465800476074,0.3000233955383301
1789315940290802700,9.446802734375,5.6754550354003905,-5.699097776794433,-0.0626981559753418
1789315940300835600,9.456835693359375,6.6157777374267575,-5.869684645080566,-0.522235237121582
1789315940310869800,9.466869873046875,6.228814894104003,-6.187814190673827,-1.0102034629821777
1789315940320903700,9.476903564453124,6.984634430694579,-8.394519933319092,-1.0480617767333984
1789315940330937600,9.4869375,7.580641006469726,-9.945513696289062,-0.7372644737243652
1789315940340970800,9.496970703125,6.245574305725097,-9.330652782440184,-0.088735099029541
1789315940351004700,9.507004638671875,5.740697030639648,-9.824007962036132,0.3603273498535156
1789315940361038600,9.51703857421875,6.007351240539551,-10.204985301208495,0.42018239135742186
1789315940371071700,9.52707177734375,5.843049151611328,-9.40472339630127,0.3399766357421875
1789315940381105700,9.537105712890625,4.9069163024902345,-8.993818536376953,-0.06359598159790039
1789315940391139800,9.547139892578125,4.320935446166992,-8.301744618988037,-0.8126818260192871
1789315940401173800,9.557173828125,4.384082514953613,-7.844601739501953,-1.1463736824035644
1789315940411206700,9.56720654296875,5.580884069824219,-7.823053924560546,-0.5784989761352539
1789315940421240800,9.57724072265625,7.050325338745116,-8.231265307617187,-0.340275910949707
1789315940431274800,9.587274658203125,7.786542349243164,-8.587552442169189,-0.7484872940063476
1789315940441308000,9.597307861328124,7.779210106658935,-8.017283534240722,-1.4110826034545898
1789315940451341600,9.607341552734376,6.969820307922363,-6.217143161010742,-1.416619194793701
1789315940461375700,9.617375732421875,4.934449621582031,-7.753173163604736,-2.053177561187744
1789315940471410000,9.627409912109375,5.58028551940918,-8.268076158142089,-2.484133860015869
1789315940481442800,9.63744287109375,5.719747766113281,-7.573308763885498,-2.5284265907287597
1789315940491476700,9.647476806640626,5.24749148864746,-6.593930647277832,-2.1039047088623044
1789315940501510700,9.6575107421875,5.262754524230957,-5.552153649902343,-1.6367361099243163
1789315940511543800,9.667543701171875,4.566640391540527,-4.742015663146972,-1.0666168395996094
1789315940521577700,9.67757763671875,3.7892730400085446,-3.9682396141052245,-0.47973815765380856
1789315940531611600,9.687611572265626,3.3324294357299804,-3.745578859710693,-0.19512743530273435
1789315940541645800,9.697645751953125,2.7060464263916013,-3.3687913734436035,-0.15173253021240232
1789315940551678700,9.7076787109375,2.766799293518066,-3.017891192626953,0.33010055389404297
1789315940561712600,9.717712646484374,3.8180034599304196,-3.668515493774414,0.6159083770751953
1789315940571746800,9.727746826171876,4.837035541534424,-4.8421232200622555,0.9837176071166992
1789315940581779700,9.73777978515625,5.230133526611328,-5.715408275604248,1.06616792678833
1789315940591814000,9.74781396484375,5.797708957672119,-6.930764893341064,0.30316578521728516
1789315940601847600,9.75784765625,6.491279251098632,-8.288127597045898,-0.5234323379516601
1789315940611880700,9.767880615234375,6.585102028656006,-8.87395881576538,-0.7305307815551757
1789315940621914600,9.77791455078125,6.777087074279785,-9.51291138381958,-0.8040028450012207
1789315940631948800,9.78794873046875,7.474697583007812,-10.79635311126709,-0.9416694404602051
1789315940641982700,9.797982666015624,8.460659754180908,-11.576713214874268,-0.6370072792053222
1789315940652015600,9.808015625,8.199542135620117,-9.923217693328857,0.14544775085449219
1789315940662049800,9.8180498046875,6.471676725006103,-5.97592734375,0.33758243408203126
1789315940672083700,9.828083740234375,5.738153191375732,-4.466083921813965,-0.15427636947631834
1789315940682116900,9.838116943359376,5.56711741027832,-5.384260258483886,-0.5352537086486816
1789315940692150800,9.84815087890625,5.354033462524414,-6.741174049377441,-0.8285434120178222
1789315940702184700,9.858184814453125,5.288043279266357,-7.325957804870605,-1.0733505317687988
1789315940712219000,9.868218994140625,5.392939239501953,-7.207145547485351,-1.3922282653808593
1789315940722251800,9.878251708984376,5.446958414459228,-6.640617579650878,-1.4736311218261717
1789315940732285700,9.88828564453125,5.9670987251281735,-6.331466290283203,-1.1131541343688964
1789315940742319900,9.89831982421875,6.665906334686279,-6.5586161727905266,-0.5301660301208496
1789315940752352800,9.908352783203124,6.95874712524414,-6.927173590850829,-0.20515315475463866
1789315940762386700,9.91838671875,6.67159256362915,-7.327005268096923,-0.0857423469543457
1789315940772420600,9.928420654296875,6.252756910705566,-7.687332617950439,-0.06404489440917968
1789315940782454800,9.938454833984375,6.000168635559081,-7.87812056274414,0.13946224670410157
1789315940792487700,9.94848779296875,5.391442863464355,-8.036137872314452,0.26216508178710934
1789315940802521600,9.958521484375,4.57756393661499,-8.119186742401123,-0.03456628646850586
1789315940812555800,9.9685556640625,4.346822751617432,-7.856722385406494,0.3416226493835449
1789315940822588700,9.978588623046875,4.297292704772949,-7.154772386169433,0.6546645164489746
1789315940832622800,9.988622802734374,4.862324296569824,-6.609941870880126,0.6206967803955078
1789315940842656500,9.998656494140626,5.1331683593749995,-5.919513967132568,0.4121019607543945
1789315940852689700,10.008689697265625,5.78394229812622,-5.53509496307373,0.3464110527038574
1789315940862723800,10.018723876953125,6.623858168029785,-5.26080923538208,0.3142389678955078
1789315940872757800,10.0287578125,6.175843182373047,-5.357175852203369,0.3947439987182617
1789315940882791700,10.038791748046876,4.727650453186035,-5.721693054962158,0.6423942329406738
1789315940892824600,10.048824462890625,5.211728101348877,-6.038625499725342,0.7133224571228027
1789315940902858800,10.058858642578125,6.073491061401366,-6.769006643676757,0.6361094535827636
1789315940912893000,10.068892822265624,6.660818656158447,-7.829488341522216,0.620547142791748
1789315940922925800,10.07892578125,7.2714897171020505,-9.089736240386962,0.7668927192687988
1789315940932959700,10.088959716796875,7.317877374267578,-10.571298155212402,0.7505822204589844
1789315940942993700,10.09899365234375,7.080402497100829,-11.783662020874022,0.6070797584533691
1789315940953027800,10.10902783203125,6.88901600189209,-12.329091086578368,0.6757634185791015
1789315940963060700,10.119060791015626,6.331316652679443,-12.230779180908202,0.5802946273803711
1789315940973094700,10.1290947265625,5.557540603637695,-11.761366017913817,0.09846154327392577
1789315940983128800,10.13912890625,5.106383228302001,-11.090839915466308,-0.31214404144287106
1789315940993161700,10.14916162109375,5.1231426399230955,-10.548852514648438,-0.5475239921569824
1789315941003195600,10.159195556640626,4.857835168457031,-10.19615668258667,-0.4852747489929199
1789315941013229600,10.1692294921875,4.000710974121094,-9.892242709350585,-0.31438860549926756
1789315941023263700,10.179263671875,3.1069255668640134,-9.652074355316161,0.0040402153015136714
1789315941033297000,10.189296875,2.7180174346923827,-9.456049094390869,0.5306149429321289
1789315941043330600,10.19933056640625,2.6910826660156246,-9.421183532714844,1.0880150169372558
1789315941053364700,10.20936474609375,2.998587941741943,-9.436745843505859,1.154903025817871
1789315941063397600,10.219397705078125,3.294421484375,-9.65910732269287,1.2198457458496093
1789315941073431800,10.229431884765624,3.7030817802429197,-10.116250202178955,1.1849801841735839
1789315941083465700,10.2394658203125,4.444087194061279,-10.582670613098143,0.7544727981567383
1789315941093499000,10.249498779296875,5.510404758453369,-10.88478893508911,0.10893617553710937
1789315941103532800,10.25953271484375,6.2310594581604,-10.901099433898926,-0.07766191635131836
1789315941113567000,10.26956689453125,5.929838961791992,-10.603170964813232,-0.05581482620239257
1789315941123601000,10.279600830078126,4.7560815979003905,-9.9981861328125,-0.26186580657958985
1789315941133633800,10.2896337890625,3.744531396484375,-9.168445619964599,-0.36227263870239257
1789315941143668000,10.29966796875,3.0994436866760253,-8.36968009109497,-0.4037222549438476
1789315941153702000,10.309701904296874,2.831293100738525,-7.884106066894531,-0.8927379440307617
1789315941163735800,10.31973583984375,3.2568624458312985,-7.737161940002441,-1.6231190879821777
1789315941173769000,10.32976904296875,4.0447044296264645,-7.753173163604736,-1.7268179473876952
1789315941183803000,10.339802978515625,4.210053981781005,-7.827842327880859,-0.9029133010864258
1789315941193836800,10.3498369140625,3.828627729797363,-8.301744618988037,-0.24331074371337888
1789315941203869700,10.35986962890625,3.2763153343200684,-9.25134485244751,-0.33848025970458984
1789315941213904000,10.36990380859375,3.1721675621032714,-9.990554615020752,-0.34656069030761716
1789315941223938000,10.37993798828125,3.414879755401611,-10.2793551902771,0.15113397979736326
1789315941233971000,10.389970947265626,3.7298669113159177,-10.226533116149902,0.48018707046508785
1789315941244004900,10.4000048828125,3.7647324729919434,-10.03514662094116,0.6419453201293945
1789315941254038800,10.410038818359375,3.4319384422302246,-9.809493114471435,0.7535749725341796
1789315941264073000,10.420072998046875,3.330035234069824,-9.593715689849853,1.1149497856140136
1789315941274105900,10.43010595703125,3.348440659332275,-9.469217203521728,1.1140519599914551
1789315941284139800,10.440139892578125,3.590554302215576,-9.341127414703369,0.7052420265197753
1789315941294174000,10.450174072265625,4.122216708374023,-9.29578722076416,0.5750573112487792
1789315941304206800,10.460206787109374,4.588038568878174,-9.503035301971435,0.6868366012573242
1789315941314241000,10.470240966796876,5.073911868286133,-10.009109677886963,0.4638765716552734
1789315941324274700,10.480274658203125,5.590760151672363,-10.665420207977295,0.18300678939819334
1789315941334308900,10.490308837890625,6.170755503845214,-11.064354059600829,0.012719196319580078
1789315941344342000,10.500342041015625,6.398204661560058,-11.12121634902954,-0.048183308410644526
1789315941354376000,10.5103759765625,6.149806239318847,-10.73185930404663,0.01092354507446289
1789315941364409900,10.520409912109375,5.715857188415527,-9.941772756195068,-0.09068038787841796
1789315941374442800,10.53044287109375,5.205443321990966,-8.896703731536865,-0.022445640563964843
1789315941384477000,10.540476806640624,4.920084411621094,-7.949497699737548,0.3295020034790039
1789315941394511000,10.550510986328124,5.383661708068847,-7.519139951324463,0.6584054565429687
1789315941404544800,10.560544677734375,6.222829389953613,-7.461978386688232,0.9029133010864258
1789315941414578000,10.570577880859375,6.712742904663085,-7.670273931121826,0.8393173194885254
1789315941424611800,10.58061181640625,6.878691007232666,-8.238148637390136,0.567575431060791
1789315941434646000,10.59064599609375,7.116315522003173,-9.103353262329101,0.604535919189453
1789315941444678700,10.6006787109375,7.330297295379638,-9.714772511291503,0.37409400939941406
1789315941454712800,10.610712890625,7.218218730163573,-8.805125518035888,-0.18210896377563476
1789315941464747000,10.6207470703125,7.0735191673278806,-7.977180656433105,-0.835726016998291
1789315941474780700,10.63078076171875,8.15240629043579,-8.588001354980468,-0.7984662536621093
1789315941484813800,10.640813720703125,7.713219923400878,-8.27451057510376,-0.5189432098388671
1789315941494847700,10.65084765625,7.156119124603271,-7.294384270477295,-0.37723639907836914
1789315941504882000,10.6608818359375,7.573009488677978,-7.437587457275391,-0.2519897247314453
1789315941514915000,10.6709150390625,7.968501675415038,-8.426243105316162,-0.02858078231811523
1789315941524948700,10.68094873046875,7.646930464935302,-8.072050897216796,0.1753752716064453
1789315941534983000,10.69098291015625,6.774393597412109,-6.505943736267089,0.21308394775390624
1789315941545017000,10.70101708984375,5.492298608398437,-5.8732759475708,0.10953472595214843
1789315941555050000,10.711050048828126,5.347599045562744,-4.6073418197631835,0.3344400444030762
1789315941565084000,10.721083984375,4.6865001121521,-4.163815962219238,0.5989993278503417
1789315941575117800,10.731117919921875,5.00477929534912,-4.585494729614258,0.556053335571289
1789315941585151000,10.74115087890625,5.480177962493896,-4.938340199279785,0.5798457145690917
1789315941595185000,10.751184814453126,5.748178910827637,-5.387402648162841,0.34386721343994137
1789315941605218800,10.76121875,4.482843333435058,-6.463147381591797,-0.4240729690551758
1789315941615253000,10.7712529296875,2.7256489524841307,-7.080402497100829,-1.4796166259765624
1789315941625286000,10.781285888671874,1.8442834663391112,-6.864026522064209,-2.2789807052612305
1789315941635320000,10.791320068359376,2.6364649406433105,-6.693589291381835,-2.766200743103027
1789315941645353700,10.801353759765625,2.8259061470031734,-6.431723484802245,-2.6129718368530273
1789315941655387000,10.811386962890625,3.112312520599365,-6.27595073928833,-2.418293314361572
1789315941665420800,10.8214208984375,3.6860230934143066,-6.252008722686767,-2.1971289360046384
1789315941675455000,10.831455078125,3.3527801498413083,-6.050895783233642,-1.2363058822631836
1789315941685489000,10.841489013671875,3.096899847412109,-6.158784495544433,-0.5847837554931641
1789315941695521800,10.851521728515625,3.3385645774841306,-6.912060192871094,-0.32306758651733397
1789315941705556000,10.861555908203124,4.022707701873779,-7.700800002288818,-0.055066638183593745
1789315941715590000,10.87158984375,5.4315457412719725,-8.046911779785155,0.15771803436279297
1789315941725622800,10.881622802734375,5.951237139129638,-7.947702048492431,0.10354922180175781
1789315941735657000,10.891656982421875,5.773766941070556,-8.307730123138427,-0.2811690574645996
1789315941745691000,10.90169091796875,5.81611438293457,-8.73943460998535,-1.1679214973449705
1789315941755724800,10.911724853515626,5.846790091705322,-8.756792572021483,-2.0433014793395996
1789315941765757700,10.9217578125,6.211157656860351,-8.361450022888183,-2.225560080718994
1789315941775791900,10.9317919921875,6.424989792633056,-7.889792295837402,-2.260724917602539
1789315941785826000,10.941825927734374,6.430376746368408,-7.471555193328857,-1.9651906501770018
1789315941795859000,10.95185888671875,7.259219433593749,-6.961739877319336,-0.5322609565734863
1789315941805892900,10.961892822265625,8.707561800384521,-7.251288640594482,-0.6893804405212401
1789315941815926800,10.9719267578125,8.361001110076904,-7.53993957824707,-1.0673650276184081
1789315941825961000,10.9819609375,6.4448915939331055,-6.611138971710204,-0.6263830093383789
1789315941835993900,10.991993896484376,5.600187320709228,-6.967276468658447,-0.8259995727539062
1789315941846027800,11.00202783203125,5.813121630859374,-7.459284909820556,-0.9530418983459472
1789315941856062000,11.01206201171875,5.719149215698242,-6.287921747589111,-0.3124433166503906
1789315941866095900,11.022095947265624,5.8542719718933105,-5.61784455795288,0.5397428367614746
1789315941876129000,11.03212890625,5.738003553771972,-6.000318273162842,1.2042834350585936
1789315941886163000,11.042162841796875,5.710170959472656,-6.401945601654052,1.5174749397277831
1789315941896196900,11.05219677734375,5.76523759765625,-7.000047103881836,1.593490842437744
1789315941906230000,11.06222998046875,5.580584794616699,-7.622090622711181,1.1282675323486326
1789315941916264000,11.072263916015626,5.061043034362792,-7.512406259155273,0.7477391059875488
1789315941926297900,11.0822978515625,5.001636905670166,-7.048679325103759,0.6260837341308594
1789315941936332000,11.09233203125,5.652560482025146,-6.771999395751953,0.5345055206298828
1789315941946365000,11.102364990234374,6.3989528495788575,-6.645405982971191,0.17552490921020505
1789315941956398800,11.11239892578125,6.295403627777099,-6.529586477661132,0.01092354507446289
1789315941966432800,11.122432861328125,6.140229432678222,-6.346280413055419,-0.09756371765136718
1789315941976466000,11.1324658203125,6.675782416534424,-6.543502774810791,-0.5684732566833496
1789315941986499800,11.142499755859374,6.196193896484375,-6.986430081939697,-0.6955155822753906
1789315941996533800,11.15253369140625,5.543624306488037,-7.315034259796142,-0.581641365814209
1789315942006568000,11.16256787109375,5.800252796936035,-7.747187659454346,-0.4736030158996582
1789315942016600800,11.172600830078125,7.183203530883788,-7.836670946502685,-0.7175123100280761
1789315942026635000,11.182635009765624,7.026832234954834,-7.812130379486083,-0.8444049980163574
1789315942036668700,11.192668701171876,6.961141326904296,-7.6470801025390625,-1.016937155151367
1789315942046701800,11.202701904296875,5.966649812316894,-7.659200748443603,-0.7457938171386719
1789315942056736000,11.212736083984375,6.647800184631348,-7.631218516540527,-0.6619967590332031
1789315942066770000,11.22277001953125,6.890662015533447,-7.83337891921997,-0.38786066894531246
1789315942076803800,11.232803955078126,7.187692658996582,-7.822605011749267,0.016759411621093748
1789315942086836700,11.242836669921875,7.217470542144775,-8.121880219268798,0.40491935577392574
1789315942096870700,11.25287060546875,6.9062243263244625,-8.577227447509765,1.0287585258483887
1789315942106904600,11.262904541015626,6.39700756072998,-8.839691804504394,1.213560966491699
1789315942116937700,11.272937744140625,5.577143129730224,-8.966883767700194,1.2300211029052734
1789315942126971400,11.282971435546875,5.897666876983642,-8.734047656249999,1.3742717529296875
1789315942137005600,11.293005615234375,6.694636754608154,-8.254459136199952,1.186177285003662
1789315942147039700,11.303039794921874,6.404040528106689,-8.009951291656494,0.5268740028381347
1789315942157072600,11.31307275390625,5.91846650390625,-7.874978173065185,0.12375029830932617
1789315942167106600,11.3231064453125,5.368548310089111,-8.090755597686767,0.1836053398132324
1789315942177140700,11.333140625,4.5878889312744136,-8.583512226867676,0.2973299186706543
1789315942187173600,11.343173583984376,3.9181110168457027,-9.26930136489868,0.18525135345458985
1789315942197207800,11.353207763671875,3.827430628967285,-9.999233596038819,0.026485855865478514
1789315942207241500,11.363241455078125,4.313453565979004,-10.455329012298584,-0.3224690361022949
1789315942217275600,11.373275634765625,4.768052606201172,-10.615141973114014,-0.687584789276123
1789315942227308500,11.38330859375,5.122693727111816,-10.678588317108154,-0.8271966735839843
1789315942237342700,11.3933427734375,5.328595069885254,-10.690708963012694,-0.33099837951660155
1789315942247376600,11.403376708984375,5.200056368255615,-10.773458557891844,0.02528875503540039
1789315942257409500,11.413409423828124,4.70520481262207,-10.780192250061035,0.22999299697875975
1789315942267443700,11.423443603515626,4.371961869049072,-10.558728596496582,0.6844423995971679
1789315942277477400,11.433477294921875,4.176385520935058,-10.132859976196288,0.6813000099182128
1789315942287511600,11.443511474609375,4.063708405303955,-9.56408744430542,0.4191349281311035
1789315942297544400,11.45354443359375,3.99652112121582,-8.987084844207763,0.25827450408935543
1789315942307578600,11.46357861328125,4.109647149658203,-8.418910862731932,0.0809539436340332
1789315942317612500,11.473612548828125,4.215889848327636,-7.99304224243164,-0.008678981018066407
1789315942327645400,11.4836455078125,4.240729690551758,-7.640047135162353,-0.10519523544311522
1789315942337679600,11.4936796875,4.228309769439697,-7.651868505859374,0.037110125732421874
1789315942347713800,11.5037138671875,4.0909424491882325,-8.204929089355469,0.040102877807617184
1789315942357747500,11.51374755859375,4.2335470855712884,-8.852111725616455,-0.11282675323486327
1789315942367780600,11.523780517578125,4.526687151336669,-9.372700949096679,-0.03396773605346679
1789315942377814500,11.533814453125,4.681412433624267,-9.576806640625,0.3082534637451172
1789315942387848700,11.5438486328125,4.389170193481445,-9.507225154876709,0.40132805328369137
1789315942397882600,11.553882568359375,4.091690637207031,-9.348908570098876,0.12509703674316405
1789315942407915500,11.56391552734375,3.9139211639404294,-9.24984847640991,0.03531447448730469
1789315942417949700,11.57394970703125,3.8691795204162593,-9.11682064666748,0.3286041778564453
1789315942427983600,11.583983642578126,4.242674979400634,-9.046790248107909,0.3893570449829101
1789315942438016800,11.594016845703125,4.753238483428955,-9.221267694091797,0.12060790863037109
1789315942448050400,11.604050537109375,5.2079871612548825,-9.648632690429688,0.15098434219360352
1789315942458084600,11.614084716796874,5.616647457122802,-10.046519078826904,0.34446576385498046
1789315942468118800,11.624118896484376,5.9305871498107905,-10.299556266784668,0.3564367721557617
1789315942478151700,11.634151611328125,6.217442436218262,-10.351630152893065,0.39668928756713867
1789315942488185600,11.644185546875,6.439055727386474,-10.05504842224121,0.42871173477172847
1789315942498219500,11.654219482421874,6.1358899421691895,-9.547776945495604,0.3781342247009277
1789315942508252700,11.664252685546876,5.449651891326904,-9.041852207183837,-0.022445640563964843
1789315942518286600,11.67428662109375,5.033060802459716,-8.442403966522216,-0.32187048568725585
1789315942528320500,11.684320556640625,4.788552957916259,-8.059331700897216,-0.4688146125793457
1789315942538354700,11.694354736328124,4.58354944076538,-8.039729174804688,-0.5437830520629883
1789315942548387600,11.7043876953125,4.620061016082763,-8.250867833709716,-0.51714755859375
1789315942558421500,11.71442138671875,4.584147991180419,-8.861838169860839,-0.36002807464599607
1789315942568455700,11.72445556640625,4.595670086669921,-9.504232402801513,-0.423923331451416
1789315942578488600,11.734488525390624,4.964826055145263,-10.057292986297607,-0.47330374069213865
1789315942588522800,11.744522705078126,5.6097641273498535,-10.461913066864014,-0.2952349922180176
1789315942598556400,11.754556396484375,6.061220777893066,-10.243442165374756,-0.3290530906677246
1789315942608590600,11.764590576171875,6.089203009796142,-9.343671253967285,-0.46193128280639645
1789315942618623500,11.77462353515625,5.542876118469238,-7.939471980285644,-0.20919337005615232
1789315942628657700,11.78465771484375,5.230881714630127,-6.401197413635254,0.21293431015014647
1789315942638691600,11.794691650390625,5.241954897308349,-5.392939239501953,0.3589806114196777
1789315942648725500,11.8047255859375,5.671115544891357,-5.4242134986877435,0.5831377418518066
1789315942658758700,11.814758544921874,6.432621310424804,-6.170905141448975,0.9317933586120605
1789315942668792600,11.82479248046875,7.556399714660644,-7.81422530593872,0.572663109588623
1789315942678826500,11.834826416015625,8.255506599426269,-9.285462226104736,-0.2780266677856445
1789315942688859600,11.844859619140625,8.008604553222655,-9.959729268646239,-0.16924012985229492
1789315942698893600,11.8548935546875,7.894131786346435,-11.167155093383789,-0.21682488784790038
1789315942708927700,11.864927734375,6.825569657897949,-11.212495287322998,-0.7932289375305175
1789315942718961400,11.87496142578125,5.755062240600585,-9.968258612060547,-1.0583867713928221
1789315942728994600,11.88499462890625,5.025279647064209,-8.297704403686524,-0.8417115211486816
1789315942739028700,11.89502880859375,4.9628807662963865,-7.117662260437012,-0.6254851837158203
1789315942749062700,11.905062744140626,6.061520053100586,-6.8679170997619625,-0.4944026428222656
1789315942759095600,11.915095458984375,7.107786178588867,-7.360224816131591,-0.6022913551330566
1789315942769129500,11.92512939453125,6.968922482299805,-8.285434120178222,-0.9117419197082519
1789315942779163600,11.93516357421875,6.413318059539795,-9.025691345977783,-1.7148469390869139
1789315942789197600,11.945197509765626,5.781697734069824,-8.423998541259765,-2.307262212371826
1789315942799230500,11.95523046875,5.389946487426758,-8.160785996246338,-2.421734979248047
1789315942809264600,11.9652646484375,5.406406623840332,-8.428338031768797,-2.3364415451049805
1789315942819298600,11.975298583984374,5.278765747833251,-8.24233849029541,-2.2819734573364254
1789315942829331700,11.985331787109375,4.378845198822021,-7.847893766784668,-1.9621978981018064
1789315942839365400,11.995365478515625,4.157082270050049,-6.996605438995361,-1.7622820594787596
1789315942849399600,12.005399658203125,4.6273932586669915,-6.0598740394592285,-1.4565724349975586
1789315942859433700,12.015433837890624,4.946869542694092,-5.1976621665954585,-0.946158568572998
1789315942869466600,12.025466552734375,5.158906027221679,-4.869955814361572,-0.706738402557373
1789315942879500500,12.03550048828125,5.1988592674255365,-4.591480233764648,-0.7749731498718261
1789315942889534700,12.04553466796875,4.204966303253173,-4.879981533813476,-0.2723404388427734
1789315942899567600,12.055567626953126,4.107252947998047,-5.8360161842346185,0.3890577697753906
1789315942909601800,12.065601806640625,4.645499408721924,-6.024409927368164,0.16564882736206055
1789315942919635500,12.075635498046875,4.6727334526062005,-5.1602527656555175,-0.3024175971984863
1789315942929669600,12.085669677734375,4.819378304290772,-4.694730180358887,-0.4285620971679687
1789315942939702500,12.09570263671875,4.921431150054931,-4.0346787101745605,-0.303913973236084
1789315942949736700,12.10573681640625,5.214421578216553,-3.7310640121459957,-0.30151977157592774
1789315942959770600,12.1157705078125,5.740547393035889,-4.501697671508789,-0.29239187774658204
1789315942969804500,12.125804443359375,6.315903979492187,-5.437082332611084,-0.2136824981689453
1789315942979837700,12.135837646484376,7.223156771087646,-6.291961962890625,-0.1836053398132324
1789315942989871600,12.14587158203125,7.749432223510742,-6.7271081146240235,-0.3119944038391113
1789315942999905500,12.155905517578125,7.376535314941406,-6.221183376312256,-0.6655880615234374
1789315943009938400,12.1659384765625,7.283760000610351,-6.121225457000732,-0.7481880187988281
1789315943019972600,12.17597265625,7.485321852874756,-6.9798460273742675,-0.5289689292907714
1789315943030006500,12.186006591796875,7.440430571746826,-7.61041888961792,-0.34656069030761716
1789315943040040400,12.19604052734375,7.203853520202636,-7.645583726501465,-0.014514847564697266
1789315943050073600,12.206073486328124,7.069329314422607,-7.658901473236083,0.22685060729980466
1789315943060107800,12.216107666015626,7.038354330444336,-7.852083619689941,0.04339490509033203
1789315943070141400,12.226141357421875,6.796689600372314,-7.9575781303405755,-0.27518355331420896
1789315943080174600,12.236174560546875,6.2678703086853025,-7.709179708099365,-0.31109657821655273
1789315943090208500,12.24620849609375,6.159083770751953,-7.595904042053222,-0.3764882110595703
1789315943100242700,12.25624267578125,5.982511398315429,-7.602338459014892,-0.5603928260803223
1789315943110276400,12.2662763671875,5.651363381195068,-7.448810277557373,-0.5505167442321777
1789315943120309500,12.2763095703125,5.4978351997375485,-7.261613635253906,-0.254084651184082
1789315943130343400,12.286343505859374,6.227019242858886,-7.2450038612365715,-0.32606033859252925
1789315943140377600,12.296377685546876,5.390844313049316,-7.088632565307617,-0.6350619903564453
1789315943150411500,12.30641162109375,4.889109427642822,-6.7942953987121575,-0.6012438919067382
1789315943160444400,12.3164443359375,4.910058692169189,-6.612186434936523,-0.2998737579345703
1789315943170478600,12.326478515625,3.947290349578857,-6.138882694244384,0.19003975677490234
1789315943180512500,12.336512451171876,3.9942765571594236,-5.990591828918457,0.34700960311889645
1789315943190545700,12.346545654296875,5.295674797058105,-6.208464179992675,0.37334582138061523
1789315943200579300,12.356579345703125,6.124367846679687,-6.779481275939941,0.42332478103637694
1789315943210613500,12.366613525390624,5.72678073348999,-7.113921320343017,0.4186860153198242
1789315943220647700,12.376647705078126,5.897966152191162,-7.466617152404785,0.41883565292358393
1789315943230680600,12.3866806640625,4.782567453765869,-7.74449418258667,0.5741594856262207
1789315943240714500,12.396714599609375,4.560804524993896,-7.752873888397216,0.6503250259399413
1789315943250748400,12.40674853515625,5.921010343170166,-7.9840639862060545,0.4827309097290039
1789315943260782600,12.416782470703126,6.5689411674499505,-8.332719602966309,0.6030395431518555
1789315943270815500,12.4268154296875,6.241983003234863,-8.709956002044677,1.1140519599914551
1789315943280849400,12.436849365234375,6.209212368011475,-9.056367054748534,1.0122983894348143
1789315943290883600,12.446883544921874,5.877615438079833,-9.601197570037842,0.4234744186401367
1789315943300916500,12.45691650390625,5.289689292907714,-10.048015454864501,0.42437224426269526
1789315943310950400,12.466950439453125,5.34400774307251,-10.411335556793212,0.7293336807250976
1789315943320984600,12.476984619140625,6.201730487823486,-10.873416477203369,0.47061026382446286
1789315943331018500,12.4870185546875,7.030423537445068,-11.75373450012207,0.12030863342285156
1789315943341051600,12.4970517578125,6.850858412933349,-12.62896484451294,0.45010991210937495
1789315943351085300,12.507085205078125,6.317549993133545,-13.174543547821044,0.4688146125793457
1789315943361119500,12.517119384765625,5.940163956451416,-13.268515962982177,0.07317278823852538
1789315943371152400,12.52715234375,5.538087715148926,-12.868983560943603,0.20305822830200193
1789315943381186600,12.5371865234375,5.052364053344726,-12.178256381988525,0.5328595069885254
1789315943391220500,12.547220458984375,4.468029210662841,-11.39595098953247,0.5532102210998535
1789315943401254400,12.55725439453125,4.099322154998779,-10.538527519989014,0.1044470474243164
1789315943411287600,12.56728759765625,3.905990370941162,-9.758017778778076,-0.6536170532226562
1789315943421321500,12.577321533203126,3.77954659576416,-9.119813398742675,-1.1161468864440918
1789315943431355400,12.58735546875,3.9221512321472165,-8.529193776702881,-1.2873323051452636
1789315943441389600,12.5973896484375,3.9182606544494627,-8.076988938140868,-1.3006500518798827
1789315943451422500,12.60742236328125,3.8232407760620113,-7.742848168945312,-0.9472060317993164
1789315943461456600,12.61745654296875,3.856759599304199,-7.437288182067871,-0.8376713058471679
1789315943471490600,12.627490478515625,3.944896147918701,-7.267449501800536,-0.6982090591430664
1789315943481523500,12.6375234375,3.7759552932739258,-7.199962942504882,-0.44367549514770505
1789315943491557600,12.6475576171875,3.6261680519104003,-7.371896549224853,-0.2771288421630859
1789315943501591600,12.657591552734376,3.431489529418945,-7.703493479156494,-0.18270751419067383
1789315943511625500,12.66762548828125,3.489698557281494,-8.083572992706298,0.04279635467529297
1789315943521658400,12.677658447265625,3.7657799362182613,-8.473977500915527,0.13392565536499024
1789315943531692500,12.687692626953124,3.886238207244873,-8.80392841720581,-0.053121349334716794
1789315943541726500,12.6977265625,3.577236555480957,-9.062202921295166,0.3447650390625
1789315943551759400,12.70775927734375,3.444208725738525,-9.39709187850952,0.6386532928466796
1789315943561793500,12.71779345703125,3.662081076812744,-9.580697218322753,0.7038952880859375
1789315943571827500,12.727827392578124,3.921851956939697,-9.629030164337157,0.6407482192993164
1789315943581861400,12.737861328125,4.177732259368896,-9.644891750335693,0.5033808990478515
1789315943591894500,12.74789453125,4.559158511352539,-9.554510637664794,0.20305822830200193
1789315943601928400,12.757928466796875,4.7083472023010255,-9.37823754043579,-0.3269581642150879
1789315943611962600,12.767962646484374,4.705803363037109,-9.284414762878418,-0.31259295425415035
1789315943621996300,12.777996337890626,4.557811772918701,-9.403077382659912,-0.2319382858276367
1789315943632029400,12.788029541015625,4.244620268249512,-9.658209497070311,0.12075754623413085
1789315943642063600,12.798063720703125,4.475960003662109,-9.87668039855957,0.5502174690246582
1789315943652097500,12.80809765625,5.090372004699707,-10.075548773956298,0.6859387756347656
1789315943662130700,12.818130615234375,5.66303511428833,-10.13734910430908,0.6323685134887695
1789315943672164400,12.828164306640625,5.9400143188476555,-9.94072529296875,0.6823474731445313
