time,seconds_elapsed,z,y,x
1789315930919344600,0.0753447265625,-0.215865102905035,0.16642463404014707,-0.4522468510728329
1789315930929378600,0.085378662109375,-0.2134989582955837,0.2870633762001991,-0.21931034798808394
1789315930939411700,0.09541162109375,-0.17828385252952575,0.40548838783353564,0.009393485962972044
1789315930949445400,0.1054453125,-0.24595862787365913,0.5018716635286807,0.26188626484572886
1789315930959479600,0.1154794921875,-0.4478600873559713,0.6518702095553278,0.8344225331842899
1789315930969512700,0.1255126953125,-0.4525666576117277,0.9507669391512871,1.2904171194180845
1789315930979546600,0.135546630859375,-0.3193096952885389,1.17221188801527,1.5974783046387135
1789315930989580500,0.14558056640625,-0.11541560068428516,1.0970791978806256,1.731354129512608
1789315930999613400,0.155613525390625,0.05063537773787975,0.8128551367595791,1.5940790175892412
1789315931009647600,0.165647705078125,0.1533376273214817,0.3854036311820149,1.2908037806481123
1789315931019681800,0.175681884765625,0.24740356598496435,-0.12191840670704841,0.9443161555767059
1789315931029715500,0.185715576171875,0.28940146375894543,-0.5319359624028206,0.6127581694159656
1789315931039748600,0.19574853515625,0.2597872467398643,-0.8126844563677906,0.3988599096044898
1789315931049782500,0.205782470703125,0.17154256157577036,-0.8364575461432338,0.2918697535686195
1789315931059816700,0.215816650390625,0.015006430473923683,-0.6209741360321641,0.2296822505291551
1789315931069849600,0.225849609375,-0.250337865871191,-0.28789456632733346,0.17697824982367455
1789315931079883500,0.235883544921875,-0.5960013150781392,0.010351005883514881,0.2726799729954451
1789315931089917700,0.245917724609375,-0.7719383122205734,0.25270634856820107,0.4157513501074165
1789315931099950600,0.25595068359375,-0.5986497837603092,0.3954299351558089,0.22873664024211465
1789315931109984500,0.265984619140625,-0.3471510574162006,0.42424803336113687,-0.09475443238429725
1789315931120018400,0.276018310546875,-0.2666810979068279,0.4023705480739474,-0.03431077733747661
1789315931130051600,0.286051513671875,-0.2620546071499586,0.39070056854635477,0.13865933282338083
1789315931140085800,0.296085693359375,-0.22278642660081385,0.45951457705348725,0.0471346761405468
1789315931150119400,0.306119384765625,-0.17748773371577262,0.528246167974174,-0.09234678672067821
1789315931160152600,0.316152587890625,-0.15781506499648093,0.5310664860919118,-0.11692980463951826
1789315931170186500,0.3261865234375,-0.20535072315335273,0.4254539020195603,-0.218032217811048
1789315931180220700,0.336220703125,-0.2000631381392479,0.2640826058462262,-0.4666100152071565
1789315931190253600,0.346253662109375,-0.2672001533448696,0.15520283667147158,-0.9339893342863768
1789315931200287500,0.35628759765625,-0.4913958622217178,-0.10274287385493516,-1.2357076241090894
1789315931210321700,0.36632177734375,-0.8874024282217026,-0.5277729975044727,-0.9207390998300164
1789315931220354600,0.3763544921875,-1.1870792022794485,-0.6647773296624422,-0.7994966196231543
1789315931230388700,0.386388671875,-1.1595488057971,-0.4294771661862731,-0.7552670172743499
1789315931240422400,0.39642236328125,-0.6426788951009511,-0.04083002303838729,-0.8065037219062448
1789315931250455600,0.40645556640625,0.0019470424145460127,0.019327800804376603,-1.1208584251359104
1789315931260489700,0.41648974609375,0.36981647821068764,-0.04775689969211817,-1.6345073279589413
1789315931270523600,0.426523681640625,0.43254327575862406,-0.14756605818271637,-1.9774831455171107
1789315931280557600,0.4365576171875,1.5128993023753166,-0.4086743243932724,2.543204473143816
1789315931290590500,0.446590576171875,1.3688088113486765,0.8084770678058266,3.5750907756239174
1789315931300624600,0.456624755859375,-0.4746656766951084,2.1122242089182137,2.313904572995752
1789315931310658800,0.466658935546875,-2.3429630558282137,1.8038392277479172,-0.38756957704424855
1789315931320691700,0.476691650390625,-2.224832935488224,0.3481210714921355,-1.8823351107053456
1789315931330725600,0.4867255859375,-1.094350065177679,-0.381708868317306,-2.179128876672685
1789315931340759600,0.496759521484375,-0.5704062705725431,-0.5109139249011874,-2.1057798550844193
1789315931350792700,0.506792724609375,-0.2801701095551252,-0.580207241357863,-2.1289257528722283
1789315931360826400,0.516826416015625,-0.2799105818361044,-0.6573261368736625,-1.9104267943322657
1789315931370860500,0.526860595703125,-0.22485738765597343,-0.9659519410625099,-1.3347531047508119
1789315931380893700,0.536893798828125,-2.1993314144849774,-1.3879048492237924,-0.022639409570395945
1789315931390927600,0.546927734375,-5.6947582862854,-1.2466916671991348,1.7169994409456848
1789315931400961500,0.55696142578125,-2.6672897024959323,-0.005257189875841141,1.6224325670227406
1789315931410994400,0.566994384765625,1.628545789206028,0.6931935690686106,2.5673171701371666
1789315931421028600,0.577028564453125,3.5204712966859337,0.620817484165728,3.6950527875661847
1789315931431062800,0.587062744140625,4.474743613609672,0.45565380997210736,0.9107616764992476
1789315931441095700,0.597095703125,2.326499996805191,0.21997312274575231,-1.5593310909435152
1789315931451129600,0.607129638671875,1.8468524400442838,-0.3389978538379073,-0.4581935575827956
1789315931461163500,0.61716357421875,1.544763928669691,-0.6928343803673982,0.40549394079148765
1789315931471196700,0.62719677734375,0.21961305726170538,-0.7749652588263154,-1.6660890456587074
1789315931481230600,0.637230712890625,-0.9957365462124347,-1.2003668461367487,-2.1225486190557477
1789315931491264500,0.647264404296875,-1.124352404731512,-1.5171370860755442,-0.58855859785676
1789315931501297700,0.657297607421875,-1.0445055455565453,-1.187424946977198,-0.04009235641360283
1789315931511331600,0.66733154296875,-0.49821197197735306,-0.9280375132098794,0.11225333726108074
1789315931521365800,0.67736572265625,0.5989151566982269,-0.5499161479905247,0.1239031507834792
1789315931531398700,0.687398681640625,1.6979793909162282,-0.34864392632246016,0.11583733322769403
1789315931541432600,0.6974326171875,2.947701804113388,-0.09344020798057318,0.42304011887609955
1789315931551466800,0.707466796875,2.333223752102256,0.6388143286272883,-0.24585166036784648
1789315931561499600,0.717499755859375,0.81898004938066,1.042163366344571,-0.43275867207497354
1789315931571533600,0.727533447265625,-0.02460018824934959,0.906536460019648,-0.47959699561744923
1789315931581567500,0.7375673828125,-0.47898061728477476,0.3621297231003642,-0.5127732890322804
1789315931591600600,0.7476005859375,-0.3774643626153469,-0.3929685134783387,-0.44020022025257344
1789315931601634600,0.757634521484375,0.4587076445847749,-1.2907429903715848,-0.6100839087054133
1789315931611668500,0.76766845703125,0.6002332535594701,-1.5625576517745852,-0.6593854074910283
1789315931621702700,0.77770263671875,0.31676819411218166,-0.7543953490063547,-1.1398089170604944
1789315931631735600,0.787735595703125,0.2581856567621231,0.24742870042622087,-1.4735010657057166
1789315931641769700,0.797769775390625,-0.36396950574815273,0.46224634010493754,-0.5236161700859665
1789315931651803400,0.807803466796875,-0.29203765748143196,0.03872925136685371,0.16001199051886797
1789315931661836500,0.81783642578125,0.6160474932849407,-0.30849691711217164,0.29552257698774337
1789315931671870700,0.82787060546875,1.0132675267279148,-0.24161124631911515,0.5076484933644533
1789315931681904600,0.837904541015625,1.5449603280246258,-0.1538447000607848,0.306551043741405
1789315931691937800,0.847937744140625,1.4740139836639166,0.16789017654806374,-0.528225709708035
1789315931701971500,0.857971435546875,0.7936994776517152,0.4073313853517174,-0.2938809472605586
1789315931712005600,0.868005615234375,-0.24504385111629962,-0.2316135839179158,-0.2245674647986889
1789315931722038500,0.87803857421875,-1.2674211514949798,-1.1233084486365317,-0.5012161222293973
1789315931732072700,0.88807275390625,-1.8337901293754577,-0.5936378008171915,-0.11590367646217345
1789315931742106600,0.898106689453125,-0.7964350400954484,-0.28446254605203863,0.5502306207671761
1789315931752139500,0.908139404296875,0.354186947402358,-0.04489595730304718,1.3441744285687804
1789315931762173700,0.918173583984375,1.0227981561392545,-0.15456453876793383,0.6505033051162957
1789315931772207600,0.92820751953125,0.7162772152751684,0.03566197275072336,-0.11892331654429435
1789315931782240500,0.938240478515625,0.4541173941850662,-0.0515112837895751,-0.2641039408951998
1789315931792274400,0.9482744140625,-0.187604638582468,-0.4738146128237247,0.020813363187015054
1789315931802308600,0.95830859375,-0.5358879148989916,-1.5407906411245464,0.31273177820295095
1789315931812341800,0.968341796875,-0.11998656186163424,-2.8715599369361997,0.16881635148227214
1789315931822375400,0.97837548828125,1.9600421813726423,-1.6646107897996902,1.2083511228889225
1789315931832409600,0.98840966796875,2.5503368092417715,2.6327979425683616,-0.3262994080454111
1789315931842442500,0.9984423828125,-0.5337649313956498,4.42123940243721,-2.025538735894859
1789315931852476700,1.0084765625,-2.043975433078408,1.9097107550173997,-1.8059081429764627
1789315931862510600,1.018510498046875,-0.551828995874524,-0.07291150695383548,-0.5489540249601006
1789315931872543500,1.02854345703125,0.3788105165272951,-1.342088269944489,0.6164195414677262
1789315931882577700,1.03857763671875,0.9999328288584947,-1.6095380141362547,-0.3387631682991981
1789315931892611600,1.048611572265625,1.6959230429083108,-1.1943708205923438,-1.8482187599614261
1789315931902644700,1.058644775390625,2.3761679908156395,-1.052419387421012,-2.5915762898638843
1789315931912678400,1.068678466796875,2.4111072022497653,-1.3048787754908204,-3.1838772891193625
1789315931922712600,1.078712646484375,0.9298235198438167,-2.261830833017826,-3.7040202301368117
1789315931932745700,1.088745849609375,-2.0340169336438176,-3.045443508680165,-4.141290534417331
1789315931942779600,1.098779541015625,-1.2684475719332695,-2.891203671821952,-1.0584072296589613
1789315931952813600,1.1088134765625,1.1559656866133212,-3.6055420279890296,0.3662234221547842
1789315931962847700,1.11884765625,-0.3330950595349073,-3.493316163256764,1.4933315553352235
1789315931972880600,1.128880615234375,-0.3979886797279119,-1.4779736810751258,-0.022316461226344106
1789315931982914600,1.13891455078125,0.0015910685837268828,0.6239701029777527,0.4871723993077874
1789315931992948500,1.148948486328125,-0.5824591119378805,-0.05817395654916763,0.04612842170745134
1789315932002981600,1.158981689453125,-0.6865034237802028,-2.643340379370749,-4.130509320423006
1789315932013015600,1.169015625,-0.9007388796567917,-3.8891999796599146,-3.952412222637236
1789315932023049500,1.179049560546875,-0.6577800181210041,-4.592895945781469,-2.791706648020446
1789315932033082400,1.189082275390625,-0.2321171495258808,-5.999625030201673,-0.1070785649716854
1789315932043116500,1.199116455078125,-2.4333131888389588,-7.960193865796923,2.4539666852891444
1789315932053150700,1.209150634765625,-4.247721156874299,-9.369768987298011,3.0446757391780612
1789315932063183600,1.21918359375,-4.612888932496309,-9.779527015274763,1.4338532381892204
1789315932073217500,1.229217529296875,-3.9170968713670966,-8.653857098203897,0.19212182374596595
1789315932083251700,1.239251708984375,-2.318976615563035,-7.238333881953358,1.1891507478564978
1789315932093284600,1.24928466796875,0.34528935519754883,-7.233174307233095,3.4921278302550314
1789315932103318800,1.25931884765625,3.195406398871541,-8.486227326157689,5.693557093802094
1789315932113352400,1.2693525390625,4.603672191339731,-9.30291137355566,6.474095476585626
1789315932123385600,1.279385498046875,3.767060039156675,-7.783771130964159,5.946280393505096
1789315932133419800,1.289419677734375,4.283189360618591,-4.3854321759968995,3.6257629782408474
1789315932143453700,1.29945361328125,7.098861698377132,0.5315221209049225,3.3347266067564485
1789315932153486800,1.30948681640625,11.134361077284812,6.195215406841039,4.857915247955918
1789315932163520500,1.3195205078125,12.481539071583747,9.567298223045468,4.336792940512299
1789315932173554700,1.3295546875,12.082828507322072,8.41429255528152,1.1160539474636315
1789315932183587600,1.339587646484375,11.35432484768033,6.847878520339727,-1.922557961630821
1789315932193621800,1.349621826171875,8.248039332285522,8.258587029784918,-2.7303490929991003
1789315932203655700,1.35965576171875,5.7475195701360695,9.240738118237257,-3.196650261452794
1789315932213688600,1.3696884765625,5.219038132101297,8.019516407859324,-3.7353321909844874
1789315932223722800,1.37972265625,4.510258579105138,5.223912460139394,-4.597380397719145
1789315932233756400,1.38975634765625,3.4155244830459353,3.9057249980032442,-5.786372740143537
1789315932243789600,1.39978955078125,6.140595343381166,5.609518628156184,-5.322187540930509
1789315932253823500,1.409823486328125,7.858217592400312,7.351811208051442,-2.4270284094810486
1789315932263857700,1.419857666015625,6.679311175182462,5.658716666567325,-0.3310971637159586
1789315932273890800,1.429890869140625,5.835076857557892,4.963424371653795,0.7122329083204268
1789315932283924500,1.439924560546875,5.06000258539915,5.178707290756702,1.6387977186292408
1789315932293958700,1.449958740234375,5.7698541515409945,4.618212757867575,2.2229501904815434
1789315932303991600,1.459991455078125,5.082710676291585,3.336079774931073,1.73687990719676
1789315932314025700,1.470025634765625,3.339917745658755,2.2650211534917353,-0.6378565895110369
1789315932324059600,1.4800595703125,2.596073309022188,2.814684203504026,-5.529489398151636
1789315932334092500,1.490092529296875,1.4167711704850197,1.7069857041925192,-8.722917190426587
1789315932344126700,1.500126708984375,-1.5431179150283336,1.0319102678775787,-9.915755686885118
1789315932354160600,1.51016064453125,1.7643593041442334,-0.8700164091348648,3.9874920115858314
1789315932364193800,1.52019384765625,6.2555754752576345,-3.4147353784948584,2.012455674698949
1789315932374227500,1.5302275390625,-0.8630408710338174,-3.8460067346215245,-2.3570248989284037
1789315932384261600,1.54026171875,-4.934245038920641,-3.2311089958935972,2.548099259448051
1789315932394294800,1.550294677734375,-5.52877277431488,-3.4164386752814053,3.6142321149230003
1789315932404328700,1.56032861328125,-7.770614127749204,-3.334048561364412,4.4291883156150575
1789315932414362600,1.570362548828125,-7.1894532389283174,-1.284925828525424,1.381729083198309
1789315932424395500,1.5803955078125,-3.5363933807000514,0.7831132017076015,2.822274512502551
1789315932434429700,1.5904296875,0.13043021446466446,-0.8886468753248452,3.4731384676247834
1789315932444463600,1.600463623046875,-1.6992111246682702,-0.019613047486543654,-3.7923990630745887
1789315932454496500,1.61049658203125,2.7040321639597416,-1.5296446854710577,3.9564480540245768
1789315932464530700,1.62053076171875,4.662015659236908,-3.8168940373837947,5.915984623962641
1789315932474564600,1.630564697265625,1.747200079550594,-1.4646154561996458,0.7089028871148825
1789315932484598500,1.6405986328125,-0.5404663287304341,0.506289479970932,-1.4942723433166742
1789315932494631400,1.65063134765625,0.5147077642261981,1.0879109720408915,-3.6206840675413607
1789315932504665600,1.66066552734375,1.6614976262152195,1.2686112380623817,-2.438817631474137
1789315932514699800,1.67069970703125,1.5992928067147731,0.08815876044631003,-1.015079544585943
1789315932524732700,1.680732666015625,0.9587842413902282,-1.9550410120844839,-0.07683481787741184
1789315932534766600,1.6907666015625,1.4933002834141254,-1.7966770810335873,-0.1561094301223755
1789315932544800500,1.700800537109375,2.6064216845571995,-0.9107394646674394,-0.19320377376377582
1789315932554833700,1.710833740234375,2.9745114851057526,-1.3888894763469695,-0.23625907163619994
1789315932564867800,1.720867919921875,2.097811068162322,-1.4678712431252001,0.21666180624067782
1789315932574901500,1.730901611328125,0.5593220550436526,-1.449133809429407,0.11240706651806831
1789315932584934700,1.7409345703125,-0.5502279173534363,-1.4117974737256764,-0.8419646191269159
1789315932594968600,1.750968505859375,-1.4467407768130303,-2.049143191105127,-0.5801993503123521
1789315932605002800,1.761002685546875,-2.216547922223806,-2.0055600699663163,-0.3718032681137323
1789315932615035600,1.77103564453125,-1.5564076047122477,-2.505998485821485,-1.858599576461315
1789315932625069600,1.781069580078125,-3.2646570452302694,-2.44112473937273,-3.9300925465404983
1789315932635103700,1.791103759765625,-8.033005419507623,0.3720242173880338,-5.672923471096158
1789315932645136600,1.80113671875,-1.520928879573941,1.9652105239212512,-6.4312710648596285
1789315932655170600,1.811170654296875,0.04649053301811218,2.9511791248351336,-1.3460954597592354
1789315932665203500,1.821203369140625,1.2428769312165677,1.4288567450761793,1.8089041099220513
1789315932675237600,1.831237548828125,-0.7140087588865309,1.1455471684515475,3.3467993218660355
1789315932685271800,1.841271728515625,-4.734987956467271,2.871420528465509,4.476670197758079
1789315932695878700,1.851878662109375,-4.612787225687503,-2.2982921394526956,-0.23552725023031235
1789315932715372500,1.87137255859375,-3.2956583326935767,-0.14616905086636542,-0.46104514762163157
1789315932725405700,1.88140576171875,-0.5350917960852384,0.5262649310290813,-0.16098551172614098
1789315932735439600,1.891439697265625,1.9799504124134777,1.4973399141937493,1.2796633779525757
1789315932745473500,1.9014736328125,4.043167721578478,2.0589321791917086,4.9383507206737995
1789315932755506700,1.911506591796875,3.428804235857725,2.033556330394745,6.59262716346383
1789315932765540600,1.92154052734375,3.0712311531484127,2.101260916355252,5.705382556152343
1789315932775574800,1.93157470703125,3.5744378646731376,0.8464350425392388,5.577507286867499
1789315932785607700,1.941607666015625,3.2554116625010967,0.9544967733293771,3.2236133794412014
1789315932795641600,1.9516416015625,2.4240567001938818,1.3520447235524653,1.2187357387810944
1789315932805675800,1.96167578125,4.03298359669447,0.8361831131160259,0.27722411923110485
1789315932815708700,1.971708740234375,4.401316558349133,-0.3192939131975174,1.1675468188136815
1789315932825742800,1.981742919921875,6.934358533918857,2.7802380362838504,-2.512320090058446
1789315932835776500,1.991776611328125,4.56145100620389,1.1118705242991447,-4.28488009018451
1789315932845809700,2.0018095703125,1.830100627207756,0.5548802001386881,-1.6036729214951395
1789315932855843600,2.011843505859375,0.3503577445030212,-0.1902764881402254,-1.4357833294689655
1789315932865877500,2.02187744140625,0.09245152573678642,0.42967736493349074,-0.5516065852954983
1789315932875910400,2.031910400390625,0.3785633003005758,2.50244634629786,1.8879836379863322
1789315932885944600,2.041944580078125,0.7748948239386081,3.0946833404064176,3.2972552464962
1789315932895978800,2.051978759765625,0.08421791386604309,1.4038824628174305,2.4690412125632166
1789315932906012400,2.062012451171875,-0.647896848944947,3.674613226127624,1.3063326275609433
1789315932916045600,2.072045654296875,0.5362019492842257,4.570317618748545,0.6019606618739665
1789315932926079700,2.082079833984375,1.5648692897178231,4.875981066000461,-0.19521029128059744
1789315932936113700,2.09211376953125,1.9343068516135216,5.647575094828009,-1.354958272911608
1789315932946146800,2.102146728515625,0.06639825260229408,5.130179698953032,-3.980922570067644
1789315932956180500,2.112180419921875,-0.4681178624868393,4.353834091684222,-1.8365376745179294
1789315932966214700,2.122214599609375,-0.825070329079777,4.500779972141981,1.963623839251697
1789315932976247600,2.13224755859375,-1.308860392472893,5.2282741624802345,1.6788982583492993
1789315932986281700,2.14228173828125,-1.2729929602779446,6.279414031484722,-0.07311345926672219
1789315932996315600,2.152315673828125,-1.8904184639178216,6.475059353181719,-1.173450489899516
1789315933006348500,2.1623486328125,-1.3080138586461543,6.297188173106313,-1.778321194001287
1789315933016382700,2.1723828125,1.1028653800666333,6.258909003594518,-2.8598662842720746
1789315933026416600,2.182416748046875,0.9980828170776367,6.169334531131386,-3.552907585388422
1789315933036449800,2.19244970703125,0.3924994346618652,5.718178324839473,-3.9551153441160913
1789315933046483500,2.2024833984375,-0.14385195129672065,5.863142091569304,-2.7269214566379785
1789315933056517600,2.212517578125,1.5168740512251853,-9.433839016148447,-3.3219787688642737
1789315933066550800,2.22255078125,1.7050421689093112,-44.51554110488891,7.751004002872109
1789315933076584700,2.232584716796875,-6.832964444324374,-40.736826868295665,9.892075536090134
1789315933086619400,2.242619384765625,-0.6712579238533973,-18.034788115507364,-1.1841400800876318
1789315933096652300,2.25265234375,3.7748552230775356,-4.1656466847777365,-3.851755507406592
1789315933106686500,2.2626865234375,3.3977550175994633,3.195167329418659,-3.577350537249446
1789315933116719400,2.27271923828125,3.4377252089381214,4.505862389972806,-2.1826148190923034
1789315933126753300,2.282753173828125,0.6768886232167483,3.5718881801903244,0.16262334206104279
1789315933136787500,2.292787353515625,-2.007936151447892,2.6234990760862824,1.4408870823487638
1789315933146821400,2.3028212890625,-2.2149955782152713,1.6897008073925972,0.13659443618282674
1789315933156854300,2.312854248046875,-1.6825411448962986,1.1481588122546673,-0.30285993413850665
1789315933166888200,2.32288818359375,0.28971286779567595,0.7021960829526186,-0.5401115239433943
1789315933176922400,2.33292236328125,1.6917464878760278,0.043539866518974304,-0.6246649533741175
1789315933186955500,2.34295556640625,1.5224140035651623,-0.594019201350212,-0.6199494691595435
1789315933196989200,2.3529892578125,0.3839271288886666,-0.6848474732667207,-0.34812194827497006
1789315933207023400,2.3630234375,-0.16472820538580416,-0.4013397437214851,-0.24381825484409927
1789315933217056300,2.37305615234375,0.07256853873506187,-0.5893143846601248,0.17989201837852598
1789315933227090400,2.38309033203125,-0.03822115571424365,-0.003786532801389694,0.7868975425519049
1789315933237124400,2.393124267578125,-0.04277414284348487,0.42680619341135023,0.7689417607530951
1789315933247157200,2.4031572265625,0.1315302846610546,0.5167150123953819,0.7351144560836255
1789315933257191400,2.41319140625,0.4562630279116332,0.8351286356270313,0.4899313426271081
1789315933267225300,2.423225341796875,0.5665053176112472,0.7349158647716045,-0.10922449095919727
1789315933277258500,2.433258544921875,0.4782464577913284,0.7082096441537141,-0.4545926104813814
1789315933287292200,2.443292236328125,0.17157880193293093,0.8162696213781833,-0.34526845853999255
1789315933297326300,2.453326416015625,0.7117581304155289,3.9949475882887837,0.7217981706537306
1789315933307359500,2.463359375,-1.6701264844812451,3.9727936241477724,1.6986369780421255
1789315933317393400,2.473393310546875,-0.9865404094524681,-2.413255904716253,0.1751788722515106
1789315933327427300,2.48342724609375,-0.3101930535055697,-6.369698698043823,-0.8284155478544533
1789315933337460200,2.493460205078125,1.8344049002729355,-1.4384090017974376,-1.804643968259543
1789315933347494400,2.503494384765625,1.1844948848746717,1.06596275960505,-0.7084741403087973
1789315933357528600,2.513528564453125,0.1909602326206863,1.2951654829889536,-0.15392390277683735
1789315933367561200,2.523561279296875,1.2112946289949118,1.6641782436013222,0.5526385586917401
1789315933377595400,2.533595458984375,0.6202740249387919,1.829181174275279,1.7276295560315251
1789315933387629300,2.54362939453125,0.3259713451348245,2.4253385566979646,1.3623305552452802
1789315933397662500,2.553662353515625,0.6884142258375883,3.129407447785139,0.6635710226126015
1789315933407696100,2.563696044921875,0.07084507594332098,3.346252793899178,0.5336417434073985
1789315933417730300,2.573730224609375,0.2859773345291614,2.137453342720866,-0.466050116302073
1789315933427763500,2.583763427734375,-0.007623407550528645,0.9194389039516448,-0.9024407151386141
1789315933437797400,2.59379736328125,0.06917516996972263,-1.2586696897625922,-0.7282647363193333
1789315933447831300,2.603831298828125,0.47012269950322805,-2.670713247203827,-0.4194390256442129
1789315933457864200,2.6138642578125,0.4548959042768925,-1.990681065264344,-0.007665712322294712
1789315933467898400,2.6238984375,0.4580711002469062,-0.9812696294426917,0.035731530855596064
1789315933477932500,2.6339326171875,0.32133922835476697,-0.2116086145043373,0.34359219589084383
1789315933487965400,2.64396533203125,0.036475298427604136,0.24851006592214106,0.007819733840227126
1789315933497999400,2.653999267578125,-0.025195852587558326,-0.8092419146984815,-0.4624554528109729
1789315933508033300,2.664033203125,0.09141684892680496,-1.8660721042990684,-0.056909343440830706
1789315933518066400,2.67406640625,0.2730301746726036,-2.2132862900793553,0.2765865519799292
1789315933528100400,2.684100341796875,0.13064942843960597,-2.118704803109169,0.2679503871902823
1789315933538134300,2.69413427734375,-0.09054654149883426,-1.7201204955756664,0.26681232307106256
1789315933548167200,2.704167236328125,-0.29240356818437574,-1.2163953131347893,0.3093884591244161
1789315933558201300,2.714201416015625,-0.298397255641222,-0.6210889945834874,0.17544731392934917
1789315933568235500,2.724235595703125,-0.1543394978404045,-0.1347679514080286,0.027531565526127812
1789315933578268400,2.734268310546875,-0.17380407676696777,-0.004741641569137573,-0.14485489952787756
1789315933588302300,2.74430224609375,-0.17012392694950101,-0.05205985758304596,-0.33048166216611863
1789315933598336500,2.75433642578125,-0.11089900004267692,0.0012380173623561857,-0.4014908426299691
1789315933608369400,2.764369384765625,-0.02508300333023071,0.1114969659358263,-0.3986299002408981
1789315933618403300,2.7744033203125,0.11094108561873435,0.23949264672994613,-0.33188495309278365
1789315933628437200,2.784437255859375,0.3636988721132278,0.22804595456421373,-0.13277896954789756
1789315933638470400,2.794470458984375,0.6803472392380238,0.1853390317380428,0.15667860831245778
1789315933648504300,2.80450439453125,0.8407634266436099,0.1411199507832527,0.35369361092746254
1789315933658538200,2.814538330078125,0.9455763847708701,0.14075579364597796,0.40697307343333955
1789315933668571100,2.824571044921875,0.8065373319149017,0.29744974565804005,0.19396905904784797
1789315933678605300,2.834605224609375,0.7089525714755058,0.21076690298318862,0.21486644725650547
1789315933688639500,2.844639404296875,0.9517314002692698,0.3204688021957874,0.5284840683832764
1789315933698672400,2.85467236328125,1.049576857471466,0.5138596229642629,0.9642151803977786
1789315933708706300,2.864706298828125,0.902698197031021,0.5035328747391701,1.105695050534606
1789315933718740500,2.874740478515625,0.994590883308649,0.28717034370601174,0.9359688907310366
1789315933728773400,2.8847734375,0.6481330688536167,0.1437216577142477,0.7452350142121315
1789315933738807600,2.8948076171875,0.2993289104681462,0.1414601425230503,0.5093231485784053
1789315933748841200,2.90484130859375,0.1197311257958412,0.30569442691206933,0.19393588743060827
1789315933758874400,2.914874267578125,-0.1710931373078376,0.31577918307483194,-0.07012874436751007
1789315933768908300,2.924908203125,-0.47737318208813667,0.2419289339661598,-0.21795140765979884
1789315933778942500,2.9349423828125,-0.6563467704474926,0.15595862347483633,-0.22556889692619442
1789315933788975400,2.944975341796875,-0.5731155295312405,0.10235621262490749,-0.17073241423666477
1789315933799009300,2.95500927734375,-0.39367330074682827,-0.0008738602250814438,-0.07384411162883042
1789315933809043500,2.96504345703125,-0.2002807264126837,-0.04606617012619972,0.011022767665237188
1789315933819076400,2.975076416015625,-0.07266425419449805,-0.08476327278912067,0.11246098866239189
1789315933829110300,2.9851103515625,0.051372459840774536,-0.0831710351616144,0.23904534135386346
1789315933839143200,2.99514306640625,0.1223591362118721,-0.04117430643141269,0.37424715413451193
1789315933849177300,3.00517724609375,0.18545951631255447,0.038812253475189205,0.4973536015823483
1789315933859211500,3.01521142578125,0.332941403343156,0.1601999143064022,0.5802490346729755
1789315933869245200,3.0252451171875,0.43150691844820976,0.2963391540676355,0.5946911092624068
1789315933879278300,3.0352783203125,0.5361247193295509,0.42108021697998044,0.5756494319230318
1789315933889312300,3.045312255859375,0.619528905659914,0.4653846381306648,0.4615317620947957
1789315933899345400,3.055345458984375,0.7227204000651836,0.38176527467966076,0.34024449289813635
1789315933909379300,3.06537939453125,0.7319079881925136,0.19220424133241176,0.34752383625134825
1789315933919413200,3.075413330078125,0.6601791882172227,0.08719020767509937,0.3955084072194993
1789315933929446400,3.0854462890625,0.5534392075501382,0.08530454005897045,0.38582974763959643
1789315933939480300,3.095480224609375,0.5101530235312879,0.14147241748273373,0.42270869496464725
1789315933949514500,3.105514404296875,0.41364144528135655,0.25385727216899395,0.3801872117079794
1789315933959548200,3.115548095703125,0.3638647301994264,0.30203648892641066,0.3919086291618645
1789315933969581300,3.125581298828125,0.324104528349638,0.3841834417372942,0.3815563081040978
1789315933979615500,3.135615478515625,0.35626156171932816,0.39908173566162586,0.33705198046714063
1789315933989649400,3.1456494140625,0.49847909848093985,0.39408407350480557,0.29704686394557356
1789315933999682300,3.155682373046875,0.5200399190343916,0.3122317197263241,0.3487643378317356
1789315934009716200,3.16571630859375,0.5208348688043654,0.10448796395659446,0.42953503385335207
1789315934019749400,3.175749267578125,0.5034288298428058,-0.06541150658726692,0.5016321556843817
1789315934029783300,3.185783203125,0.4823205753624439,-0.1620779831379652,0.5049328046649694
1789315934039817200,3.195817138671875,0.38014951004609465,-0.1822159312814474,0.45386444233730433
1789315934049850000,3.20585009765625,0.29171617044210435,-0.17469722621440886,0.2668275206401944
1789315934059884300,3.21588427734375,0.28878756964430213,-0.28075580048859117,0.04703296933174133
1789315934069918500,3.22591845703125,0.3561316517293453,-0.5093243176221848,-0.2632625216349959
1789315934079951400,3.235951416015625,0.41345103727579113,-0.7334317636936902,-0.5565574857011437
1789315934089984800,3.24598486328125,0.4323078595675528,-0.8239858948439359,-0.6664134064316749
1789315934100018700,3.256018798828125,0.2837901997484267,-0.721522130191326,-0.6263907542534172
1789315934110051800,3.2660517578125,0.018267478096485136,-0.5154717343360186,-0.39606823305934663
1789315934120085800,3.276085693359375,-0.08126300958320498,-0.24176526783704758,-0.24494857404828072
1789315934130119700,3.28611962890625,-0.02122019042223692,0.06746317842006683,-0.06171776663586497
1789315934140152600,3.296152587890625,0.02718757439404726,-0.059552259165048596,0.021821078924834727
1789315934150186800,3.306186767578125,0.1733154164671898,-0.3550841885030269,0.25858167034238577
1789315934160221000,3.316220947265625,0.3254419144332409,-0.761655403137207,0.4098287551254034
1789315934170253800,3.32625390625,0.37605566486120223,-0.8726678004264831,0.6987601171545684
1789315934180287700,3.336287841796875,0.3178852154433727,-0.7226368134349584,0.5571176038019359
1789315934190321700,3.34632177734375,0.3727792735390365,-0.5202642293095588,0.41771293250396846
1789315934200354800,3.356354736328125,0.3852564777962863,-0.4945774148672819,0.4544951414562762
1789315934210388700,3.366388671875,0.48972778287902474,-0.5461281538844108,0.7601375459201634
1789315934220422700,3.376422607421875,0.5940859829761087,-0.5617816500902175,0.899980024113506
1789315934230455800,3.386455810546875,0.4758578090891242,-0.636306437459588,1.0427784295029938
1789315934240489700,3.39648974609375,0.3110020318008959,-0.8020651549369097,1.1355512596160173
1789315934250524000,3.40652392578125,0.24821166749745605,-0.9158937786906957,0.9935799527004361
1789315934260556800,3.416556884765625,0.25931261496543884,-0.9008084377616643,0.8360385900788009
1789315934270590700,3.4265908203125,0.39578605511710047,-0.7307043845564126,0.7271297409400344
1789315934280625000,3.436625,0.4851742112278938,-0.4709124616414308,0.6104923433758318
1789315934290657800,3.44665771484375,0.6129354987442494,-0.3374585154414177,0.5028457692578434
1789315934300692000,3.45669189453125,0.9203921130232512,-0.712557317969203,0.4994941207423806
1789315934310725600,3.4667255859375,0.5591337659299374,-0.8229477839678525,0.22420535348802803
1789315934320758800,3.4767587890625,0.12995879756063222,-0.5274608628153801,0.03148030315190554
1789315934330792700,3.486792724609375,0.04306961865872144,0.0032516952723264693,-0.12664441231563686
1789315934340826600,3.49682666015625,0.1824804274365306,0.3868564603388309,-0.38668300346806644
1789315934350859500,3.506859619140625,0.29189269605278967,0.4274140961766243,-0.4328546797953546
1789315934360893700,3.516893798828125,0.20483400580286978,0.3693243107795715,-0.4661763730302453
1789315934370927900,3.526927978515625,0.2634811328217387,0.02197743853032589,-0.5077975464463234
1789315934380960800,3.536960693359375,0.6540753183841705,-0.37070261339545246,-0.3939521176882088
1789315934390994700,3.54699462890625,0.8464540395006537,-0.5069014743894338,-0.12089388596490025
1789315934401028900,3.55702880859375,0.637459845278412,-0.431142761310935,0.19707988454475997
1789315934411061800,3.567061767578125,0.43870092160552737,-0.1750268965601921,0.41127500841096043
1789315934421096000,3.577095947265625,0.2898874937102198,0.20794249321222305,0.5796688966974616
1789315934431129600,3.587129638671875,0.16391308961063622,0.6097960316747426,0.5191662049397826
1789315934441162800,3.597162841796875,0.24345015218406915,0.7128261980384588,0.27264585153013465
1789315934451196700,3.60719677734375,0.4590099885322153,0.3872060044288635,0.0094580025665462
1789315934461230800,3.61723095703125,0.5546805859133601,-0.25845044517815113,0.1673106230944395
1789315934471263700,3.627263671875,0.428688353896141,-0.723642775607109,0.3787716458216309
1789315934481297700,3.637297607421875,0.37248686646372076,-0.6731751556515694,0.5043818927839399
1789315934491331800,3.647331787109375,0.6902770971000194,-0.4427168792486191,0.6626987698227167
1789315934501364700,3.65736474609375,0.8346142563641071,-0.2426794600725174,0.73830930660218
1789315934511399000,3.66739892578125,0.8429542146861553,-0.22410686154961584,0.4748042083829641
1789315934521432800,3.677432861328125,0.8439793199501932,-0.20464345166683195,0.3741078917942941
1789315934531465700,3.6874658203125,0.574787262135744,-0.010793781214952468,0.3574528173305094
1789315934541500000,3.6975,0.3395394133687019,0.4480407046198845,0.20697496335431934
1789315934551533800,3.707533935546875,0.4642693703651428,0.8441431322097778,0.05939546116814017
1789315934561566700,3.717566650390625,0.5128304260469972,0.9998989265888929,0.14191753090173007
1789315934571600600,3.7276005859375,0.5760045289710164,0.8362398117393255,0.21962767030894756
1789315934581634800,3.737634765625,0.7598878089427947,0.5374538490414619,0.31433599852919575
1789315934591667700,3.747667724609375,0.5705389570415019,0.08945464547574519,0.28085136981755493
1789315934601701600,3.75770166015625,0.5278219512127339,-0.2683931625217199,-0.03846373229846358
1789315934611735800,3.76773583984375,0.735009242143482,-0.3999181864857673,-0.364590998647362
1789315934621768700,3.777768798828125,0.6883491977773606,-0.5074433261811733,-0.5326056783579289
1789315934631803000,3.787802978515625,0.34369200300350783,-0.8542576989889145,-0.324694749327749
1789315934641836500,3.79783642578125,0.1310685123682022,-1.1251882710337637,0.02175897347405553
1789315934651869700,3.80786962890625,-0.10380056621432304,-1.1137076765984295,0.43355040697455405
1789315934661904000,3.81790380859375,-0.22457798619270322,-0.9418459660708903,0.5776112335152924
1789315934671937800,3.827937744140625,-0.18669731447920201,-0.6856015065044164,0.4807299451701343
1789315934681971000,3.837970947265625,-0.11978709376677871,-0.28745266777873035,0.21522461304441093
1789315934692004600,3.848004638671875,-0.29032500834465025,-0.16692366960346697,-0.10641250227838754
1789315934702038800,3.858038818359375,-0.46164019090533254,0.012404723542928695,-0.5788540731832384
1789315934712071700,3.86807177734375,-0.23636896175146102,0.15584171909689903,-0.7958005415841937
1789315934722105900,3.87810595703125,-0.07246186349019408,0.0672942515939474,-0.6652874711416661
1789315934732139800,3.888139892578125,-0.8160801632206887,-0.34183775343894957,-0.6061668813921511
1789315934742172700,3.898172607421875,-2.159532341929525,0.5667272897988558,-0.3144743840865791
1789315934752206800,3.908206787109375,-2.2542918158151206,0.4760328733950853,0.36262247505337
1789315934762240800,3.91824072265625,-0.06336100379824638,0.9397375956147909,0.575228430031985
1789315934772273700,3.928273681640625,0.29305121843814846,2.112805808198452,0.7178336509369313
1789315934782307800,3.938307861328125,0.599855067896843,1.022711646899581,0.7573401702865957
1789315934792341800,3.948341796875,0.4272867069372907,0.5594827254980802,-0.25833865536674855
1789315934802375000,3.958375,-0.40890692757274955,0.24569500850141046,-0.7438653332941234
1789315934812408600,3.96840869140625,0.1392635001284536,-0.722495943659544,-0.9838009014859795
1789315934822442800,3.97844287109375,0.3442237717926502,-1.582707582616806,-1.3856347123347221
1789315934832475600,3.9884755859375,0.2059247053827159,-1.8005758420377969,-1.2610334962844847
1789315934842509800,3.998509765625,-0.05693539119753986,-1.6064689819544553,-1.2502489212892949
1789315934852543700,4.008543701171875,0.04152147590126842,-0.8484218324422835,-1.1426477937482298
1789315934862576600,4.01857666015625,1.0567091935694217,0.06683481738865375,-0.7758619154050945
1789315934872610800,4.02861083984375,1.3913269326269626,0.9440180494129657,-0.743613258229196
1789315934882644700,4.038644775390625,0.8437327978432178,1.7209779891878365,-1.0522297100678086
1789315934892678700,4.0486787109375,0.5908347260951996,2.6560207049846647,-1.40225135448426
1789315934902711800,4.0587119140625,0.9583803367644548,3.4428339302539825,-1.57972564419657
1789315934912745700,4.068745849609375,1.426013630604744,4.102075837621093,-1.5134081286802887
1789315934922780000,4.07877978515625,1.9781664516061543,4.527433585789799,-0.8593290109038353
1789315934932812800,4.088812744140625,2.2733967676490545,4.4750405507296325,0.20152458899393677
1789315934942846700,4.0988466796875,2.0712994933336972,4.358450061047077,0.9518979890078305
1789315934952881000,4.108880859375,1.7463275344997644,4.209512129989266,1.4447154084652662
1789315934962913800,4.118913818359375,0.847839064118266,3.89344243953526,1.6013741430334747
1789315934972947700,4.12894775390625,0.10419398597870022,2.4865257235884664,1.7918869241476059
1789315934982981600,4.138981689453125,-0.034290985791618,-0.19383447288274763,2.0296309736445544
1789315934993014800,4.149014892578125,1.4471540337890385,-2.983172345945239,2.515943541252613
1789315935003048700,4.159048583984375,2.826772408443689,-4.894892687219381,2.49531254889518
1789315935013082600,4.16908251953125,1.6972925776958465,-5.278160767677426,1.9580583140790462
1789315935023115800,4.17911572265625,0.10241292038136161,-3.2744623999297615,-0.7272237028338014
1789315935033149700,4.189149658203125,-0.8863689935207366,0.11731412778198719,-4.0702836920410395
1789315935043183900,4.199183837890625,-1.6315373722374438,1.2271131065040826,-5.154266676983237
1789315935053216800,4.209216796875,-1.39452076023221,-0.23161796783208846,-4.858311553797125
1789315935063250700,4.219250732421875,0.5924888499777764,-3.450518639537692,-2.4265800811916587
1789315935073284900,4.229284912109375,1.7371955490171909,-4.641822766035795,-1.0584176049225031
1789315935083317200,4.239317138671875,1.5917910527825354,-4.029650652879476,-0.7335778211008757
1789315935093351400,4.249351318359375,0.7869114249467849,-2.4445330865114925,-0.0010716478195041416
1789315935103385300,4.25938525390625,0.3830114022832364,-1.660882709187269,1.1805119527183472
1789315935113418200,4.269418212890625,0.8269266244709491,-1.8170868318557738,1.850902592217922
1789315935123452400,4.279452392578125,0.9826888485908508,-1.6723270632654428,2.4489517797365785
1789315935133486300,4.289486328125,0.30299050171561537,-0.44128830775022504,2.996557897219062
1789315935143519500,4.29951953125,-0.34528285239152606,0.9464373855143785,3.5896424480676647
1789315935153553200,4.30955322265625,0.04893047351613641,1.5255559548527002,3.914242358718812
1789315935163587300,4.31958740234375,0.378634429308027,1.1491203507632017,4.0204800889521835
1789315935173620500,4.329620361328125,0.5050596459150314,0.8392775720000266,3.791678347584605
1789315935183654400,4.339654296875,0.4659646299757063,1.0344301417440176,3.2452249072685837
1789315935193688300,4.349688232421875,0.3400445864118635,1.4087106136262415,2.384692511924356
1789315935203721200,4.35972119140625,0.2849826244033873,1.4608955588936805,1.3043997598022221
1789315935213755400,4.36975537109375,0.7480315130628645,0.7186193944871425,0.9970202293474226
1789315935223789600,4.37978955078125,0.9898575711764395,0.1802425853818655,1.3858192751213907
1789315935233822500,4.389822509765625,1.222574586291611,0.38008828137815,1.646570690718293
1789315935243856400,4.3998564453125,1.3978326612591743,0.86687343493402,1.6414530554436146
1789315935253890300,4.409890380859375,1.40701666918993,1.2942051135241985,1.4307451891712843
1789315935263923500,4.41992333984375,1.3957342276751994,1.469510827025771,0.9256509833995252
1789315935273957400,4.429957275390625,1.376408911088854,1.5058254184663296,0.33411680379807945
1789315935283991300,4.4399912109375,1.3888894763469695,1.4099661666452883,-0.12003882177183405
1789315935294024200,4.450024169921875,1.611976931720972,1.1964210311204195,-0.07764941306277177
1789315935304058400,4.460058349609375,1.7545312992215156,0.8105179259836673,0.4615940867412835
1789315935314092300,4.47009228515625,1.9887422061562536,0.2592658532142639,1.1340963115673512
1789315935324125200,4.480125244140625,1.9786197483316064,-0.27898879081606864,1.748146566620469
1789315935334159400,4.490159423828125,1.6453002323910593,-0.5913754088431596,2.2003579810537395
1789315935344193500,4.500193603515625,1.3941265002176164,-0.38760055670440197,2.2539282431997356
1789315935354226400,4.510226318359375,1.379324652405083,-0.005671031373739242,1.909203097756207
1789315935364260400,4.52026025390625,1.3055895541086793,0.12019874330759048,1.4290486143864691
1789315935374294300,4.530294189453125,1.1590133837461472,-0.13917524645626544,1.1057535757888108
1789315935384327400,4.540327392578125,0.9598840193256736,-0.6450882943302393,1.0150409661412239
1789315935394361300,4.550361328125,0.7717474658235907,-1.1529138978272675,0.9927177829131484
1789315935404395300,4.560395263671875,0.5539382431134581,-1.4180653019487857,0.9603802053447812
1789315935414428200,4.57042822265625,0.4752794246792793,-1.5471429327607154,0.8952870439916849
1789315935424462300,4.58046240234375,0.5140636211037636,-1.920461866134405,1.120052442515269
1789315935434496500,4.59049658203125,0.42571547556519507,-2.3872703995883464,1.7024354935422539
1789315935444529400,4.600529296875,0.35328619917035103,-2.41673030282855,1.986417854861915
1789315935454563300,4.610563232421875,0.708293815305829,-2.1032488753020764,2.2754273966938254
1789315935464597200,4.62059716796875,1.503267550677061,-1.9053040444910525,2.686574248680472
1789315935474630400,4.63063037109375,2.5077181492209433,-1.7863889112532139,2.60583277875334
1789315935484664300,4.640664306640625,2.696815656709671,-1.9819652593672274,2.230180141735077
1789315935494698200,4.6506982421875,2.417590719050169,-2.34121650442183,1.7247841034725306
1789315935504731400,4.6607314453125,2.3830381688460704,-3.0354882241159675,1.1787409975230694
1789315935514765300,4.670765380859375,2.4762536281600593,-3.623005203965306,0.9998835828892886
1789315935524799200,4.68079931640625,2.0305144784808156,-3.901881766578555,1.2612981385700404
1789315935534833400,4.69083349609375,1.3285492816746234,-3.66068991471529,1.4932602436646818
1789315935544866300,4.7008662109375,1.252855158264935,-2.512914548820257,1.4353591127075254
1789315935554900500,4.710900390625,1.103083698992431,-1.3023363975316284,1.424012958306819
1789315935564933400,4.720933349609375,0.9435492628574371,-0.6651578534126281,1.4039578661412
1789315935574967300,4.73096728515625,0.8998679420411586,-0.6103612643420696,1.064497070966661
1789315935585001200,4.741001220703125,1.2224410230398177,-1.2910475262761116,0.7007203113116324
1789315935595034400,4.751034423828125,1.706092262484133,-2.364842294681072,0.3966604998640716
1789315935605068500,4.761068603515625,1.3917195852063595,-3.199074273729324,-0.0916143077276647
1789315935615102200,4.771102294921875,0.6041746846616268,-2.929400423747301,-0.2940598109588027
1789315935625136400,4.781136474609375,0.5758277110993861,-2.671850142279267,-0.17632482741624117
1789315935635169300,4.791169189453125,0.5352979861818253,-2.3172668890357015,-0.43987420316860076
1789315935645203500,4.801203369140625,0.05319857928939163,-1.627717521688342,-0.47648558559864757
1789315935655237400,4.8112373046875,-0.29277642008475957,-2.0954396628558634,-0.3273499400116503
1789315935665270300,4.821270263671875,-0.17572949187159537,-1.9299796360641717,-0.1271652213193476
1789315935675304400,4.831304443359375,0.042157983706519006,-2.339032146120071,-0.20727672277987003
1789315935685338400,4.84133837890625,-0.1495989887824282,-3.617083997222781,0.3358862976886332
1789315935695371300,4.851371337890625,-0.35193361551761626,-2.517859019485116,0.42712358879745005
1789315935705405200,4.8614052734375,-0.2627379132390022,-2.828382181727886,0.7672307190515101
1789315935715439400,4.871439453125,-0.19713292990624903,-4.03186248371005,0.5632355021603405
1789315935725472500,4.881472412109375,-0.10428398408340289,-3.947710036295652,-0.022179390843212604
1789315935735506200,4.891506103515625,0.15201426976323126,-1.863622373059392,0.004334522072970867
1789315935745540400,4.901540283203125,-0.2304623680561781,-0.8684639189958572,0.5172198931775986
1789315935755573200,4.9115732421875,-0.3084043434578925,0.1264502049177885,0.6885879749692976
1789315935765607400,4.921607421875,-0.12927651438489557,1.066744265371561,0.9646749068640172
1789315935775641300,4.931641357421875,0.4852795712985098,2.142062297821045,0.6852383722804486
1789315935785674200,4.94167431640625,0.8804717521756887,1.4685025267660616,-0.13651289537921546
1789315935795708400,4.95170849609375,0.6703092448264361,1.3558353480070828,-0.2692415960446
1789315935805742300,4.961742431640625,1.0555267057865858,1.0385165342748164,-0.22428002615943549
1789315935815775500,4.971775390625,1.7123199048273265,0.4323246645718813,-0.6047938394732773
1789315935825809200,4.98180908203125,2.40653828689903,0.8346791382938623,-0.8375155307635664
1789315935835843300,4.99184326171875,4.538287280498444,3.725173785063624,-0.9619315995052456
1789315935845876500,5.00187646484375,-0.4566767232790589,10.960685595333576,1.266146893775463
1789315935855910400,5.011910400390625,0.04760287817418575,-6.491471558800339,3.3681343708395954
1789315935865944300,5.0219443359375,0.02414104630500078,-5.67002833417654,-0.13776567191928624
1789315935875977200,5.031977294921875,-3.314639512017369,0.35626083106696604,0.1175207562699914
1789315935886011400,5.042011474609375,-0.814602857209742,0.5349959344953298,0.4877309099733829
1789315935896045600,5.052045654296875,-0.9984522349119186,6.108177759379148,-0.29737960303127764
1789315935906078500,5.062078369140625,-5.184506332424283,1.2983955509513616,0.5319479451015592
1789315935916112400,5.0721123046875,1.522062852039933,-6.697917091453075,-0.7537991366788744
1789315935926146300,5.082146240234375,-1.4465888011217116,1.312977034011483,-1.264039400102198
1789315935936179500,5.092179443359375,-0.9929518839299678,1.7758254316627977,-1.016135191118717
1789315935946213000,5.102213134765625,-1.6221616411268711,2.3473797032266854,-1.1001517371937632
1789315935956247300,5.112247314453125,-1.70974406298995,2.5341321088939903,-0.9259688902422786
1789315935966281500,5.122281494140625,-1.953804456026852,2.9545167448252436,-0.6653662354663014
1789315935976314400,5.132314453125,-1.9505711731940507,3.4888118375748394,-0.1170826571136713
1789315935986348300,5.142348388671875,-1.8517808363571762,3.5053356868743895,0.4875801033258438
1789315935996382200,5.15238232421875,-1.9350246444940566,4.045202442276477,0.9513716270461678
1789315936006415400,5.162415283203125,-1.9370067582219839,4.805771219220757,1.250027825884521
1789315936016449500,5.172449462890625,-2.0041981339633463,4.9243876617729665,1.4997805853441357
1789315936026483200,5.182483154296875,-2.217560898658633,4.808303952568769,1.9227526074200867
1789315936036516400,5.192516357421875,-2.294042665314674,4.581481402319669,2.7992329518720505
1789315936046550300,5.20255029296875,-2.621959445428848,4.353524879604578,3.596234393678605
1789315936056584400,5.21258447265625,-2.9242928714752194,3.9886540411025284,3.805632346396148
1789315936066617300,5.222617431640625,-2.5099124443948266,3.5785464690357442,3.4939366332426665
1789315936076651300,5.2326513671875,-1.762665505838394,3.3293606958091257,2.2946897310465575
1789315936086685400,5.242685546875,-1.6518641209512948,3.5161820750594135,1.0985215056434272
1789315936096718600,5.252718505859375,-1.6376871270388365,3.3452567685991523,0.28353520207405086
1789315936106752500,5.26275244140625,-1.3612871836721896,2.3118062855422497,0.007884323509037495
1789315936116786400,5.272786376953125,-0.8448416358679532,0.8819307188123464,0.3295569485366344
1789315936126819300,5.2828193359375,-0.3033206835180521,-0.3848918822675943,0.29604543181806803
1789315936136853500,5.292853515625,0.2598591429322958,-1.1403285570204258,-0.12255538943633436
1789315936146887400,5.302887451171875,0.787375827588141,-1.775194732543826,-0.5901353456541896
1789315936156920300,5.31292041015625,1.1623010271146892,-1.5931412983477116,-0.7369594994284212
1789315936166954500,5.32295458984375,1.2245400411456822,-1.0351666393250227,-0.014538082309812307
1789315936176988400,5.332988525390625,1.8809207138627766,-1.1331529663026332,0.7265304598726332
1789315936187021600,5.343021484375,3.0179905613481997,-1.8277081791132688,1.1426701517105102
1789315936197055500,5.353055419921875,4.146981731796265,-3.2234792316675183,1.3239474869675933
1789315936207089400,5.36308935546875,3.1834950118035077,-3.3545325464665887,0.4795439502559602
1789315936217122600,5.37312255859375,1.830022301274538,-2.535113521146774,-0.6664452628746629
1789315936227156500,5.383156494140625,2.092494257053733,-2.707323022198677,-0.61566185496822
1789315936237190400,5.3931904296875,1.848963148587942,-2.775809698447585,-0.13004472227841615
1789315936247223300,5.403223388671875,2.0419570789933204,-2.556768303593993,-0.11427614832557736
1789315936257257500,5.413257568359375,2.2973025438934562,-2.9781150625556707,0.06294570099562406
1789315936267291600,5.423291748046875,1.0013339278280735,-5.52377394311428,-0.9260549610905349
1789315936277325300,5.4333251953125,-0.24117431620657442,-7.9970146531939506,-2.286798977796733
1789315936287358500,5.4433583984375,0.48417467879652976,-7.2816224040597675,-1.9725097410187125
1789315936297392400,5.453392333984375,1.4660393515229224,-4.951155841711163,-0.10033654336556792
1789315936307426600,5.463426513671875,1.3374024502158164,-1.3988468067377804,1.060665091588348
1789315936317459500,5.47345947265625,0.6441746866166591,2.101598770007491,1.076729725878313
1789315936327493400,5.483493408203125,0.007153963407874107,3.3039526983082292,0.5241266038261354
1789315936337527600,5.493527587890625,-0.7602554732114076,2.7543741117089984,-0.39130489111505445
1789315936347560400,5.503560546875,-1.948209120237827,2.718949162584543,-1.1232734503883868
1789315936357594400,5.513594482421875,-2.808713604661822,3.5064252356767653,-1.2493138323962687
1789315936367628500,5.523628662109375,-2.6938895401299,4.128282876545191,-1.2645092095710337
1789315936377661400,5.533661376953125,-2.7240163828462363,4.303150198629498,-1.419881411460042
1789315936387695600,5.543695556640625,-1.9712375291258095,4.585030619233846,-0.7395274502202868
1789315936397729300,5.553729248046875,-0.45829731021821496,3.695559568044543,-0.6828137754820287
1789315936407762400,5.563762451171875,-0.13354103996157646,1.730015282124281,-1.4328583819329739
1789315936417796400,5.57379638671875,-0.09746025727689266,0.8922522063404321,-1.6501587783381342
1789315936427830500,5.58383056640625,0.4069967465698719,0.24693302586376664,-2.043064309582859
1789315936437863400,5.593863525390625,0.6324070919334888,-0.4856576108306646,-2.164952321151644
1789315936447897300,5.6038974609375,-0.047179099804162974,0.7779097878456115,-1.4491715110912917
1789315936457931500,5.613931640625,0.4724322185546159,0.9081190530359744,-0.07896344567025079
1789315936467964400,5.62396435546875,1.4275976849257945,0.7962380562186241,1.8971618006981907
1789315936477998600,5.63399853515625,1.8247540054827927,-0.8745014455944299,2.594946643079817
1789315936488032500,5.644032470703125,0.9256851048648357,-1.5661977618426084,2.4964681486710902
1789315936498066400,5.65406640625,0.5645131208807229,-1.8282985462218522,2.351166236028075
1789315936508099600,5.664099609375,1.1159919881433247,-2.095833630609512,1.6401714912004768
1789315936518133500,5.674133544921875,1.4962836831390858,-1.500716112628579,0.6820353384554386
1789315936528167400,5.68416748046875,1.4308043720126151,-0.6180652628481388,-0.44907278761398045
1789315936538200300,5.694200439453125,1.441720318302512,-0.1818710633665323,-1.518801950547844
1789315936548234500,5.704234375,1.6762831074148417,0.09385025008618832,-2.033285404498875
1789315936558268700,5.7142685546875,1.7507739925146102,0.4470224674880504,-2.024646463230252
1789315936568301300,5.72430126953125,1.6041086825639008,0.9285936857879161,-1.80996969332695
1789315936578335500,5.73433544921875,1.1740332582235335,1.598088107100129,-1.4990382425442337
1789315936588369400,5.744369384765625,0.9927776964068412,2.0070231282562014,-1.1118437093574554
1789315936598402600,5.754402587890625,0.9554507130533456,2.1561843466758726,-0.7055934703059494
1789315936608436500,5.7644365234375,0.809295106190443,2.032144125509262,0.001299099899828434
1789315936618470400,5.774470458984375,0.6267319689065217,1.6802508420020341,0.6418296578604727
1789315936628503600,5.784503662109375,0.4442880740880966,1.2346388258337975,1.0659217700075359
1789315936638537500,5.794537353515625,0.41241818709671496,0.6940127764970063,1.580347429356724
1789315936648571400,5.8045712890625,0.4335515760183334,0.17344751841425896,2.0359066929131746
1789315936658604300,5.814604248046875,0.1398480311512947,0.2862105587631464,2.3755349536091086
1789315936668638500,5.824638427734375,-0.20426117435097693,0.7568143928468227,2.7061215374544263
1789315936678672600,5.834672607421875,-0.3711442196831107,1.091097785383463,2.9360946606889367
1789315936688705500,5.84470556640625,-0.24777678321152924,1.3876935445606708,3.051511722677946
1789315936698739500,5.854739501953125,-0.012519874355196952,1.5856535729408263,2.804030707542598
1789315936708773400,5.8647734375,0.4989566528648138,1.4816139372736215,2.3795796989552676
1789315936718807600,5.8748076171875,0.6060404785335064,1.406505212536454,1.726423102851212
1789315936728840400,5.88484033203125,0.8057277690976857,1.356319916653633,1.1130784387841821
1789315936738874400,5.894874267578125,1.386417533275485,1.227396015098691,0.46765134095363314
1789315936748908500,5.904908447265625,1.762059356638789,1.1058540404886006,-0.068631528079696
1789315936758941400,5.91494140625,1.910506289309263,0.8476181148439645,-0.4154450606372207
1789315936768975600,5.9249755859375,1.8666741618454454,0.5355506457686424,-0.4291535237224772
1789315936779009500,5.935009521484375,1.2655112262204289,0.15850363178253174,-0.18684519851729273
1789315936789042400,5.94504248046875,0.619653701083362,-0.04878010526001453,0.017113741484098135
1789315936799076600,5.95507666015625,0.5030757786214352,-0.012882862448692321,0.23704960095938293
1789315936809110500,5.965110595703125,0.6653647741615771,0.08990180472135544,0.47691539185065773
1789315936819143400,5.975143310546875,0.7221095746904611,0.3009060235917568,0.5890568662350997
1789315936829177300,5.98517724609375,0.7786784341305494,0.7204167992979288,0.6381905707057565
1789315936839211500,5.99521142578125,1.1675585092514753,1.1042992122620343,0.6309646380402147
1789315936849244400,6.005244384765625,1.430980020840466,1.257968848016858,0.5577122086942196
1789315936859278300,6.0152783203125,1.3123498420238493,1.2655465897947549,0.2687596577465534
1789315936869312500,6.0253125,1.5693383979558944,1.1161883874982594,0.023349019144475458
1789315936879345400,6.035345458984375,2.067706437277794,0.8167161961019038,-0.23447441670913247
1789315936889379600,6.045379638671875,2.0989958940327167,0.35949849781394005,-0.41839667698442934
1789315936899413500,6.05541357421875,1.794581277798116,-0.006584639087319374,-0.22319219439011065
1789315936909447400,6.065447509765625,1.8269176132574676,0.039946810463070866,0.37650607550982385
1789315936919480600,6.07548046875,1.6516320657610892,0.21665245389044283,0.9031314738817513
1789315936929514500,6.085514404296875,1.5211229408413172,0.5492839875668287,1.265110974856466
1789315936939548400,6.09554833984375,1.6105869386672973,1.0267781656861306,1.6479036928877233
1789315936949581300,6.105581298828125,1.0504919264897703,1.4346622164845466,2.062794115316868
1789315936959615500,6.115615478515625,0.4973582777574658,1.811260317659378,2.175301427339017
1789315936969649700,6.125649658203125,0.6151388540074229,1.854705491632223,2.0634652925767005
1789315936979682600,6.1356826171875,0.6616238340675831,1.4996253947824238,1.7522972565591335
1789315936989716500,6.145716552734375,0.5760147581040859,0.993182770076394,1.2701318717584014
1789315936999750400,6.15575048828125,0.46615386893749233,0.5604466020941734,0.8653229175563901
1789315937009783600,6.165783447265625,0.4317325438976288,0.2266968780428171,0.543149101541005
1789315937019817500,6.1758173828125,0.4239078416213393,-0.15369301663041113,0.2559591215527616
1789315937029851400,6.185851318359375,0.38140316336899993,-0.4430196615874767,0.33998365000486375
1789315937039884500,6.195884521484375,0.13558832788020372,-0.8086836962938309,0.39732524738311764
1789315937049918500,6.20591845703125,-0.15181903945207595,-1.1023334651470185,0.26223560800636186
1789315937059952400,6.215952392578125,-0.1740095362111926,-1.285858140939474,0.14563370188064872
1789315937069985300,6.2259853515625,-0.25148382103592154,-1.5452233628749847,0.0397536077122204
1789315937080019500,6.23601953125,-0.22648878825008867,-1.6355027687370776,-0.009774101044703274
1789315937090054400,6.246054443359375,0.0049777884125709534,-1.51044957113564,0.07899338415078819
1789315937100087300,6.25608740234375,0.08835837467163801,-1.3598106813788413,0.062034961092565205
1789315937110121500,6.26612158203125,0.20894728634059428,-1.1905565230011939,-0.35148791757673026
1789315937120155600,6.27615576171875,0.07985416569858789,-1.1505793173998593,-0.8803066247418523
1789315937130189300,6.286189208984375,-0.004618599711358547,-1.14078682218194,-1.260798664615303
1789315937140222500,6.296222412109375,-0.2880395277559757,-1.1677075623333453,-1.1593771755572408
1789315937150256400,6.30625634765625,-0.38281507599353787,-1.0775357084989547,-1.0219050066918134
1789315937160290600,6.31629052734375,-0.3453951536595821,-0.8864806372016668,-0.8172262645158916
1789315937170323500,6.326323486328125,-0.3692722883313894,-0.65476622325778,-0.5250732735591009
1789315937180357400,6.336357421875,-0.9006623072892427,-0.4159685730546713,0.18984702894808722
1789315937190391600,6.3463916015625,-1.4863476877972484,-0.2425344986438751,1.2793708247467874
1789315937200424400,6.356424560546875,-2.0624141760885712,-0.09457271914184093,1.6833371175795793
1789315937210458600,6.366458740234375,-1.986300658223033,0.07766542348265647,1.3120765780404209
1789315937220492300,6.3764921875,-1.165877132035792,0.14416940148174762,0.535490878405422
1789315937230525400,6.386525390625,-0.04909165542721748,-0.021053893944621083,0.055715402682218695
1789315937240559600,6.3965595703125,0.4874263740688562,-0.5059580560594796,0.3037810310387984
1789315937250593500,6.406593505859375,0.99833766862154,-1.052891096585989,0.6428365698806942
1789315937260626400,6.41662646484375,1.2265446589663624,-1.442706991252303,0.6943962228566408
1789315937270660400,6.426660400390625,0.8783943613797426,-1.7822504962742327,0.4913540689066052
1789315937280694500,6.436694580078125,0.9740186354011297,-1.7569640793263912,0.30613409697096794
1789315937290728400,6.446728515625,1.0234411302179098,-1.4246914420902728,0.34215354138985277
1789315937300761300,6.45676123046875,0.9763041159898042,-0.8988789310038089,0.1398332993730437
1789315937310795500,6.46679541015625,0.8905857344329356,-0.3996171577125788,-0.2977623187385499
1789315937320829400,6.476829345703125,0.46415568085759873,-0.0190577516913414,-0.30985340975504366
1789315937330862600,6.486862548828125,-0.0041457215026021,0.2822135980814695,-0.18893670917013658
1789315937340896300,6.496896240234375,-0.04042728745639324,0.42839433938562865,-0.025045657861372455
1789315937350930400,6.506930419921875,0.00954933411180973,0.2236468428224325,0.30040454034302383
1789315937360963600,6.516963623046875,0.17685411198735235,-0.08941606703102588,0.8620380506668239
1789315937370997500,6.52699755859375,0.5144964595630764,-0.25110768119990823,1.2178943195208907
1789315937381031400,6.537031494140625,0.8398650164991617,-0.20292145017981528,1.6524081647001205
1789315937391064300,6.547064208984375,1.3517062853783368,-0.05138005862534046,1.7169330977112054
1789315937401098500,6.557098388671875,1.8441934499680994,0.04860007251799106,1.2501672343552113
1789315937411132700,6.567132568359375,2.0154139399826527,-0.026820786908268928,0.8841795937176793
1789315937421165600,6.57716552734375,1.961820296961069,-0.02809387558400631,0.6568298777893186
1789315937431199500,6.587199462890625,1.74948745983541,0.0877992794841528,0.5695719386402517
1789315937441233400,6.5972333984375,1.473108559256792,0.3286825037896633,0.5219688778029754
1789315937451267600,6.607267578125,1.3390730137765408,0.592217704886198,0.6205642400570214
1789315937461300500,6.617300537109375,1.3255553605556487,0.7838333326756953,0.8918135226622224
1789315937471334400,6.62733447265625,1.522995748975873,0.8252133908122777,1.1469840693868696
1789315937481368600,6.63736865234375,1.81754158988595,0.6389625049263239,1.1971052870575338
1789315937491401500,6.6474013671875,1.8086112644553183,0.41246144171655175,1.0100026797130703
1789315937501435400,6.657435302734375,1.4092203167140482,0.0835246709048748,0.7548416314691305
1789315937511469300,6.66746923828125,1.172197274968028,-0.3495090187191963,0.8119643253996968
1789315937521502500,6.67750244140625,0.9778168586403131,-0.7761731733113527,0.7389905668646096
1789315937531536600,6.68753662109375,0.9640572133570909,-0.9579735095292329,0.6472048480927943
1789315937541570300,6.6975703125,0.6089876379013062,-0.8645996447831392,0.7443905262120067
1789315937551603500,6.707603515625,0.31724867110550403,-0.4509031083136797,1.1151449428599327
1789315937561637400,6.717637451171875,0.16725480125397443,-0.11832184351980686,1.3962822169467806
1789315937571671600,6.727671630859375,0.05151449865996837,0.008375029635429382,1.4880556607589124
1789315937581705500,6.73770556640625,0.2323568035006523,-0.17575345726907252,1.5059312169283627
1789315937591738400,6.74773828125,0.40100189006924625,-0.4686211358338594,1.4086813875317572
1789315937601772500,6.7577724609375,0.4607043713599443,-0.8154577204734087,1.2783400203943251
1789315937611806500,6.767806396484375,0.5890922663420438,-0.9132622611433268,0.980661142155528
1789315937621839600,6.777839599609375,0.8652911341786385,-0.6306354060858488,0.6768431766398251
1789315937631873300,6.787873291015625,0.9358578315719962,-0.22457389453947543,0.7232742345556616
1789315937641907500,6.797907470703125,0.9018295975029468,0.1462871242880821,0.9969355467386544
1789315937651940600,6.807940673828125,1.0513634486272931,0.2865793920755386,1.372222273053974
1789315937661974500,6.817974609375,1.2954767408952117,0.23245208056867123,1.415769738357514
1789315937672008400,6.828008544921875,1.4789952792078256,0.09806757552027702,1.4731066595606506
1789315937682041300,6.838041259765625,1.4368693711400031,0.0801174928098917,1.6236371205069124
1789315937692075500,6.848075439453125,1.3611214717164635,0.2537771926701069,1.6938979668214915
1789315937702109700,6.858109619140625,1.4280840071380139,0.48319326654374595,1.5493647004634141
1789315937712142600,6.868142578125,1.4241086737662554,0.6205950735867023,1.2567048194304107
1789315937722176500,6.878176513671875,1.2988923945575952,0.9578080898344516,0.9544086566545069
1789315937732210400,6.88821044921875,1.0170756868392228,1.3453805894881485,0.741406980356574
1789315937742244600,6.89824462890625,0.5549000738829374,1.6298410897135733,0.6915072234168649
1789315937752277200,6.90827734375,0.23276479977965353,1.1223358042120932,0.621540391612798
1789315937762311400,6.9183115234375,0.4831611178398132,-0.12965981461405754,0.5387921119078993
1789315937772345600,6.928345703125,0.41415304806530473,-0.6092407358795404,0.21171762783676384
1789315937782378500,6.93837841796875,0.04069266039431095,-0.6691051297336816,0.04113850446566939
1789315937792412400,6.948412353515625,-0.4744429738551378,-0.3000438538044691,0.04412453453913331
1789315937802446300,6.9584462890625,-0.9953343951523304,0.3329477600187063,0.14975933044329284
1789315937812479500,6.9684794921875,-1.4095669381946325,0.8978408201277256,0.3863742297798395
1789315937822513700,6.978513671875,-2.0855600738763806,1.348246500313282,0.7351715930983423
1789315937832547300,6.98854736328125,-2.278093985554576,1.6559253790408373,1.0650668336786329
1789315937842580500,6.99858056640625,-2.1026380499273536,1.4946423456728457,1.206580606085062
1789315937852614400,7.008614501953125,-1.8872399800121784,0.9509674301594495,1.0142802109017968
1789315937862648600,7.018648681640625,-1.6882073539644478,0.21812778714001177,0.5914768233910203
1789315937872681500,7.028681396484375,-1.6404519155770538,-0.7319850720167159,0.18052841658592222
1789315937882715400,7.03871533203125,-1.1191466527819633,-1.7890899869054555,-0.10168898088783025
1789315937892749600,7.04874951171875,-0.42347091150879856,-2.968322567337751,0.0880167216271162
1789315937902783500,7.058783447265625,-0.2578495566755533,-3.3824586642682553,0.7042904248833656
1789315937912816600,7.068816650390625,-1.1409019729942083,-2.150271323239803,1.0254834497004748
1789315937922850300,7.078850341796875,-1.4580512753784656,-0.5841781908154488,0.8607321557000279
1789315937932884500,7.088884521484375,-1.1276613831490279,0.23749591995477676,0.942978769493103
1789315937942917600,7.098917724609375,-1.081104799157381,0.20008593449294565,1.3129210660405457
1789315937952951600,7.10895166015625,-1.383991182911396,-0.27057518273591996,1.0137013881005346
1789315937962985500,7.1189853515625,-2.262673713582754,1.005059085831046,0.4048799005463719
1789315937973018400,7.129018310546875,-2.3038480200141667,1.9839158089131115,-0.49196767076030373
1789315937983052500,7.139052490234375,-1.139785536184907,1.8858505714803933,-1.1050077989228069
1789315937993086500,7.14908642578125,-1.0410124427437781,1.5059972679018974,-1.2545781826652587
1789315938003119400,7.159119384765625,-1.1992746669858694,1.5351947208136318,-0.7510783334128558
1789315938013153500,7.169153564453125,-0.7855202628493309,1.3328139533817767,-0.3921004984721541
1789315938023187500,7.1791875,-0.7827589814424515,1.4745996745973824,0.2005439073935151
1789315938033221400,7.189221435546875,-0.9269085091799497,2.0098960533440113,0.6619095191411674
1789315938043254300,7.199254150390625,-0.7346434775710106,2.4270371773093937,0.6476921932183206
1789315938053288400,7.209288330078125,-0.7023749466508626,2.091712751287222,0.3155741620220244
1789315938063322600,7.219322509765625,-0.18933365433216093,1.842913347029686,-0.20856413224190473
1789315938073355500,7.22935546875,0.500782114726305,1.8862182357490063,-0.589189735367149
1789315938083389400,7.239389404296875,1.487327054223418,1.46913965562582,-0.31573110614940525
1789315938093422800,7.2494228515625,2.2155437136173246,1.0149760842114686,-0.02001753663420677
1789315938103456000,7.2594560546875,2.3516683403313157,0.7733645456314087,-0.09931582201570271
1789315938113490000,7.269489990234375,2.024628343051672,0.38755671756267546,-0.2681955210577696
1789315938123523800,7.27952392578125,1.6154150894761083,-0.18131342948377133,-0.16465039090923964
1789315938133557000,7.289556884765625,1.518470965027809,-0.9517717322796583,0.4074943208284676
1789315938143591000,7.2995908203125,1.5012451049387454,-1.4822159948199987,1.0895239601954818
1789315938153625000,7.309625,1.6290169138491153,-1.5933160703927278,1.8142681211732328
1789315938163658800,7.31965869140625,1.3120271859407424,-0.5766700071424246,2.5142919746533035
1789315938173692000,7.32969189453125,1.0153636222243307,0.025041502276062964,2.4907877649471164
1789315938183726000,7.33972607421875,0.6427285794615745,-0.11360182926058769,1.9246959965728223
1789315938193760000,7.349760009765625,0.08295885371565818,-0.12754910607039927,0.9787558930560946
1789315938203793200,7.359793212890625,-0.2923608980864286,0.21754911046922207,0.702714699999243
1789315938213826800,7.369826904296875,-0.25718027911186214,0.47844402619004245,0.5114303499907255
1789315938223861000,7.379861083984375,-0.04413900145590305,0.3382084570258856,0.20598229905515908
1789315938233894000,7.389893798828125,-0.3861129484951496,0.2811965299934149,-0.10102116462886333
1789315938243928000,7.399927978515625,-0.7121797168284654,0.4534206440925598,-0.3311939751539379
1789315938253962000,7.4099619140625,-0.6768026984989642,0.7274532738059759,-0.16644808798097074
1789315938263995000,7.419994873046875,-0.5828127476811409,1.0852665950119496,0.1462533316163346
1789315938274029000,7.430029052734375,-0.17484452573060988,1.1764736371129751,0.23140677276682106
1789315938284063000,7.44006298828125,0.2319733571410179,1.3125871579110622,0.15703144033811986
1789315938294096000,7.450095947265625,0.4074135106772184,1.623465124940872,0.28989333892911673
1789315938304130000,7.460130126953125,0.5582552295297384,1.6915297763854265,0.26452633102573453
1789315938314164000,7.4701640625,1.0805348903149365,1.710635458871722,0.25100495147779583
1789315938324198000,7.480197998046875,0.8595335935652255,1.5506658461898564,0.19130115501284597
1789315938334230800,7.490230712890625,0.30636721160709857,1.52012925362885,0.07915591776873916
1789315938344265000,7.500264892578125,0.5060276141643524,1.6846330026090144,0.14478526835776864
1789315938354299100,7.510299072265625,0.6754208887517452,1.7988684535980224,0.37621443561948836
1789315938364332000,7.52033203125,0.4634107077091932,1.8383277728050946,0.5899759903740137
1789315938374366000,7.530365966796875,-0.03198737589120865,1.7406243544220923,0.7242810735106467
1789315938384400000,7.54039990234375,0.15706103175878525,1.4664923559874294,0.791617556811124
1789315938394433000,7.55043310546875,0.6817617822110652,1.0142436782836914,0.8753283248726278
1789315938404467000,7.560467041015625,0.910171309390664,0.42361704198122024,0.9815752613257617
1789315938414500900,7.5705009765625,0.34490181718468665,-0.1646568937152624,0.981741046346724
1789315938424534000,7.580533935546875,0.04117781356275081,-0.6275514685958623,1.0238424044951795
1789315938434568000,7.59056787109375,-0.12834931653738021,-1.135298161637783,1.1114644277162848
1789315938444602000,7.60060205078125,-0.2590747145563364,-1.4720149188011884,1.219442571876198
1789315938454635800,7.6106357421875,-0.289148658041656,-1.6609283018946646,1.340735686291754
1789315938464669000,7.6206689453125,-0.5415317660048604,-1.7117039648860692,1.2314388607487081
1789315938474703000,7.630703125,0.17582652250528336,-1.8161515968322752,0.885990661727637
1789315938484737000,7.640737060546875,1.1997054596185683,-1.8769880505889653,0.17513684147438033
1789315938494770200,7.650770263671875,1.173264027416706,-1.8358020537197588,0.1345948415971361
1789315938504803800,7.660803955078125,2.1554542788356543,-1.3227847267985342,0.0860930418218486
1789315938514838000,7.670838134765625,3.5872283726632594,-0.6875280906528234,-0.20129074370544403
1789315938524871000,7.680870849609375,4.209960458278656,-0.2918739913523197,-0.8857358101837336
1789315938534904800,7.69090478515625,3.6921570661246776,-0.0516091912060976,-1.406162098187208
1789315938544939000,7.70093896484375,2.857285620129108,0.1858066492497921,-1.672481084783375
1789315938554973000,7.710972900390625,1.9573934204295276,0.6679729108333587,-1.6989260241165756
1789315938565006000,7.721006103515625,1.2923439958274363,1.1434709466993809,-1.763533959235996
1789315938575039700,7.731039794921875,1.1009072317361832,1.2700099989444016,-1.7058773045592008
1789315938585074000,7.741073974609375,0.9437719656974076,1.1544734022289513,-1.2646353201687335
1789315938595107000,7.751107177734375,-0.03429039213657379,1.1125140828996896,-0.6386697325248271
1789315938605141000,7.76114111328125,-1.0178653759121894,1.110997248595953,-0.21599272960638627
1789315938615175000,7.7711748046875,-1.4820385924264787,1.2889029154628515,-0.08702122605005279
1789315938625207800,7.781207763671875,-1.5419864267803727,1.5913561684966087,-0.0005047894506715238
1789315938635242000,7.791241943359375,-1.6252648678392172,1.7469336836993694,0.06092057010987773
1789315938645276200,7.801276123046875,-1.6454764657407999,1.871412296283245,-0.6740897132132202
1789315938655309000,7.81130908203125,-1.7798136245161293,2.2981787422060966,-1.1873844688363373
1789315938665343000,7.821343017578125,-2.454804305157065,2.5531512821406124,-0.5250606332732364
1789315938675377000,7.831376953125,-2.3360708120964464,2.858630604997277,0.5103172011170536
1789315938685411000,7.8414111328125,-2.2920821788966657,2.8812048403769728,1.3983204447761177
1789315938695444000,7.85144384765625,-2.4971353804081677,2.439615503853559,1.9731980155438185
1789315938705478000,7.861477783203125,-2.5172236441910267,1.7572557557493447,2.091120484482497
1789315938715512000,7.871511962890625,-2.0937632540762423,0.9871645327001809,1.6131420299775898
1789315938725545000,7.881544921875,-1.529944545200467,-0.2971732668042183,1.319003162433207
1789315938735579100,7.8915791015625,0.1504354761391878,-2.5494512585788964,1.0225246729601174
1789315938745612800,7.90161279296875,2.533120301502943,-5.6065539331316945,0.9368998879708349
1789315938755646000,7.91164599609375,4.387611273601651,-8.879494822582602,0.8125813613194972
1789315938765680000,7.92168017578125,5.0025990287005895,-11.400210985064506,-0.4779143397601321
1789315938775714000,7.931714111328125,4.356442812877893,-11.748588369405269,0.15594779155356808
1789315938785748000,7.941748046875,2.469711951431632,-8.411834640735387,-0.00771417284021154
1789315938795780900,7.95178076171875,1.2540630727499722,-3.761152276417613,0.017201652662991545
1789315938805815000,7.96181494140625,0.6608382366478442,-0.6330231780052185,1.2102101216938346
1789315938815849000,7.971848876953125,1.0982152161732315,1.1051093596011399,1.140525833158195
1789315938825881900,7.9818818359375,1.820773411414027,2.1670611299991607,-0.17662381036281585
1789315938835916000,7.991916015625,1.7960273849532007,2.154050257256627,-1.4073331877931952
1789315938845950000,8.001949951171875,0.8856164215877652,1.0907441496402024,-1.6299280373446643
1789315938855983000,8.011983154296875,0.7626616575703025,-0.0662970572501421,-2.038601046563685
1789315938866016800,8.022016845703124,0.7462702024787664,-0.6260100843727588,-2.0229250462651254
1789315938876051000,8.032051025390626,0.7686866169482469,-0.5885580133348703,-1.9544640889793634
1789315938886084000,8.042083984375,0.7029644369766116,-0.14737199691534042,-1.796886924391985
1789315938896118000,8.052117919921875,0.20655133111476898,0.5086754983246327,-1.4159437797501682
1789315938906152000,8.06215185546875,-0.7193398177161813,1.1032453192949294,-0.9382298944655806
1789315938916185900,8.072185791015626,-1.7678379400402306,1.4418822308659553,-0.22770267581818623
1789315938926219000,8.082218994140625,-2.2532918449923396,1.703718226829171,0.012778707954473792
1789315938936253200,8.092253173828125,-2.607695650015771,1.9480261648863553,-0.12545794247742742
1789315938946286800,8.102286865234374,-2.737497211188078,2.06515850636065,-0.013673282174021004
1789315938956320000,8.112320068359375,-2.405516834896803,2.27851484131515,0.24896431249566375
1789315938966354000,8.12235400390625,-2.4710996063977477,2.3319822276085613,0.36150446734149005
1789315938976388000,8.13238818359375,-2.056085557588935,2.034558785435557,0.29128135922141374
1789315938986421000,8.1424208984375,-1.4562813430964945,1.5857266381770372,0.4730608353143558
1789315938996455000,8.152454833984375,-0.9757344994083046,0.9102981506407261,0.5840330832563341
1789315939006489000,8.162489013671875,-0.6474655448555946,0.11611176625490188,0.6310050431158393
1789315939016523000,8.17252294921875,-0.379424264511466,-0.7012053183495998,0.6746982735656202
1789315939026556000,8.182555908203126,-0.013782149375975132,-1.0410621271044016,1.088178683066368
1789315939036589800,8.19258984375,1.2856138107895851,-1.5197405465722083,1.101686983937025
1789315939046624000,8.2026240234375,1.8496452856332062,-1.617857221931219,0.6577167436264455
1789315939056657200,8.2126572265625,3.1083272503554817,-2.9340783524304626,0.3358332888597622
1789315939066690800,8.22269091796875,3.807493756353855,-4.212551059293746,-0.10853157679159194
1789315939076725000,8.23272509765625,3.402186862567067,-3.9584997258573766,-0.39142581408098337
1789315939086758100,8.242758056640625,3.062811699849367,-3.2861154283225535,-0.45889542224183677
1789315939096792300,8.252792236328125,2.8586183300375936,-3.092901133164763,-1.0321312902171165
1789315939106826000,8.262825927734376,2.8005086708962916,-2.4512433978050945,-1.294844726601988
1789315939116860200,8.272860107421875,2.236106609174609,-1.8370523460417985,-1.1050612826757131
1789315939126893000,8.28289306640625,1.4681459684133529,-1.543669119170308,-0.9144611155390739
1789315939136927200,8.29292724609375,0.9605711248070001,-1.4032961873620748,-1.1354152121461927
1789315939146961200,8.302961181640624,0.2015741272240877,-1.248684886842966,-1.1213627213962376
1789315939156994000,8.312994140625,-0.4967243637681007,-1.0434785405963658,-0.8649383752182126
1789315939167028200,8.3230283203125,-1.2468652702003717,-0.8114163361281156,-0.9740103059642017
1789315939177062100,8.333062255859375,-1.4280103573799132,-0.36659225546717644,-0.8437126318380236
1789315939187095000,8.343094970703126,-1.3353104463726282,0.2766021879404783,-0.2604916321495548
1789315939197129200,8.353129150390625,-1.037232339683175,0.6544172636896372,0.20443930739685892
1789315939207163100,8.3631630859375,-0.9778723882198334,0.7684037083536386,0.2600180232884362
1789315939217197000,8.373197021484375,-1.2010136196076868,0.7587228568166494,0.11481010907180607
1789315939227230000,8.38322998046875,-1.089929910647869,0.9847142169386148,0.16187709027100353
1789315939237264100,8.39326416015625,-1.5093746353805064,0.7715905216962099,0.2536319024479016
1789315939247298300,8.40329833984375,-2.1808231133699416,0.7510814021527766,-0.03666658321600407
1789315939257331200,8.413331298828124,-2.6110464217483997,1.752611144813895,-0.3206037902196869
1789315939267365000,8.423365234375,-3.074665219250321,2.95773161521852,-0.8183956005562096
1789315939277399000,8.43339892578125,-3.641462651675939,3.9790626214146614,-1.2904982218302785
1789315939287432200,8.44343212890625,-3.669067282438278,4.906708212697506,-1.648117043377459
1789315939297466000,8.453466064453124,-3.53411169950366,5.248606756412983,-1.5706689159072935
1789315939307500000,8.4635,-3.506986961212754,5.636541659638286,-1.3445697114966808
1789315939317534200,8.4735341796875,-3.5027690512567755,5.668755245500803,-0.8798905912868678
1789315939327567000,8.483567138671875,-2.9065543856889007,5.2761026661038395,-0.41732470037136227
1789315939337601300,8.493601318359374,-1.7693869230479,4.56725004787147,-0.698314638409391
1789315939347635000,8.503635009765626,-0.7448352012395858,3.7527860146105287,-0.8485936818778514
1789315939357668000,8.513668212890625,0.22517887469530104,2.902171640560031,-0.4429927005153149
1789315939367702300,8.523702392578125,0.8609872995048761,2.4350176546692848,0.297053951273486
1789315939377736200,8.533736083984374,0.6651163523584603,1.8501555732429027,1.9441016849189996
1789315939387769300,8.543769287109376,0.746610394218564,0.7541308528512716,2.9835505316078663
1789315939397803000,8.553802978515625,1.2213397837996482,-0.4087473896294832,2.2256164870813486
1789315939407837200,8.563837158203125,1.6801830374628304,-1.0693056402921677,1.1417956338983029
1789315939417871400,8.573871337890624,2.53314426690042,-1.5857786606252193,0.301058583804965
1789315939427904300,8.583904296875,4.243078884026408,-3.3252076677829026,-0.21631825350001452
1789315939437938200,8.593938232421875,3.8956782357633113,-6.060140581440925,-0.9481571950443088
1789315939447972000,8.60397216796875,1.987314803701639,-5.091023746606707,-1.3106870233781636
1789315939458005200,8.614005126953124,1.2434475707113741,-3.1233056237787005,-1.2054759327787905
1789315939468039000,8.624038818359375,1.152687103334069,-2.794036844533682,-1.0017008614443241
1789315939478073000,8.634072998046875,1.5396189669966698,-3.6664217363655567,-0.2923361472376622
1789315939488106200,8.644106201171875,1.6076152293801307,-4.579005952116847,0.0782087548454292
1789315939498140200,8.65414013671875,1.1096458339869975,-3.84135277133584,0.028432039763499048
1789315939508174000,8.664174072265626,0.29518238524794577,-1.5221622207611798,0.7044663659721613
1789315939518208000,8.6742080078125,-0.8279185581177473,0.8692372414559125,0.8436097559854387
1789315939528241200,8.6842412109375,-2.057476719686389,3.053029726025462,-0.6245524329103529
1789315939538275300,8.694275390625,-3.158941585305333,4.308820645481347,-1.3680328585401176
1789315939548309000,8.70430908203125,-3.3792274272620677,4.240970513570309,-1.3011650156646966
1789315939558342100,8.714342041015625,-2.8755490065723657,3.6680350167810913,-1.335921710138768
1789315939568376000,8.7243759765625,-2.534806062632799,3.2092344332158564,-1.1956846796698868
1789315939578410200,8.73441015625,-1.5373808326810599,3.0297464655935764,-0.8527440795555711
1789315939588443100,8.744443115234375,-1.3561574195683002,2.9085885218650103,-0.6637476943537592
1789315939598477000,8.75447705078125,-1.6107564500153064,2.9576228941470384,-0.2980484056709334
1789315939608511200,8.76451123046875,-1.904381668949127,3.21228622200191,-0.2341823018947616
1789315939618545200,8.774545166015624,-2.1694319507837294,3.0540754356861113,-0.15805486510172487
1789315939628578300,8.784578369140625,-0.6776859110742807,2.4616876349300143,-0.28201405692137776
1789315939638612000,8.794612060546875,1.266738429927826,1.2377964130818844,-0.6317412484358996
1789315939648646100,8.804646240234375,-1.6218711337476968,-0.18116437640190122,-0.6218494575619697
1789315939658679300,8.81467919921875,-0.7561690806806087,-1.0789835692197083,-0.3852484406203031
1789315939668713200,8.824713134765625,1.5355810897827147,-1.7139637265115975,-0.12269194836281239
1789315939678747100,8.8347470703125,3.0725194393932815,-2.0473112995028493,-0.010972498782724141
1789315939688780000,8.844780029296874,3.572318388301134,-1.9317402159959076,0.41478228587955235
1789315939698814200,8.854814208984376,4.081438123261928,-1.5759031632989644,0.705572865909338
1789315939708848000,8.86484814453125,4.2521670303672545,-1.088980647099018,0.6777724203139543
1789315939718882000,8.874882080078125,3.325965792673826,-0.7239192544609308,0.8811132649496197
1789315939728915200,8.884915283203124,2.1609961308717724,-0.4640869995355606,0.7332574300400913
1789315939738949000,8.89494921875,1.5122200879395007,-0.2768552859187126,0.27228118293620646
1789315939748983000,8.904983154296875,0.991558383744955,-0.17246552163958548,0.08026208891235291
1789315939759016000,8.915015869140625,0.4008879083007574,-0.08449030106663703,0.07675254642143844
1789315939769050000,8.925050048828124,0.36239772638678547,0.08517652976512909,0.20578663035258649
1789315939779084300,8.935084228515626,0.24206308173984287,0.10596972694694995,0.5260143903341145
1789315939789118000,8.945117919921875,-0.06940963631272315,0.11978490180969238,0.6658264003239571
1789315939799151000,8.955151123046875,-0.47448652073591946,-0.21168752495944498,0.5212378966473042
1789315939809185000,8.96518505859375,-0.6424523928686976,-0.7604705772668123,0.2502911041200161
1789315939819219200,8.97521923828125,-0.7718611553311348,-1.1831529687464237,-0.034111820699274535
1789315939829252400,8.98525244140625,-0.7000409507453441,-1.4798463430792093,-0.5933025775134563
1789315939839286000,8.9952861328125,-0.18018968615084885,-1.5315461351782083,-1.2528668487027286
1789315939849320200,9.0053203125,0.08778115930557251,-1.5721026019722222,-1.5706374978557227
1789315939859354000,9.01535400390625,-0.009289806392788886,-1.4325824876010418,-1.6833077453546226
1789315939869387300,9.02538720703125,-0.10460253024697304,-1.2655553576231002,-1.4898326073035597
1789315939879421200,9.035421142578125,-0.3565408170521259,-1.1167086119800806,-0.9227862416181712
1789315939889455000,9.045455078125,-0.5420768326669931,-1.0312632021456956,-0.37899504278134555
1789315939899488300,9.05548828125,-0.5880667226865888,-1.0423697025716303,-0.1083173495190218
1789315939909522200,9.065522216796875,-0.5382040828868746,-0.955806102362275,0.16126093113403767
1789315939919556000,9.07555615234375,-0.21488661326169967,-0.8368272562384604,0.2680837677789852
1789315939929589000,9.085589111328124,0.014379238486289978,-0.5562737003237008,-0.45885552862286566
1789315939939623200,9.095623046875,0.38430151515901084,-0.062114803129434584,-0.7004688207685947
1789315939949657000,9.105656982421875,0.5854734913229942,0.5462754534006119,-0.31990020852759476
1789315939959690000,9.11568994140625,0.18311258786022663,1.034336033719778,-0.016517309960909186
1789315939969724200,9.12572412109375,-0.5283008207708597,1.3719026857107877,-0.37412513519003987
1789315939979758000,9.135758056640626,-0.90458386464715,1.6273434276789427,-0.4065982122389599
1789315939989792000,9.1457919921875,-0.7372720725089311,1.8161714705765246,0.12274934110585599
1789315939999825200,9.1558251953125,-0.12036036361008882,1.702319465947151,0.19678378767501561
1789315940009859000,9.165859130859374,0.12981062126159668,1.1598381441324948,0.38468441352937366
1789315940019893200,9.175893310546876,0.5838391681194305,0.18890052361190318,0.46728952190391715
1789315940029926100,9.185926025390625,0.8574298992842435,-0.9137778094500303,0.3970091306386515
1789315940039960000,9.1959599609375,1.1768383787721395,-1.8850778335422276,0.42154823635052885
1789315940049994200,9.205994140625,1.643109736609459,-2.591573659515381,0.6061400664504617
1789315940060028200,9.216028076171876,1.7509233378574252,-3.049148500677943,0.31225597738474603
1789315940070061300,9.226061279296875,1.6588339599639177,-3.0773452521145344,-0.002972476472146809
1789315940080095000,9.236094970703125,1.7474238053038715,-2.5109651683181524,0.7922615538030863
1789315940090128600,9.246128662109374,1.3783897096425295,-1.8221458688110113,0.8866687071196735
1789315940100161800,9.256161865234375,0.7722828878745436,-1.2820423820436,0.7167191138237714
1789315940110195700,9.26619580078125,0.6133978555589914,-0.8203454925149679,0.847768336969614
1789315940120229600,9.276229736328125,0.3225000157624483,-0.43577509728670116,0.5308968651460484
1789315940130263800,9.286263916015624,-0.056090136012434955,-0.07272913612425327,0.2041562892043963
1789315940140296700,9.296296630859375,-0.36504853315651414,0.28558921199440956,0.08950517921973951
1789315940150331000,9.306330810546875,-0.5304255578398704,0.719679717195034,0.07067695283479988
1789315940160364500,9.316364501953124,-0.6636153001457452,1.0162836596786975,0.013643453291337936
1789315940170397700,9.326397705078126,-0.8407172494143247,1.1417091977238654,-0.25449863881245255
1789315940180431600,9.336431640625,-0.6784165634363889,1.0230027388006449,-0.026555523568205532
1789315940190465800,9.3464658203125,-0.4082718810722232,0.6311001009881496,0.10754457504823803
1789315940200499000,9.3564990234375,-0.2794143227517605,0.08342588670551776,0.1584642861528322
1789315940210532600,9.36653271484375,0.10994915197193622,-0.8556529527395963,0.473072343089059
1789315940220566800,9.37656689453125,0.8895862020015716,-2.051310598272085,0.5539072999859228
1789315940230601000,9.38660107421875,1.0845400343030691,-2.757060574313998,0.215189286002703
1789315940240633600,9.396633544921874,0.7246463996917009,-2.7616256902724503,0.09189626647420227
1789315940250667800,9.406667724609376,0.34039632245898244,-1.9985855547785758,0.7042983889941126
1789315940260701700,9.41670166015625,-0.33736323837339877,-0.600278261744976,1.2381371893435715
1789315940270734800,9.42673486328125,-0.8628834885150194,0.6284627382218837,1.4289575751021504
1789315940280768500,9.4367685546875,-0.7591910588502884,1.698992367351055,1.2069567459210753
1789315940290802700,9.446802734375,-0.4165986876517534,2.270826040378213,0.9742924108412117
1789315940300835600,9.456835693359375,0.48168286198079585,2.0953747809261083,0.5486849987603724
1789315940310869800,9.466869873046875,0.7245084525257348,1.916785807970166,0.04866824238337576
1789315940320903700,9.476903564453124,0.3908084128350019,0.69712067938447,-0.2539873282894492
1789315940330937600,9.4869375,1.6460124723136424,-1.7778695047110318,-0.10889569739624858
1789315940340970800,9.496970703125,0.9132195910453795,-2.0330366904348134,0.35276107931770384
1789315940351004700,9.507004638671875,-0.28717151274979114,-1.7411463324695824,0.9831372499454766
1789315940361038600,9.51703857421875,-0.3079197017461061,-2.6133196273773907,1.2119849493466317
1789315940371071700,9.52707177734375,-0.11031915432810782,-2.2598750227749345,1.1606726952604949
1789315940381105700,9.537105712890625,-0.8392366554677486,-1.6351508865594864,0.9813919406481086
1789315940391139800,9.547139892578125,-1.7251836241841316,-1.1720078898757695,0.36994777644015847
1789315940401173800,9.557173828125,-1.9978046335339545,-0.4936924487262964,-0.2794260131895542
1789315940411206700,9.56720654296875,-1.4469786772221327,-0.31676585602462287,-0.0962150064561516
1789315940421240800,9.57724072265625,0.058279755011200904,-0.507932571002841,0.5082032777030021
1789315940431274800,9.587274658203125,1.2994991282790898,-0.9715449387639761,0.3427829253345728
1789315940441308000,9.597307861328124,1.3539648779600857,-1.159714810013771,-0.23748627534359693
1789315940451341600,9.607341552734376,1.4102157574921845,0.47918519994616504,-0.6301772139895707
1789315940461375700,9.617375732421875,-0.7421428934156894,0.7005331181764602,-0.7182209697540849
1789315940471410000,9.627409912109375,-1.234570436772704,-0.9156149617493152,-1.4503689041823147
1789315940481442800,9.63744287109375,-0.5454138681352139,-0.5477864424854517,-1.6002803564473986
1789315940491476700,9.647476806640626,-0.8712012350052595,0.339043154284358,-1.3552201387181877
1789315940501510700,9.6575107421875,-0.9735960260748863,1.4177911611825227,-0.8253389899533241
1789315940511543800,9.667543701171875,-1.2510276505768299,2.3445424339741465,-0.3021400223661214
1789315940521577700,9.67757763671875,-2.0652175430715083,3.2290666764110325,0.3023041999518871
1789315940531611600,9.687611572265626,-2.6262550967961547,3.7099633564501997,0.7824040305249392
1789315940541645800,9.697645751953125,-3.162020262098312,3.928652284604311,0.8484361532285809
1789315940551678700,9.7076787109375,-3.6652678901553153,4.395412302741408,1.0395653857406228
1789315940561712600,9.717712646484374,-3.035983314156532,4.268772712731361,1.4516428696408867
1789315940571746800,9.727746826171876,-1.9417209272623062,3.163002258872986,1.6669903784126043
1789315940581779700,9.73777978515625,-1.3283154729187487,2.084811301335692,1.9192349546879528
1789315940591814000,9.74781396484375,-1.019964394018054,1.085267179533839,1.5016554393053054
1789315940601847600,9.75784765625,-0.31846330759227276,-0.3798813606292009,0.5314823003511876
1789315940611880700,9.767880615234375,0.012344517788290977,-1.4169436044424772,-0.035779315520077945
1789315940621914600,9.77791455078125,0.023372692281007766,-1.8673866940289734,-0.15790519096534697
1789315940631948800,9.78794873046875,0.45853053445219993,-2.914673979258537,-0.3051970353165641
1789315940641982700,9.797982666015624,1.3489794907629489,-4.122624704653024,-0.2860311470756307
1789315940652015600,9.808015625,2.0069564927607773,-3.982921634930372,0.25071294626127927
1789315940662049800,9.8180498046875,0.7162982580631971,-0.7215805823802948,0.9159816031046211
1789315940672083700,9.828083740234375,-0.64960021879673,2.4782576614588496,0.6099658718163147
1789315940682116900,9.838116943359376,-0.9345850351572036,2.473506667539477,0.07848879562951624
1789315940692150800,9.84815087890625,-1.117761335903406,1.1677718597412108,-0.2782945980068296
1789315940702184700,9.858184814453125,-1.2731623254954814,0.1140367135465145,-0.601222995249182
1789315940712219000,9.868218994140625,-1.228152970945835,-0.040109307548403736,-0.9392501043587923
1789315940722251800,9.878251708984376,-1.1208078639924526,0.36082594702541826,-1.2325745867803692
1789315940732285700,9.88828564453125,-0.8699789997339248,0.9277940598428249,-1.136461944720149
1789315940742319900,9.89831982421875,-0.17911621170043945,0.9437269575119018,-0.69151387235336
1789315940752352800,9.908352783203124,0.4781108487129211,0.6579015986740588,-0.19561825102698058
1789315940762386700,9.91838671875,0.4371113143265247,0.2873608978420496,-0.06820307353455574
1789315940772420600,9.928420654296875,0.07411386848092079,-0.0655821869790554,-0.03698892648856854
1789315940782454800,9.938454833984375,-0.17258476410508156,-0.2910638440132141,0.0021515485857671593
1789315940792487700,9.94848779296875,-0.5002887782514095,-0.40562019751966,0.23284632231695576
1789315940802521600,9.958521484375,-1.220726620337367,-0.48032560215294356,0.03596555880717933
1789315940812555800,9.9685556640625,-1.6823066054880618,-0.36255262468755245,-0.01630599616463296
1789315940822588700,9.978588623046875,-1.7553122204661369,0.2278080541551113,0.4937134184490889
1789315940832622800,9.988622802734374,-1.2863538155019283,0.9712754741728306,0.575008722866699
1789315940842656500,9.998656494140626,-0.875931770658493,1.6178320874899625,0.4429332254130393
1789315940852689700,10.008689697265625,-0.19414660757184027,2.297806986284256,0.27579898179881274
1789315940862723800,10.018723876953125,0.3903086466193199,2.615756499135494,0.27193710047258063
1789315940872757800,10.0287578125,1.3336848909974097,2.8419261384338137,0.22503698200657962
1789315940882791700,10.038791748046876,-0.39132571470737454,2.5545588108509776,0.4030330305706709
1789315940892824600,10.048824462890625,-0.5568038616776466,2.297952532234788,0.5843303126372397
1789315940902858800,10.058858642578125,0.3060112377762794,1.8847791428565979,0.5058879864979535
1789315940912893000,10.068892822265624,1.0848889938712118,0.9624036009311675,0.4218430911112577
1789315940922925800,10.07892578125,1.7307172929137944,-0.11990180618762969,0.47532487125620243
1789315940932959700,10.088959716796875,2.253391505974531,-1.4986732086241243,0.5507364513974636
1789315940942993700,10.09899365234375,2.0465034902513026,-2.8833541273653505,0.3801958334058523
1789315940953027800,10.10902783203125,1.9863088415294885,-3.73277198510766,0.34042072624787684
1789315940963060700,10.119060791015626,1.721939527696371,-3.876550925967097,0.37715610038377345
1789315940973094700,10.1290947265625,1.1176368327409028,-3.498460540407896,0.09670595004456117
1789315940983128800,10.13912890625,0.4973959794193506,-2.870003647404909,-0.4006147173825651
1789315940993161700,10.14916162109375,0.49495501600801944,-2.1214473798155784,-0.6853714240755886
1789315941003195600,10.159195556640626,0.5050093770325184,-1.6942384508222341,-0.7885866646826267
1789315941013229600,10.1692294921875,0.013667290824651717,-1.3020125724047422,-0.6509649312786757
1789315941023263700,10.179263671875,-0.8733885159164667,-1.0108084431380033,-0.4532531785711646
1789315941033297000,10.189296875,-1.4677239436089993,-0.7365718152850866,-0.07452814837023615
1789315941043330600,10.19933056640625,-1.581536200749874,-0.5869821423202752,0.49376989787667985
1789315941053364700,10.20936474609375,-1.3432906314715742,-0.5538455963939428,0.7793728461354971
1789315941063397600,10.219397705078125,-0.9472460715487598,-0.6107973176717758,0.7097488364197313
1789315941073431800,10.229431884765624,-0.6015609950318932,-0.9618968204528093,0.7868787647861987
1789315941083465700,10.2394658203125,-0.003488426637649536,-1.4332809912592173,0.5213081123393029
1789315941093499000,10.249498779296875,0.9273293649405241,-1.837099692314863,-0.0947257542790845
1789315941103532800,10.25953271484375,1.92927411814332,-2.0143787517160177,-0.5653565859675407
1789315941113567000,10.26956689453125,2.151038508220017,-1.8789947142362593,-0.5221677979085594
1789315941123601000,10.279600830078126,1.2820406284779309,-1.4512503631919622,-0.6604637042470276
1789315941133633800,10.2896337890625,0.07405015559494495,-0.7119862400829792,-0.8215231579922139
1789315941143668000,10.29966796875,-0.7159165652692318,0.14674714301526545,-0.8659252673637121
1789315941153702000,10.309701904296874,-1.2483020250052212,0.7995254073262215,-1.0646874789722263
1789315941163735800,10.31973583984375,-1.1353192044258118,1.1196353130817414,-1.7786577324792743
1789315941173769000,10.32976904296875,-0.45974487867802377,1.1526198833167551,-2.2742148060336707
1789315941183803000,10.339802978515625,0.12037205404788255,1.1048749663233757,-1.9002783252835274
1789315941193836800,10.3498369140625,-0.0981774656355381,0.8961024520277976,-0.9522238599613309
1789315941203869700,10.35986962890625,-0.6293699161946773,0.09398410559892655,-0.7590407636594027
1789315941213904000,10.36990380859375,-1.057314758247137,-0.8224328201830386,-0.8972754413299262
1789315941223938000,10.37993798828125,-0.9385065925151109,-1.3629080628722905,-0.6386448172792792
1789315941233971000,10.389970947265626,-0.7263087799459695,-1.4696604646295308,-0.11667411284539848
1789315941244004900,10.4000048828125,-0.48156829569041726,-1.342709324452281,0.1138429080074653
1789315941254038800,10.410038818359375,-0.786058899770677,-1.1588088010847568,0.2429785526169464
1789315941264073000,10.420072998046875,-1.0679033722788094,-0.9472726672947406,0.5117503757253289
1789315941274105900,10.43010595703125,-1.149130872157216,-0.8051718887805939,0.8366456160612404
1789315941284139800,10.440139892578125,-1.1047814428210259,-0.7192705518722534,0.5420051922028883
1789315941294174000,10.450174072265625,-0.7379273215472698,-0.6240525205641985,0.2820541332034394
1789315941304206800,10.460206787109374,-0.2821452090203762,-0.7374106041967868,0.32726624378357083
1789315941314241000,10.470240966796876,0.11153671342432499,-1.1224813501626252,0.3731235569320619
1789315941324274700,10.480274658203125,0.5319540825814009,-1.7918875086694954,0.052669112055189905
1789315941334308900,10.490308837890625,1.028809963774681,-2.399565233016014,-0.09842064500795676
1789315941344342000,10.500342041015625,1.3805267216712236,-2.685264919647574,-0.23784908077400177
1789315941354376000,10.5103759765625,1.280162559646368,-2.579709618720412,-0.15717053828155622
1789315941364409900,10.520409912109375,0.8068342690348624,-2.018926332017779,-0.18273067587055264
1789315941374442800,10.53044287109375,0.28756255789399143,-1.1198305433928966,-0.17533486653082073
1789315941384477000,10.540476806640624,-0.26454057874679565,-0.08884732723236083,0.050243629340780895
1789315941394511000,10.550510986328124,-0.228757902225852,0.5861445224523544,0.4825817105166614
1789315941404544800,10.560544677734375,0.46558629818260666,0.7651303857713937,0.8044901170615106
1789315941414578000,10.570577880859375,1.1250479857802391,0.648583735230565,0.968397726779431
1789315941424611800,10.58061181640625,1.3216940089523792,0.2362865441650152,0.7861765348009765
1789315941434646000,10.59064599609375,1.4347539864212273,-0.5748217489272356,0.6848133518014102
1789315941444678700,10.6006787109375,1.583386212530732,-1.493711202302575,0.7153413957297802
1789315941454712800,10.610712890625,1.6570535062879324,-1.552285556346178,0.34996764920689166
1789315941464747000,10.6207470703125,1.0740712472587823,-0.2163449953764677,-0.34479572646170853
1789315941474780700,10.63078076171875,1.8296692500531673,-0.45687809107005595,-0.6526322069037706
1789315941484813800,10.640813720703125,2.1113941878348585,-0.7989420544803142,-0.338261283191666
1789315941494847700,10.65084765625,1.446873463281989,0.015947510716319082,-0.13884747580662368
1789315941504882000,10.6608818359375,1.1366337941557167,0.5761942063242197,0.05429554421324283
1789315941514915000,10.6709150390625,1.8993588723510502,-0.24735154353678224,0.23779442797731606
1789315941524948700,10.68094873046875,1.6858301034390926,-0.8462304598778486,0.5233128762904554
1789315941534983000,10.69098291015625,1.3145575812011956,0.405317999702692,0.6752940475016832
1789315941545017000,10.70101708984375,-0.20771160706579683,1.4901637389540672,0.6635875353559851
1789315941555050000,10.711050048828126,-0.6847311534106731,2.29181329882741,0.7038258761115371
1789315941565084000,10.721083984375,-1.1486194155037401,3.468392149880528,1.0888234837759285
1789315941575117800,10.731117919921875,-1.4090952290296554,3.2584552679806946,1.2158799109585583
1789315941585151000,10.74115087890625,-0.8168921371906995,2.8762054246544837,1.200553016358614
1789315941595185000,10.751184814453126,-0.4122989446312189,2.5314982532590626,1.2160307906713337
1789315941605218800,10.76121875,-0.803709415012598,1.754875582614541,0.731299208644405
1789315941615253000,10.7712529296875,-2.5703198590844867,0.6959615724772215,-0.22343466137647627
1789315941625286000,10.781285888671874,-4.083245464944839,0.6163666422367096,-1.091888058978319
1789315941635320000,10.791320068359376,-3.933102249750495,0.8376666296720504,-1.747217469076812
1789315941645353700,10.801353759765625,-3.3258325216829774,1.0384849700927734,-1.850055181608349
1789315941655387000,10.811386962890625,-3.2137387588977813,1.2707564333975314,-1.5705826989285647
1789315941665420800,10.8214208984375,-2.710171981889009,1.345198803180456,-1.4678681743852793
1789315941675455000,10.831455078125,-2.474458269175887,1.4020166689455509,-0.8737714508194476
1789315941685489000,10.841489013671875,-3.025240970867872,1.6437030263274908,0.037432708750292656
1789315941695521800,10.851521728515625,-2.875002478605509,1.0846826576441526,0.39539932082183654
1789315941705556000,10.861555908203124,-2.602622876796126,0.30971359942555426,0.5526041449654847
1789315941715590000,10.87158984375,-1.4294681549727917,-0.3905886326044798,0.8620343243397772
1789315941725622800,10.881622802734375,-0.3643406771481037,-0.4165495878130197,0.8033311562847345
1789315941735657000,10.891656982421875,-0.3778045543551445,-0.5343932924270629,0.6619720629833639
1789315941745691000,10.90169091796875,-0.5299649545907974,-1.0737480066537857,-0.07189473112672568
1789315941755724800,10.911724853515626,-0.5237053096741437,-1.3352894035845995,-1.0943754918798803
1789315941765757700,10.9217578125,-0.3758873225569725,-1.1745090590417384,-1.6761393150299786
1789315941775791900,10.9317919921875,-0.0747282009869814,-0.7244061611950398,-1.7170060168169439
1789315941785826000,10.941825927734374,-0.061495209926366805,-0.3493418454587459,-1.79688663213104
1789315941795859000,10.95185888671875,0.1265676938176155,0.11714227834641933,-0.870579303714633
1789315941805892900,10.961892822265625,1.4871943677544592,0.25339842248558997,-0.05069160143714398
1789315941815926800,10.9719267578125,2.162360404962301,-0.33703298350572586,-0.6756460758097469
1789315941825961000,10.9819609375,0.811534994071722,0.0329436537027359,-0.6567124619547278
1789315941835993900,10.991993896484376,-1.0058242249846459,0.61412792339921,-0.43929545343257487
1789315941846027800,11.00202783203125,-0.9572060322880744,-0.31438509836792944,-0.8771513025160879
1789315941856062000,11.01206201171875,-0.9723743753254414,0.19533786318302154,-0.6594442980714142
1789315941866095900,11.022095947265624,-0.91096216750741,1.3713082269489765,0.11296792440437711
1789315941876129000,11.03212890625,-0.8389630992233753,1.4452870708733796,0.8530846366215497
1789315941886163000,11.042162841796875,-0.9920353536069393,0.9575397942870855,1.2509607228204607
1789315941896196900,11.05219677734375,-0.9154390206605195,0.5736018517434597,1.4505958448059857
1789315941906230000,11.06222998046875,-0.8938023583918809,-0.17056699454188345,1.2049359806831925
1789315941916264000,11.072263916015626,-1.3100918339639902,-0.42152503813803194,0.6844422534666955
1789315941926297900,11.0822978515625,-1.6434744782686233,-0.013277999246120453,0.4818792613357305
1789315941936332000,11.09233203125,-1.3211381286352872,0.41751697154045103,0.42207887262850996
1789315941946365000,11.102364990234374,-0.3834323311090469,0.636511604642868,0.22903094701357185
1789315941956398800,11.11239892578125,0.004365209472179413,0.7940648038327693,-0.0916475432769861
1789315941966432800,11.122432861328125,-0.37596272588074203,0.9529466212779283,-0.1360123163127806
1789315941976466000,11.1324658203125,0.09390811775326728,1.0708517006903886,-0.43285760240480303
1789315941986499800,11.142499755859374,0.2268412549495697,0.6837059020161629,-0.8268589660622179
1789315941996533800,11.15253369140625,-0.6254635564059019,0.34629239476025103,-0.7684474744301288
1789315942006568000,11.16256787109375,-0.6718243255645037,-0.03824117558896541,-0.6051661068517714
1789315942016600800,11.172600830078125,0.161768771058321,-0.2370838320225477,-0.6700161070987581
1789315942026635000,11.182635009765624,1.1226882709115742,-0.29104455479085445,-0.8916714107777923
1789315942036668700,11.192668701171876,0.8463841891348362,-0.06289046367704867,-1.0607193790588527
1789315942046701800,11.202701904296875,0.2946107228398323,-0.0023421792119741438,-1.0446269799791277
1789315942056736000,11.212736083984375,0.1346188983261585,0.08897007682919501,-0.8381438187297433
1789315942066770000,11.22277001953125,0.8489256903111935,0.034085224953293795,-0.7669600123513489
1789315942076803800,11.232803955078126,1.098083991008997,-0.03285772898495197,-0.3680452307544648
1789315942086836700,11.242836669921875,1.4329261864721774,-0.03289163125455379,-0.05368797024153173
1789315942096870700,11.25287060546875,1.292721596968174,-0.4489157338887453,0.48784975058007984
1789315942106904600,11.262904541015626,1.049899513554573,-0.7272545363634825,0.9120741473373025
1789315942116937700,11.272937744140625,0.3754156133919954,-0.8641910639822482,0.9123469729293138
1789315942126971400,11.282971435546875,0.10113748448491096,-0.7533259662091731,1.016215562878549
1789315942137005600,11.293005615234375,1.0579477954536676,-0.2641290753364563,1.0444127527065574
1789315942147039700,11.303039794921874,1.4560732533037661,0.21065525930225848,0.5894925907712429
1789315942157072600,11.31307275390625,0.9975094011038541,0.4211205489903688,-0.0333024588114582
1789315942167106600,11.3231064453125,0.6778191820651293,0.5043634803444147,-0.19827064696559682
1789315942177140700,11.333140625,0.028964228677749632,0.1457645617187023,0.0006718531132675707
1789315942187173600,11.343173583984376,-0.6172045543655753,-0.38270693944394585,-0.07241650824481621
1789315942197207800,11.353207763671875,-1.0014008555844425,-1.0832459028393029,-0.17018022371400146
1789315942207241500,11.363241455078125,-0.6455337000101804,-1.6688702008098364,-0.44629137673452496
1789315942217275600,11.373275634765625,-0.06660802289545535,-1.9136627075135706,-0.7887262923490256
1789315942227308500,11.38330859375,0.38718379259705543,-1.9836527740627525,-1.097016946299374
1789315942237342700,11.3933427734375,0.7088134552657603,-1.994228528612852,-0.8714545521792024
1789315942247376600,11.403376708984375,0.8153092519134283,-2.0106044938743115,-0.29368622840605674
1789315942257409500,11.413409423828124,0.47487405874878164,-2.095509220960736,-0.09632633960982784
1789315942267443700,11.423443603515626,0.033173955327272416,-1.964287563857436,0.2939946185017936
1789315942277477400,11.433477294921875,-0.1898795977771282,-1.6402046628177165,0.6159039931610226
1789315942287511600,11.443511474609375,-0.3158876118853688,-1.1018243465811013,0.40574269138816743
1789315942297544400,11.45354443359375,-0.4056821568399667,-0.5271919827461242,0.25037279105409976
1789315942307578600,11.46357861328125,-0.3620487668186426,0.07221884851455689,0.09168664231151342
1789315942317612500,11.473612548828125,-0.21401684468984603,0.5821101523697376,0.019238163459277712
1789315942327645400,11.4836455078125,-0.15265285992771385,0.9645353522628545,-0.07486907989555038
1789315942337679600,11.4936796875,-0.14876432805657386,1.200816051208973,0.020337192476051858
1789315942347713800,11.5037138671875,-0.2346054592102766,0.8791197530448436,0.14738371475259773
1789315942357747500,11.51374755859375,-0.3015270780995488,0.2196475440531969,0.1015026828018017
1789315942367780600,11.523780517578125,-0.03332125484347343,-0.386790993887186,0.038479222128540276
1789315942377814500,11.533814453125,0.20225918687880037,-0.7805600100934506,0.3907727204671129
1789315942387848700,11.5438486328125,0.13296060972511767,-0.8329074524462222,0.6727937551185488
1789315942397882600,11.553882568359375,-0.2582493696480989,-0.6988876890569925,0.658621145120263
1789315942407915500,11.56391552734375,-0.4836749125808477,-0.588571457338333,0.42670832252744584
1789315942417949700,11.57394970703125,-0.652589756001532,-0.49061435645520685,0.6574841039143502
1789315942427983600,11.583983642578126,-0.5356517680555581,-0.3880149827241897,0.9475150977484881
1789315942438016800,11.594016845703125,-0.07548077291995287,-0.44198914949595924,0.8467256960488855
1789315942448050400,11.604050537109375,0.3343891909986734,-0.8119815687954426,0.7272060941118746
1789315942458084600,11.614084716796874,0.7162374677866696,-1.290596859899163,0.972002400207892
1789315942468118800,11.624118896484376,0.9887129311859607,-1.6672849774450063,1.1205506743609905
1789315942478151700,11.634151611328125,1.2195026315003632,-1.8826327784776686,1.2152543994713574
1789315942488185600,11.644185546875,1.41926941704154,-1.8363854065656662,1.3353373343795538
1789315942498219500,11.654219482421874,1.344087042546272,-1.4276093753635883,1.4439916242353616
1789315942508252700,11.664252685546876,0.7112853983372449,-1.000278865817189,1.2559065086595713
1789315942518286600,11.67428662109375,0.008221884900331497,-0.4760194293916225,0.9203142254814505
1789315942528320500,11.684320556640625,-0.30870705273151394,-0.004898877957463264,0.7709015165187418
1789315942538354700,11.694354736328124,-0.6761644005954265,0.13781915567219258,0.6886386822432279
1789315942548387600,11.7043876953125,-0.7881488577872514,-0.01405190622806549,0.7026328669346869
1789315942558421500,11.71442138671875,-0.8595844469696283,-0.4659790968924761,0.8386696692347526
1789315942568455700,11.72445556640625,-0.9482540795475244,-1.2117992175161838,0.9255245074756443
1789315942578488600,11.734488525390624,-0.886674113947153,-1.8335498908787964,0.8101239582300186
1789315942588522800,11.744522705078126,-0.3975368443071842,-2.43836462700963,0.9697397890381515
1789315942598556400,11.754556396484375,0.11093056422471999,-2.6155747128278017,1.0729850594572723
1789315942608590600,11.764590576171875,0.30229777021110055,-2.1401871515989304,0.9782891523271798
1789315942618623500,11.77462353515625,-0.14141864146888256,-1.0363421128451824,0.9844092426426708
1789315942628657700,11.78465771484375,-0.7001917573928833,0.45028994485139845,1.4405097734689711
1789315942638691600,11.794691650390625,-0.9650526541352271,1.741162114560604,1.717295501282811
1789315942648725500,11.8047255859375,-0.7621300349116324,2.1602917819947005,1.8298478214904665
1789315942658758700,11.814758544921874,-0.30992285826206206,1.7148861020535229,2.2006591559574007
1789315942668792600,11.82479248046875,0.6459633235991,0.4280997403532266,2.258603979925811
1789315942678826500,11.834826416015625,1.6101403639435767,-1.427313022765517,1.4630435307078062
1789315942688859600,11.844859619140625,1.5902379781216383,-2.377635140758753,1.0835935472331941
1789315942698893600,11.8548935546875,1.4611305366933345,-3.4750983695209023,1.1939638472266494
1789315942708927700,11.864927734375,0.7331774966716766,-4.298488636559248,0.9201711637489497
1789315942718961400,11.87496142578125,-0.42508886809945107,-3.7113387364566326,0.2739363297320902
1789315942728994600,11.88499462890625,-1.4040841228693723,-2.1096721863478423,0.3937536725066602
1789315942739028700,11.89502880859375,-1.8934189609080552,-0.5841127243638038,0.6091635789901018
1789315942749062700,11.905062744140626,-1.2843401375919579,0.12787468476295472,0.8502110539466142
1789315942759095600,11.915095458984375,-0.02891512883901596,-0.029172902992367744,0.835293178538978
1789315942769129500,11.92512939453125,0.4223299247801304,-0.8078484145134687,0.6538511542394757
1789315942779163600,11.93516357421875,-0.08194763084650039,-1.7983166649341582,0.12247107215374707
1789315942789197600,11.945197509765626,-0.678407211086154,-1.9487872123867271,-0.7454783214487135
1789315942799230500,11.95523046875,-1.367114866912365,-1.2308546311199664,-1.0056367395885288
1789315942809264600,11.9652646484375,-1.3954115715920925,-1.4249322651088236,-1.0098284921899436
1789315942819298600,11.975298583984374,-1.4906903931766748,-1.554282867643237,-0.9158405871987342
1789315942829331700,11.985331787109375,-1.9978648392885923,-1.1695511443734168,-0.7596456707499921
1789315942839365400,11.995365478515625,-2.6629122180640694,-0.5967927577167749,-0.42324367862418294
1789315942849399600,12.005399658203125,-2.5447780060708522,0.35456045688986776,-0.26464038585945965
1789315942859433700,12.015433837890624,-1.9179414077460766,1.3492267435222864,0.18674889853596685
1789315942869466600,12.025466552734375,-1.820512714651227,1.913915805491805,0.5873468839794397
1789315942879500500,12.03550048828125,-1.5318869114398956,2.1985750431597233,0.6110717506989837
1789315942889534700,12.04553466796875,-2.068875481057167,2.303641683787107,0.6658411595016718
1789315942899567600,12.055567626953126,-2.8678303950190545,1.5597446401804684,1.4266618653804064
1789315942909601800,12.065601806640625,-2.470560677215457,0.7702735938787459,1.6053711037151515
1789315942919635500,12.075635498046875,-2.1814865457147357,1.2800959241509438,1.1092659678239374
1789315942929669600,12.085669677734375,-2.197374435198307,1.9596645802319048,0.7589563733115792
1789315942939702500,12.09570263671875,-2.062987592062354,2.4316876334637403,0.719835346148163
1789315942949736700,12.10573681640625,-1.9535744466632603,3.051327013760805,0.8142924760863185
1789315942959770600,12.1157705078125,-1.550633112964034,2.746787017580867,0.7300274351429193
1789315942969804500,12.125804443359375,-1.0496259573101996,1.7572428962677715,0.7540591027893125
1789315942979837700,12.135837646484376,-0.3375467782467603,0.8426631227850914,0.7469400645643473
1789315942989871600,12.14587158203125,0.5016220726817846,0.061439680346846576,0.7298198568068445
1789315942999905500,12.155905517578125,0.46904374516010283,0.12673428255617616,0.395813966037333
1789315943009938400,12.1659384765625,0.10146014056801796,0.6262906548798084,0.08862615876235068
1789315943019972600,12.17597265625,0.23079613005518912,0.166953480219841,0.17128179174773395
1789315943030006500,12.186006591796875,0.355056131452322,-0.7420856102705001,0.3424989207614213
1789315943040040400,12.19604052734375,0.16939327458739278,-0.9812789817929267,0.5587880942974239
1789315943050073600,12.206073486328124,0.0021130466312170026,-0.9304974735826254,0.8551829240750521
1789315943060107800,12.216107666015626,-0.045890813559293746,-0.9963947178602218,0.8895585833422839
1789315943070141400,12.226141357421875,-0.06994155123233795,-1.17165308508873,0.5203803299698978
1789315943080174600,12.236174560546875,-0.48015199915170664,-1.0195388620823622,0.31344628314785655
1789315943090208500,12.24620849609375,-0.8086135536670684,-0.736477707260847,0.31172318568229673
1789315943100242700,12.25624267578125,-0.7933663001745939,-0.6725760207146406,0.14037293180823326
1789315943110276400,12.2662763671875,-1.002742625582218,-0.5438514411240816,-0.010677096032723784
1789315943120309500,12.2763095703125,-1.3266530926644802,-0.2884761656075716,0.16400785522200167
1789315943130343400,12.286343505859374,-0.8138608066707849,-0.08978139321208,0.3317281916284934
1789315943140377600,12.296377685546876,-0.6322188758850097,-0.02547229490876198,0.04163308304958045
1789315943150411500,12.30641162109375,-1.628734005254507,0.3348778512984514,-0.15694701345767825
1789315943160444400,12.3164443359375,-1.411838974779844,0.6395061102837324,-0.006003660861589014
1789315943170478600,12.326478515625,-2.0550959620296956,1.0368377874076367,0.4549077043125406
1789315943180512500,12.336512451171876,-2.418414894914627,1.483172272631526,0.8347372982218861
1789315943190545700,12.346545654296875,-1.7564806797236203,1.542953079855442,0.8706671281285584
1789315943200579300,12.356579345703125,-0.12125731244981289,1.1280161879360675,0.9289778627999127
1789315943210613500,12.366613525390624,-0.2401122399330139,0.7097860996901989,0.9575234276741742
1789315943220647700,12.376647705078126,-0.09306406814455985,0.46608547987639903,0.8990374095011502
1789315943230680600,12.3866806640625,-0.5464285981357098,0.1194657528579235,0.9603358547464013
1789315943240714500,12.396714599609375,-1.4049988996267317,0.12197276724278926,1.115119077766314
1789315943250748400,12.40674853515625,-0.6563333264440298,0.05836860233843326,1.0492297975994647
1789315943260782600,12.416782470703126,0.851682880064845,-0.14135609762668608,0.9236538912981748
1789315943270815500,12.4268154296875,0.7589525739192963,-0.4989864634811878,1.3711411998189984
1789315943280849400,12.436849365234375,0.7767594487667083,-0.7333078450530767,1.6390695213079451
1789315943290883600,12.446883544921874,0.6943471230179071,-1.1491069067597388,1.1701195188459008
1789315943300916500,12.45691650390625,0.2797270419627428,-1.586359090861678,0.7699589749716221
1789315943310950400,12.466950439453125,0.008692425021529197,-1.9357278243273495,1.0344823833879082
1789315943320984600,12.476984619140625,0.6094611006319522,-2.222193819156289,1.0820929334118963
1789315943331018500,12.4870185546875,1.661414624106884,-2.8752357028394937,0.5906967789292336
1789315943341051600,12.4970517578125,2.08371590731442,-3.7814082979828116,0.592106463064067
1789315943351085300,12.507085205078125,1.592970617955923,-4.501980580103397,0.8822859619908034
1789315943361119500,12.517119384765625,1.1893383793830872,-4.817147184237838,0.529247746232152
1789315943371152400,12.52715234375,0.8027911311239003,-4.657060082656145,0.3462335407124832
1789315943381186600,12.5371865234375,0.3925742534637451,-4.063488040551543,0.6496153433006256
1789315943391220500,12.547220458984375,-0.16855039402246474,-3.3193250394850966,0.8293737253621221
1789315943401254400,12.55725439453125,-0.6674865886211395,-2.4790514421850443,0.6211524152085185
1789315943411287600,12.56728759765625,-0.8877005343854427,-1.633430054116249,-0.08675444660633802
1789315943421321500,12.577321533203126,-1.0447586435347795,-0.9108119453817606,-0.7558272815056145
1789315943431355400,12.58735546875,-0.9929822790682316,-0.2813824079543352,-1.0576767234273254
1789315943441389600,12.5973896484375,-0.83608199082911,0.27692776663303376,-1.1651401960633694
1789315943451422500,12.60742236328125,-0.8995043694257736,0.6621773762971163,-0.9861310249339789
1789315943461456600,12.61745654296875,-0.8892606233090162,1.0263327600061893,-0.6798980341657995
1789315943471490600,12.627490478515625,-0.745871850810945,1.2813789496988057,-0.652708267814666
1789315943481523500,12.6375234375,-0.7569596465364098,1.434683843794465,-0.39458376665525136
1789315943491557600,12.6475576171875,-0.8946060759902,1.4082424115926027,-0.19987126882895825
