time,seconds_elapsed,z,y,x
1789315930919344600,0.0753447265625,-0.22312429547309875,-0.6908120512962341,0.27708426117897034
1789315930929378600,0.085378662109375,-0.18956632912158966,-0.6564798951148987,0.23320041596889496
1789315930939411700,0.09541162109375,-0.19518493115901947,-0.6323490738868713,0.1970604956150055
1789315930949445400,0.1054453125,-0.2597639560699463,-0.5954824090003967,0.17263929545879364
1789315930959479600,0.1154794921875,-0.3565594255924225,-0.587391197681427,0.14799481630325317
1789315930969512700,0.1255126953125,-0.4712361991405487,-0.6773431897163391,0.12337017059326172
1789315930979546600,0.135546630859375,-0.5995020270347595,-0.8153138756752014,0.11635243147611618
1789315930989580500,0.14558056640625,-0.7145878672599792,-0.8853211998939514,0.12193335592746735
1789315930999613400,0.155613525390625,-0.7919821739196777,-0.8136009573936462,0.133837029337883
1789315931009647600,0.165647705078125,-0.8369531035423279,-0.6397058367729187,0.1430494338274002
1789315931019681800,0.175681884765625,-0.8087011575698853,-0.4438990354537964,0.1726713627576828
1789315931029715500,0.185715576171875,-0.7435038089752197,-0.24369747936725616,0.1926615834236145
1789315931039748600,0.19574853515625,-0.6629958748817444,-0.07592017203569412,0.2114340364933014
1789315931049782500,0.205782470703125,-0.5834270119667053,0.013979627750813961,0.234906867146492
1789315931059816700,0.215816650390625,-0.5090574026107788,0.04089491069316864,0.2538774609565735
1789315931069849600,0.225849609375,-0.4674715995788574,0.016551490873098373,0.2692364454269409
1789315931079883500,0.235883544921875,-0.47004449367523193,-0.08125778287649155,0.26675960421562195
1789315931089917700,0.245917724609375,-0.4928038716316223,-0.26498499512672424,0.26489323377609253
1789315931099950600,0.25595068359375,-0.5441383719444275,-0.41213858127593994,0.24684014916419983
1789315931109984500,0.265984619140625,-0.6345350742340088,-0.49250027537345886,0.22516681253910065
1789315931120018400,0.276018310546875,-0.741245687007904,-0.5404641032218933,0.231155127286911
1789315931130051600,0.286051513671875,-0.8170903921127319,-0.5252510905265808,0.2688028812408447
1789315931140085800,0.296085693359375,-0.8567001223564148,-0.4450138211250305,0.30660465359687805
1789315931150119400,0.306119384765625,-0.8803988099098206,-0.3126102387905121,0.3358544111251831
1789315931160152600,0.316152587890625,-0.8765695691108704,-0.2704032361507416,0.36481785774230957
1789315931170186500,0.3261865234375,-0.8628602027893066,-0.3236115872859955,0.37188535928726196
1789315931180220700,0.336220703125,-0.7885530591011047,-0.33060455322265625,0.3202555179595947
1789315931190253600,0.346253662109375,-0.6501086354255676,-0.2684812545776367,0.20484742522239685
1789315931200287500,0.35628759765625,-0.4976995587348938,-0.22117334604263306,0.031115906313061714
1789315931210321700,0.36632177734375,-0.32223933935165405,-0.2536151707172394,-0.14612998068332672
1789315931220354600,0.3763544921875,-0.17324693500995636,-0.4530777335166931,-0.25551795959472656
1789315931230388700,0.386388671875,-0.12115150690078735,-0.8538110256195068,-0.24171504378318787
1789315931240422400,0.39642236328125,-0.15573495626449585,-1.4017932415008545,-0.083793506026268
1789315931250455600,0.40645556640625,-0.2185639888048172,-1.8915523290634155,0.17133785784244537
1789315931260489700,0.41648974609375,-0.2842898666858673,-2.12066912651062,0.44629383087158203
1789315931270523600,0.426523681640625,-1.007692575454712,-1.6555981636047363,0.8776894211769104
1789315931280557600,0.4365576171875,-1.5904614925384521,-1.1471312046051025,1.2461603879928589
1789315931290590500,0.446590576171875,-2.0791075229644775,-0.9772942662239075,1.3528239727020264
1789315931300624600,0.456624755859375,-2.135052442550659,-1.4154026508331299,1.1532347202301025
1789315931310658800,0.466658935546875,-1.9235241413116455,-1.923483967781067,0.9490535855293274
1789315931320691700,0.476691650390625,-1.572931170463562,-2.187880277633667,0.903905987739563
1789315931330725600,0.4867255859375,-1.1942996978759766,-2.3472063541412354,0.9562333226203918
1789315931340759600,0.496759521484375,-0.8676878213882446,-2.45324969291687,1.0724278688430786
1789315931350792700,0.506792724609375,-0.6455274224281311,-2.574979782104492,1.1706342697143555
1789315931360826400,0.516826416015625,-0.5039332509040833,-2.604684829711914,1.2700531482696533
1789315931370860500,0.526860595703125,-0.45072007179260254,-2.0436136722564697,1.0876485109329224
1789315931380893700,0.536893798828125,-0.3629794716835022,-0.7302430272102356,0.5126224160194397
1789315931390927600,0.546927734375,-0.04070316255092621,0.4670417606830597,0.30102863907814026
1789315931400961500,0.55696142578125,0.029477884992957115,1.0313462018966675,0.4629066586494446
1789315931410994400,0.566994384765625,-0.20200833678245544,0.7948030829429626,0.6725701689720154
1789315931421028600,0.577028564453125,-0.18731093406677246,0.3954254686832428,0.6461599469184875
1789315931431062800,0.587062744140625,0.1266975849866867,0.260240763425827,0.4259147047996521
1789315931441095700,0.597095703125,0.34697040915489197,0.34944653511047363,0.13984723389148712
1789315931451129600,0.607129638671875,0.3915639817714691,0.25728198885917664,-0.19028326869010925
1789315931461163500,0.61716357421875,0.617737889289856,0.45731601119041443,-0.6482180953025818
1789315931471196700,0.62719677734375,0.7749711871147156,0.3943370282649994,-1.142769455909729
1789315931481230600,0.637230712890625,0.8469520211219788,0.04878687858581543,-1.4621165990829468
1789315931491264500,0.647264404296875,0.9983798861503601,-0.05741466209292412,-1.5435068607330322
1789315931501297700,0.657297607421875,0.9870001673698425,-0.1919061839580536,-1.3426908254623413
1789315931511331600,0.66733154296875,0.8226135969161987,-0.36134395003318787,-0.8546414375305176
1789315931521365800,0.67736572265625,0.4925794005393982,-0.5456226468086243,-0.16569434106349945
1789315931531398700,0.687398681640625,0.07876120507717133,-0.5134639143943787,0.5823612213134766
1789315931541432600,0.6974326171875,-0.1489662230014801,-0.4641575813293457,1.0359687805175781
1789315931551466800,0.707466796875,-0.24015285074710846,-0.4977741539478302,1.0832315683364868
1789315931561499600,0.717499755859375,-0.23463678359985352,-0.4854251742362976,0.9009819626808167
1789315931571533600,0.727533447265625,-0.15457949042320251,-0.36332347989082336,0.5811414122581482
1789315931581567500,0.7375673828125,-0.049527037888765335,-0.25316014885902405,0.23821808397769928
1789315931591600600,0.7476005859375,0.03781825304031372,-0.3077682852745056,0.0505368709564209
1789315931601634600,0.757634521484375,0.09291358292102814,-0.4224465787410736,-0.018132131546735764
1789315931611668500,0.76766845703125,0.1646793782711029,-0.3743102252483368,-0.03317366540431976
1789315931621702700,0.77770263671875,0.22870059311389923,-0.09099496901035309,-0.04590551182627678
1789315931631735600,0.787735595703125,0.2845534682273865,0.3252560496330261,-0.23544801771640778
1789315931641769700,0.797769775390625,0.35667023062705994,0.5413411259651184,-0.4820120334625244
1789315931651803400,0.807803466796875,0.38118648529052734,0.48859667778015137,-0.6089848875999451
1789315931661836500,0.81783642578125,0.28526124358177185,0.44248154759407043,-0.5710687041282654
1789315931671870700,0.82787060546875,0.11794070154428482,0.5539460182189941,-0.36289554834365845
1789315931681904600,0.837904541015625,-0.031594522297382355,0.679347574710846,-0.053710900247097015
1789315931691937800,0.847937744140625,-0.1987992227077484,0.7591404318809509,0.20526713132858276
1789315931701971500,0.857971435546875,-0.419784277677536,0.8910883665084839,0.23098459839820862
1789315931712005600,0.868005615234375,-0.8497337698936462,1.1774277687072754,-0.10301841795444489
1789315931722038500,0.87803857421875,-1.0439040660858154,1.5278736352920532,-0.5634322762489319
1789315931732072700,0.88807275390625,-1.0319254398345947,1.4361320734024048,-0.9126696586608887
1789315931742106600,0.898106689453125,-0.902976393699646,0.5382990837097168,-1.0570852756500244
1789315931752139500,0.908139404296875,-0.4613609313964844,-0.2183491438627243,-0.9553884863853455
1789315931762173700,0.918173583984375,-0.014519419521093369,-0.657018780708313,-0.9413938522338867
1789315931772207600,0.92820751953125,0.27057039737701416,-1.0472757816314697,-1.087588906288147
1789315931782240500,0.938240478515625,0.39137646555900574,-1.3087455034255981,-1.3301670551300049
1789315931792274400,0.9482744140625,0.5295103788375854,-1.3439176082611084,-1.5389764308929443
1789315931802308600,0.95830859375,0.8315095901489258,-1.1698499917984009,-1.5591280460357666
1789315931812341800,0.968341796875,1.0052257776260376,-0.5461821556091309,-1.1508241891860962
1789315931822375400,0.97837548828125,1.4176790714263916,-0.043292656540870667,-0.5303041934967041
1789315931832409600,0.98840966796875,1.6366063356399536,-0.4206961393356323,-0.41060173511505127
1789315931842442500,0.9984423828125,1.383975863456726,-0.8396458029747009,-0.7068213820457458
1789315931852476700,1.0084765625,1.024211049079895,-0.6072282791137695,-0.8297337293624878
1789315931862510600,1.018510498046875,0.7672138214111328,-0.020539481192827225,-0.7048889994621277
1789315931872543500,1.02854345703125,0.7244157791137695,0.3768653869628906,-0.49894699454307556
1789315931882577700,1.03857763671875,0.8388975262641907,-0.07560231536626816,-0.3040602207183838
1789315931892611600,1.048611572265625,1.068640947341919,-1.169987678527832,-0.12332185357809067
1789315931902644700,1.058644775390625,1.360252857208252,-1.9503105878829956,0.01710538938641548
1789315931912678400,1.068678466796875,1.5456397533416748,-1.3756414651870728,0.16603069007396698
1789315931922712600,1.078712646484375,1.3840376138687134,-0.2152835577726364,0.4019449055194855
1789315931932745700,1.088745849609375,0.8391945362091064,-1.3980457782745361,0.6276648640632629
1789315931942779600,1.098779541015625,-0.5324275493621826,-0.9823089241981506,0.1626053750514984
1789315931952813600,1.1088134765625,-1.930951476097107,-0.4932135343551636,-0.9584307074546814
1789315931962847700,1.11884765625,-2.3546335697174072,-0.032023388892412186,-1.889873743057251
1789315931972880600,1.128880615234375,-2.110851526260376,0.4077313244342804,-2.2894623279571533
1789315931982914600,1.13891455078125,-1.4670664072036743,0.237196147441864,-2.4428679943084717
1789315931992948500,1.148948486328125,-0.30720484256744385,-0.28536292910575867,-2.8781425952911377
1789315932002981600,1.158981689453125,0.6533301472663879,-1.019311785697937,-3.5975992679595947
1789315932013015600,1.169015625,1.1587965488433838,-2.0248191356658936,-4.2583327293396
1789315932023049500,1.179049560546875,1.0251247882843018,-2.9095253944396973,-4.718575477600098
1789315932033082400,1.189082275390625,0.46099433302879333,-3.3419992923736572,-5.279081344604492
1789315932043116500,1.199116455078125,-0.24229098856449127,-3.335855722427368,-6.0829925537109375
1789315932053150700,1.209150634765625,-0.6907563805580139,-3.0390660762786865,-7.103261470794678
1789315932063183600,1.21918359375,-0.7747565507888794,-2.9359939098358154,-8.07260799407959
1789315932073217500,1.229217529296875,-0.805573582649231,-3.1383609771728516,-8.846317291259766
1789315932083251700,1.239251708984375,-1.086328387260437,-2.9855034351348877,-9.242647171020508
1789315932093284600,1.24928466796875,-1.7181899547576904,-2.899275064468384,-9.136879920959473
1789315932103318800,1.25931884765625,-2.6779673099517822,-3.019104480743408,-8.805906295776367
1789315932113352400,1.2693525390625,-3.5007565021514893,-2.952216863632202,-8.696538925170898
1789315932123385600,1.279385498046875,-3.806833267211914,-2.635038137435913,-8.67877197265625
1789315932133419800,1.289419677734375,-3.9721884727478027,-2.204240560531616,-8.039525032043457
1789315932143453700,1.29945361328125,-3.9170825481414795,-2.5568997859954834,-6.116204738616943
1789315932153486800,1.30948681640625,-3.7030653953552246,-3.437462568283081,-3.970130681991577
1789315932163520500,1.3195205078125,-3.227761745452881,-4.330013275146484,-2.858698606491089
1789315932173554700,1.3295546875,-2.322929859161377,-5.482728004455566,-2.284926652908325
1789315932183587600,1.339587646484375,-1.39798903465271,-6.170070171356201,-2.079535484313965
1789315932193621800,1.349621826171875,-0.7408220171928406,-6.086048126220703,-1.9965076446533203
1789315932203655700,1.35965576171875,-0.4239627420902252,-5.233522891998291,-1.8050622940063477
1789315932213688600,1.3696884765625,-0.11802517622709274,-4.16398811340332,-1.523432731628418
1789315932223722800,1.37972265625,0.31310755014419556,-2.974320888519287,-1.4199984073638916
1789315932233756400,1.38975634765625,0.5548021793365479,-1.114938497543335,-0.9612653851509094
1789315932243789600,1.39978955078125,0.5700050592422485,0.24685463309288025,-0.3071516752243042
1789315932253823500,1.409823486328125,0.7037239670753479,0.7756803631782532,0.17653563618659973
1789315932263857700,1.419857666015625,0.9833376407623291,0.9283825755119324,0.45288875699043274
1789315932273890800,1.429890869140625,1.345345139503479,0.6874048709869385,0.6366119980812073
1789315932283924500,1.439924560546875,1.5918203592300415,-0.1450621485710144,0.8268819451332092
1789315932293958700,1.449958740234375,1.8098728656768799,-0.9558863043785095,0.8507859706878662
1789315932303991600,1.459991455078125,2.127758741378784,-1.7686166763305664,0.6055701971054077
1789315932314025700,1.470025634765625,2.6877822875976562,-2.520897388458252,0.26359742879867554
1789315932324059600,1.4800595703125,3.62784481048584,-2.6279513835906982,0.02351333014667034
1789315932334092500,1.490092529296875,4.804505825042725,-3.4635074138641357,-0.7020524144172668
1789315932344126700,1.500126708984375,4.4874467849731445,-3.1706595420837402,-0.8224995732307434
1789315932354160600,1.51016064453125,4.049454689025879,-1.7078160047531128,-0.28503289818763733
1789315932364193800,1.52019384765625,3.4374988079071045,-1.5672987699508667,-0.14242413640022278
1789315932374227500,1.5302275390625,2.5363190174102783,-1.6921117305755615,-0.06541590392589569
1789315932384261600,1.54026171875,1.9609977006912231,-1.3810104131698608,0.29897621273994446
1789315932394294800,1.550294677734375,1.7794671058654785,0.02017313614487648,-0.4876589775085449
1789315932404328700,1.56032861328125,2.19171404838562,0.04648032411932945,-1.2603613138198853
1789315932414362600,1.570362548828125,2.255124807357788,1.0416804552078247,-1.8294847011566162
1789315932424395500,1.5803955078125,2.322840690612793,2.081876754760742,-2.236975908279419
1789315932434429700,1.5904296875,2.5428178310394287,0.21438869833946228,-2.3160152435302734
1789315932444463600,1.600463623046875,1.397629976272583,0.46401363611221313,-1.4280309677124023
1789315932454496500,1.61049658203125,0.4218080937862396,1.0767492055892944,0.2401001751422882
1789315932464530700,1.62053076171875,-0.012682541273534298,0.8744983077049255,1.3296542167663574
1789315932474564600,1.630564697265625,-0.1823754459619522,0.9328777194023132,1.51632559299469
1789315932484598500,1.6405986328125,-0.17367783188819885,1.0800178050994873,1.4334077835083008
1789315932494631400,1.65063134765625,-0.255823016166687,1.235159993171692,1.443047285079956
1789315932504665600,1.66066552734375,-0.3011202812194824,1.5597481727600098,1.528258204460144
1789315932514699800,1.67069970703125,-0.07777746021747589,2.073901414871216,1.5162148475646973
1789315932524732700,1.680732666015625,0.6458505988121033,2.1925134658813477,1.563581109046936
1789315932534766600,1.6907666015625,1.3347560167312622,1.929248571395874,1.623718023300171
1789315932544800500,1.700800537109375,1.6125463247299194,1.4639942646026611,1.5155725479125977
1789315932554833700,1.710833740234375,1.4862607717514038,1.299769639968872,1.1616146564483643
1789315932564867800,1.720867919921875,1.224368691444397,1.4687259197235107,0.7277270555496216
1789315932574901500,1.730901611328125,1.0627281665802002,1.5356206893920898,0.37253832817077637
1789315932584934700,1.7409345703125,0.930648684501648,1.3800415992736816,0.05430879443883896
1789315932594968600,1.750968505859375,0.985327422618866,1.319198489189148,-0.030139775946736336
1789315932605002800,1.761002685546875,0.8201248049736023,0.8600795269012451,-0.07041008770465851
1789315932615035600,1.77103564453125,0.37505653500556946,0.9150684475898743,-0.6636515855789185
1789315932625069600,1.781069580078125,0.13376328349113464,3.6791059970855713,-1.9993348121643066
1789315932635103700,1.791103759765625,0.039110273122787476,3.6269805431365967,-2.1386728286743164
1789315932645136600,1.80113671875,-0.13305805623531342,2.6826932430267334,-1.1391063928604126
1789315932655170600,1.811170654296875,-0.029799554497003555,1.2085185050964355,-0.20752708613872528
1789315932665203500,1.821203369140625,0.5266982913017273,-0.24263183772563934,-0.2970596253871918
1789315932675237600,1.831237548828125,0.9900492429733276,0.08967947214841843,-0.84738689661026
1789315932685271800,1.841271728515625,0.7725920081138611,0.3069809079170227,-1.0937719345092773
1789315932695878700,1.851878662109375,0.3433769941329956,0.7980776429176331,-1.4808075428009033
1789315932715372500,1.87137255859375,0.7910700440406799,0.7243913412094116,-1.7697845697402954
1789315932725405700,1.88140576171875,1.0677884817123413,0.412016898393631,-1.5229912996292114
1789315932735439600,1.891439697265625,1.0869455337524414,0.3091931641101837,-1.1601356267929077
1789315932745473500,1.9014736328125,0.8912625312805176,0.5070841908454895,-0.9552304148674011
1789315932755506700,1.911506591796875,0.7361142039299011,0.5906305909156799,-0.8627417683601379
1789315932765540600,1.92154052734375,0.3722316026687622,0.17024369537830353,-0.5277203321456909
1789315932775574800,1.93157470703125,0.4001443386077881,-0.3836548328399658,-0.222999706864357
1789315932785607700,1.941607666015625,1.0079264640808105,-0.7708342671394348,-0.4859543740749359
1789315932795641600,1.9516416015625,1.8393880128860474,-0.8164393305778503,-0.7435176372528076
1789315932805675800,1.96167578125,2.4759442806243896,0.11900048702955246,-0.43935346603393555
1789315932815708700,1.971708740234375,3.143078088760376,-0.02922556921839714,0.3711487948894501
1789315932825742800,1.981742919921875,3.7588157653808594,0.14189238846302032,0.04333869367837906
1789315932835776500,1.991776611328125,4.011058807373047,-0.20444773137569427,-0.5036971569061279
1789315932845809700,2.0018095703125,4.118691921234131,-0.8999421000480652,-0.8273820281028748
1789315932855843600,2.011843505859375,4.075709342956543,-1.8509001731872559,-0.8647500872612
1789315932865877500,2.02187744140625,3.726564645767212,-2.8127388954162598,-0.6711297631263733
1789315932875910400,2.031910400390625,3.298027276992798,-3.76859450340271,-0.38880184292793274
1789315932885944600,2.041944580078125,2.976576805114746,-4.074079513549805,-0.29285427927970886
1789315932895978800,2.051978759765625,2.4751641750335693,-4.3909430503845215,-0.40659070014953613
1789315932906012400,2.062012451171875,1.9081822633743286,-4.727516174316406,-0.41367578506469727
1789315932916045600,2.072045654296875,1.3488596677780151,-5.163291931152344,-0.36786916851997375
1789315932926079700,2.082079833984375,0.8271408081054688,-5.286479949951172,-0.3437422513961792
1789315932936113700,2.09211376953125,-0.07785769551992416,-3.6147217750549316,-0.5207871198654175
1789315932946146800,2.102146728515625,-1.1951344013214111,-2.218108892440796,-0.7882329225540161
1789315932956180500,2.112180419921875,-2.149975061416626,-1.1519705057144165,-0.9942391514778137
1789315932966214700,2.122214599609375,-2.6896848678588867,-0.4780706465244293,-0.9188647866249084
1789315932976247600,2.13224755859375,-2.8306925296783447,-0.6891398429870605,-0.5848115682601929
1789315932986281700,2.14228173828125,-2.6033382415771484,0.0010657189413905144,0.05463306978344917
1789315932996315600,2.152315673828125,-2.0439612865448,1.1829040050506592,1.133378267288208
1789315933006348500,2.1623486328125,-1.339938998222351,1.9316940307617188,2.4477431774139404
1789315933016382700,2.1723828125,-0.5376139879226685,2.2146248817443848,3.1756622791290283
1789315933026416600,2.182416748046875,0.36673080921173096,2.4467270374298096,3.3643383979797363
1789315933036449800,2.19244970703125,0.8733438849449158,2.3406929969787598,3.2917532920837402
1789315933046483500,2.2024833984375,2.106767177581787,1.848671317100525,3.614839553833008
1789315933056517600,2.212517578125,2.571711778640747,-1.0138212442398071,3.9946117401123047
1789315933066550800,2.22255078125,1.5904914140701294,-5.878936767578125,3.2071547508239746
1789315933076584700,2.232584716796875,1.0911970138549805,-6.012730121612549,3.181297540664673
1789315933086619400,2.242619384765625,0.4466659426689148,-5.702451705932617,3.057835817337036
1789315933096652300,2.25265234375,0.036532022058963776,-5.213722229003906,2.3552370071411133
1789315933106686500,2.2626865234375,0.009294543415307999,-3.1711390018463135,1.5905042886734009
1789315933116719400,2.27271923828125,-0.015545873902738094,-0.3854280412197113,0.656056821346283
1789315933126753300,2.282753173828125,-0.04750460758805275,1.5935032367706299,-0.19533151388168335
1789315933136787500,2.292787353515625,0.0765022411942482,2.0636651515960693,-0.6561623811721802
1789315933146821400,2.3028212890625,0.054451003670692444,1.9529931545257568,-0.9619497060775757
1789315933156854300,2.312854248046875,-0.05843334645032883,1.7262823581695557,-0.9633058309555054
1789315933166888200,2.32288818359375,-0.21228869259357452,1.380986213684082,-0.7386783361434937
1789315933176922400,2.33292236328125,-0.2955411970615387,0.8457245826721191,-0.46202394366264343
1789315933186955500,2.34295556640625,-0.34481632709503174,0.22278058528900146,-0.27362924814224243
1789315933196989200,2.3529892578125,-0.3813907504081726,-0.11689478904008865,-0.14831745624542236
1789315933207023400,2.3630234375,-0.34267449378967285,-0.125244602560997,0.007991722784936428
1789315933217056300,2.37305615234375,-0.29515331983566284,0.083290234208107,0.11188430339097977
1789315933227090400,2.38309033203125,-0.20109471678733826,0.3753069043159485,0.09619375318288803
1789315933237124400,2.393124267578125,-0.0769546627998352,0.456958144903183,0.03130830451846123
1789315933247157200,2.4031572265625,0.004228869918733835,0.36390116810798645,-0.004293899051845074
1789315933257191400,2.41319140625,-0.021733824163675308,0.0905129611492157,-0.02329387329518795
1789315933267225300,2.423225341796875,-0.07491528987884521,-0.09328430145978928,-0.02780260518193245
1789315933277258500,2.433258544921875,-0.08868714421987534,-0.04189349338412285,-0.04446045309305191
1789315933287292200,2.443292236328125,0.14368723332881927,-1.390604853630066,1.4117871522903442
1789315933297326300,2.453326416015625,0.445520281791687,-2.24367356300354,1.6989272832870483
1789315933307359500,2.463359375,0.42886805534362793,-1.5882703065872192,1.295128345489502
1789315933317393400,2.473393310546875,0.09343725442886353,-0.022615835070610046,0.019261829555034637
1789315933327427300,2.48342724609375,-0.05694185569882393,0.929118812084198,-0.5282025933265686
1789315933337460200,2.493460205078125,-0.10388975590467453,0.9038201570510864,-0.6348557472229004
1789315933347494400,2.503494384765625,-0.24620428681373596,0.569570004940033,-0.632570207118988
1789315933357528600,2.513528564453125,-0.25707125663757324,0.3012752830982208,-0.5101783275604248
1789315933367561200,2.523561279296875,-0.14889630675315857,0.27884161472320557,-0.6619228720664978
1789315933377595400,2.533595458984375,-0.005286772735416889,0.22831901907920837,-0.8232917189598083
1789315933387629300,2.54362939453125,0.23506510257720947,-0.02419605292379856,-0.7952291965484619
1789315933397662500,2.553662353515625,0.3066173195838928,-0.21621417999267578,-0.9019747376441956
1789315933407696100,2.563696044921875,0.39768093824386597,-0.3879965841770172,-1.039850115776062
1789315933417730300,2.573730224609375,0.46446600556373596,-0.39933428168296814,-1.1410768032073975
1789315933427763500,2.583763427734375,0.4882221817970276,-0.3053308129310608,-1.1290078163146973
1789315933437797400,2.59379736328125,0.37143364548683167,-0.17775534093379974,-1.0269219875335693
1789315933447831300,2.603831298828125,0.14904586970806122,-0.20324791967868805,-0.9571285843849182
1789315933457864200,2.6138642578125,0.01597125642001629,-0.14621444046497345,-0.924350380897522
1789315933467898400,2.6238984375,-0.1061440035700798,0.041270773857831955,-0.9086385369300842
1789315933477932500,2.6339326171875,-0.15044227242469788,0.16951164603233337,-0.9236609935760498
1789315933487965400,2.64396533203125,-0.11071137338876724,0.1659022569656372,-0.9318467378616333
1789315933497999400,2.653999267578125,-0.07590699940919876,0.15703216195106506,-0.9162560105323792
1789315933508033300,2.664033203125,-0.05735408887267113,0.1345207244157791,-0.8614175319671631
1789315933518066400,2.67406640625,-0.02493579499423504,0.024570880457758904,-0.8101679682731628
1789315933528100400,2.684100341796875,0.00962564442306757,-0.03791646659374237,-0.7682186961174011
1789315933538134300,2.69413427734375,0.035364944487810135,-0.0031457487493753433,-0.7464689016342163
1789315933548167200,2.704167236328125,0.05956881865859032,0.07870730757713318,-0.7096160650253296
1789315933558201300,2.714201416015625,0.06339937448501587,0.15191738307476044,-0.6250537037849426
1789315933568235500,2.724235595703125,0.040320154279470444,0.17637239396572113,-0.5262885093688965
1789315933578268400,2.734268310546875,-0.012722124345600605,0.20538784563541412,-0.4247335195541382
1789315933588302300,2.74430224609375,-0.09649372100830078,0.19728171825408936,-0.339010626077652
1789315933598336500,2.75433642578125,-0.1868332028388977,0.15899910032749176,-0.27949076890945435
1789315933608369400,2.764369384765625,-0.2761215269565582,0.17901328206062317,-0.24841968715190887
1789315933618403300,2.7744033203125,-0.34738197922706604,0.2565181851387024,-0.2358817607164383
1789315933628437200,2.784437255859375,-0.4169008433818817,0.31393009424209595,-0.2065771371126175
1789315933638470400,2.794470458984375,-0.4711376428604126,0.39194798469543457,-0.2128945142030716
1789315933648504300,2.80450439453125,-0.5188649892807007,0.49914178252220154,-0.23778201639652252
1789315933658538200,2.814538330078125,-0.5373288989067078,0.543536365032196,-0.3167847692966461
1789315933668571100,2.824571044921875,-0.5280904173851013,0.6062368154525757,-0.45129942893981934
1789315933678605300,2.834605224609375,-0.50172358751297,0.7444927096366882,-0.6301426291465759
1789315933688639500,2.844639404296875,-0.4515856206417084,0.7797694802284241,-0.7876957654953003
1789315933698672400,2.85467236328125,-0.39738044142723083,0.5326531529426575,-0.8792858719825745
1789315933708706300,2.864706298828125,-0.34192463755607605,0.10383975505828857,-0.8707887530326843
1789315933718740500,2.874740478515625,-0.25914710760116577,-0.20911255478858948,-0.8468826413154602
1789315933728773400,2.8847734375,-0.1625169813632965,-0.26939189434051514,-0.7929051518440247
1789315933738807600,2.8948076171875,-0.06813037395477295,-0.31836554408073425,-0.6859981417655945
1789315933748841200,2.90484130859375,0.012740503996610641,-0.3875400722026825,-0.5522654056549072
1789315933758874400,2.914874267578125,0.07970399409532547,-0.4393526017665863,-0.4329633116722107
1789315933768908300,2.924908203125,0.13838593661785126,-0.450473427772522,-0.3463791608810425
1789315933778942500,2.9349423828125,0.17860400676727295,-0.42344844341278076,-0.2801925539970398
1789315933788975400,2.944975341796875,0.19716624915599823,-0.3623640537261963,-0.215486541390419
1789315933799009300,2.95500927734375,0.20302928984165192,-0.3072327673435211,-0.15676461160182953
1789315933809043500,2.96504345703125,0.1916152387857437,-0.250681608915329,-0.10130907595157623
1789315933819076400,2.975076416015625,0.16453123092651367,-0.1873837411403656,-0.06546372920274734
1789315933829110300,2.9851103515625,0.12499448657035828,-0.11607200652360916,-0.054995909333229065
1789315933839143200,2.99514306640625,0.08448349684476852,-0.07276669144630432,-0.06328584253787994
1789315933849177300,3.00517724609375,0.04547697305679321,-0.051421456038951874,-0.0797034353017807
1789315933859211500,3.01521142578125,0.02410810999572277,-0.028039729222655296,-0.11134254932403564
1789315933869245200,3.0252451171875,0.021429501473903656,-0.005773839540779591,-0.15111473202705383
1789315933879278300,3.0352783203125,0.03517932817339897,0.004296080209314823,-0.18583020567893982
1789315933889312300,3.045312255859375,0.06151772662997246,0.014562300406396389,-0.22212590277194977
1789315933899345400,3.055345458984375,0.09307011216878891,0.018033338710665703,-0.2601964473724365
1789315933909379300,3.06537939453125,0.12761983275413513,0.004826722200959921,-0.31697985529899597
1789315933919413200,3.075413330078125,0.16317112743854523,-0.026251398026943207,-0.37274208664894104
1789315933929446400,3.0854462890625,0.18378107249736786,-0.04643762484192848,-0.4118146598339081
1789315933939480300,3.095480224609375,0.19473978877067566,-0.058592427521944046,-0.43686047196388245
1789315933949514500,3.105514404296875,0.18961399793624878,-0.06435257196426392,-0.44112899899482727
1789315933959548200,3.115548095703125,0.17005488276481628,-0.07760656625032425,-0.4372301399707794
1789315933969581300,3.125581298828125,0.1608467400074005,-0.10159392654895782,-0.4114992022514343
1789315933979615500,3.135615478515625,0.1564914882183075,-0.09385434538125992,-0.3608332872390747
1789315933989649400,3.1456494140625,0.14432696998119354,-0.0876406580209732,-0.3033481538295746
1789315933999682300,3.155682373046875,0.12599879503250122,-0.07383992522954941,-0.25671297311782837
1789315934009716200,3.16571630859375,0.11073967069387436,-0.04257760941982269,-0.229220911860466
1789315934019749400,3.175749267578125,0.09415911883115768,0.0012802780838683248,-0.21970757842063904
1789315934029783300,3.185783203125,0.08657363802194595,0.02695714682340622,-0.24154150485992432
1789315934039817200,3.195817138671875,0.09449300915002823,0.045160356909036636,-0.2750723958015442
1789315934049850000,3.20585009765625,0.10522475093603134,0.04951329529285431,-0.31090736389160156
1789315934059884300,3.21588427734375,0.14620263874530792,0.01722775585949421,-0.33096614480018616
1789315934069918500,3.22591845703125,0.1936497837305069,-0.0719311460852623,-0.33697715401649475
1789315934079951400,3.235951416015625,0.23495613038539886,-0.19920757412910461,-0.3311452567577362
1789315934089984800,3.24598486328125,0.24865569174289703,-0.3490268886089325,-0.33496156334877014
1789315934100018700,3.256018798828125,0.2241080403327942,-0.4866512417793274,-0.36418357491493225
1789315934110051800,3.2660517578125,0.19302229583263397,-0.5522316098213196,-0.4057328999042511
1789315934120085800,3.276085693359375,0.16529232263565063,-0.501691460609436,-0.4372302293777466
1789315934130119700,3.28611962890625,0.16688649356365204,-0.40288233757019043,-0.45110955834388733
1789315934140152600,3.296152587890625,0.1306714117527008,-0.2946603000164032,-0.43125590682029724
1789315934150186800,3.306186767578125,0.07602892816066742,-0.19873587787151337,-0.3929956257343292
1789315934160221000,3.316220947265625,0.019004572182893753,-0.07744500041007996,-0.3889935612678528
1789315934170253800,3.32625390625,0.003438929095864296,-0.033438388258218765,-0.40951216220855713
1789315934180287700,3.336287841796875,-0.010871178470551968,-0.10965384542942047,-0.38599029183387756
1789315934190321700,3.34632177734375,-0.022250333800911903,-0.16988229751586914,-0.33625680208206177
1789315934200354800,3.356354736328125,-0.05522925406694412,-0.1912968009710312,-0.24679453670978546
1789315934210388700,3.366388671875,-0.06963402032852173,-0.19600261747837067,-0.13279633224010468
1789315934220422700,3.376422607421875,-0.08460558950901031,-0.2199382781982422,-0.03579658642411232
1789315934230455800,3.386455810546875,-0.10252706706523895,-0.2291320413351059,0.027899038046598434
1789315934240489700,3.39648974609375,-0.10949549078941345,-0.23204025626182556,0.07484889030456543
1789315934250524000,3.40652392578125,-0.10409406572580338,-0.2180972844362259,0.11167614907026291
1789315934260556800,3.416556884765625,-0.09137912094593048,-0.18059633672237396,0.1613299399614334
1789315934270590700,3.4265908203125,-0.08441362529993057,-0.13172361254692078,0.2058500051498413
1789315934280625000,3.436625,-0.09263741225004196,-0.055783960968256,0.2549026310443878
1789315934290657800,3.44665771484375,-0.11193414777517319,0.012561810202896595,0.32607001066207886
1789315934300692000,3.45669189453125,-0.12580417096614838,-0.01601438596844673,0.32448816299438477
1789315934310725600,3.4667255859375,-0.1350165754556656,-0.12195760011672974,0.262082576751709
1789315934320758800,3.4767587890625,-0.13755442202091217,-0.2189481258392334,0.1961696743965149
1789315934330792700,3.486792724609375,-0.13002939522266388,-0.22685052454471588,0.16949279606342316
1789315934340826600,3.49682666015625,-0.13948862254619598,-0.19680075347423553,0.17583991587162018
1789315934350859500,3.506859619140625,-0.14416460692882538,-0.19250375032424927,0.19502879679203033
1789315934360893700,3.516893798828125,-0.13488537073135376,-0.18696674704551697,0.21944238245487213
1789315934370927900,3.526927978515625,-0.13235695660114288,-0.14919087290763855,0.2907258868217468
1789315934380960800,3.536960693359375,-0.148820161819458,-0.11139830946922302,0.35993513464927673
1789315934390994700,3.54699462890625,-0.19350533187389374,-0.09480654448270798,0.3489895462989807
1789315934401028900,3.55702880859375,-0.23144632577896118,-0.032506585121154785,0.27716264128685
1789315934411061800,3.567061767578125,-0.2725690007209778,0.0393148735165596,0.17816896736621857
1789315934421096000,3.577095947265625,-0.2867988049983978,0.015434576198458672,0.0717698186635971
1789315934431129600,3.587129638671875,-0.2582255005836487,-0.0775560811161995,0.01529003120958805
1789315934441162800,3.597162841796875,-0.18694865703582764,-0.1652556210756302,0.014463158324360847
1789315934451196700,3.60719677734375,-0.12103915959596634,-0.22150397300720215,0.04132460057735443
1789315934461230800,3.61723095703125,-0.07956891506910324,-0.26260533928871155,0.04911448806524277
1789315934471263700,3.627263671875,-0.0696806013584137,-0.22491629421710968,0.048066265881061554
1789315934481297700,3.637297607421875,-0.07301219552755356,-0.11959259957075119,0.09962113201618195
1789315934491331800,3.647331787109375,-0.07030083239078522,-0.05272408574819565,0.1685839593410492
1789315934501364700,3.65736474609375,-0.029408715665340424,-0.05129687488079071,0.25033697485923767
1789315934511399000,3.66739892578125,0.0038009020499885082,-0.125860333442688,0.32694679498672485
1789315934521432800,3.677432861328125,0.026815209537744522,-0.2300150841474533,0.3437795639038086
1789315934531465700,3.6874658203125,0.04863022267818451,-0.30678656697273254,0.2996845543384552
1789315934541500000,3.6975,0.06872820854187012,-0.32848528027534485,0.2650415599346161
1789315934551533800,3.707533935546875,0.06993595510721207,-0.2792106866836548,0.24664098024368286
1789315934561566700,3.717566650390625,0.06524442881345749,-0.1824561357498169,0.23414738476276398
1789315934571600600,3.7276005859375,0.08047504723072052,-0.12937213480472565,0.21685947477817535
1789315934581634800,3.737634765625,0.11793148517608643,-0.1155548021197319,0.1444654017686844
1789315934591667700,3.747667724609375,0.19319695234298706,-0.15831372141838074,0.061532698571681976
1789315934601701600,3.75770166015625,0.28457146883010864,-0.2997760474681854,0.048992522060871124
1789315934611735800,3.76773583984375,0.3314140737056732,-0.42588841915130615,0.07833496481180191
1789315934621768700,3.777768798828125,0.3110070526599884,-0.40297016501426697,0.1167391985654831
1789315934631803000,3.787802978515625,0.2540590763092041,-0.28041520714759827,0.1599082499742508
1789315934641836500,3.79783642578125,0.14932562410831451,-0.19981977343559265,0.1991242617368698
1789315934651869700,3.80786962890625,0.05910678952932358,-0.12202804535627365,0.25253182649612427
1789315934661904000,3.81790380859375,0.007849535904824734,-0.08605382591485977,0.34572651982307434
1789315934671937800,3.827937744140625,0.017352227121591568,-0.031193507835268974,0.48181140422821045
1789315934681971000,3.837970947265625,0.06259649991989136,-0.008439232595264912,0.5870820879936218
1789315934692004600,3.848004638671875,0.11603256314992905,-0.05625735595822334,0.6597573161125183
1789315934702038800,3.858038818359375,0.13812723755836487,-0.11932187527418137,0.7859105467796326
1789315934712071700,3.86807177734375,0.1201932355761528,-0.17173446714878082,0.9466621279716492
1789315934722105900,3.87810595703125,0.08438549190759659,-0.13773584365844727,0.9717362523078918
1789315934732139800,3.888139892578125,0.05327071249485016,-0.03352820873260498,0.8577524423599243
1789315934742172700,3.898172607421875,-0.022999603301286697,0.13492457568645477,0.7514775395393372
1789315934752206800,3.908206787109375,-0.09993699193000793,0.3755076229572296,0.9696421027183533
1789315934762240800,3.91824072265625,-0.1429954320192337,0.3620055317878723,1.282129168510437
1789315934772273700,3.928273681640625,-0.17766313254833221,0.13061198592185974,1.5941818952560425
1789315934782307800,3.938307861328125,-0.09320471435785294,-0.04416605830192566,1.7656022310256958
1789315934792341800,3.948341796875,0.005414801649749279,-0.01330508105456829,1.6935436725616455
1789315934802375000,3.958375,0.11407467722892761,-0.0018842645222321153,1.6202510595321655
1789315934812408600,3.96840869140625,0.2125788778066635,-0.2399176061153412,1.5768705606460571
1789315934822442800,3.97844287109375,0.24617427587509155,-0.4530324935913086,1.484827995300293
1789315934832475600,3.9884755859375,0.28285130858421326,-0.5309688448905945,1.3061232566833496
1789315934842509800,3.998509765625,0.2681145966053009,-0.5408430099487305,1.1177341938018799
1789315934852543700,4.008543701171875,0.17112015187740326,-0.4522627890110016,1.0027142763137817
1789315934862576600,4.01857666015625,0.08185745030641556,-0.4879187047481537,0.9074540138244629
1789315934872610800,4.02861083984375,0.0722450315952301,-0.6143466830253601,0.7212218642234802
1789315934882644700,4.038644775390625,0.09940984100103378,-0.6972107291221619,0.48016056418418884
1789315934892678700,4.0486787109375,0.13078373670578003,-0.7299825549125671,0.2744441330432892
1789315934902711800,4.0587119140625,0.1403878927230835,-0.7750815749168396,0.1040567010641098
1789315934912745700,4.068745849609375,0.09594453126192093,-0.8845875263214111,-0.02502378076314926
1789315934922780000,4.07877978515625,-0.0027799641247838736,-1.0034650564193726,-0.1685270071029663
1789315934932812800,4.088812744140625,-0.0753479078412056,-0.9739894866943359,-0.3596484959125519
1789315934942846700,4.0988466796875,-0.11822772771120071,-0.8035367727279663,-0.5656740665435791
1789315934952881000,4.108880859375,-0.14504550397396088,-0.6277665495872498,-0.8082547783851624
1789315934962913800,4.118913818359375,-0.16822689771652222,-0.40252774953842163,-1.0508097410202026
1789315934972947700,4.12894775390625,-0.2075146585702896,-0.08540759980678558,-1.2036736011505127
1789315934982981600,4.138981689453125,-0.2892773151397705,0.21957623958587646,-1.0638675689697266
1789315934993014800,4.149014892578125,-0.34420210123062134,0.1959792971611023,-0.701159656047821
1789315935003048700,4.159048583984375,-0.3393857777118683,-0.41254550218582153,-0.473966509103775
1789315935013082600,4.16908251953125,-0.08626618981361389,-1.0594416856765747,-0.4403851330280304
1789315935023115800,4.17911572265625,0.40833795070648193,-1.0411007404327393,-0.6004458665847778
1789315935033149700,4.189149658203125,0.85768061876297,-0.6601699590682983,-0.8563178777694702
1789315935043183900,4.199183837890625,1.140275478363037,-0.24155540764331818,-1.0055650472640991
1789315935053216800,4.209216796875,1.04850435256958,-0.11286772042512894,-0.9377595782279968
1789315935063250700,4.219250732421875,0.7605187296867371,-0.40139567852020264,-0.7370048761367798
1789315935073284900,4.229284912109375,0.5543908476829529,-0.5291155576705933,-0.6121410131454468
1789315935083317200,4.239317138671875,0.45752567052841187,-0.25681111216545105,-0.623859703540802
1789315935093351400,4.249351318359375,0.3887452781200409,0.04922497645020485,-0.63260817527771
1789315935103385300,4.25938525390625,0.3265508711338043,0.20740348100662231,-0.5304641127586365
1789315935113418200,4.269418212890625,0.24114038050174713,0.21608085930347443,-0.42314618825912476
1789315935123452400,4.279452392578125,0.15215209126472473,0.055970001965761185,-0.43204858899116516
1789315935133486300,4.289486328125,0.04817403107881546,-0.07741095870733261,-0.5521371364593506
1789315935143519500,4.29951953125,0.0026807517278939486,-0.02972573973238468,-0.6793949604034424
1789315935153553200,4.30955322265625,0.048499640077352524,0.10126104205846786,-0.8349118828773499
1789315935163587300,4.31958740234375,0.15529556572437286,0.16686739027500153,-1.0149641036987305
1789315935173620500,4.329620361328125,0.3035697042942047,0.13864293694496155,-1.1857872009277344
1789315935183654400,4.339654296875,0.4302615821361542,0.03711233660578728,-1.3104394674301147
1789315935193688300,4.349688232421875,0.5566927790641785,-0.03699890896677971,-1.3763906955718994
1789315935203721200,4.35972119140625,0.6045787334442139,-0.13017573952674866,-1.3446286916732788
1789315935213755400,4.36975537109375,0.563560962677002,-0.25045767426490784,-1.2788270711898804
1789315935223789600,4.37978955078125,0.5102924108505249,-0.2788216769695282,-1.1630055904388428
1789315935233822500,4.389822509765625,0.4666866362094879,-0.22291900217533112,-1.0421415567398071
1789315935243856400,4.3998564453125,0.459597110748291,-0.14718064665794373,-0.9335340261459351
1789315935253890300,4.409890380859375,0.5019291043281555,-0.10122008621692657,-0.8311405181884766
1789315935263923500,4.41992333984375,0.5589991807937622,-0.10987209528684616,-0.7475550174713135
1789315935273957400,4.429957275390625,0.6203538775444031,-0.16334465146064758,-0.6822665333747864
1789315935283991300,4.4399912109375,0.6492780447006226,-0.2680557370185852,-0.619423508644104
1789315935294024200,4.450024169921875,0.5961333513259888,-0.37569326162338257,-0.5807927250862122
1789315935304058400,4.460058349609375,0.5006654262542725,-0.41676440834999084,-0.5621703863143921
1789315935314092300,4.47009228515625,0.38749945163726807,-0.40306323766708374,-0.5932922959327698
1789315935324125200,4.480125244140625,0.29475390911102295,-0.3493306338787079,-0.6942468881607056
1789315935334159400,4.490159423828125,0.24201343953609467,-0.3413691222667694,-0.8160971999168396
1789315935344193500,4.500193603515625,0.2599545121192932,-0.35562682151794434,-0.8937118053436279
1789315935354226400,4.510226318359375,0.3457421064376831,-0.4073137044906616,-0.9252108931541443
1789315935364260400,4.52026025390625,0.4657187759876251,-0.4772398769855499,-0.9225069284439087
1789315935374294300,4.530294189453125,0.5871011018753052,-0.6031786203384399,-0.8962367177009583
1789315935384327400,4.540327392578125,0.6970611214637756,-0.8030445575714111,-0.857830286026001
1789315935394361300,4.550361328125,0.7951381802558899,-1.0173743963241577,-0.813072919845581
1789315935404395300,4.560395263671875,0.8788039088249207,-1.177613615989685,-0.7029870748519897
1789315935414428200,4.57042822265625,0.9030477404594421,-1.2208479642868042,-0.5241600871086121
1789315935424462300,4.58046240234375,0.8139073252677917,-1.1269947290420532,-0.3211589455604553
1789315935434496500,4.59049658203125,0.676480233669281,-0.9573947191238403,-0.14426937699317932
1789315935444529400,4.600529296875,0.49449387192726135,-0.7308398485183716,0.04714265093207359
1789315935454563300,4.610563232421875,0.31210142374038696,-0.5605078339576721,0.2727808356285095
1789315935464597200,4.62059716796875,0.20070822536945343,-0.5142267346382141,0.5427117347717285
1789315935474630400,4.63063037109375,0.16549645364284515,-0.618769645690918,0.7760658860206604
1789315935484664300,4.640664306640625,0.22206813097000122,-0.8644441962242126,0.8820841908454895
1789315935494698200,4.6506982421875,0.3615586757659912,-0.9157779812812805,0.9130769968032837
1789315935504731400,4.6607314453125,0.4410272538661957,-0.9610253572463989,1.0063879489898682
1789315935514765300,4.670765380859375,0.3652432858943939,-1.1280559301376343,1.106006383895874
1789315935524799200,4.68079931640625,0.21998794376850128,-1.1873629093170166,1.1447532176971436
1789315935534833400,4.69083349609375,0.1521761417388916,-1.040747046470642,1.1733018159866333
1789315935544866300,4.7008662109375,0.16065360605716705,-0.8314121961593628,1.1989110708236694
1789315935554900500,4.710900390625,0.2006726711988449,-0.6124460697174072,1.2420947551727295
1789315935564933400,4.720933349609375,0.2805428206920624,-0.44543445110321045,1.2989699840545654
1789315935574967300,4.73096728515625,0.39630910754203796,-0.3062443435192108,1.3951377868652344
1789315935585001200,4.741001220703125,0.5415012240409851,-0.1540747582912445,1.5248342752456665
1789315935595034400,4.751034423828125,0.7383021712303162,-0.06937264651060104,1.5640274286270142
1789315935605068500,4.761068603515625,0.9222784638404846,-0.14882181584835052,1.4468350410461426
1789315935615102200,4.771102294921875,1.008263111114502,-0.2970717251300812,1.3057247400283813
1789315935625136400,4.781136474609375,1.0008213520050049,-0.3883023262023926,1.2093127965927124
1789315935635169300,4.791169189453125,0.8758578300476074,-0.5459830164909363,1.1156017780303955
1789315935645203500,4.801203369140625,0.6884809732437134,-0.5262138843536377,1.0470823049545288
1789315935655237400,4.8112373046875,0.45696279406547546,-0.36293813586235046,1.0934492349624634
1789315935665270300,4.821270263671875,0.31759145855903625,-0.11717288941144943,1.2838549613952637
1789315935675304400,4.831304443359375,0.14289157092571259,0.06579532474279404,1.4629285335540771
1789315935685338400,4.84133837890625,0.0290282741189003,0.18113885819911957,1.7205593585968018
1789315935695371300,4.851371337890625,-0.09142730385065079,0.20010828971862793,1.9190633296966553
1789315935705405200,4.8614052734375,-0.14009472727775574,0.21561650931835175,2.095334768295288
1789315935715439400,4.871439453125,-0.12627504765987396,0.31708934903144836,2.348414897918701
1789315935725472500,4.881472412109375,-0.04006625711917877,0.23663529753684998,2.6984188556671143
1789315935735506200,4.891506103515625,-0.022815095260739326,0.15356597304344177,3.0005881786346436
1789315935745540400,4.901540283203125,0.0015179312322288752,0.2203308492898941,3.1981141567230225
1789315935755573200,4.9115732421875,0.061420146375894547,0.6080722212791443,3.205641269683838
1789315935765607400,4.921607421875,0.07092279940843582,1.4287704229354858,3.0082509517669678
1789315935775641300,4.931641357421875,0.1617048978805542,1.7577706575393677,2.7549450397491455
1789315935785674200,4.94167431640625,0.16446825861930847,1.5172492265701294,2.5371286869049072
1789315935795708400,4.95170849609375,0.028598828241229057,1.4549764394760132,2.366215229034424
1789315935805742300,4.961742431640625,-0.061416346579790115,1.5984872579574585,2.2362263202667236
1789315935815775500,4.971775390625,-0.08509185165166855,1.9044722318649292,2.2037577629089355
1789315935825809200,4.98180908203125,0.04739375784993172,2.7702114582061768,2.5579943656921387
1789315935835843300,4.99184326171875,-0.21154114603996277,3.78413724899292,2.1135430335998535
1789315935845876500,5.00187646484375,-0.41367772221565247,1.4118804931640625,2.7359304428100586
1789315935855910400,5.011910400390625,-0.09132205694913864,1.2755703926086426,2.5229196548461914
1789315935865944300,5.0219443359375,-0.08324139565229416,1.1433024406433105,2.092897415161133
1789315935875977200,5.031977294921875,-0.0937558189034462,0.6962649822235107,1.8744415044784546
1789315935886011400,5.042011474609375,0.09151913225650787,-0.35913488268852234,1.7297614812850952
1789315935896045600,5.052045654296875,0.1519843339920044,-1.5017905235290527,1.0317200422286987
1789315935906078500,5.062078369140625,0.25098708271980286,-0.44127508997917175,0.9260806441307068
1789315935916112400,5.0721123046875,0.2533634305000305,-0.10138089954853058,0.8202319741249084
1789315935926146300,5.082146240234375,0.2829216718673706,-0.022274823859333992,0.7418902516365051
1789315935936179500,5.092179443359375,0.33644452691078186,-0.10999055951833725,0.6259891986846924
1789315935946213000,5.102213134765625,0.37430790066719055,-0.23106206953525543,0.5313782095909119
1789315935956247300,5.112247314453125,0.37459924817085266,-0.28646621108055115,0.5177324414253235
1789315935966281500,5.122281494140625,0.3397437632083893,-0.3502253293991089,0.6190474033355713
1789315935976314400,5.132314453125,0.29113495349884033,-0.39693155884742737,0.7728023529052734
1789315935986348300,5.142348388671875,0.23705078661441803,-0.28671738505363464,0.82861328125
1789315935996382200,5.15238232421875,0.19752921164035797,-0.12067541480064392,0.7774230241775513
1789315936006415400,5.162415283203125,0.14913703501224518,-0.0879087820649147,0.6296295523643494
1789315936016449500,5.172449462890625,0.08952857553958893,-0.02206212468445301,0.4182201027870178
1789315936026483200,5.182483154296875,-0.027565864846110344,0.045523751527071,0.201765239238739
1789315936036516400,5.192516357421875,-0.18281245231628418,0.09367077797651291,0.039742257446050644
1789315936046550300,5.20255029296875,-0.313698410987854,0.0997437909245491,-0.022969810292124748
1789315936056584400,5.21258447265625,-0.4313206672668457,0.06996086239814758,0.05221974849700928
1789315936066617300,5.222617431640625,-0.5134936571121216,0.0530925951898098,0.23167958855628967
1789315936076651300,5.2326513671875,-0.6159363985061646,0.04840383306145668,0.37437283992767334
1789315936086685400,5.242685546875,-0.7115558981895447,0.04521269351243973,0.41171637177467346
1789315936096718600,5.252718505859375,-0.7896597385406494,-0.03408559039235115,0.3486846685409546
1789315936106752500,5.26275244140625,-0.8425257802009583,-0.1526622474193573,0.24491719901561737
1789315936116786400,5.272786376953125,-0.8458976149559021,-0.2928915023803711,0.19093066453933716
1789315936126819300,5.2828193359375,-0.8214643001556396,-0.428836852312088,0.19652636349201202
1789315936136853500,5.292853515625,-0.7612488865852356,-0.5938287377357483,0.26868736743927
1789315936146887400,5.302887451171875,-0.7169327735900879,-0.8065071105957031,0.33277949690818787
1789315936156920300,5.31292041015625,-0.7353461384773254,-0.9780980348587036,0.37557119131088257
1789315936166954500,5.32295458984375,-0.7745856642723083,-0.9651784896850586,0.47263339161872864
1789315936176988400,5.332988525390625,-0.8233851194381714,-0.8305125832557678,0.7071135640144348
1789315936187021600,5.343021484375,-0.9029862284660339,-0.6600702404975891,1.027249813079834
1789315936197055500,5.353055419921875,-0.9183840751647949,-0.47322362661361694,1.1346948146820068
1789315936207089400,5.36308935546875,-0.8213691115379333,-0.4433436989784241,1.0827103853225708
1789315936217122600,5.37312255859375,-0.7584250569343567,-0.49937981367111206,1.0194203853607178
1789315936227156500,5.383156494140625,-0.7905746698379517,-0.5268991589546204,0.9039215445518494
1789315936237190400,5.3931904296875,-0.8154171705245972,-0.4501151740550995,0.759453535079956
1789315936247223300,5.403223388671875,-0.8959363698959351,-0.3477433919906616,0.5815196633338928
1789315936257257500,5.413257568359375,-0.8597879409790039,-0.09776018559932709,0.23062792420387268
1789315936267291600,5.423291748046875,-0.6623243093490601,0.1504470258951187,-0.17620393633842468
1789315936277325300,5.4333251953125,-0.3932872712612152,0.2522551715373993,-0.5130029916763306
1789315936287358500,5.4433583984375,-0.24869462847709656,0.23525665700435638,-0.7826874256134033
1789315936297392400,5.453392333984375,-0.22276529669761658,0.201532244682312,-1.0085930824279785
1789315936307426600,5.463426513671875,-0.30213263630867004,0.12565824389457703,-1.1366513967514038
1789315936317459500,5.47345947265625,-0.4306375980377197,0.01249332819133997,-1.0875216722488403
1789315936327493400,5.483493408203125,-0.5430712699890137,-0.06900246441364288,-0.9088926911354065
1789315936337527600,5.493527587890625,-0.6446628570556641,-0.0031235874630510807,-0.7259676456451416
1789315936347560400,5.503560546875,-0.7019829750061035,0.11066257953643799,-0.5376783609390259
1789315936357594400,5.513594482421875,-0.7061812281608582,0.07400815933942795,-0.272718608379364
1789315936367628500,5.523628662109375,-0.6451957821846008,-0.016025157645344734,-0.020817162469029427
1789315936377661400,5.533661376953125,-0.6441478133201599,-0.10981050878763199,0.28260743618011475
1789315936387695600,5.543695556640625,-0.6037868857383728,-0.091059111058712,0.6180581450462341
1789315936397729300,5.553729248046875,-0.5661790370941162,-0.02778453379869461,0.8135613203048706
1789315936407762400,5.563762451171875,-0.5593255162239075,-0.08106769621372223,0.8755342960357666
1789315936417796400,5.57379638671875,-0.4824768006801605,-0.2558985948562622,0.8112597465515137
1789315936427830500,5.58383056640625,-0.3818577229976654,-0.4299713671207428,0.5905117988586426
1789315936437863400,5.593863525390625,-0.2836984097957611,-0.4545975923538208,0.27123522758483887
1789315936447897300,5.6038974609375,-0.2506745159626007,-0.41963714361190796,0.03267316147685051
1789315936457931500,5.613931640625,-0.332802414894104,-0.3552171587944031,-0.03278334066271782
1789315936467964400,5.62396435546875,-0.3146142065525055,-0.20967155694961548,0.010210356675088406
1789315936477998600,5.63399853515625,-0.1877145916223526,0.012113040313124657,0.013602158986032009
1789315936488032500,5.644032470703125,-0.039972931146621704,0.24259664118289948,0.03524082526564598
1789315936498066400,5.65406640625,0.11358440667390823,0.44549861550331116,0.10039372742176056
1789315936508099600,5.664099609375,0.2521440088748932,0.5839952826499939,0.14215417206287384
1789315936518133500,5.674133544921875,0.34811872243881226,0.6002687811851501,0.12808175384998322
1789315936528167400,5.68416748046875,0.40125608444213867,0.49117013812065125,0.09592516720294952
1789315936538200300,5.694200439453125,0.4010603427886963,0.35019198060035706,0.05891122296452522
1789315936548234500,5.704234375,0.36528944969177246,0.20313233137130737,-0.0033329457510262728
1789315936558268700,5.7142685546875,0.32198458909988403,0.07249335199594498,-0.09976867586374283
1789315936568301300,5.72430126953125,0.2813761830329895,-0.05718310549855232,-0.220965176820755
1789315936578335500,5.73433544921875,0.23587237298488617,-0.17318719625473022,-0.3397062122821808
1789315936588369400,5.744369384765625,0.16606256365776062,-0.29263031482696533,-0.43436354398727417
1789315936598402600,5.754402587890625,0.07837531715631485,-0.4043315351009369,-0.5185058116912842
1789315936608436500,5.7644365234375,-0.012258241884410381,-0.5070341229438782,-0.586440920829773
1789315936618470400,5.774470458984375,-0.06246708333492279,-0.5858210921287537,-0.635825514793396
1789315936628503600,5.784503662109375,-0.07874283194541931,-0.642259418964386,-0.6414912343025208
1789315936638537500,5.794537353515625,-0.04551510885357857,-0.627910852432251,-0.5987152457237244
1789315936648571400,5.8045712890625,0.025531785562634468,-0.5645216107368469,-0.5663577318191528
1789315936658604300,5.814604248046875,0.10482554137706757,-0.4727407693862915,-0.5595871806144714
1789315936668638500,5.824638427734375,0.16794215142726898,-0.3557564616203308,-0.5744966268539429
1789315936678672600,5.834672607421875,0.17673803865909576,-0.21714000403881073,-0.594135582447052
1789315936688705500,5.84470556640625,0.16343459486961365,-0.08228448778390884,-0.6278467178344727
1789315936698739500,5.854739501953125,0.12462247163057327,0.01793372444808483,-0.6475101709365845
1789315936708773400,5.8647734375,0.10049428790807724,0.09498204290866852,-0.7008593082427979
1789315936718807600,5.8748076171875,0.1026487872004509,0.12148289382457733,-0.7505901455879211
1789315936728840400,5.88484033203125,0.15092827379703522,0.05558175593614578,-0.7573277950286865
1789315936738874400,5.894874267578125,0.23552864789962769,-0.07086379826068878,-0.7407152652740479
1789315936748908500,5.904908447265625,0.3224260210990906,-0.18421611189842224,-0.6981856226921082
1789315936758941400,5.91494140625,0.3970811069011688,-0.28190112113952637,-0.6170516014099121
1789315936768975600,5.9249755859375,0.43362143635749817,-0.3358551263809204,-0.576112687587738
1789315936779009500,5.935009521484375,0.40384167432785034,-0.3284323811531067,-0.5890074372291565
1789315936789042400,5.94504248046875,0.33585572242736816,-0.22971829771995544,-0.6012071371078491
1789315936799076600,5.95507666015625,0.23629130423069,-0.08772946149110794,-0.574393093585968
1789315936809110500,5.965110595703125,0.12560972571372986,0.061662234365940094,-0.5607070922851562
1789315936819143400,5.975143310546875,0.0030193680431693792,0.20895475149154663,-0.5464138984680176
1789315936829177300,5.98517724609375,-0.12180556356906891,0.3107716143131256,-0.5012667179107666
1789315936839211500,5.99521142578125,-0.22220379114151,0.3546948730945587,-0.43226557970046997
1789315936849244400,6.005244384765625,-0.29387569427490234,0.3219035565853119,-0.40525227785110474
1789315936859278300,6.0152783203125,-0.352255642414093,0.23457637429237366,-0.36573389172554016
1789315936869312500,6.0253125,-0.3827515244483948,0.1192321628332138,-0.2852436304092407
1789315936879345400,6.035345458984375,-0.3720746338367462,-0.011538369581103325,-0.23571951687335968
1789315936889379600,6.045379638671875,-0.3611966073513031,0.002134749898687005,-0.2693086862564087
1789315936899413500,6.05541357421875,-0.3982353210449219,0.13200299441814423,-0.33408474922180176
1789315936909447400,6.065447509765625,-0.46396973729133606,0.3241446614265442,-0.4454275369644165
1789315936919480600,6.07548046875,-0.5505898594856262,0.5612080097198486,-0.5839654803276062
1789315936929514500,6.085514404296875,-0.6464946866035461,0.6405866742134094,-0.6745862364768982
1789315936939548400,6.09554833984375,-0.7232462167739868,0.5301552414894104,-0.7945725321769714
1789315936949581300,6.105581298828125,-0.7662067413330078,0.4562671184539795,-0.9343931078910828
1789315936959615500,6.115615478515625,-0.7678797245025635,0.41562753915786743,-1.0399274826049805
1789315936969649700,6.125649658203125,-0.7260264754295349,0.32746466994285583,-1.1070703268051147
1789315936979682600,6.1356826171875,-0.6296748518943787,0.21871235966682434,-1.1457219123840332
1789315936989716500,6.145716552734375,-0.5071721076965332,0.09378720074892044,-1.166830062866211
1789315936999750400,6.15575048828125,-0.34966638684272766,0.0006053234683349729,-1.1600621938705444
1789315937009783600,6.165783447265625,-0.19415748119354248,-0.05631415173411369,-1.1278579235076904
1789315937019817500,6.1758173828125,-0.09738215804100037,-0.07657188177108765,-1.0651805400848389
1789315937029851400,6.185851318359375,-0.048739243298769,-0.09326601028442383,-1.0078439712524414
1789315937039884500,6.195884521484375,-0.030200712382793427,-0.06475074589252472,-0.9522430896759033
1789315937049918500,6.20591845703125,-0.05206087604165077,-0.02702062763273716,-0.8697071671485901
1789315937059952400,6.215952392578125,-0.08745987713336945,0.03128555789589882,-0.7677954435348511
1789315937069985300,6.2259853515625,-0.14028912782669067,0.14079681038856506,-0.628147542476654
1789315937080019500,6.23601953125,-0.20416025817394257,0.31226471066474915,-0.4245465397834778
1789315937090054400,6.246054443359375,-0.2640807628631592,0.4624135196208954,-0.18300853669643402
1789315937100087300,6.25608740234375,-0.25560206174850464,0.57193523645401,0.11553367972373962
1789315937110121500,6.26612158203125,-0.18968535959720612,0.6233494281768799,0.38869890570640564
1789315937120155600,6.27615576171875,-0.11010345071554184,0.6388818025588989,0.6455980539321899
1789315937130189300,6.286189208984375,-0.07152966409921646,0.6222830414772034,0.8439388871192932
1789315937140222500,6.296222412109375,-0.05805406719446182,0.640259861946106,0.977769672870636
1789315937150256400,6.30625634765625,-0.06299493461847305,0.7018842101097107,1.061622142791748
1789315937160290600,6.31629052734375,-0.07673391699790955,0.7371506094932556,1.060266375541687
1789315937170323500,6.326323486328125,-0.13942547142505646,0.6450126767158508,0.8740571737289429
1789315937180357400,6.336357421875,-0.3080688416957855,0.6216535568237305,0.6527903079986572
1789315937190391600,6.3463916015625,-0.4614306390285492,0.7288663983345032,0.3708801865577698
1789315937200424400,6.356424560546875,-0.49729275703430176,0.9428918957710266,0.13566288352012634
1789315937210458600,6.366458740234375,-0.4102608561515808,1.1886179447174072,0.0532037653028965
1789315937220492300,6.3764921875,-0.26723018288612366,1.2365654706954956,0.14785811305046082
1789315937230525400,6.386525390625,-0.16795925796031952,0.9907035231590271,0.3033235967159271
1789315937240559600,6.3965595703125,-0.10563968867063522,0.5686542987823486,0.43745237588882446
1789315937250593500,6.406593505859375,-0.046626437455415726,0.2295856922864914,0.5440874695777893
1789315937260626400,6.41662646484375,0.03259594365954399,0.0806843712925911,0.5522252917289734
1789315937270660400,6.426660400390625,0.11837216466665268,0.0715593472123146,0.5463780164718628
1789315937280694500,6.436694580078125,0.18625667691230774,0.026202253997325897,0.5385376811027527
1789315937290728400,6.446728515625,0.2646156847476959,0.011861972510814667,0.5230372548103333
1789315937300761300,6.45676123046875,0.3505241870880127,0.014836457557976246,0.4845910370349884
1789315937310795500,6.46679541015625,0.392611026763916,0.0017047988949343562,0.3827235698699951
1789315937320829400,6.476829345703125,0.3802978992462158,0.003826539497822523,0.22282682359218597
1789315937330862600,6.486862548828125,0.32823440432548523,0.022308295592665672,0.08871820569038391
1789315937340896300,6.496896240234375,0.2402731478214264,0.05321028456091881,-0.010311969555914402
1789315937350930400,6.506930419921875,0.14625193178653717,0.019035395234823227,-0.03988130763173103
1789315937360963600,6.516963623046875,0.11583410948514938,0.006563012953847647,-0.012084828689694405
1789315937370997500,6.52699755859375,0.11944596469402313,0.03858823701739311,0.06891903281211853
1789315937381031400,6.537031494140625,0.17588049173355103,0.09224667400121689,0.19827169179916382
1789315937391064300,6.547064208984375,0.2824344038963318,0.09982936084270477,0.3502013087272644
1789315937401098500,6.557098388671875,0.37847891449928284,0.04811716824769974,0.4679601490497589
1789315937411132700,6.567132568359375,0.4460856020450592,-0.009475694969296455,0.5355181694030762
1789315937421165600,6.57716552734375,0.4884636700153351,-0.03761572018265724,0.5380894541740417
1789315937431199500,6.587199462890625,0.5147669315338135,-0.028534341603517532,0.4869775176048279
1789315937441233400,6.5972333984375,0.5121186971664429,-0.01714666374027729,0.4307030439376831
1789315937451267600,6.607267578125,0.48063409328460693,-0.0008056091028265655,0.3973991274833679
1789315937461300500,6.617300537109375,0.45258381962776184,0.0639941543340683,0.3918187618255615
1789315937471334400,6.62733447265625,0.4445355534553528,0.13533586263656616,0.43120276927948
1789315937481368600,6.63736865234375,0.47976118326187134,0.1092081218957901,0.4747103154659271
1789315937491401500,6.6474013671875,0.5504167079925537,0.04977988079190254,0.48498642444610596
1789315937501435400,6.657435302734375,0.6140750646591187,-0.0362897589802742,0.47686514258384705
1789315937511469300,6.66746923828125,0.6774377822875977,-0.11497323215007782,0.46576133370399475
1789315937521502500,6.67750244140625,0.7457718253135681,-0.20234782993793488,0.47805795073509216
1789315937531536600,6.68753662109375,0.7863616347312927,-0.20138323307037354,0.46115514636039734
1789315937541570300,6.6975703125,0.7792686223983765,-0.09172891080379486,0.44431623816490173
1789315937551603500,6.707603515625,0.7175073623657227,0.0541783906519413,0.4463822841644287
1789315937561637400,6.717637451171875,0.638433575630188,0.20096836984157562,0.4858652353286743
1789315937571671600,6.727671630859375,0.5403106212615967,0.30860891938209534,0.5504360198974609
1789315937581705500,6.73770556640625,0.4661402404308319,0.38534098863601685,0.6279523372650146
1789315937591738400,6.74773828125,0.4073566496372223,0.4821398854255676,0.6961774230003357
1789315937601772500,6.7577724609375,0.3785500228404999,0.5721094012260437,0.728498637676239
1789315937611806500,6.767806396484375,0.34498685598373413,0.6664371490478516,0.7445992827415466
1789315937621839600,6.777839599609375,0.2966004014015198,0.7279625535011292,0.7138797044754028
1789315937631873300,6.787873291015625,0.23533116281032562,0.7569434642791748,0.651508092880249
1789315937641907500,6.797907470703125,0.18512284755706787,0.7586351037025452,0.6043874621391296
1789315937651940600,6.807940673828125,0.18558791279792786,0.7056208252906799,0.5913769602775574
1789315937661974500,6.817974609375,0.2210756093263626,0.5655885934829712,0.6309396028518677
1789315937672008400,6.828008544921875,0.27001699805259705,0.4190106987953186,0.675895094871521
1789315937682041300,6.838041259765625,0.309808611869812,0.38582131266593933,0.69061678647995
1789315937692075500,6.848075439453125,0.3105611503124237,0.3893451690673828,0.6696956157684326
1789315937702109700,6.858109619140625,0.30110079050064087,0.3765595853328705,0.6173900365829468
1789315937712142600,6.868142578125,0.29602235555648804,0.33298230171203613,0.5278530716896057
1789315937722176500,6.878176513671875,0.2893383800983429,0.27312830090522766,0.4187862277030945
1789315937732210400,6.88821044921875,0.2777443826198578,0.21364304423332214,0.29026949405670166
1789315937742244600,6.89824462890625,0.25797173380851746,0.12333124876022339,0.21746906638145447
1789315937752277200,6.90827734375,0.21421395242214203,0.13228604197502136,0.2514883577823639
1789315937762311400,6.9183115234375,0.182702898979187,0.188275545835495,0.3153778612613678
1789315937772345600,6.928345703125,0.14535033702850342,0.1629038155078888,0.3546063005924225
1789315937782378500,6.93837841796875,0.07818141579627991,0.11734938621520996,0.3211010694503784
1789315937792412400,6.948412353515625,0.015534131787717342,0.04356560856103897,0.2395816594362259
1789315937802446300,6.9584462890625,-0.04750955104827881,-0.039633139967918396,0.1441536694765091
1789315937812479500,6.9684794921875,-0.09516461938619614,-0.1255747675895691,0.04352381452918053
1789315937822513700,6.978513671875,-0.11365468055009842,-0.19797278940677643,0.011402628384530544
1789315937832547300,6.98854736328125,-0.11001534759998322,-0.2870652377605438,0.07543137669563293
1789315937842580500,6.99858056640625,-0.08893270045518875,-0.3546810448169708,0.22015342116355896
1789315937852614400,7.008614501953125,-0.03380627557635307,-0.4266277849674225,0.41108301281929016
1789315937862648600,7.018648681640625,0.034117646515369415,-0.4440315365791321,0.5857224464416504
1789315937872681500,7.028681396484375,0.10209251940250397,-0.4105600416660309,0.7851979732513428
1789315937882715400,7.03871533203125,0.13131219148635864,-0.2987096905708313,1.0004210472106934
1789315937892749600,7.04874951171875,0.06972052156925201,-0.11212262511253357,1.1312098503112793
1789315937902783500,7.058783447265625,-0.019617611542344093,0.05398113280534744,1.06682550907135
1789315937912816600,7.068816650390625,-0.07060962915420532,0.24603421986103058,0.9041834473609924
1789315937922850300,7.078850341796875,-0.12140223383903503,0.3466836214065552,0.7633363008499146
1789315937932884500,7.088884521484375,-0.2139407992362976,0.28452152013778687,0.6393265128135681
1789315937942917600,7.098917724609375,-0.29517948627471924,0.12669061124324799,0.48799851536750793
1789315937952951600,7.10895166015625,-0.3634360432624817,0.057787295430898666,0.23456011712551117
1789315937962985500,7.1189853515625,-0.40880537033081055,0.032994065433740616,0.034551672637462616
1789315937973018400,7.129018310546875,-0.43108421564102173,0.016687540337443352,-0.0005016624927520752
1789315937983052500,7.139052490234375,-0.44342318177223206,-0.0244833305478096,-0.05028493329882622
1789315937993086500,7.14908642578125,-0.4638616144657135,-0.061282042413949966,-0.1345190554857254
1789315938003119400,7.159119384765625,-0.4488365948200226,-0.034680791199207306,-0.17499403655529022
1789315938013153500,7.169153564453125,-0.43661198019981384,-0.0003872819943353534,-0.21267148852348328
1789315938023187500,7.1791875,-0.4147298336029053,0.01182650774717331,-0.2137918770313263
1789315938033221400,7.189221435546875,-0.3403807580471039,-0.05051782727241516,-0.12197859585285187
1789315938043254300,7.199254150390625,-0.24538394808769226,-0.22466085851192474,0.0477350689470768
1789315938053288400,7.209288330078125,-0.17506851255893707,-0.40034613013267517,0.2793342173099518
1789315938063322600,7.219322509765625,-0.16036519408226013,-0.4306217432022095,0.5525665283203125
1789315938073355500,7.22935546875,-0.23687922954559326,-0.3853659927845001,0.7991490364074707
1789315938083389400,7.239389404296875,-0.37559691071510315,-0.3292206823825836,0.9412733912467957
1789315938093422800,7.2494228515625,-0.49881601333618164,-0.28588441014289856,0.9267778396606445
1789315938103456000,7.2594560546875,-0.586354672908783,-0.24666936695575714,0.7645572423934937
1789315938113490000,7.269489990234375,-0.6306953430175781,-0.2684789299964905,0.5227451920509338
1789315938123523800,7.27952392578125,-0.6441658735275269,-0.28211697936058044,0.25427481532096863
1789315938133557000,7.289556884765625,-0.5995382070541382,-0.2685084939002991,0.03603357449173927
1789315938143591000,7.2995908203125,-0.5080736875534058,-0.22134622931480408,-0.10571979731321335
1789315938153625000,7.309625,-0.43215709924697876,-0.17938795685768127,-0.19549499452114105
1789315938163658800,7.31965869140625,-0.34736737608909607,-0.17704756557941437,-0.21929539740085602
1789315938173692000,7.32969189453125,-0.2661718726158142,-0.16994032263755798,-0.22409607470035553
1789315938183726000,7.33972607421875,-0.20052389800548553,-0.18909136950969696,-0.24343249201774597
1789315938193760000,7.349760009765625,-0.2114628702402115,-0.22508291900157928,-0.28254836797714233
1789315938203793200,7.359793212890625,-0.27162688970565796,-0.21120837330818176,-0.2867143452167511
1789315938213826800,7.369826904296875,-0.32761597633361816,-0.11236760765314102,-0.25965335965156555
1789315938223861000,7.379861083984375,-0.36549198627471924,-0.005270720459520817,-0.26990145444869995
1789315938233894000,7.389893798828125,-0.3738138675689697,0.06794839352369308,-0.31644412875175476
1789315938243928000,7.399927978515625,-0.3891254663467407,0.09705594182014465,-0.3869512975215912
1789315938253962000,7.4099619140625,-0.39574292302131653,0.13241048157215118,-0.4916590750217438
1789315938263995000,7.419994873046875,-0.3812271058559418,0.1627713292837143,-0.5735891461372375
1789315938274029000,7.430029052734375,-0.3311944305896759,0.20598238706588745,-0.6244933605194092
1789315938284063000,7.44006298828125,-0.3030940890312195,0.24021759629249573,-0.6597514748573303
1789315938294096000,7.450095947265625,-0.28490403294563293,0.2869188189506531,-0.6746342778205872
1789315938304130000,7.460130126953125,-0.29278483986854553,0.24763214588165283,-0.6199710369110107
1789315938314164000,7.4701640625,-0.31056079268455505,0.16869409382343292,-0.6114174723625183
1789315938324198000,7.480197998046875,-0.3328684866428375,0.12621267139911652,-0.6682999730110168
1789315938334230800,7.490230712890625,-0.38225364685058594,0.11695479601621628,-0.6810810565948486
1789315938344265000,7.500264892578125,-0.4533478021621704,0.07680311053991318,-0.6444212794303894
1789315938354299100,7.510299072265625,-0.5410356521606445,-0.007216231897473335,-0.6300832629203796
1789315938364332000,7.52033203125,-0.6282120943069458,-0.09445340186357498,-0.6842397451400757
1789315938374366000,7.530365966796875,-0.700910210609436,-0.16880345344543457,-0.7309756278991699
1789315938384400000,7.54039990234375,-0.7413800954818726,-0.2557271718978882,-0.745987057685852
1789315938394433000,7.55043310546875,-0.7584783434867859,-0.3356013596057892,-0.7966301441192627
1789315938404467000,7.560467041015625,-0.7372438907623291,-0.2711763083934784,-0.9770054817199707
1789315938414500900,7.5705009765625,-0.6795013546943665,-0.08204781264066696,-1.227222204208374
1789315938424534000,7.580533935546875,-0.5998528599739075,0.062222808599472046,-1.5077623128890991
1789315938434568000,7.59056787109375,-0.5197924375534058,0.09127701073884964,-1.8104493618011475
1789315938444602000,7.60060205078125,-0.433396577835083,0.049293871968984604,-2.1076314449310303
1789315938454635800,7.6106357421875,-0.3309309184551239,-0.0671592429280281,-2.393371343612671
1789315938464669000,7.6206689453125,-0.21671563386917114,-0.2326051890850067,-2.544429063796997
1789315938474703000,7.630703125,-0.06690208613872528,-0.44824957847595215,-2.5569214820861816
1789315938484737000,7.640737060546875,0.025194281712174416,-0.39360231161117554,-2.598041296005249
1789315938494770200,7.650770263671875,0.03897542878985405,-0.0397377610206604,-2.536414623260498
1789315938504803800,7.660803955078125,0.016135094687342644,0.29401251673698425,-2.28470516204834
1789315938514838000,7.670838134765625,0.03914196789264679,0.35715052485466003,-1.9010460376739502
1789315938524871000,7.680870849609375,0.10735191404819489,0.15669894218444824,-1.5413411855697632
1789315938534904800,7.69090478515625,0.20113621652126312,-0.20149853825569153,-1.246695637702942
1789315938544939000,7.70093896484375,0.2645122706890106,-0.5746569633483887,-1.0408912897109985
1789315938554973000,7.710972900390625,0.3163881003856659,-0.8556967377662659,-0.8839138746261597
1789315938565006000,7.721006103515625,0.3394337594509125,-0.9723306894302368,-0.7394192814826965
1789315938575039700,7.731039794921875,0.29645177721977234,-0.9262065887451172,-0.6301888227462769
1789315938585074000,7.741073974609375,0.17285099625587463,-0.8455362319946289,-0.6630908846855164
1789315938595107000,7.751107177734375,0.03546738997101784,-0.7045210599899292,-0.7969059944152832
1789315938605141000,7.76114111328125,-0.08674321323633194,-0.45252320170402527,-0.950536847114563
1789315938615175000,7.7711748046875,-0.17078644037246704,-0.14905786514282227,-1.0574235916137695
1789315938625207800,7.781207763671875,-0.24695269763469696,0.0764530673623085,-1.1103354692459106
1789315938635242000,7.791241943359375,-0.20682229101657867,0.20736020803451538,-1.0587135553359985
1789315938645276200,7.801276123046875,-0.06810463219881058,0.2049119621515274,-0.8680307269096375
1789315938655309000,7.81130908203125,-0.06621813029050827,0.0667458176612854,-0.710993230342865
1789315938665343000,7.821343017578125,-0.20290061831474304,-0.02460166998207569,-0.4566584527492523
1789315938675377000,7.831376953125,-0.4372401833534241,0.0040111299604177475,-0.16090328991413116
1789315938685411000,7.8414111328125,-0.6768506169319153,0.19154614210128784,0.008815432898700237
1789315938695444000,7.85144384765625,-0.7311053276062012,0.5662145614624023,0.1732109785079956
1789315938705478000,7.861477783203125,-0.5912669897079468,0.8716440200805664,0.4565356373786926
1789315938715512000,7.871511962890625,-0.3894597887992859,0.9271221160888672,0.7741824984550476
1789315938725545000,7.881544921875,-0.19109661877155304,0.8679107427597046,1.2556232213974
1789315938735579100,7.8915791015625,-0.02886599488556385,0.6687322854995728,1.893337607383728
1789315938745612800,7.90161279296875,0.11027858406305313,0.5247114300727844,2.5956602096557617
1789315938755646000,7.91164599609375,0.3906939625740051,0.48166021704673767,3.1984975337982178
1789315938765680000,7.92168017578125,0.6062654256820679,0.43438777327537537,3.5321459770202637
1789315938775714000,7.931714111328125,0.9598869681358337,0.4344996213912964,3.428382158279419
1789315938785748000,7.941748046875,1.1600227355957031,0.45145276188850403,3.0319910049438477
1789315938795780900,7.95178076171875,1.0809731483459473,0.3336576223373413,2.4331369400024414
1789315938805815000,7.96181494140625,0.7354689836502075,0.07056580483913422,1.7396725416183472
1789315938815849000,7.971848876953125,0.24248053133487701,0.04281877726316452,0.8543916344642639
1789315938825881900,7.9818818359375,-0.0666205883026123,0.31675153970718384,-0.0010292737279087305
1789315938835916000,7.991916015625,-0.17629414796829224,0.4576118290424347,-0.6065792441368103
1789315938845950000,8.001949951171875,-0.11720100790262222,0.5099672079086304,-0.8504304885864258
1789315938855983000,8.011983154296875,0.013949588872492313,0.4431241750717163,-0.8653766512870789
1789315938866016800,8.022016845703124,0.19377261400222778,0.3002501130104065,-0.6840848922729492
1789315938876051000,8.032051025390626,0.37646254897117615,0.10499618202447891,-0.35992464423179626
1789315938886084000,8.042083984375,0.48597252368927,-0.10037854313850403,-0.0006386507302522659
1789315938896118000,8.052117919921875,0.5156540274620056,-0.2941069006919861,0.2803698778152466
1789315938906152000,8.06215185546875,0.46592214703559875,-0.4431490898132324,0.42991915345191956
1789315938916185900,8.072185791015626,0.4214267134666443,-0.4677180051803589,0.4995744228363037
1789315938926219000,8.082218994140625,0.41363298892974854,-0.3691538870334625,0.5051705837249756
1789315938936253200,8.092253173828125,0.4065118730068207,-0.2947244942188263,0.4939291775226593
1789315938946286800,8.102286865234374,0.37699949741363525,-0.24304667115211487,0.5548216104507446
1789315938956320000,8.112320068359375,0.3541978597640991,-0.2680627703666687,0.6192131638526917
1789315938966354000,8.12235400390625,0.34191668033599854,-0.3142704963684082,0.7335959672927856
1789315938976388000,8.13238818359375,0.31010326743125916,-0.37575453519821167,0.8876529335975647
1789315938986421000,8.1424208984375,0.30649468302726746,-0.38357409834861755,1.0731055736541748
1789315938996455000,8.152454833984375,0.3182581663131714,-0.3807207942008972,1.2292307615280151
1789315939006489000,8.162489013671875,0.30719858407974243,-0.40738460421562195,1.3211228847503662
1789315939016523000,8.17252294921875,0.24908754229545593,-0.37436971068382263,1.3454952239990234
1789315939026556000,8.182555908203126,0.24309596419334412,-0.4624747931957245,1.4321163892745972
1789315939036589800,8.19258984375,0.30214110016822815,-0.5486736297607422,1.4495331048965454
1789315939046624000,8.2026240234375,0.29939004778862,-0.5972827076911926,1.4861336946487427
1789315939056657200,8.2126572265625,0.2695179581642151,-0.5040175318717957,1.4157700538635254
1789315939066690800,8.22269091796875,0.2504150867462158,-0.3439847230911255,1.1821913719177246
1789315939076725000,8.23272509765625,0.2437993288040161,-0.3640018105506897,0.8888704776763916
1789315939086758100,8.242758056640625,0.2662407159805298,-0.38378190994262695,0.6052848100662231
1789315939096792300,8.252792236328125,0.27354639768600464,-0.359745591878891,0.4075908362865448
1789315939106826000,8.262825927734376,0.24763916432857513,-0.4435344934463501,0.2649335563182831
1789315939116860200,8.272860107421875,0.20887114107608795,-0.5909186601638794,0.16965444386005402
1789315939126893000,8.28289306640625,0.18276789784431458,-0.6385796666145325,0.16132567822933197
1789315939136927200,8.29292724609375,0.14631839096546173,-0.613254725933075,0.17875982820987701
1789315939146961200,8.302961181640624,0.11028316617012024,-0.5267504453659058,0.21544142067432404
1789315939156994000,8.312994140625,0.11452404409646988,-0.3770051598548889,0.1868807077407837
1789315939167028200,8.3230283203125,0.10890477895736694,-0.23983262479305267,0.13274316489696503
1789315939177062100,8.333062255859375,0.06419169157743454,-0.1706298291683197,0.1063646599650383
1789315939187095000,8.343094970703126,0.00864134356379509,-0.18941470980644226,0.1428968459367752
1789315939197129200,8.353129150390625,-0.01743292436003685,-0.21985945105552673,0.1943114548921585
1789315939207163100,8.3631630859375,0.016529835760593414,-0.22701510787010193,0.2110278606414795
1789315939217197000,8.373197021484375,0.04281514137983322,-0.1588212102651596,0.2392536997795105
1789315939227230000,8.38322998046875,0.04246307164430618,-0.042846135795116425,0.18663150072097778
1789315939237264100,8.39326416015625,0.03816831484436989,0.07670076936483383,0.041461262851953506
1789315939247298300,8.40329833984375,0.02403172478079796,0.14051997661590576,-0.14486786723136902
1789315939257331200,8.413331298828124,0.027959724888205528,0.10802988708019257,-0.3407072424888611
1789315939267365000,8.423365234375,0.029088638722896576,0.0740109384059906,-0.5017557740211487
1789315939277399000,8.43339892578125,0.02305288426578045,0.005601981654763222,-0.5931383967399597
1789315939287432200,8.44343212890625,-0.004167019389569759,-0.05586270987987518,-0.6271205544471741
1789315939297466000,8.453466064453124,-0.054019756615161896,-0.07373237609863281,-0.6203187108039856
1789315939307500000,8.4635,-0.11609138548374176,-0.043164342641830444,-0.6034960746765137
1789315939317534200,8.4735341796875,-0.16665519773960114,0.04124155268073082,-0.5354785919189453
1789315939327567000,8.483567138671875,-0.11581065505743027,0.04172651469707489,-0.341234028339386
1789315939337601300,8.493601318359374,-0.016530586406588554,-0.0519787073135376,-0.025876697152853012
1789315939347635000,8.503635009765626,0.07979275286197662,-0.14683331549167633,0.3962436616420746
1789315939357668000,8.513668212890625,0.1382758766412735,-0.2754310071468353,0.8812195658683777
1789315939367702300,8.523702392578125,0.046969398856163025,-0.42503994703292847,1.2823818922042847
1789315939377736200,8.533736083984374,-0.12436464428901672,-0.42316168546676636,1.5621079206466675
1789315939387769300,8.543769287109376,-0.2551274299621582,-0.33667871356010437,1.6978905200958252
1789315939397803000,8.553802978515625,-0.3502672612667084,-0.26756054162979126,1.6620193719863892
1789315939407837200,8.563837158203125,-0.4121852219104767,-0.2425934076309204,1.494057536125183
1789315939417871400,8.573871337890624,-0.5062761902809143,-0.26327526569366455,1.2904857397079468
1789315939427904300,8.583904296875,-0.5363227725028992,-0.23280152678489685,0.9180648922920227
1789315939437938200,8.593938232421875,-0.5253486633300781,-0.24962042272090912,0.4118258059024811
1789315939447972000,8.60397216796875,-0.4377304017543793,-0.268778920173645,-0.039068661630153656
1789315939458005200,8.614005126953124,-0.3452416956424713,-0.279459148645401,-0.3394448757171631
1789315939468039000,8.624038818359375,-0.310332715511322,-0.2760702669620514,-0.4716516435146332
1789315939478073000,8.634072998046875,-0.24928131699562073,-0.24150632321834564,-0.5067246556282043
1789315939488106200,8.644106201171875,-0.10281890630722046,-0.19618305563926697,-0.5169485211372375
1789315939498140200,8.65414013671875,-0.00026068720035254955,-0.22858111560344696,-0.5298581719398499
1789315939508174000,8.664174072265626,0.04671640694141388,-0.30015143752098083,-0.548155665397644
1789315939518208000,8.6742080078125,0.13706625998020172,-0.34610629081726074,-0.5992305874824524
1789315939528241200,8.6842412109375,0.16443103551864624,-0.30482861399650574,-0.6899785995483398
1789315939538275300,8.694275390625,0.07163628935813904,-0.20361894369125366,-0.7530914545059204
1789315939548309000,8.70430908203125,-0.07615263760089874,-0.03707842901349068,-0.7571666240692139
1789315939558342100,8.714342041015625,-0.21157172322273254,0.13329702615737915,-0.741529643535614
1789315939568376000,8.7243759765625,-0.2858709692955017,0.19581899046897888,-0.6110475063323975
1789315939578410200,8.73441015625,-0.29902827739715576,0.13514859974384308,-0.46929317712783813
1789315939588443100,8.744443115234375,-0.3238678276538849,0.08652540296316147,-0.36793753504753113
1789315939598477000,8.75447705078125,-0.3484550714492798,0.18517953157424927,-0.32793793082237244
1789315939608511200,8.76451123046875,-0.3994775116443634,0.37918999791145325,-0.361927330493927
1789315939618545200,8.774545166015624,-0.46566492319107056,0.3860134780406952,-0.18370141088962555
1789315939628578300,8.784578369140625,-0.4647509455680847,-0.14797215163707733,0.17711350321769714
1789315939638612000,8.794612060546875,-0.44189706444740295,-0.7042908072471619,0.040879130363464355
1789315939648646100,8.804646240234375,-0.4242112636566162,-1.0058062076568604,-0.13296136260032654
1789315939658679300,8.81467919921875,-0.3726576268672943,-0.7572501301765442,-0.22911575436592102
1789315939668713200,8.824713134765625,-0.27802830934524536,-0.3366089165210724,-0.2881513833999634
1789315939678747100,8.8347470703125,-0.2310190051794052,0.011985181830823421,-0.45649197697639465
1789315939688780000,8.844780029296874,-0.14341725409030914,0.3258427381515503,-0.6604035496711731
1789315939698814200,8.854814208984376,-0.01763840764760971,0.4884223937988281,-0.8241328001022339
1789315939708848000,8.86484814453125,0.08083570003509521,0.38661375641822815,-0.9722537994384766
1789315939718882000,8.874882080078125,0.14975860714912415,0.19389280676841736,-1.1238073110580444
1789315939728915200,8.884915283203124,0.18191255629062653,0.06561099737882614,-1.2675131559371948
1789315939738949000,8.89494921875,0.15807455778121948,0.05007248371839523,-1.412959337234497
1789315939748983000,8.904983154296875,0.11188177019357681,0.12311846017837524,-1.5193946361541748
1789315939759016000,8.915015869140625,0.03176771476864815,0.19915112853050232,-1.546220064163208
1789315939769050000,8.925050048828124,-0.06379182636737823,0.21604569256305695,-1.4894462823867798
1789315939779084300,8.935084228515626,-0.16560913622379303,0.15794244408607483,-1.4028390645980835
1789315939789118000,8.945117919921875,-0.21324296295642853,0.08831757307052612,-1.3229283094406128
1789315939799151000,8.955151123046875,-0.2062559723854065,0.03756999596953392,-1.2529007196426392
1789315939809185000,8.96518505859375,-0.16895627975463867,0.004182477947324514,-1.2278450727462769
1789315939819219200,8.97521923828125,-0.07809343934059143,-0.017194410786032677,-1.213600754737854
1789315939829252400,8.98525244140625,0.054380711168050766,-0.030301423743367195,-1.1460808515548706
1789315939839286000,8.9952861328125,0.20066769421100616,-0.0765610858798027,-1.052686095237732
1789315939849320200,9.0053203125,0.3229467272758484,-0.169458270072937,-0.9609361886978149
1789315939859354000,9.01535400390625,0.3913348317146301,-0.22408795356750488,-0.865134060382843
1789315939869387300,9.02538720703125,0.3719763159751892,-0.23080284893512726,-0.8050621747970581
1789315939879421200,9.035421142578125,0.2733534872531891,-0.14214713871479034,-0.7441163063049316
1789315939889455000,9.045455078125,0.13880819082260132,0.008919346146285534,-0.6492204070091248
1789315939899488300,9.05548828125,-0.030813034623861313,0.1198941022157669,-0.4960533678531647
1789315939909522200,9.065522216796875,-0.172952339053154,0.22755345702171326,-0.2673110067844391
1789315939919556000,9.07555615234375,-0.18732859194278717,0.3523189425468445,-0.00977639015763998
1789315939929589000,9.085589111328124,-0.1654086410999298,0.4219808280467987,0.2761046290397644
1789315939939623200,9.095623046875,-0.14382721483707428,0.4687744975090027,0.5511491894721985
1789315939949657000,9.105656982421875,-0.11027590930461884,0.4877234101295471,0.7108440399169922
1789315939959690000,9.11568994140625,0.0037520190235227346,0.45933523774147034,0.7142223715782166
1789315939969724200,9.12572412109375,0.129329651594162,0.39512667059898376,0.6060873866081238
1789315939979758000,9.135758056640626,0.19622176885604858,0.3151373565196991,0.46738818287849426
1789315939989792000,9.1457919921875,0.24266037344932556,0.20803965628147125,0.37057027220726013
1789315939999825200,9.1558251953125,0.23663116991519928,0.07144872099161148,0.276194304227829
1789315940009859000,9.165859130859374,0.21678875386714935,0.04525972157716751,0.21231520175933838
1789315940019893200,9.175893310546876,0.22375889122486115,0.08789123594760895,0.178633913397789
1789315940029926100,9.185926025390625,0.26392602920532227,0.06103299558162689,0.21199506521224976
1789315940039960000,9.1959599609375,0.3248627483844757,-0.04728006571531296,0.33792078495025635
1789315940049994200,9.205994140625,0.4505956470966339,-0.09793125092983246,0.4580349624156952
1789315940060028200,9.216028076171876,0.5850335359573364,-0.16596798598766327,0.544273853302002
1789315940070061300,9.226061279296875,0.5852702856063843,-0.21692517399787903,0.6572446227073669
1789315940080095000,9.236094970703125,0.5722808837890625,-0.17829997837543488,0.7257121801376343
1789315940090128600,9.246128662109374,0.5502155423164368,-0.12747114896774292,0.739711344242096
1789315940100161800,9.256161865234375,0.5247904062271118,-0.09430411458015442,0.763969898223877
1789315940110195700,9.26619580078125,0.5379432439804077,-0.04251815006136894,0.7722975611686707
1789315940120229600,9.276229736328125,0.5765151977539062,0.024527067318558693,0.7545000910758972
1789315940130263800,9.286263916015624,0.6094904541969299,0.0722663626074791,0.7128919363021851
1789315940140296700,9.296296630859375,0.615684986114502,0.12655527889728546,0.6710079312324524
1789315940150331000,9.306330810546875,0.6200363636016846,0.15128912031650543,0.6241312026977539
1789315940160364500,9.316364501953124,0.6417585015296936,0.13931904733181,0.578377366065979
1789315940170397700,9.326397705078126,0.6327359676361084,0.09589246660470963,0.5573272109031677
1789315940180431600,9.336431640625,0.6396756172180176,0.03999786823987961,0.5798019766807556
1789315940190465800,9.3464658203125,0.632472813129425,0.008105982095003128,0.6336314082145691
1789315940200499000,9.3564990234375,0.6201655864715576,-0.10594376921653748,0.7391229271888733
1789315940210532600,9.36653271484375,0.6027892231941223,-0.2341265082359314,0.9430654048919678
1789315940220566800,9.37656689453125,0.6159796714782715,-0.25884443521499634,1.1487650871276855
1789315940230601000,9.38660107421875,0.6056761741638184,-0.16282950341701508,1.3043574094772339
1789315940240633600,9.396633544921874,0.5144968032836914,0.004359111189842224,1.4308439493179321
1789315940250667800,9.406667724609376,0.3650650084018707,0.2365550547838211,1.4851537942886353
1789315940260701700,9.41670166015625,0.21654513478279114,0.40223172307014465,1.4508728981018066
1789315940270734800,9.42673486328125,0.14268529415130615,0.4366680085659027,1.2840690612792969
1789315940280768500,9.4367685546875,0.12050189077854156,0.4390447437763214,1.0796127319335938
1789315940290802700,9.446802734375,0.14299681782722473,0.2563167214393616,0.9782533645629883
1789315940300835600,9.456835693359375,0.2214517593383789,-0.14639481902122498,0.9031614065170288
1789315940310869800,9.466869873046875,0.3214433491230011,-0.5036240220069885,0.8198785185813904
1789315940320903700,9.476903564453124,0.33289724588394165,-0.6719426512718201,0.8921003937721252
1789315940330937600,9.4869375,0.2731625437736511,-0.6077910661697388,0.859775185585022
1789315940340970800,9.496970703125,0.19158722460269928,-0.48116952180862427,0.7251706719398499
1789315940351004700,9.507004638671875,0.09587561339139938,-0.32088157534599304,0.62533038854599
1789315940361038600,9.51703857421875,-0.005664280615746975,-0.07601717859506607,0.5970431566238403
1789315940371071700,9.52707177734375,-0.07803381979465485,0.11300467699766159,0.525334358215332
1789315940381105700,9.537105712890625,-0.09088747948408127,0.2708075940608978,0.41138824820518494
1789315940391139800,9.547139892578125,-0.08019275963306427,0.3925529420375824,0.2829383909702301
1789315940401173800,9.557173828125,-0.142043799161911,0.4772917330265045,0.20352549850940704
1789315940411206700,9.56720654296875,-0.2596396505832672,0.4949050843715668,0.25168076157569885
1789315940421240800,9.57724072265625,-0.31328055262565613,0.44500482082366943,0.38390907645225525
1789315940431274800,9.587274658203125,-0.2518214285373688,0.44489747285842896,0.4115723967552185
1789315940441308000,9.597307861328124,-0.15202389657497406,0.386079877614975,0.4303404688835144
1789315940451341600,9.607341552734376,-0.016874058172106743,0.10631907731294632,0.20477791130542755
1789315940461375700,9.617375732421875,0.14483585953712463,0.17334593832492828,-0.046101756393909454
1789315940471410000,9.627409912109375,0.28688517212867737,0.28103405237197876,-0.2230440378189087
1789315940481442800,9.63744287109375,0.35711899399757385,0.330229789018631,-0.3708387315273285
1789315940491476700,9.647476806640626,0.35392773151397705,0.31958672404289246,-0.4495188891887665
1789315940501510700,9.6575107421875,0.2857229709625244,0.18353113532066345,-0.49276572465896606
1789315940511543800,9.667543701171875,0.12429679185152054,0.05094566196203232,-0.4550580382347107
1789315940521577700,9.67757763671875,-0.07800708711147308,0.0404202863574028,-0.28685712814331055
1789315940531611600,9.687611572265626,-0.25692999362945557,0.06954061985015869,-0.035198792815208435
1789315940541645800,9.697645751953125,-0.42785903811454773,0.028941214084625244,0.22891342639923096
1789315940551678700,9.7076787109375,-0.5700140595436096,-0.0660308375954628,0.5143078565597534
1789315940561712600,9.717712646484374,-0.6566720604896545,-0.1967245191335678,0.7555158734321594
1789315940571746800,9.727746826171876,-0.7207988500595093,-0.25270071625709534,0.8696562647819519
1789315940581779700,9.73777978515625,-0.744093656539917,-0.18889114260673523,0.8665648102760315
1789315940591814000,9.74781396484375,-0.7038264274597168,-0.09056190401315689,0.8204591274261475
1789315940601847600,9.75784765625,-0.6395812034606934,-0.02617221511900425,0.6932356953620911
1789315940611880700,9.767880615234375,-0.5541544556617737,-0.014917431399226189,0.4974401295185089
1789315940621914600,9.77791455078125,-0.4494439363479614,0.010785392485558987,0.2986275553703308
1789315940631948800,9.78794873046875,-0.3501479923725128,0.04189244657754898,0.15652206540107727
1789315940641982700,9.797982666015624,-0.28445807099342346,0.045508917421102524,0.05848042666912079
1789315940652015600,9.808015625,-0.26177191734313965,0.02791873924434185,-0.09682101011276245
1789315940662049800,9.8180498046875,-0.2673054337501526,-0.07756108045578003,-0.18687580525875092
1789315940672083700,9.828083740234375,-0.31890153884887695,-0.2116304636001587,-0.182481050491333
1789315940682116900,9.838116943359376,-0.3920784294605255,-0.262609601020813,-0.15694297850131989
1789315940692150800,9.84815087890625,-0.4531271159648895,-0.27060040831565857,-0.15551260113716125
1789315940702184700,9.858184814453125,-0.4714079201221466,-0.2869773805141449,-0.17506058514118195
1789315940712219000,9.868218994140625,-0.4591906666755676,-0.28173521161079407,-0.22957123816013336
1789315940722251800,9.878251708984376,-0.45477303862571716,-0.2482704222202301,-0.29892054200172424
1789315940732285700,9.88828564453125,-0.4708699882030487,-0.17738771438598633,-0.3547840714454651
1789315940742319900,9.89831982421875,-0.4891839921474457,-0.13620412349700928,-0.3894495964050293
1789315940752352800,9.908352783203124,-0.47315147519111633,-0.09310086816549301,-0.45978954434394836
1789315940762386700,9.91838671875,-0.4361070394515991,-0.06986377388238907,-0.5799720287322998
1789315940772420600,9.928420654296875,-0.3759060204029083,-0.11223333328962326,-0.68611741065979
1789315940782454800,9.938454833984375,-0.30641859769821167,-0.19550901651382446,-0.7761191129684448
1789315940792487700,9.94848779296875,-0.18800382316112518,-0.27168795466423035,-0.9035367369651794
1789315940802521600,9.958521484375,-0.096695676445961,-0.21150453388690948,-1.0336476564407349
1789315940812555800,9.9685556640625,-0.0969042032957077,-0.04587588459253311,-1.1741645336151123
1789315940822588700,9.978588623046875,-0.1336326003074646,0.09988880157470703,-1.2195791006088257
1789315940832622800,9.988622802734374,-0.19332736730575562,0.3094998300075531,-1.2334402799606323
1789315940842656500,9.998656494140626,-0.2557156980037689,0.4453319311141968,-1.161266803741455
1789315940852689700,10.008689697265625,-0.30763936042785645,0.5073451995849609,-1.046655297279358
1789315940862723800,10.018723876953125,-0.311672180891037,0.30107808113098145,-0.8031529188156128
1789315940872757800,10.0287578125,-0.32330378890037537,0.13168078660964966,-0.8436034321784973
1789315940882791700,10.038791748046876,-0.36534491181373596,0.09610524028539658,-0.9214001297950745
1789315940892824600,10.048824462890625,-0.38520729541778564,0.11896288394927979,-0.9306048154830933
1789315940902858800,10.058858642578125,-0.3595934510231018,0.07029234617948532,-0.8715741038322449
1789315940912893000,10.068892822265624,-0.31352663040161133,-0.004931297153234482,-0.779521644115448
1789315940922925800,10.07892578125,-0.25932714343070984,-0.12482260167598724,-0.682557225227356
1789315940932959700,10.088959716796875,-0.19774873554706573,-0.2749923765659332,-0.7152813076972961
1789315940942993700,10.09899365234375,-0.14374786615371704,-0.27895599603652954,-0.832641065120697
1789315940953027800,10.10902783203125,-0.08627232909202576,-0.061114758253097534,-1.0006153583526611
1789315940963060700,10.119060791015626,-0.015508622862398624,0.21602900326251984,-1.153370976448059
1789315940973094700,10.1290947265625,0.040806844830513,0.3662283420562744,-1.2528728246688843
1789315940983128800,10.13912890625,0.06702616810798645,0.3459644317626953,-1.2166045904159546
1789315940993161700,10.14916162109375,0.07588943094015121,0.11867507547140121,-1.0782393217086792
1789315941003195600,10.159195556640626,0.05344754830002785,-0.19956837594509125,-0.9214027523994446
1789315941013229600,10.1692294921875,0.013562982901930809,-0.4738784730434418,-0.8544551730155945
1789315941023263700,10.179263671875,-0.06877429038286209,-0.6034358739852905,-0.8517966866493225
1789315941033297000,10.189296875,-0.1943865418434143,-0.5476056337356567,-0.8696457147598267
1789315941043330600,10.19933056640625,-0.3282792866230011,-0.3391228914260864,-0.8369413614273071
1789315941053364700,10.20936474609375,-0.43776342272758484,-0.07732377201318741,-0.743861198425293
1789315941063397600,10.219397705078125,-0.5185574889183044,0.13870346546173096,-0.6061685085296631
1789315941073431800,10.229431884765624,-0.510277509689331,0.3678375780582428,-0.4319758713245392
1789315941083465700,10.2394658203125,-0.3947732448577881,0.5063934326171875,-0.2087017446756363
1789315941093499000,10.249498779296875,-0.22056762874126434,0.4565694034099579,0.053098708391189575
1789315941103532800,10.25953271484375,-0.07471837848424911,0.2538754940032959,0.2639961242675781
1789315941113567000,10.26956689453125,0.022571688517928123,0.05606040358543396,0.3182223439216614
1789315941123601000,10.279600830078126,0.037427183240652084,0.030877336859703064,0.23779988288879395
1789315941133633800,10.2896337890625,-0.029716700315475464,0.08996781706809998,0.12027165293693542
1789315941143668000,10.29966796875,-0.1201622486114502,0.20537710189819336,-0.02608516998589039
1789315941153702000,10.309701904296874,-0.15646858513355255,0.34942349791526794,-0.10553498566150665
1789315941163735800,10.31973583984375,-0.1452304869890213,0.4201274514198303,-0.07209351658821106
1789315941173769000,10.32976904296875,-0.13953585922718048,0.3119559586048126,0.06611096113920212
1789315941183803000,10.339802978515625,-0.15498784184455872,0.17951083183288574,0.20686054229736328
1789315941193836800,10.3498369140625,-0.1238032877445221,0.10884464532136917,0.27387580275535583
1789315941203869700,10.35986962890625,-0.029405025765299797,0.016190236434340477,0.28672629594802856
1789315941213904000,10.36990380859375,0.08916263282299042,-0.11926133185625076,0.33835700154304504
1789315941223938000,10.37993798828125,0.21089346706867218,-0.22596992552280426,0.42250701785087585
1789315941233971000,10.389970947265626,0.34782734513282776,-0.27681848406791687,0.5244302153587341
1789315941244004900,10.4000048828125,0.469373494386673,-0.3157244920730591,0.574874758720398
1789315941254038800,10.410038818359375,0.5192776918411255,-0.38442713022232056,0.5994144678115845
1789315941264073000,10.420072998046875,0.5152260661125183,-0.43862226605415344,0.6146679520606995
1789315941274105900,10.43010595703125,0.5367950201034546,-0.4391077756881714,0.6098231673240662
1789315941284139800,10.440139892578125,0.5515719652175903,-0.4185546338558197,0.6364443898200989
1789315941294174000,10.450174072265625,0.5358604192733765,-0.4075653553009033,0.6874780058860779
1789315941304206800,10.460206787109374,0.5150763392448425,-0.39112696051597595,0.7629947662353516
1789315941314241000,10.470240966796876,0.5347768068313599,-0.3621770739555359,0.8412120342254639
1789315941324274700,10.480274658203125,0.5594807267189026,-0.3576333522796631,0.9320048689842224
1789315941334308900,10.490308837890625,0.5754889845848083,-0.39230024814605713,1.0139659643173218
1789315941344342000,10.500342041015625,0.5495355129241943,-0.4685252606868744,1.054207444190979
1789315941354376000,10.5103759765625,0.524905264377594,-0.4375537633895874,1.0212070941925049
1789315941364409900,10.520409912109375,0.502403974533081,-0.28213098645210266,0.8982215523719788
1789315941374442800,10.53044287109375,0.4725291430950165,-0.09668175131082535,0.7095317840576172
1789315941384477000,10.540476806640624,0.43448564410209656,0.014564705081284046,0.5649136304855347
1789315941394511000,10.550510986328124,0.4086761474609375,0.05304525047540665,0.5583398342132568
1789315941404544800,10.560544677734375,0.4153226912021637,0.058102935552597046,0.654933750629425
1789315941414578000,10.570577880859375,0.48203593492507935,0.04590565711259842,0.7899909019470215
1789315941424611800,10.58061181640625,0.5470806956291199,0.012728867121040821,0.9522021412849426
1789315941434646000,10.59064599609375,0.5812237858772278,-0.15525932610034943,1.0992720127105713
1789315941444678700,10.6006787109375,0.6001494526863098,-0.32028114795684814,1.164684772491455
1789315941454712800,10.610712890625,0.6395136117935181,-0.3433169424533844,1.0426020622253418
1789315941464747000,10.6207470703125,0.6329837441444397,-0.3648371994495392,0.9255856275558472
1789315941474780700,10.63078076171875,0.5614959597587585,-0.2677401900291443,0.7709515690803528
1789315941484813800,10.640813720703125,0.5041957497596741,-0.11369834840297699,0.582215428352356
1789315941494847700,10.65084765625,0.4811631441116333,0.0037361322902143,0.434607595205307
1789315941504882000,10.6608818359375,0.4396463632583618,0.022319501265883446,0.45426151156425476
1789315941514915000,10.6709150390625,0.3545958995819092,0.10366282612085342,0.4875262677669525
1789315941524948700,10.68094873046875,0.26852911710739136,0.24109096825122833,0.5156981945037842
1789315941534983000,10.69098291015625,0.18629471957683563,0.37903764843940735,0.3685550391674042
1789315941545017000,10.70101708984375,0.05450393632054329,0.5638234615325928,0.21132519841194153
1789315941555050000,10.711050048828126,-0.09079360216856003,0.7171831727027893,0.018980249762535095
1789315941565084000,10.721083984375,-0.2075534164905548,0.8503803610801697,-0.12623430788516998
1789315941575117800,10.731117919921875,-0.2699755132198334,0.9319367408752441,-0.11632627993822098
1789315941585151000,10.74115087890625,-0.270951509475708,0.8785071969032288,0.015625499188899994
1789315941595185000,10.751184814453126,-0.20619435608386993,0.7045940160751343,0.1603746861219406
1789315941605218800,10.76121875,-0.06033715978264809,0.5846496820449829,0.16631723940372467
1789315941615253000,10.7712529296875,0.1030280664563179,0.6148200631141663,0.05270465463399887
1789315941625286000,10.781285888671874,0.24255572259426117,0.6132063865661621,0.044530317187309265
1789315941635320000,10.791320068359376,0.2650969624519348,0.4692308306694031,0.08189179748296738
1789315941645353700,10.801353759765625,0.16777563095092773,0.27783912420272827,0.07962016016244888
1789315941655387000,10.811386962890625,0.028358353301882744,0.1622837632894516,0.04362860321998596
1789315941665420800,10.8214208984375,-0.14024551212787628,0.06199857220053673,-0.021780094131827354
1789315941675455000,10.831455078125,-0.2856740951538086,-0.0667189285159111,-0.10239957273006439
1789315941685489000,10.841489013671875,-0.34769144654273987,-0.20349937677383423,-0.06898372620344162
1789315941695521800,10.851521728515625,-0.3543490767478943,-0.30814802646636963,0.05269930139183998
1789315941705556000,10.861555908203124,-0.35810646414756775,-0.29002755880355835,0.2546320855617523
1789315941715590000,10.87158984375,-0.3325299918651581,-0.2733476459980011,0.45928454399108887
1789315941725622800,10.881622802734375,-0.33137246966362,-0.2578858733177185,0.5448174476623535
1789315941735657000,10.891656982421875,-0.3326771557331085,-0.20825308561325073,0.5630366802215576
1789315941745691000,10.90169091796875,-0.28399887681007385,-0.242238849401474,0.558376669883728
1789315941755724800,10.911724853515626,-0.22501012682914734,-0.32627037167549133,0.571392297744751
1789315941765757700,10.9217578125,-0.19703111052513123,-0.37622109055519104,0.6019954085350037
1789315941775791900,10.9317919921875,-0.18811830878257751,-0.42454254627227783,0.6118523478507996
1789315941785826000,10.941825927734374,-0.2650770843029022,-0.4567311704158783,0.6356474161148071
1789315941795859000,10.95185888671875,-0.32877111434936523,-0.41065049171447754,0.7634048461914062
1789315941805892900,10.961892822265625,-0.3461097776889801,-0.3797249495983124,0.8519923686981201
1789315941815926800,10.9719267578125,-0.38681167364120483,-0.4386870861053467,0.7278009057044983
1789315941825961000,10.9819609375,-0.41588690876960754,-0.46790891885757446,0.42032790184020996
1789315941835993900,10.991993896484376,-0.38930776715278625,-0.5134152173995972,0.1578131765127182
1789315941846027800,11.00202783203125,-0.3294415771961212,-0.5990403294563293,-0.07101721316576004
1789315941856062000,11.01206201171875,-0.28109854459762573,-0.6133281588554382,-0.206284761428833
1789315941866095900,11.022095947265624,-0.2504566013813019,-0.6311126351356506,-0.23276959359645844
1789315941876129000,11.03212890625,-0.20828436315059662,-0.6203907132148743,-0.21789637207984924
1789315941886163000,11.042162841796875,-0.17230631411075592,-0.5411137938499451,-0.17025251686573029
1789315941896196900,11.05219677734375,-0.09429006278514862,-0.4508611261844635,-0.14399029314517975
1789315941906230000,11.06222998046875,0.0006897585699334741,-0.2670563757419586,-0.23070725798606873
1789315941916264000,11.072263916015626,0.08498439937829971,-0.05945179611444473,-0.39938095211982727
1789315941926297900,11.0822978515625,0.1137726679444313,0.1351139098405838,-0.5380077362060547
1789315941936332000,11.09233203125,0.09816707670688629,0.20781926810741425,-0.5572075247764587
1789315941946365000,11.102364990234374,0.06425924599170685,0.18148978054523468,-0.5298897624015808
1789315941956398800,11.11239892578125,0.002724780235439539,0.18084023892879486,-0.5541396737098694
1789315941966432800,11.122432861328125,-0.025431988760828972,0.1751473993062973,-0.4770999848842621
1789315941976466000,11.1324658203125,-0.012954548001289368,0.07997427880764008,-0.3824347257614136
1789315941986499800,11.142499755859374,-0.02836707793176174,0.04298047348856926,-0.43718400597572327
1789315941996533800,11.15253369140625,-0.0827682688832283,0.13849420845508575,-0.5313819050788879
1789315942006568000,11.16256787109375,-0.12728874385356903,0.34766384959220886,-0.5518839955329895
1789315942016600800,11.172600830078125,-0.15543968975543976,0.3836761713027954,-0.5068941712379456
1789315942026635000,11.182635009765624,-0.1454579383134842,0.13109645247459412,-0.47604283690452576
1789315942036668700,11.192668701171876,-0.12324130535125732,-0.21280314028263092,-0.5958629250526428
1789315942046701800,11.202701904296875,-0.0958876684308052,-0.4024028480052948,-0.7255167365074158
1789315942056736000,11.212736083984375,-0.06460191309452057,-0.37105053663253784,-0.8209439516067505
1789315942066770000,11.22277001953125,-0.06387671828269958,-0.23787985742092133,-0.8786940574645996
1789315942076803800,11.232803955078126,-0.07745058089494705,-0.1930476725101471,-0.9076436758041382
1789315942086836700,11.242836669921875,-0.11423444747924805,-0.22060829401016235,-0.9617162942886353
1789315942096870700,11.25287060546875,-0.16965830326080322,-0.2003198117017746,-1.0520230531692505
1789315942106904600,11.262904541015626,-0.20515981316566467,-0.06605909764766693,-1.2477446794509888
1789315942116937700,11.272937744140625,-0.23585541546344757,0.13954119384288788,-1.4502555131912231
1789315942126971400,11.282971435546875,-0.2676231861114502,0.2980128526687622,-1.485995888710022
1789315942137005600,11.293005615234375,-0.24232982099056244,0.384917676448822,-1.4041575193405151
1789315942147039700,11.303039794921874,-0.15103265643119812,0.3201959431171417,-1.2971216440200806
1789315942157072600,11.31307275390625,-0.04993719980120659,0.13185052573680878,-1.1617437601089478
1789315942167106600,11.3231064453125,0.020254069939255714,-0.11586940288543701,-1.0534151792526245
1789315942177140700,11.333140625,0.10038912296295166,-0.3087182343006134,-0.9952085018157959
1789315942187173600,11.343173583984376,0.18806061148643494,-0.4383135735988617,-0.9849218130111694
1789315942197207800,11.353207763671875,0.2854127287864685,-0.48354363441467285,-0.9280372262001038
1789315942207241500,11.363241455078125,0.37044602632522583,-0.46637946367263794,-0.8149833679199219
1789315942217275600,11.373275634765625,0.43924081325531006,-0.39838308095932007,-0.6576480865478516
1789315942227308500,11.38330859375,0.43308329582214355,-0.2733316421508789,-0.4937744438648224
1789315942237342700,11.3933427734375,0.3600972592830658,-0.09056873619556427,-0.3375864326953888
1789315942247376600,11.403376708984375,0.2864779829978943,0.05135434493422508,-0.25914210081100464
1789315942257409500,11.413409423828124,0.20517432689666748,0.08242837339639664,-0.2290710210800171
1789315942267443700,11.423443603515626,0.14380234479904175,0.10216127336025238,-0.2187732756137848
1789315942277477400,11.433477294921875,0.1413961797952652,0.16929611563682556,-0.2130754441022873
1789315942287511600,11.443511474609375,0.1721048653125763,0.24387982487678528,-0.21630126237869263
1789315942297544400,11.45354443359375,0.21563370525836945,0.3017643988132477,-0.20375244319438934
1789315942307578600,11.46357861328125,0.24083299934864044,0.35547104477882385,-0.15236182510852814
1789315942317612500,11.473612548828125,0.2531232237815857,0.4060271382331848,-0.08286342769861221
1789315942327645400,11.4836455078125,0.23719331622123718,0.40170982480049133,0.003545855637639761
1789315942337679600,11.4936796875,0.20874889194965363,0.3911900818347931,0.07582830637693405
1789315942347713800,11.5037138671875,0.22968432307243347,0.3819868564605713,0.11246662586927414
1789315942357747500,11.51374755859375,0.3138785660266876,0.3631631135940552,0.1379016786813736
1789315942367780600,11.523780517578125,0.3885343372821808,0.38576740026474,0.1740938276052475
1789315942377814500,11.533814453125,0.4336701035499573,0.43202677369117737,0.19583214819431305
1789315942387848700,11.5438486328125,0.46533897519111633,0.48003217577934265,0.18892478942871094
1789315942397882600,11.553882568359375,0.4867750406265259,0.5475896596908569,0.19623756408691406
1789315942407915500,11.56391552734375,0.439998984336853,0.5510066747665405,0.23205004632472992
1789315942417949700,11.57394970703125,0.36280351877212524,0.5369305610656738,0.3312094211578369
1789315942427983600,11.583983642578126,0.3284703493118286,0.5351231694221497,0.48889654874801636
1789315942438016800,11.594016845703125,0.33779725432395935,0.5309327244758606,0.6503909230232239
1789315942448050400,11.604050537109375,0.3746457099914551,0.5418227314949036,0.7823526859283447
1789315942458084600,11.614084716796874,0.43771815299987793,0.5610550045967102,0.862060010433197
1789315942468118800,11.624118896484376,0.5059825778007507,0.5772449970245361,0.9172147512435913
1789315942478151700,11.634151611328125,0.560798704624176,0.5742018222808838,0.9714246988296509
1789315942488185600,11.644185546875,0.5777459740638733,0.5512803792953491,0.995779812335968
1789315942498219500,11.654219482421874,0.5776665806770325,0.45811793208122253,0.9865412712097168
1789315942508252700,11.664252685546876,0.559424102306366,0.36794060468673706,0.9396078586578369
1789315942518286600,11.67428662109375,0.5123314261436462,0.2314051389694214,0.9273370504379272
1789315942528320500,11.684320556640625,0.4531477987766266,0.12771207094192505,0.9145489931106567
1789315942538354700,11.694354736328124,0.38885587453842163,0.06895554065704346,0.9048305749893188
1789315942548387600,11.7043876953125,0.3225982189178467,0.01685013435781002,0.8959176540374756
1789315942558421500,11.71442138671875,0.2729358673095703,-0.0347808338701725,0.8756179809570312
1789315942568455700,11.72445556640625,0.262704461812973,-0.0019301807042211294,0.8682889938354492
1789315942578488600,11.734488525390624,0.2448626160621643,0.07943364977836609,0.9338483214378357
1789315942588522800,11.744522705078126,0.2102765440940857,0.15869049727916718,1.0675914287567139
1789315942598556400,11.754556396484375,0.16966386139392853,0.21625977754592896,1.2264522314071655
1789315942608590600,11.764590576171875,0.10894571244716644,0.1778213381767273,1.308347225189209
1789315942618623500,11.77462353515625,0.03228076919913292,0.08417181670665741,1.264039397239685
1789315942628657700,11.78465771484375,0.009474844671785831,0.06108996644616127,1.1306695938110352
1789315942638691600,11.794691650390625,0.009875916875898838,0.04641488566994667,1.0043199062347412
1789315942648725500,11.8047255859375,-0.03554543852806091,0.026538612321019173,0.9252991676330566
1789315942658758700,11.814758544921874,-0.11362772434949875,-0.041452959179878235,0.9617594480514526
1789315942668792600,11.82479248046875,-0.11165960878133774,-0.048897624015808105,1.0850344896316528
1789315942678826500,11.834826416015625,-0.09878961741924286,-0.053897175937891006,1.1454073190689087
1789315942688859600,11.844859619140625,-0.11269938200712204,-0.11209014803171158,1.1850091218948364
1789315942698893600,11.8548935546875,-0.1541440337896347,-0.046577442437410355,1.0732905864715576
1789315942708927700,11.864927734375,-0.16006235778331757,0.02944977767765522,0.8002504110336304
1789315942718961400,11.87496142578125,-0.18992650508880615,0.21527662873268127,0.4240187108516693
1789315942728994600,11.88499462890625,-0.23278848826885223,0.3801279067993164,0.09175019711256027
1789315942739028700,11.89502880859375,-0.30385467410087585,0.5104092359542847,-0.02974693477153778
1789315942749062700,11.905062744140626,-0.35412174463272095,0.5419992804527283,0.09740399569272995
1789315942759095600,11.915095458984375,-0.36581942439079285,0.4174312949180603,0.3086182177066803
1789315942769129500,11.92512939453125,-0.321061372756958,0.31222987174987793,0.457344114780426
1789315942779163600,11.93516357421875,-0.24380122125148773,0.2696792185306549,0.4974161684513092
1789315942789197600,11.945197509765626,-0.16850446164608002,0.2038131207227707,0.44453856348991394
1789315942799230500,11.95523046875,-0.13033311069011688,0.2112225741147995,0.363241046667099
1789315942809264600,11.9652646484375,-0.11588345468044281,0.22598634660243988,0.2602635324001312
1789315942819298600,11.975298583984374,-0.12161324918270111,0.2382746934890747,0.09450652450323105
1789315942829331700,11.985331787109375,-0.15428794920444489,0.25037646293640137,-0.06941340118646622
1789315942839365400,11.995365478515625,-0.19015833735466003,0.15558764338493347,-0.16384856402873993
1789315942849399600,12.005399658203125,-0.24375306069850922,0.11103052645921707,-0.16358104348182678
1789315942859433700,12.015433837890624,-0.2998269498348236,0.053696926683187485,-0.11110291630029678
1789315942869466600,12.025466552734375,-0.3246711492538452,0.018218230456113815,0.01915423944592476
1789315942879500500,12.03550048828125,-0.3426789343357086,-0.005216254852712154,0.11689624190330505
1789315942889534700,12.04553466796875,-0.428171843290329,-0.019933048635721207,0.16661855578422546
1789315942899567600,12.055567626953126,-0.49618417024612427,-0.060055702924728394,0.22791680693626404
1789315942909601800,12.065601806640625,-0.5040123462677002,-0.08141840994358063,0.2783792018890381
1789315942919635500,12.075635498046875,-0.487354576587677,-0.0978381335735321,0.34095948934555054
1789315942929669600,12.085669677734375,-0.4933040738105774,-0.06462804973125458,0.422191321849823
1789315942939702500,12.09570263671875,-0.5182136297225952,-0.02775871381163597,0.49166253209114075
1789315942949736700,12.10573681640625,-0.5470197200775146,-0.032954808324575424,0.5227959752082825
1789315942959770600,12.1157705078125,-0.5824698805809021,-0.012287079356610775,0.5072748064994812
1789315942969804500,12.125804443359375,-0.6128136515617371,0.02425072155892849,0.4980347454547882
1789315942979837700,12.135837646484376,-0.6242657899856567,0.052014175802469254,0.487778902053833
1789315942989871600,12.14587158203125,-0.602205753326416,0.06835686415433884,0.4103829860687256
1789315942999905500,12.155905517578125,-0.5539295673370361,0.05052061006426811,0.29345715045928955
1789315943009938400,12.1659384765625,-0.5172705054283142,0.013100300915539265,0.1794617474079132
1789315943019972600,12.17597265625,-0.4844377338886261,-0.025512339547276497,0.05149632319808006
1789315943030006500,12.186006591796875,-0.4572123885154724,-0.0508030466735363,-0.10823209583759308
1789315943040040400,12.19604052734375,-0.43820807337760925,-0.04762563109397888,-0.28209763765335083
1789315943050073600,12.206073486328124,-0.4031025469303131,-0.048082929104566574,-0.4176560640335083
1789315943060107800,12.216107666015626,-0.3466491401195526,-0.053565844893455505,-0.5048536062240601
1789315943070141400,12.226141357421875,-0.3088984191417694,-0.027975229546427727,-0.604789137840271
1789315943080174600,12.236174560546875,-0.30873942375183105,0.01706734485924244,-0.6916220784187317
1789315943090208500,12.24620849609375,-0.33284062147140503,0.09444202482700348,-0.7417483329772949
1789315943100242700,12.25624267578125,-0.37252119183540344,0.18370425701141357,-0.8024609088897705
1789315943110276400,12.2662763671875,-0.44754669070243835,0.25071781873703003,-0.892831563949585
1789315943120309500,12.2763095703125,-0.5242481231689453,0.23807074129581451,-0.8913503289222717
1789315943130343400,12.286343505859374,-0.540241539478302,0.1758560687303543,-0.8981915712356567
1789315943140377600,12.296377685546876,-0.49690312147140503,0.20174892246723175,-1.0299708843231201
1789315943150411500,12.30641162109375,-0.4220452606678009,0.24826277792453766,-1.07240629196167
1789315943160444400,12.3164443359375,-0.38880154490470886,0.3547450006008148,-1.1546167135238647
1789315943170478600,12.326478515625,-0.3904953896999359,0.5276695489883423,-1.2252278327941895
1789315943180512500,12.336512451171876,-0.39833199977874756,0.7297549843788147,-1.199328064918518
1789315943190545700,12.346545654296875,-0.4038928747177124,0.7035428881645203,-0.9927385449409485
1789315943200579300,12.356579345703125,-0.4000941514968872,0.512135922908783,-0.8601453304290771
1789315943210613500,12.366613525390624,-0.3522818684577942,0.18592140078544617,-0.7418301105499268
1789315943220647700,12.376647705078126,-0.283149391412735,-0.05310315266251564,-0.7918741106987
1789315943230680600,12.3866806640625,-0.22870801389217377,-0.030341314151883125,-1.0122368335723877
1789315943240714500,12.396714599609375,-0.17368657886981964,0.15137308835983276,-1.158657193183899
1789315943250748400,12.40674853515625,-0.13479383289813995,0.3195560872554779,-1.1454825401306152
1789315943260782600,12.416782470703126,-0.16626226902008057,0.3943027853965759,-1.1563514471054077
1789315943270815500,12.4268154296875,-0.2346840798854828,0.31266865134239197,-1.1398895978927612
1789315943280849400,12.436849365234375,-0.24182188510894775,0.17644475400447845,-1.1383198499679565
1789315943290883600,12.446883544921874,-0.21975910663604736,0.06123577430844307,-1.1839194297790527
1789315943300916500,12.45691650390625,-0.24448709189891815,0.019986068829894066,-1.2355945110321045
1789315943310950400,12.466950439453125,-0.3046208322048187,0.044246233999729156,-1.1645091772079468
1789315943320984600,12.476984619140625,-0.31265267729759216,0.07361797243356705,-0.9297664165496826
