seconds_elapsed,z,y,x
0.0,-4.698395132607222,-8.523155081060528,-1.2047007836878298
0.01,-4.681708644711189,-8.531313176169768,-1.2118937232502542
0.02,-4.667265865481606,-8.537050834872382,-1.2270983013432306
0.03,-4.6606294937085435,-8.535745275011775,-1.260926548041733
0.04,-4.6249581297960685,-8.550579625616727,-1.2914012077075405
0.05,-4.58914515453835,-8.568226733435973,-1.3021518537961032
0.06,-4.6058907689260735,-8.562791953965998,-1.278541601604604
0.07,-4.64122574591412,-8.54924234286975,-1.240856662985352
0.08,-4.692514854723521,-8.526560711629472,-1.2034942665402728
0.09,-4.72200567059919,-8.513232842365897,-1.1823340228596448
0.1,-4.733526914774321,-8.50505300006639,-1.1950447957695982
0.11,-4.728652646582355,-8.502938378410887,-1.2288710690735014
0.12,-4.689661087150071,-8.51944183884075,-1.263479792554957
0.13,-4.637437514361365,-8.546779564663016,-1.2715803601117026
0.14,-4.598226320094469,-8.57332309927106,-1.2347775207348435
0.15,-4.58047835898008,-8.589344049792782,-1.1885796638444763
0.16,-4.5626391477670705,-8.601433200468229,-1.1696397816378712
0.17,-4.554334119234919,-8.6040779784678,-1.1824335197312899
0.18,-4.569257143384039,-8.590600530641389,-1.2220919243834225
0.19,-4.615986354209692,-8.559547772107651,-1.2636546478134514
0.2,-4.671305338464364,-8.526735922105505,-1.2821462870021894
0.21,-4.712356573451707,-8.505337538874963,-1.2739952108292603
0.22,-4.750898571036593,-8.488241061838922,-1.244619297779515
0.23,-4.75726402170702,-8.48630358865597,-1.2334084090548239
0.24,-4.715087025714184,-8.50822981956836,-1.244008864862327
0.25,-4.634238060859045,-8.549975126677102,-1.2614497031975123
0.26,-4.556545508221018,-8.588102261460017,-1.285529759696895
0.27,-4.522510938837883,-8.603986421160114,-1.2994960491900969
0.28,-4.517284031548509,-8.606875594892191,-1.2984731531839857
0.29,-4.552877928904799,-8.589095633285282,-1.2918672373036237
0.3,-4.589487140255998,-8.569110981089237,-1.2950284032173514
0.31,-4.627629288676288,-8.547803288850325,-1.300118027795139
0.32,-4.659879399343501,-8.531550698827182,-1.291682782032686
0.33,-4.679036711313656,-8.524471747545457,-1.2689298816482049
0.34,-4.704691694149687,-8.513584427501424,-1.2470399771404475
0.35,-4.715179159624168,-8.508611352882095,-1.2413693551518161
0.36,-4.716680382964194,-8.507387769613338,-1.2440314221424136
0.37,-4.702644224475145,-8.512232594937437,-1.2637129249090922
0.38,-4.66510709026025,-8.527347542727991,-1.3004606211352914
0.39,-4.634233925652997,-8.5410305239596,-1.3210001639479994
0.4,-4.6353159295297015,-8.542371211092913,-1.308269673245019
0.41,-4.682889208224802,-8.521766861010237,-1.2726856925072927
0.42,-4.727143384682399,-8.502041668298837,-1.2408709064596246
0.43,-4.730982979894923,-8.500941311357403,-1.2337542926948164
0.44,-4.7193947232999625,-8.506211434662367,-1.2417900648213398
0.45,-4.717168671706561,-8.508759019957134,-1.2326194013382485
0.46,-4.751650194682088,-8.492566640847421,-1.2117750362163717
0.47,-4.767734332842553,-8.48316786759303,-1.2144504715265005
0.48,-4.749753980348795,-8.49143007972139,-1.2270603610514217
0.49,-4.724218787248735,-8.504959412354667,-1.2319468242313738
0.5,-4.70969410974806,-8.514070733431037,-1.2246229384719267
0.51,-4.722230380007545,-8.508962498416542,-1.2117684961464774
0.52,-4.741313908881376,-8.498314544766835,-1.211992083643006
0.53,-4.748156496894443,-8.492495864493193,-1.2258523834942756
0.54,-4.731180167267535,-8.496827866557535,-1.260828012179959
0.55,-4.712943085785158,-8.501447197697228,-1.297664853433902
0.56,-4.724610282039518,-8.495653942266118,-1.2931054622743459
0.57,-4.738592906143924,-8.490786234909068,-1.2738327341432152
0.58,-4.723796349510859,-8.499300418059,-1.2718509105450508
0.59,-4.68447593494598,-8.518358183802128,-1.2896509430302128
0.6,-4.664839869570956,-8.527448852296978,-1.3007469868837525
0.61,-4.702290439505069,-8.509824353828694,-1.2810295589210552
0.62,-4.75000020807974,-8.484547075658831,-1.272804129639386
0.63,-4.773616761485311,-8.470113018883954,-1.2806525963823077
0.64,-4.761523304585599,-8.473622908933386,-1.3021812188342208
0.65,-4.738029190995631,-8.484416798955914,-1.3176007014774505
0.66,-4.719750980612572,-8.496360820523893,-1.306078833545852
0.67,-4.6867658169297535,-8.517917963640006,-1.2841513063232923
0.68,-4.652912935768676,-8.541704536243321,-1.248795322270707
0.69,-4.629555954049944,-8.559645372742494,-1.212340393839297
0.7,-4.629546931569121,-8.564313873215406,-1.1789458777095267
0.71,-4.651044570846003,-8.555988099449607,-1.1545566484232317
0.72,-4.681397655930746,-8.54046159741573,-1.1467619591871483
0.73,-4.710312229155498,-8.524861797773136,-1.1445620799674503
0.74,-4.720656513973934,-8.520009292940486,-1.1380666995810895
0.75,-4.720069992858177,-8.523179056419819,-1.1163901475302478
0.76,-4.718707668491278,-8.530590713906996,-1.0639579536560766
0.77,-4.728921761721065,-8.533527625390981,-0.9927286372208162
0.78,-4.734924375305141,-8.536199232588384,-0.9402067978945944
0.79,-4.7159219202843055,-8.547838028613947,-0.9298570427425021
0.8,-4.690594522925533,-8.559954920540548,-0.9464296653832833
0.81,-4.678162505892814,-8.564808520084918,-0.963943601540934
0.82,-4.6643564793666785,-8.571117207282617,-0.9746089483451078
0.83,-4.638930914378598,-8.585571801327491,-0.9687098119962955
0.84,-4.622894129459926,-8.598051695741539,-0.9338284837877356
0.85,-4.6307159265630835,-8.599980397156854,-0.8750584628760438
0.86,-4.670568306815204,-8.58467305375463,-0.8113712213505395
0.87,-4.701447832297946,-8.571795900985174,-0.7687355773325191
0.88,-4.70339674829925,-8.57141130076513,-0.7610909004198971
0.89,-4.687373850111401,-8.578240109514104,-0.7825095274044973
0.9,-4.674824029724338,-8.582488752416843,-0.8106768682320484
0.91,-4.676433831846678,-8.58078814303419,-0.8193914814172863
0.92,-4.683757045391334,-8.578404799816498,-0.8022045883933665
0.93,-4.688164136825733,-8.579765295252294,-0.7604646988481671
0.94,-4.674346662265933,-8.592061833530718,-0.7045067772755528
0.95,-4.641550197446189,-8.613110457311992,-0.6634294959435464
0.96,-4.607633654360069,-8.632711742385887,-0.6450318719594994
0.97,-4.594705251897154,-8.640109929802453,-0.6383840225155982
0.98,-4.626571704550918,-8.622981935456826,-0.6389460550534443
0.99,-4.694865930460824,-8.585817498414231,-0.6406164463474002
1.0,-4.768173359322995,-8.5460916384663,-0.6306527317509815
1.01,-4.816135955728016,-8.521116854263283,-0.6044279017101962
1.02,-4.817950840601758,-8.522271661776118,-0.5728402822483326
1.03,-4.781919569301995,-8.544339473602085,-0.5449585676700108
1.04,-4.735946135462221,-8.570976259990521,-0.5281383487902214
1.05,-4.7030763594366185,-8.588806157214401,-0.5326021653849208
1.06,-4.682670879499845,-8.598581887902045,-0.5541482242636635
1.07,-4.659565097649047,-8.609386180897278,-0.5804545714942532
1.08,-4.650725928937622,-8.613526149722519,-0.5901293708585919
1.09,-4.673091564688592,-8.603408157147815,-0.5593423716819458
1.1,-4.709080471565129,-8.586558984149509,-0.5150275969180536
1.11,-4.7276583808528505,-8.577312981504743,-0.49933177236480736
1.12,-4.727630241294668,-8.57723398734296,-0.5009623491879421
1.13,-4.742835106247484,-8.570009550794689,-0.47969925460092183
1.14,-4.770681201239439,-8.555675683909758,-0.45956741474664137
1.15,-4.781840117865633,-8.549771851653919,-0.45360230096608045
1.16,-4.7638007009222285,-8.560929648391184,-0.43182484651535674
1.17,-4.733927230545926,-8.578163120150593,-0.41856396149842073
1.18,-4.712020873270986,-8.590044340342113,-0.422231188608893
1.19,-4.685296686594481,-8.604680585451057,-0.4212538818765664
1.2,-4.656957850349534,-8.620440534759382,-0.41347059044835516
1.21,-4.653759343940158,-8.622705457461274,-0.4022069283365565
1.22,-4.676370621875065,-8.610796265627735,-0.39476961796856563
1.23,-4.709906009116683,-8.592511389129227,-0.3943408137851546
1.24,-4.726266015971425,-8.583784647466244,-0.38910720501919505
1.25,-4.715672469679103,-8.590222911481181,-0.37509089191010814
1.26,-4.698532641500019,-8.600572997728024,-0.352215051329301
1.27,-4.69414052618065,-8.604276710872075,-0.31859586348903796
1.28,-4.709102259702603,-8.596930804452422,-0.29549816952372676
1.29,-4.723284234249326,-8.589023458881057,-0.29927637800252477
1.3,-4.727666165930039,-8.585984866276396,-0.3167532161419404
1.31,-4.7237500472545815,-8.587416626836154,-0.335779890345453
1.32,-4.723121999386634,-8.58746781688908,-0.3433760235876394
1.33,-4.72677764338033,-8.585944375321972,-0.3307787474698327
1.34,-4.723388673066739,-8.588298616794992,-0.31792557263730087
1.35,-4.709416786916711,-8.595830590508454,-0.32147758198496584
1.36,-4.688420894173522,-8.606946873695335,-0.33073963921594257
1.37,-4.6800941131829354,-8.611081286164046,-0.34110217317972297
1.38,-4.693493831199672,-8.603120408862068,-0.35720748425243193
1.39,-4.717030029927225,-8.58925009937089,-0.3800804914726017
1.4,-4.725516592450675,-8.582953631889009,-0.41521365193503856
1.41,-4.70552725824576,-8.591816333357585,-0.45653140417297694
1.42,-4.677201799016453,-8.605874645733424,-0.48250940787421814
1.43,-4.657206860321316,-8.617123624876866,-0.47518496827145607
1.44,-4.645794067741674,-8.624646225154635,-0.4497340247281833
1.45,-4.641690537515188,-8.62731612507082,-0.4410344833225597
1.46,-4.647176303962905,-8.623998849810306,-0.4480334895751726
1.47,-4.672027166506752,-8.609898890221425,-0.460248167129075
1.48,-4.696037385418694,-8.595823821367361,-0.4787767875429069
1.49,-4.709553243494898,-8.587686500550129,-0.4920230816607796
1.5,-4.7168017931344215,-8.583496210566558,-0.4957378320395437
1.51,-4.734514163307941,-8.57396609777074,-0.49162681108508494
1.52,-4.752511912707851,-8.564867545195355,-0.4763541684686234
1.53,-4.749981255568139,-8.567161643907001,-0.4601308464799506
1.54,-4.734726146290534,-8.576316169097067,-0.44657554354317336
1.55,-4.7260823366899505,-8.58172264315471,-0.434195304372819
1.56,-4.732166248219578,-8.578019800511676,-0.4409896125041786
1.57,-4.728135813744428,-8.578625200475315,-0.4711663554151024
1.58,-4.710856821290088,-8.586615393634204,-0.49803193829822895
1.59,-4.70077997342431,-8.592629812347683,-0.48955408773592785
1.6,-4.713295247172094,-8.58786734861736,-0.45083712721846647
1.61,-4.7267606531932245,-8.582513511832364,-0.41020042224121156
1.62,-4.731366583310349,-8.581554505776053,-0.375866092841205
1.63,-4.746818356837059,-8.5739913481025,-0.35298238160357803
1.64,-4.77377869528374,-8.559259263327908,-0.34680812859793086
1.65,-4.794225938759369,-8.54729831946595,-0.35962324877204943
1.66,-4.788764584729427,-8.54989596766117,-0.3705902895313794
1.67,-4.7760109307834515,-8.55743611196007,-0.36097619541728515
1.68,-4.777544254395229,-8.557144959858125,-0.34740880845671396
1.69,-4.776132764612675,-8.558058066042737,-0.3443484150289613
1.7,-4.739713392210017,-8.578122775440763,-0.3475490785793924
1.71,-4.679073593308664,-8.610802813267657,-0.3601714793788911
1.72,-4.634404281668638,-8.634479691529382,-0.37160678589658547
1.73,-4.62531946076332,-8.639329529923337,-0.37254775559827397
1.74,-4.638601195499442,-8.63274395185726,-0.3597135272722091
1.75,-4.65554214018916,-8.62467539143113,-0.33330544584563
1.76,-4.682938864349812,-8.610879479707226,-0.3047849470806427
1.77,-4.734564027967334,-8.583439450882066,-0.2793884771232069
1.78,-4.780624150190069,-8.558293409183332,-0.26690032512091255
1.79,-4.7974108200853705,-8.548963826946748,-0.26539054744597707
1.8,-4.772489940177622,-8.562765542735724,-0.26933637526073767
1.81,-4.727020679355796,-8.587880800275586,-0.2711186204230438
1.82,-4.683961496142308,-8.611712589679353,-0.2625485526111276
1.83,-4.63928022089016,-8.636486464627605,-0.24101035153484446
1.84,-4.614457288394321,-8.650695803588992,-0.20576610948150023
1.85,-4.612405151886461,-8.652433844421344,-0.1771553120074104
1.86,-4.623714876205417,-8.646707947396852,-0.16136233760594468
1.87,-4.64124642540287,-8.637420787507422,-0.15534811958804828
1.88,-4.6604854597882,-8.627010381617895,-0.15778579655955025
1.89,-4.700192769564079,-8.6055463391096,-0.15106816370132833
1.9,-4.750059134466474,-8.578308461799423,-0.13964915750348725
1.91,-4.777092311759604,-8.563382401399759,-0.13479980110977122
1.92,-4.767074164151034,-8.568947841950864,-0.13593183722522367
1.93,-4.734716916368895,-8.586989586074983,-0.12748105993932562
1.94,-4.697440947242155,-8.607577357281404,-0.11764838985144285
1.95,-4.652997566904163,-8.631812994949188,-0.10724474688460996
1.96,-4.591762120452913,-8.664540464224356,-0.10624985538280264
1.97,-4.549738969311423,-8.686679836036502,-0.10798131249906096
1.98,-4.556528120478997,-8.683287448430164,-0.09438794512891216
1.99,-4.6064712622767265,-8.657099752890108,-0.07069260552643453
2.0,-4.681575081713486,-8.616862894313691,-0.046035804722868404
2.01,-4.747747804344759,-8.580683351086284,-0.024766880383827516
2.02,-4.790808836061775,-8.556730334344083,-0.026528301238664752
2.03,-4.801556484978297,-8.550641861071377,-0.04384886335878025
2.04,-4.775688676627223,-8.56503819897434,-0.056589849642604495
2.05,-4.734204294445816,-8.588002383752759,-0.06112188709505747
2.06,-4.694191860168242,-8.609929728620667,-0.06243065661882965
2.07,-4.668674396331395,-8.623786639769635,-0.06414218030458192
2.08,-4.642074613610248,-8.638176848126575,-0.05803478468899995
2.09,-4.634542507056798,-8.642345720387135,-0.034827622585264166
2.1,-4.634935109180973,-8.64215768304273,-0.029488586245065583
2.11,-4.663185934132988,-8.62687198534868,-0.0455082456416407
2.12,-4.729754720463606,-8.590450367293773,-0.06043761335131746
2.13,-4.807759411689665,-8.546772857894469,-0.09001768951584668
2.14,-4.855024521994025,-8.519383425721001,-0.13792511999388724
2.15,-4.846387463612142,-8.523477154485107,-0.18213819656365934
2.16,-4.799907043053025,-8.549596097364441,-0.18861383673570378
2.17,-4.751694327647223,-8.576837302506629,-0.17191227613039972
2.18,-4.707846409269624,-8.601116328994578,-0.16526046317396928
2.19,-4.6577987847659745,-8.628216852707736,-0.17056991779103023
2.2,-4.619365942453905,-8.648071418793577,-0.20654171422534248
2.21,-4.619928160669261,-8.6463373990368,-0.2597568587000911
2.22,-4.6597348517202155,-8.623924730453847,-0.29181637640494124
2.23,-4.722188023860882,-8.589606455243395,-0.2999447924969508
2.24,-4.768985736673497,-8.56336303091748,-0.3097840322624179
2.25,-4.778787489371363,-8.55774681553857,-0.3138912552897469
2.26,-4.780322203591429,-8.55765500878566,-0.29230618472873243
2.27,-4.766432550199865,-8.566181106049193,-0.2683814785561557
2.28,-4.740258262137113,-8.580762620131686,-0.26599151626292056
2.29,-4.677806080609254,-8.614763696035968,-0.2725097273270261
2.3,-4.62643443754237,-8.641443038995385,-0.3032110087337241
2.31,-4.6312237182590055,-8.637817713911756,-0.3318884525228592
2.32,-4.685409307707726,-8.608603336029658,-0.3302972714677092
2.33,-4.744902496059862,-8.576170845552625,-0.32492097073476367
2.34,-4.753993198909865,-8.57104528814442,-0.3272624501266364
2.35,-4.739173465753913,-8.579625626946314,-0.31724784298265385
2.36,-4.734961659690333,-8.582280010992577,-0.3082161176196041
2.37,-4.7313872137765145,-8.583997689841317,-0.3151812851638879
2.38,-4.720861308879989,-8.589244777059534,-0.3296492211849678
2.39,-4.706614091794815,-8.596074075754249,-0.3544786809306542
2.4,-4.701116259818783,-8.598394529419929,-0.37080587760119155
2.41,-4.6997136308936724,-8.598895393367007,-0.3768214226827751
2.42,-4.672530853385728,-8.61343980862917,-0.38262633003215973
2.43,-4.645025769545358,-8.628943015679699,-0.36791978639776546
2.44,-4.619170419465685,-8.643440936622222,-0.3529109686045476
2.45,-4.604206963878916,-8.651499233282008,-0.3509892804562607
2.46,-4.6089994905717395,-8.649689672206732,-0.33199983369967373
2.47,-4.645154802407755,-8.631000037308846,-0.31348420227463175
2.48,-4.708045563635581,-8.597302911581922,-0.30112004905251916
2.49,-4.759575694526517,-8.56850666044715,-0.31179351150523155
2.5,-4.768209475206444,-8.561639331123674,-0.3638170672751115
2.51,-4.722530928371769,-8.585187224293932,-0.4028586393841277
2.52,-4.686588709889345,-8.606551390227418,-0.3650140461974984
2.53,-4.675790164151121,-8.614231356482259,-0.3199824672123376
2.54,-4.672620487884872,-8.615776012509,-0.3243932548328856
2.55,-4.635883926851791,-8.63473116838108,-0.345432729862502
2.56,-4.572867551918334,-8.665915524548321,-0.4007858874296844
2.57,-4.550331962668713,-8.675231187035521,-0.45291150355475057
2.58,-4.579484910671941,-8.659078190427334,-0.4668864673145867
2.59,-4.66589205313023,-8.612843271792162,-0.4652638365566976
2.6,-4.780124231003077,-8.55088092122838,-0.44849514593459394
2.61,-4.881848752316815,-8.493697563166732,-0.4406030937311142
2.62,-4.936583391354082,-8.461001870899494,-0.46021631549908437
2.63,-4.911032821972129,-8.474046007743897,-0.49126615490673387
2.64,-4.8263136667685504,-8.521108816399252,-0.5156377026221421
2.65,-4.7322301037800845,-8.571556535262102,-0.5506323181984095
2.66,-4.650637104411552,-8.61329151142054,-0.5933040808277811
2.67,-4.586064544380793,-8.645400875552587,-0.6285347966015471
2.68,-4.550182733191556,-8.664089990892403,-0.6321532566638536
2.69,-4.5561847664009925,-8.663177162136309,-0.6002803769101956
2.7,-4.610285660970543,-8.636559706662686,-0.5691348055355748
2.71,-4.7042589872159155,-8.586786182740507,-0.5514060099984553
2.72,-4.829188387575992,-8.517037301799528,-0.5531282947964974
2.73,-4.9335207847767695,-8.454551349830703,-0.5915135676279251
2.74,-4.95410693175216,-8.43671323291941,-0.6687063443364384
2.75,-4.8814556891170415,-8.47328253389074,-0.736021072264941
2.76,-4.7580711477375015,-8.54289112196346,-0.7393250893645247
2.77,-4.640935375032752,-8.608485529872723,-0.7237001584852616
2.78,-4.549851269547144,-8.657126145587398,-0.7228903900434356
2.79,-4.5053168670435735,-8.680408129163178,-0.723196581318606
2.8,-4.527771389646091,-8.668450213391528,-0.7253275054705809
2.81,-4.626268883069505,-8.616807076204948,-0.7163008685607144
2.82,-4.7700001391768785,-8.539369674142042,-0.7019636962585823
2.83,-4.873787456173086,-8.479143052554509,-0.7210335150737781
2.84,-4.899243334417466,-8.461424380270586,-0.7559317852327369
2.85,-4.853968786688781,-8.48494734578841,-0.7833969777357613
2.86,-4.781397869861032,-8.527901254663334,-0.7624883514065552
2.87,-4.692906658047939,-8.579786803421824,-0.7287400892125223
2.88,-4.585081006408352,-8.638641703376333,-0.7201391176056834
2.89,-4.497945908414364,-8.685513605135444,-0.7070536370310491
2.9,-4.4723119516725935,-8.699083155037297,-0.7030239638078202
2.91,-4.535257888974633,-8.666378499520219,-0.7019493610490688
2.92,-4.640877185013565,-8.611412222642505,-0.687852832931975
2.93,-4.736888107983932,-8.56096908815285,-0.6636453279885114
2.94,-4.797657404742218,-8.528903106164984,-0.6405942044805231
2.95,-4.815960907018341,-8.520071833181944,-0.6206477667223605
2.96,-4.793737900357632,-8.5338852515135,-0.6017480359109423
2.97,-4.734849354500594,-8.56851675335155,-0.5752576857575301
2.98,-4.688668522849354,-8.596111350058232,-0.5415007334042578
2.99,-4.663892375226477,-8.610893670538665,-0.5204695247641936
3.0,-4.639369671426575,-8.623482914617774,-0.5305340383769561
3.01,-4.597769118559179,-8.643271942391516,-0.5689409052587993
3.02,-4.5600753205203155,-8.662289257529602,-0.583724432621575
3.03,-4.571385871891492,-8.65836973793173,-0.5515765350298417
3.04,-4.623027312604351,-8.634145659629999,-0.4977574808959032
3.05,-4.682295316039827,-8.604679835454322,-0.45274367712004204
3.06,-4.730369818897344,-8.57938148781151,-0.4332667536610694
3.07,-4.770215617679241,-8.557015253677072,-0.43857783988445526
3.08,-4.799968455822388,-8.539275461814153,-0.4595889867303653
3.09,-4.8034419569678635,-8.536039167307136,-0.48295164435401877
3.1,-4.76969517253093,-8.553903098784243,-0.4996489319878978
3.11,-4.693866120697276,-8.594784641268507,-0.5150689529917268
3.12,-4.623045838604437,-8.632644312349123,-0.5240871821882719
3.13,-4.599078190517127,-8.645979687155398,-0.5155321878539313
3.14,-4.622254233976212,-8.634752296943834,-0.49543714993742927
3.15,-4.657856959043294,-8.616362645716599,-0.4826168714521452
3.16,-4.678680775752355,-8.604863410308083,-0.4862577717482774
3.17,-4.709454233934507,-8.586997851742463,-0.5041635690163936
3.18,-4.755039281190079,-8.560607077621324,-0.5245064891450817
3.19,-4.806521834798703,-8.530861527961589,-0.5395838877319684
3.2,-4.838378035515717,-8.512270960202239,-0.5492818747982394
3.21,-4.821364712287064,-8.521170725864971,-0.5602044931176109
3.22,-4.766667715247735,-8.550266705183379,-0.5834797824918115
3.23,-4.707091167104094,-8.581592847178394,-0.607641087994914
3.24,-4.672834918193647,-8.599417592689917,-0.6203916104490099
3.25,-4.650120246205081,-8.61071961521213,-0.6340024588007008
3.26,-4.622919730409481,-8.623430353958465,-0.6595180616426355
3.27,-4.606953036760263,-8.630149082728693,-0.6832757000956534
3.28,-4.631372882923987,-8.617654037381753,-0.6749921979984792
3.29,-4.6856191832542065,-8.59064178827835,-0.6443432502379649
3.3,-4.724534699792297,-8.57037824237015,-0.630562041564568
3.31,-4.738178258594244,-8.562062203671099,-0.6411282910053865
3.32,-4.749208007315768,-8.554996822480723,-0.6536939721192232
3.33,-4.77187730557292,-8.541601272639724,-0.6635772236527495
3.34,-4.776206931271716,-8.536983355706695,-0.6911268680947682
3.35,-4.733497717551127,-8.557256177342094,-0.7320522423084587
3.36,-4.65991654631465,-8.594488340498316,-0.7669169735588397
3.37,-4.601052289100682,-8.625694357839174,-0.7730116607527869
3.38,-4.5840632435118955,-8.637625928542255,-0.7399531097598877
3.39,-4.603188361925011,-8.631334463351822,-0.693030023487461
3.4,-4.640399025554415,-8.613516840379221,-0.6662291444167012
3.41,-4.679783448015662,-8.591093882478114,-0.679915593266727
3.42,-4.7119382858320575,-8.569335578393606,-0.7302420375064044
3.43,-4.730355889435512,-8.55523368703642,-0.7757723301985421
3.44,-4.73786781955801,-8.54971057231545,-0.7908414405074311
3.45,-4.7252516714715,-8.556200913260309,-0.7959666190452707
3.46,-4.694047678116455,-8.57346937577529,-0.7946797154851136
3.47,-4.658213578187653,-8.59413358044642,-0.782175951847369
3.48,-4.631970462901084,-8.609396130763677,-0.7703376434658011
3.49,-4.625411567248246,-8.613583393773684,-0.7629764100678398
3.5,-4.6358528596244595,-8.607171207792186,-0.7717931080361584
3.51,-4.665050840362862,-8.58838678854252,-0.8039737809581996
3.52,-4.700908710821994,-8.565153154724333,-0.8421939089979088
3.53,-4.7125505461891,-8.555420882893138,-0.8756615318148626
3.54,-4.700930945582547,-8.560427951829901,-0.8891655105840227
3.55,-4.690282831542657,-8.569571604267441,-0.8563102516520803
3.56,-4.6889153021614876,-8.575087735213543,-0.8073808644410422
3.57,-4.689796282693859,-8.576651150211188,-0.7856468954972117
3.58,-4.671762517485447,-8.584807630003391,-0.8034680958814562
3.59,-4.647008311584262,-8.593575257956166,-0.8516343623253971
3.6,-4.644747986912455,-8.590230988644976,-0.8968122409503371
3.61,-4.664793409254867,-8.577504656535703,-0.914486731633163
3.62,-4.693360622709354,-8.563682690332785,-0.897564231260373
3.63,-4.7110839297030775,-8.557797220081444,-0.8600873404333251
3.64,-4.725347486206267,-8.553499241358283,-0.8238913677718672
3.65,-4.751039673783825,-8.541812015155616,-0.7968994607737739
3.66,-4.761418026158513,-8.536294903331475,-0.7943067182891581
3.67,-4.742890864045676,-8.543799361214472,-0.8235684040044562
3.68,-4.709053607612572,-8.558770503701268,-0.8613780957370205
3.69,-4.6923186197746265,-8.565723242575482,-0.8836676601872232
3.7,-4.710513383978958,-8.55578672801673,-0.8829882822884203
3.71,-4.728567153755723,-8.547616917364653,-0.865531636349784
3.72,-4.716895903172048,-8.555766532478405,-0.848487927304056
3.73,-4.687241561455841,-8.5723647971953,-0.8452259648066912
3.74,-4.674140445562173,-8.579469536895207,-0.8458656377351117
3.75,-4.70127563302333,-8.564145025495371,-0.8504622439853303
3.76,-4.748186850912176,-8.535486058865596,-0.877244934930955
3.77,-4.783909217628287,-8.511834595880694,-0.9125416769758143
3.78,-4.791966415554314,-8.504316730367858,-0.9401684715722125
3.79,-4.7677228627686485,-8.515960276722899,-0.9577439702570073
3.8,-4.724151721347202,-8.539342415116765,-0.9652962832476458
3.81,-4.675571041270744,-8.565637996548691,-0.968825636011521
3.82,-4.634707793116066,-8.587101376827851,-0.9752888880990211
3.83,-4.61160854273003,-8.597984586464422,-0.9889327654462309
3.84,-4.615033342439294,-8.594578708442473,-1.0024979572753776
3.85,-4.64692219757501,-8.577691080194947,-0.9996432822473065
3.86,-4.697748203273338,-8.55148448592726,-0.9863378927706525
3.87,-4.745002988836574,-8.525618945188082,-0.9842059714431449
3.88,-4.761497541219266,-8.515123930562643,-0.9955651279397097
3.89,-4.7651894000851405,-8.512630592581752,-0.9992354385883154
3.9,-4.758165029572955,-8.517294117816562,-0.9929245444939885
3.91,-4.735896867221585,-8.530695292875098,-0.9842328596649873
3.92,-4.695327931872862,-8.556228610349374,-0.9562866618711432
3.93,-4.642673088579644,-8.588059188704886,-0.9275438760009137
3.94,-4.623656639556743,-8.600320916410576,-0.9091791927600303
3.95,-4.625289191534719,-8.600613696814223,-0.8980533348285592
3.96,-4.649781569675232,-8.58705723164042,-0.9011841907595862
3.97,-4.6883761078379855,-8.565010600290007,-0.9108779355180631
3.98,-4.721733555871596,-8.546072507619147,-0.916529360301489
3.99,-4.759966354863345,-8.524122337378929,-0.9230767729510465
4.0,-4.772897899351772,-8.516549805680098,-0.9264005676776264
4.01,-4.762960853265054,-8.52319122262122,-0.9163650361399189
4.02,-4.726524364799452,-8.54471884879112,-0.9042788721117728
4.03,-4.669893203811559,-8.575808560983594,-0.9040180870359072
4.04,-4.627746769919312,-8.597719165641182,-0.9128443649342114
4.05,-4.599008720015273,-8.612876484249915,-0.9152707537044228
4.06,-4.597870613925032,-8.61409665456157,-0.909555429987125
4.07,-4.634447514766669,-8.59580414941073,-0.8966914658635696
4.08,-4.6903839907416005,-8.567996514133034,-0.8714329703265211
4.09,-4.7518711467581936,-8.536709844577317,-0.8449235791422124
4.1,-4.7831708781903455,-8.519829672195005,-0.8390754741748773
4.11,-4.7836260277959495,-8.518414020458474,-0.8508206215543325
4.12,-4.775524854714955,-8.522598699949931,-0.8544299631351442
4.13,-4.763128373741335,-8.529875212519684,-0.850996787730068
4.14,-4.759113149809261,-8.53326797764606,-0.8393671944107965
4.15,-4.740514279212097,-8.546017682163535,-0.8144434265565688
4.16,-4.706471042476152,-8.567590357748783,-0.7845911257788422
4.17,-4.676344435481187,-8.585630712189838,-0.7674393535690452
4.18,-4.670868374189172,-8.589004488673856,-0.7631371098419418
4.19,-4.705571089726325,-8.570239232239025,-0.7607592248404245
4.2,-4.751923943542732,-8.544352312096173,-0.7637562641600665
4.21,-4.799864823926042,-8.517165988569317,-0.7676159686575907
4.22,-4.836516430697242,-8.496008577857687,-0.772111646396209
4.23,-4.824258035887975,-8.500271184315212,-0.8013551911820793
4.24,-4.752139641889531,-8.538286758579188,-0.82729044234043
4.25,-4.654548766319187,-8.590149043195755,-0.8448242272453228
4.26,-4.582331920169999,-8.628654573943603,-0.8475877490005981
4.27,-4.5659324612789005,-8.640321202903007,-0.8169280608285068
4.28,-4.6046572416209814,-8.623507037573418,-0.7761038702673827
4.29,-4.67292587669627,-8.589190566743069,-0.7479388396256278
4.3,-4.742849878753672,-8.550521759591653,-0.7509101873391827
4.31,-4.783570304995532,-8.52484108365917,-0.7840275708967955
4.32,-4.792513408649998,-8.516064435849817,-0.823859117990267
4.33,-4.801073407569487,-8.51186031724126,-0.8174979180486283
4.34,-4.808495541587797,-8.509919976971057,-0.7937192233275263
4.35,-4.774038591158478,-8.529122451688137,-0.7955663740828646
4.36,-4.691126402546715,-8.575637308507085,-0.7884641738962836
4.37,-4.594608699027369,-8.628297374294561,-0.7822280862398407
4.38,-4.529681981489734,-8.664604786945889,-0.7594395726017529
4.39,-4.5353113697048615,-8.663705759142113,-0.7358892907935639
4.4,-4.576952810242816,-8.641138949405336,-0.7433162077173788
4.41,-4.655807934213695,-8.597902711110727,-0.7547579866734225
4.42,-4.7346671038305645,-8.553225210762687,-0.7716405245768294
4.43,-4.800000843781875,-8.516513505275078,-0.7741183122247135
4.44,-4.826032106708516,-8.50254548681966,-0.7658435235757872
4.45,-4.778063167857232,-8.529313305386994,-0.76894497235504
4.46,-4.737608489883681,-8.552404464900775,-0.7627701031905014
4.47,-4.700133184650184,-8.574469791325539,-0.7467232296462475
4.48,-4.672842931674185,-8.590249594425543,-0.7365817496650304
4.49,-4.625982294788495,-8.613621850594116,-0.7590481795882487
4.5,-4.545854097381482,-8.653774342612126,-0.7859856582648753
4.51,-4.53702430613719,-8.66013867914117,-0.7666317927828005
4.52,-4.595860829318194,-8.632290226650564,-0.7292286613639862
4.53,-4.693394486739733,-8.581406708222445,-0.7083219078543733
4.54,-4.76519604394929,-8.541435443579562,-0.7121367203961193
4.55,-4.753395176394696,-8.54489163233582,-0.7485807913539426
4.56,-4.7205095056100275,-8.561036850336427,-0.7718586257546101
4.57,-4.694070703427963,-8.577520719813945,-0.749809206874081
4.58,-4.6967648156289705,-8.577577240315438,-0.7320591243825396
4.59,-4.709967189431194,-8.572658974925869,-0.7043358113923117
4.6,-4.693594253759781,-8.582287804570477,-0.6962887235076435
4.61,-4.668574805084087,-8.594034009158571,-0.7192831539511217
4.62,-4.654780913587933,-8.600818055675138,-0.727495338105382
4.63,-4.681769621679309,-8.588364238594203,-0.7008012146475283
4.64,-4.737101758001407,-8.559343815392827,-0.6839267562879183
4.65,-4.771023032879897,-8.540268800582055,-0.6866664646335823
4.66,-4.7711495221443085,-8.539127273899602,-0.6998458333776258
4.67,-4.750309397965022,-8.551084918698098,-0.6954965797706109
4.68,-4.715145797670947,-8.572551647716102,-0.6700227216007071
4.69,-4.670156354224507,-8.598237325319046,-0.6556702270302223
4.7,-4.610340243007957,-8.630956293516189,-0.649352456521189
4.71,-4.592221773063769,-8.641287994648215,-0.6400866514144959
4.72,-4.647290208869654,-8.613159858369178,-0.6207072352423045
4.73,-4.742752400643574,-8.56231301476045,-0.6025379579925731
4.74,-4.790622204973494,-8.535574619925661,-0.6034888286209257
4.75,-4.768556344860644,-8.546518906946078,-0.6228982543094828
4.76,-4.7317110788569785,-8.566926450341407,-0.6235155941817523
4.77,-4.746905574436013,-8.561559557466758,-0.5802968493548418
4.78,-4.780171822084713,-8.542248494263363,-0.5917554594350748
4.79,-4.768307543830215,-8.546361638162496,-0.6265265802073499
4.8,-4.692735868723512,-8.58674954490846,-0.6438763972298568
4.81,-4.5967224926400565,-8.637366157611435,-0.6603458711123114
4.82,-4.563820321122452,-8.656460752198452,-0.6381733858177483
4.83,-4.606850059748708,-8.635798732010763,-0.6075354197950801
4.84,-4.688897120029091,-8.591577613041828,-0.6070294366265151
4.85,-4.748975101636147,-8.556991174998265,-0.6288035507752004
4.86,-4.7573811621378965,-8.550991147169867,-0.6465218314120349
4.87,-4.769339642475076,-8.54716612588454,-0.6079469247776299
4.88,-4.768832504507399,-8.54930573223666,-0.581372479962451
4.89,-4.771128559398782,-8.54856192875326,-0.5734188042049094
4.9,-4.76620315727652,-8.551087100427631,-0.5762818086066779
4.91,-4.732465691789328,-8.566582695465987,-0.6222122855107897
4.92,-4.702787866954306,-8.579092365401491,-0.6730065693940214
4.93,-4.66350074607461,-8.600064307621201,-0.6788395939696036
4.94,-4.648230286225578,-8.610646695828354,-0.648717399944133
4.95,-4.654557675208593,-8.60994783247174,-0.6117102927195378
4.96,-4.670564251969972,-8.602492434773733,-0.5941786086159783
4.97,-4.705147960668397,-8.583436415532573,-0.5969707825320338
4.98,-4.730149766215501,-8.568512147701389,-0.6136309482495724
4.99,-4.746618330408443,-8.558199584380604,-0.6301881830541799
5.0,-4.763533890400267,-8.54871693421276,-0.6313051317889619
5.01,-4.773116295537845,-8.542973591288012,-0.6366356566929344
5.02,-4.766591381064595,-8.545460234764242,-0.6515618479538857
5.03,-4.7146877876819495,-8.573199913533847,-0.6642714353430773
5.04,-4.656285675656835,-8.606138933322125,-0.6504704879826378
5.05,-4.635752246939915,-8.620515598812654,-0.6054005292721314
5.06,-4.657166597492937,-8.611486377156421,-0.5681078321358713
5.07,-4.703035647231045,-8.587334333086462,-0.5561602553374455
5.08,-4.725687622050391,-8.57380705585128,-0.5725333149754162
5.09,-4.734939560584675,-8.566319519475574,-0.6072091193432325
5.1,-4.738527922646374,-8.562698858570878,-0.6300139517823418
5.11,-4.727253978178087,-8.569076639788879,-0.6278381328109828
5.12,-4.6964662718636605,-8.58716885420501,-0.6110812052624285
5.13,-4.655684354009412,-8.610676830007309,-0.592458367026301
5.14,-4.657271205741945,-8.611721366642275,-0.5634322069693488
5.15,-4.71584651674496,-8.58197861917253,-0.5284030920545311
5.16,-4.777985307236117,-8.548386431746302,-0.5157671789793811
5.17,-4.790234198118499,-8.540299244496412,-0.5354483531693032
5.18,-4.755245252036189,-8.557268459474304,-0.5748478538063101
5.19,-4.730659239980951,-8.56959581418966,-0.5942768341327209
5.2,-4.736824815509307,-8.566995284946799,-0.5826186109894766
5.21,-4.7204779261449605,-8.575482289877273,-0.5897868405243681
5.22,-4.65928060476456,-8.608479994147938,-0.5946478421233725
5.23,-4.5875434588848245,-8.647107893478243,-0.5929941169070516
5.24,-4.566759620610015,-8.659311138340499,-0.5751221435025569
5.25,-4.6141841905908985,-8.636064526756195,-0.544556726034377
5.26,-4.685745542149396,-8.59751397083658,-0.5434143847510997
5.27,-4.7383265078223475,-8.566403641205632,-0.5784438233335205
5.28,-4.748928512730347,-8.557163836513869,-0.6266295321656898
5.29,-4.749998914047464,-8.555689665331887,-0.6385665241609141
5.3,-4.751044728356223,-8.557211244271773,-0.6098514688087064
5.31,-4.726377850751777,-8.572249091891923,-0.5897026352274766
5.32,-4.689861951808638,-8.59306332294482,-0.578268991379377
5.33,-4.659986912600327,-8.607811955039942,-0.5999485853623923
5.34,-4.653555413426567,-8.608422853001278,-0.6399625894230629
5.35,-4.656805839430731,-8.604549434092117,-0.6679465716086261
5.36,-4.645721999505,-8.609411442068076,-0.682363431345688
5.37,-4.640863489709403,-8.61210242079816,-0.6814776844154513
5.38,-4.663147979234194,-8.601145816940644,-0.6672077108986686
5.39,-4.709591206712685,-8.577001617735691,-0.6513137027369823
5.4,-4.741570226826077,-8.559336171520313,-0.6523577687554032
5.41,-4.725402383997779,-8.566702816702398,-0.6723431456945383
5.42,-4.697917606743427,-8.580394913514668,-0.6904124629621301
5.43,-4.689943899406308,-8.583534718418578,-0.705450576428198
5.44,-4.696616560959553,-8.578597553143648,-0.7209327092126864
5.45,-4.6917981974607255,-8.580248262240218,-0.7324457848842485
5.46,-4.660595486499257,-8.596688806233335,-0.7387826149884277
5.47,-4.641746788532041,-8.607581291786742,-0.7307649194423548
5.48,-4.647210952390427,-8.606320901755346,-0.7105767472211626
5.49,-4.671633890662919,-8.593970388628426,-0.6995401986846894
5.5,-4.708291676075636,-8.572794614922486,-0.7134367888389958
5.51,-4.726828259366398,-8.55931198718183,-0.7517193799970021
5.52,-4.724103408752764,-8.557415145700487,-0.789735906449938
5.53,-4.706845090874433,-8.566026417372385,-0.7993336013152427
5.54,-4.694144203306399,-8.574872366675601,-0.7789034214990017
5.55,-4.697584712172998,-8.575247631344496,-0.7537430348929768
5.56,-4.6968151098618245,-8.575739145129708,-0.7529502271130762
5.57,-4.697501188591913,-8.573623938383566,-0.7724612001017467
5.58,-4.714291015281793,-8.562880853727506,-0.7890947827093487
5.59,-4.743123153281145,-8.545851370430208,-0.8007489326074815
5.6,-4.762490568735527,-8.534095000488964,-0.8113285339607852
5.61,-4.764516193263283,-8.533084332857849,-0.8100716171603592
5.62,-4.781972904956866,-8.526312366808568,-0.7771821788338126
5.63,-4.810720204235031,-8.512855261434956,-0.7473249409744149
5.64,-4.805081667795712,-8.515067377477662,-0.7581095042620537
5.65,-4.747684068895218,-8.544706431514388,-0.7846026038808157
5.66,-4.669384831443091,-8.585131420003728,-0.8128756134707622
5.67,-4.630561418079749,-8.60468767011746,-0.8292329551606901
5.68,-4.649193780311764,-8.59486203381701,-0.8265571081406076
5.69,-4.6967273615073815,-8.569541211503036,-0.8204796722596184
5.7,-4.739749069865425,-8.545904033242406,-0.819948795338728
5.71,-4.771811694325188,-8.527320449381927,-0.8274471052222153
5.72,-4.796270195458265,-8.5124692176026,-0.8389749041226934
5.73,-4.8011178962427845,-8.506865190607453,-0.8674365787312063
5.74,-4.785775088579394,-8.510808489695885,-0.9122541081267366
5.75,-4.755215003910554,-8.523095040315491,-0.9562152383414161
5.76,-4.707761734770164,-8.545979089151114,-0.9861906518607263
5.77,-4.647011364041878,-8.578621234572815,-0.9907446542829693
5.78,-4.594094617997882,-8.609109438146323,-0.9732038024697683
5.79,-4.591680195922403,-8.614164759847174,-0.9393688789774391
5.8,-4.652289933893521,-8.583683032937046,-0.9191236484675704
5.81,-4.72926266280706,-8.539430790354421,-0.9383773800311705
5.82,-4.7666847447322604,-8.513508350859833,-0.984141440015081
5.83,-4.754200209957738,-8.515619970321675,-1.0254956068294783
5.84,-4.739911611451102,-8.524594744139527,-1.0171416675518583
5.85,-4.744163690121509,-8.526645694462811,-0.9794032429932712
5.86,-4.749204143441826,-8.527171078259942,-0.950091365423755
5.87,-4.730802096371109,-8.538385384966226,-0.9410510950816532
5.88,-4.684303243017865,-8.561843552379106,-0.9598999862584874
5.89,-4.647392250478416,-8.579336973792822,-0.9832765229150608
5.9,-4.642437203379962,-8.580498371759091,-0.9965774570314788
5.91,-4.6720875526712335,-8.563042670293273,-1.0078212266414268
5.92,-4.701461543012189,-8.545745901630692,-1.0181849012756163
5.93,-4.7042433917747974,-8.543453058843204,-1.0246309919559689
5.94,-4.717395486427696,-8.538785628690409,-1.0026250547805233
5.95,-4.740949516974003,-8.530998397904083,-0.9566297353614348
5.96,-4.742164048550902,-8.53323018111661,-0.9306919247815001
5.97,-4.706132668916804,-8.553119887703502,-0.9306718007747465
5.98,-4.658479675314929,-8.577357417671967,-0.9472019941387578
5.99,-4.665207092967079,-8.572447191016145,-0.9586686761295221
6.0,-4.704784341850335,-8.550082054057365,-0.964855534737845
6.01,-4.720382556934822,-8.540899414316,-0.9702589425271527
6.02,-4.702488767919728,-8.551580723499386,-0.9629129269378471
6.03,-4.701931435715697,-8.556561055486144,-0.9202124636963352
6.04,-4.7605670231381225,-8.531345016340698,-0.8489221136123382
6.05,-4.8231116478721185,-8.499383279687207,-0.8170825305380666
6.06,-4.82714290810952,-8.496194187755895,-0.8268070900885448
6.07,-4.758000741316915,-8.531218372081044,-0.8646320423001927
6.08,-4.66246639839958,-8.579690401041663,-0.9044323902500062
6.09,-4.613904520128144,-8.60629848520613,-0.901998531467869
6.1,-4.619048397572452,-8.606220571642051,-0.8760770407317237
6.11,-4.651516074851518,-8.592512211722601,-0.8377688560331732
6.12,-4.672774845513785,-8.584451743105511,-0.8015513573650009
6.13,-4.702129973538693,-8.570754728724891,-0.7759826444066172
6.14,-4.747208701713173,-8.549786661677539,-0.7310674466988032
6.15,-4.765636138652115,-8.540491799791361,-0.720469093784027
6.16,-4.75728814866107,-8.544065203346083,-0.7331163873365134
6.17,-4.719719153483594,-8.563218356739672,-0.7519194034205486
6.18,-4.687859404804769,-8.57874683154225,-0.7740809803328422
6.19,-4.671279871994957,-8.58835941159785,-0.7678029258931921
6.2,-4.6584701672091136,-8.599347731357865,-0.7208585761625164
6.21,-4.654467745318637,-8.60665765937434,-0.6564901248028511
6.22,-4.660606725416197,-8.606850765609929,-0.6090376544735676
6.23,-4.693949858858377,-8.590352969505226,-0.5853569780859491
6.24,-4.745522654633328,-8.561872515555336,-0.5865816722981645
6.25,-4.781136802125521,-8.54043063603129,-0.6097715195941731
6.26,-4.779889117980456,-8.53981163059059,-0.6281749766484803
6.27,-4.741931620244228,-8.5601620051246,-0.6384910628955919
6.28,-4.694068905348506,-8.586726805243677,-0.6354094833164531
6.29,-4.649810994557331,-8.612748005650465,-0.6080033795035683
6.3,-4.618642188056418,-8.631749207314101,-0.5754274846548957
6.31,-4.616684027345727,-8.634861274956139,-0.5437190691149817
6.32,-4.641493960934349,-8.623219404168276,-0.5164712600628638
6.33,-4.684200990110379,-8.59985225942865,-0.5203583869058466
6.34,-4.719852883546083,-8.578314547810592,-0.5526995734988713
6.35,-4.7340067576475455,-8.568629239443755,-0.5814101274473277
6.36,-4.740193845732162,-8.56537071345342,-0.5791086980600734
6.37,-4.729698062363074,-8.572654625061864,-0.55661806587144
6.38,-4.702358427029895,-8.589753080500769,-0.5234953496937608
6.39,-4.654858889034604,-8.617197809990934,-0.4960514647093092
6.4,-4.595908692232466,-8.649006416961221,-0.49206713558630283
6.41,-4.560514273110127,-8.66690098195632,-0.5067016013585474
6.42,-4.547309432352623,-8.672269095223477,-0.5329305957945094
6.43,-4.577945006215169,-8.654543732885664,-0.5580435115374016
6.44,-4.634532730497793,-8.623495822873732,-0.5712319216460708
6.45,-4.699522017012482,-8.588507436552456,-0.5673044762883945
6.46,-4.7778858161543605,-8.548798885536218,-0.5089046447870885
6.47,-4.834565206715226,-8.519665862789644,-0.4605341310582658
6.48,-4.847322587794352,-8.511756526723447,-0.47307468183058704
6.49,-4.796890777948993,-8.538440469391846,-0.5047538552443205
6.5,-4.7061992688434415,-8.584688931854204,-0.5690481841436045
6.51,-4.6344920124299165,-8.620150685895236,-0.6198253972039554
6.52,-4.590075282317209,-8.643729092538498,-0.6223783624389623
6.53,-4.573734444637066,-8.653495312009884,-0.6068955620751688
6.54,-4.591446254208583,-8.646419271415438,-0.572991480541382
6.55,-4.660838009804438,-8.61189516959186,-0.5307049621128648
6.56,-4.755741801988541,-8.560281904912054,-0.5235398239393546
6.57,-4.793142987781834,-8.535884550955418,-0.5783787500725353
6.58,-4.751948653885463,-8.553551743622345,-0.6524146806776405
6.59,-4.682920717802844,-8.589655238116329,-0.6768215295401752
6.6,-4.644973995678334,-8.612720986403858,-0.6445785355515854
6.61,-4.628518915943598,-8.622635562878221,-0.6303319577496594
6.62,-4.602806172546901,-8.639277630666307,-0.5893338314298487
6.63,-4.585192668109285,-8.651072643815139,-0.5525044192082204
6.64,-4.609746498565365,-8.63754608918457,-0.5598153894543155
6.65,-4.674225117960683,-8.600471042727685,-0.5947200530488044
6.66,-4.728743621423066,-8.567024383141845,-0.6444403264227602
6.67,-4.762825809384972,-8.54444305433983,-0.691587255940758
6.68,-4.7875409110058325,-8.532678533275812,-0.6657528845859803
6.69,-4.762413215871588,-8.547592582420137,-0.6545521851875646
6.7,-4.670423083560227,-8.598970890298567,-0.6443202582320283
6.71,-4.539992394284383,-8.669295171035465,-0.6341075295890921
6.72,-4.4260716682508905,-8.726081469745028,-0.6601248212737545
6.73,-4.34727228944286,-8.762264124965883,-0.7030702244914012
6.74,-4.30417239469703,-8.780750271881864,-0.7365279337867006
6.75,-4.461475357534709,-8.71149492055615,-0.6111149806617993
6.76,-4.7832066190711995,-8.546525990880134,-0.4967412542269211
6.77,-5.023685291114699,-8.40618622173158,-0.5181752996484592
6.78,-5.1179446361099705,-8.354301164088858,-0.4265741203234669
6.79,-4.986267098310269,-8.4300177937654,-0.4907359056559255
6.8,-4.819502811939684,-8.519366705524492,-0.6015785883712395
6.81,-4.649663635872189,-8.611676705800669,-0.6224314750298086
6.82,-4.424755345078357,-8.7266357250092,-0.6607991505807909
6.83,-4.286552521219576,-8.794380822655794,-0.6738111142644362
6.84,-4.22488486046035,-8.831049976578374,-0.5767522218821818
6.85,-4.222749979260992,-8.838571169299971,-0.46681963153119294
6.86,-4.290390735130931,-8.808807488852278,-0.40910393884522883
6.87,-4.366604454954469,-8.772128988351138,-0.39052103735830546
6.88,-4.416791321777784,-8.744348292992367,-0.44457975907082653
6.89,-4.398241000403784,-8.747064866967728,-0.5609706657555884
6.9,-4.3890522430177565,-8.750916564190964,-0.5724968392507859
6.91,-4.411416739849775,-8.74305854030945,-0.5183843798387194
6.92,-4.412429319168792,-8.742872413649874,-0.5123536662184495
6.93,-4.392699541130492,-8.75693620975121,-0.4362872034514358
6.94,-4.38648448370694,-8.762509727517422,-0.38294662716428546
6.95,-4.471007433978227,-8.720541892259103,-0.3638839176318073
6.96,-4.484095088452167,-8.712608143543696,-0.3830615128353557
6.97,-4.234290819863012,-8.832233904264207,-0.46309576607860814
6.98,-3.8609272731655997,-8.99869694087474,-0.5276508396769246
6.99,-3.6153494916605733,-9.10112840541618,-0.5179281309884185
7.0,-3.5511116130074463,-9.127680786453801,-0.49507821324140067
7.01,-3.6008957039493112,-9.109933778196858,-0.4597299996724099
7.02,-3.68170193772866,-9.081461715234072,-0.3756869688910299
7.03,-3.799555159944379,-9.034282699854469,-0.32133720083028827
7.04,-4.095728558702768,-8.906193079783197,-0.22524273334440564
7.05,-4.476582649795236,-8.721688956796761,-0.22631963813918451
7.06,-4.6834665598942475,-8.61028232245681,-0.3135119862202371
7.07,-4.6099635793998885,-8.649365670618106,-0.31156303719548906
7.08,-4.367061470913254,-8.774766268478704,-0.30602432618968006
7.09,-4.1449731755015184,-8.88255690512609,-0.29081710497170254
7.1,-3.969404213342228,-8.961548158759262,-0.31562159851525445
7.11,-3.800535125063605,-9.035016433876192,-0.3028065301496858
7.12,-3.6991805400697975,-9.078520828134074,-0.258335056300941
7.13,-3.7582175907133895,-9.054506458972941,-0.22990721096997715
7.14,-3.998247650497115,-8.951577267180785,-0.19381598402528102
7.15,-4.29226074704572,-8.814865053514955,-0.17034794654011906
7.16,-4.559649188653494,-8.680008965623482,-0.17412323823178588
7.17,-4.717867169448814,-8.59423835827486,-0.22368910059617805
7.18,-4.764499464189541,-8.56772204739907,-0.252798965006317
7.19,-4.7233173145627685,-8.590463230513562,-0.24687531603910157
7.2,-4.592058255822504,-8.660262484480285,-0.2778612437616798
7.21,-4.428784803993517,-8.746162663740014,-0.2340250533986203
7.22,-4.264087196939725,-8.827721285524774,-0.23118424301665313
7.23,-4.1206413522005025,-8.89354284530405,-0.30368637322199515
7.24,-4.038956735071049,-8.929044800369182,-0.35953207189475284
7.25,-4.091029919239075,-8.90456003870863,-0.3692989371854288
7.26,-4.276346884768483,-8.817271602777469,-0.3555732258857248
7.27,-4.50514413957587,-8.703029160802826,-0.3481136647960908
7.28,-4.711518868202597,-8.59458136339066,-0.30239908202152344
7.29,-4.9079344121507615,-8.48769001717018,-0.18167968890304315
7.3,-5.04820486441765,-8.405347185034326,-0.1815859642054048
7.31,-5.014318764745551,-8.42237719928748,-0.28471450046480107
7.32,-4.794118056995632,-8.547157091480981,-0.3296083440893983
7.33,-4.504187497056689,-8.701331981078617,-0.39196935690756024
7.34,-4.292117636603289,-8.806859214819895,-0.42881587427896206
7.35,-4.2040204658790365,-8.850395852277227,-0.4086465941605961
7.36,-4.210578262561507,-8.848242938749687,-0.3854961593243839
7.37,-4.281796543235893,-8.816010948085863,-0.3340839644757066
7.38,-4.394836427550284,-8.761307415585781,-0.29886765335365134
7.39,-4.557682543543713,-8.677028790458882,-0.31201887350140073
7.4,-4.736431598693217,-8.579968280798404,-0.3375587012844846
7.41,-4.865598403760802,-8.505446645452958,-0.3883016086719397
7.42,-4.906999985037958,-8.478157421980365,-0.45993985750947575
7.43,-4.847074927181202,-8.509292512265695,-0.5138644784439452
7.44,-4.717295907229443,-8.578877442281906,-0.5593462438002538
7.45,-4.561833191648872,-8.659912553398927,-0.5997939284310195
7.46,-4.431882281925731,-8.726647281980673,-0.6100668956394248
7.47,-4.354306275375481,-8.7646050092569,-0.6251765894853432
7.48,-4.318421159060315,-8.778207653618647,-0.6809520729193422
7.49,-4.33761477210413,-8.764350161877235,-0.7350513953146063
7.5,-4.411892961879082,-8.72516073809143,-0.758015835471959
7.51,-4.49291639019352,-8.682654631333378,-0.7711073025579078
7.52,-4.531338920210708,-8.661292667863918,-0.7869518540322965
7.53,-4.540691736507466,-8.655074596203061,-0.801297825485536
7.54,-4.569539585747861,-8.639043074908908,-0.8098458982436969
7.55,-4.619267516020828,-8.611136031186504,-0.8247200369961044
7.56,-4.646197896476642,-8.592922760430767,-0.8627111663476089
7.57,-4.61842634375011,-8.603026759027767,-0.9094274345485007
7.58,-4.570440562170718,-8.625822440320398,-0.9361603850507536
7.59,-4.5618360454534015,-8.629048929185421,-0.9483072395819627
7.6,-4.590601106671517,-8.610355818271692,-0.9785435228467829
7.61,-4.610555114728064,-8.594511091099342,-1.0232734673684223
7.62,-4.594486266263184,-8.59788630742673,-1.0661989091238155
7.63,-4.568203654985568,-8.608120208493775,-1.0963450997598287
7.64,-4.553872955579512,-8.616750310479082,-1.0880642739658792
7.65,-4.561832805212015,-8.617780157719672,-1.0455749804932666
7.66,-4.57836778266879,-8.613394643275283,-1.0090900673843168
7.67,-4.585020552983168,-8.611102963363667,-0.9984411769154576
7.68,-4.58416199684377,-8.611653122951978,-0.9976336560058064
7.69,-4.581129886581037,-8.61397857365943,-0.991453997319007
7.7,-4.589922912665964,-8.611115205935333,-0.9754332657804657
7.71,-4.601594053775751,-8.608553079657451,-0.9423447078520075
7.72,-4.626670903873979,-8.601385635783874,-0.8821949944261281
7.73,-4.6901789678677,-8.575506940985928,-0.7930219006111258
7.74,-4.742005421951931,-8.552322984247105,-0.7358037603485557
7.75,-4.722090522822226,-8.562228089813777,-0.7476003120346271
7.76,-4.6254360361759375,-8.612700312450617,-0.7691744845672538
7.77,-4.508469725559053,-8.674044709063821,-0.7757871971841535
7.78,-4.441667862984141,-8.710700126076024,-0.7515269457996325
7.79,-4.442921622216369,-8.714785283324757,-0.694202769154675
7.8,-4.4858796538939885,-8.697455828263296,-0.6323939796399243
7.81,-4.5177087547461365,-8.684653236242749,-0.5804373592774708
7.82,-4.533008793160788,-8.679900953009037,-0.5297944814767078
7.83,-4.572816679659684,-8.662088814283399,-0.47556400848178937
7.84,-4.632093286449158,-8.632420109171852,-0.44075577525151666
7.85,-4.683611536049574,-8.604904970612875,-0.43491615944147577
7.86,-4.692941685364522,-8.59921550903026,-0.4470821984584067
7.87,-4.64456040157122,-8.624383162481891,-0.4655938505971945
7.88,-4.575370814584282,-8.661671802977173,-0.45839785890181894
7.89,-4.5179678484647745,-8.69400867972288,-0.4134247123048261
7.9,-4.498124941943597,-8.707090522587524,-0.35030698933892024
7.91,-4.530377600535635,-8.692549404106103,-0.2897698143768536
7.92,-4.625437422415257,-8.643267667441238,-0.25348411628612166
7.93,-4.7711020344731745,-8.564005670132568,-0.23780677794009522
7.94,-4.881287517917389,-8.501759064442828,-0.24847819770341142
7.95,-4.888351162179933,-8.496556021216978,-0.286125964537337
7.96,-4.792072147333194,-8.549672931085691,-0.3212001637883349
7.97,-4.6428101275546645,-8.630496194101113,-0.3482485237936839
7.98,-4.500161640010797,-8.705160172471023,-0.36579491352699967
7.99,-4.3945216907086575,-8.75921017306229,-0.3639987027985821
8.0,-4.35022803330264,-8.782065622333482,-0.34794537521891805
8.01,-4.39117877880125,-8.762188467031132,-0.3316186137098545
8.02,-4.507600660736081,-8.702687822056067,-0.33003879015651866
8.03,-4.656193614239308,-8.623039103216973,-0.3546742864540556
8.04,-4.776898878411805,-8.555180168697516,-0.39618136742052557
8.05,-4.835163417915198,-8.520823816464558,-0.4319837238784732
8.06,-4.837262439551636,-8.51830769872187,-0.4577072720958034
8.07,-4.793106762247231,-8.543189839264992,-0.45733384103136754
8.08,-4.72693669340619,-8.581433075339298,-0.42853382966500836
8.09,-4.65644391126278,-8.619415287460809,-0.4378497248760516
8.1,-4.571710901909399,-8.661747019305531,-0.4905045760184148
8.11,-4.459414464006008,-8.71595363952197,-0.5573182703834754
8.12,-4.363918275193553,-8.760027445823424,-0.6212733228640611
8.13,-4.349802664250334,-8.764955659793545,-0.6518738736251626
8.14,-4.428569240596637,-8.726527851687228,-0.6341218258062342
8.15,-4.564497989361467,-8.659077471270454,-0.5908829834933607
8.16,-4.693529935336886,-8.590630792469362,-0.5814978993030595
8.17,-4.759094446748068,-8.551677101620554,-0.6237005472714131
8.18,-4.755975875298907,-8.549624028222656,-0.674075086232409
8.19,-4.719333778319254,-8.564518411140714,-0.7386356643042911
8.2,-4.674086717993287,-8.582797703516693,-0.8106927091185536
8.21,-4.623562778656127,-8.60487020996895,-0.8649174319479739
8.22,-4.588960694713492,-8.618619539758644,-0.9113693779073068
8.23,-4.573002954894721,-8.622769633781115,-0.951610301380604
8.24,-4.555011469501273,-8.628792094679152,-0.9828182074417697
8.25,-4.520171277043792,-8.643190532209164,-1.016364390873052
8.26,-4.521652262861259,-8.64009720844776,-1.0361491625349042
8.27,-4.645545918122623,-8.577062648921451,-1.0075476520232662
8.28,-4.8334944888497215,-8.468803462266871,-1.0369660244040213
8.29,-4.976518900982827,-8.376949823524955,-1.1072005082809224
8.3,-5.020395594433763,-8.342171008376281,-1.171900765632672
8.31,-4.958443720121799,-8.367046037308047,-1.254184539635855
8.32,-4.80266460662032,-8.43657312047952,-1.3844655037334783
8.33,-4.619612934616999,-8.520714113062457,-1.4890350491870654
8.34,-4.496899643610877,-8.578237292254782,-1.536086360520952
8.35,-4.491258999382,-8.582092142116844,-1.5318005781086288
8.36,-4.583630576183805,-8.540920577274234,-1.4864999675149166
8.37,-4.716856757952972,-8.477501622734977,-1.4312270446480786
8.38,-4.84218995337942,-8.41311055583304,-1.3926423639473893
8.39,-4.90042354074083,-8.373640699818523,-1.4273429315738213
8.4,-4.870317297959142,-8.36803325067108,-1.5561401814608744
8.41,-4.785498635793486,-8.389822547707006,-1.695614047170159
8.42,-4.708302531002849,-8.423059679480113,-1.7473076585031997
8.43,-4.664243280716464,-8.453613587584332,-1.71781285071854
8.44,-4.655876073796244,-8.475836611236346,-1.6283312282439817
8.45,-4.6855177251801035,-8.48027486763467,-1.5161413705251143
8.46,-4.754635401473822,-8.449357689965753,-1.473359484467438
8.47,-4.850352168193497,-8.383541676445258,-1.535202810828278
8.48,-4.9143166732937384,-8.318790626880388,-1.6770075856892388
8.49,-4.883532663171463,-8.300695069875106,-1.8478352742047917
8.5,-4.745555940782132,-8.354324747550915,-1.9618575351299168
8.51,-4.562433972334589,-8.455029996044,-1.9645441415935248
8.52,-4.4308934632824535,-8.547594626481374,-1.8629373764979118
8.53,-4.440049297368043,-8.577022526548092,-1.6988507493145013
8.54,-4.547923220997896,-8.539697913989983,-1.5989437036394425
8.55,-4.691445226436051,-8.458998949899705,-1.6129149407222445
8.56,-4.8146682322794225,-8.36985850897969,-1.7116687243122155
8.57,-4.903292121034286,-8.289620793766582,-1.8454633396510391
8.58,-4.986691470577225,-8.222149301847244,-1.9228638844345198
8.59,-5.000752828115977,-8.197559381640115,-1.990531300590616
8.6,-4.905382723168031,-8.241389750135895,-2.045627286850262
8.61,-4.746148543803902,-8.334148785435215,-2.044861633721741
8.62,-4.645262682516684,-8.414559511215936,-1.9451631709372634
8.63,-4.63557579906737,-8.441855134956842,-1.8481818719313028
8.64,-4.690223840005075,-8.42371095352292,-1.792327977809868
8.65,-4.711599528842661,-8.408809211843774,-1.8063886595388048
8.66,-4.6536904431184585,-8.413170918533613,-1.9311342804648417
8.67,-4.589525159868817,-8.422839131848999,-2.0397975081289434
8.68,-4.674012965353801,-8.387858362049291,-1.9914481211745898
8.69,-4.773433294777517,-8.335767243265241,-1.974431696544697
8.7,-4.839024558830552,-8.306732083089956,-1.936961188077796
8.71,-4.870319696444902,-8.309871828785734,-1.8426410709328112
8.72,-4.899089404737457,-8.299425232259134,-1.8134786195066652
8.73,-4.974606814431834,-8.256244902659766,-1.804795749363452
8.74,-5.002492166155282,-8.2317844092711,-1.839281807383433
8.75,-4.898840631497918,-8.267597739072878,-1.9534650075313935
8.76,-4.720180418837662,-8.350321284124472,-2.039250962991983
8.77,-4.587391570357901,-8.426281201109994,-2.0303472115985293
8.78,-4.5171606813745475,-8.473630366120354,-1.9906426816865284
8.79,-4.478724102837219,-8.507762238238897,-1.9310534394022274
8.8,-4.4633493367172035,-8.532841322468416,-1.8544732359444127
8.81,-4.507739501774491,-8.51423024545673,-1.832584884975402
8.82,-4.621326843859686,-8.445168490972748,-1.8685994911545536
8.83,-4.755956333143564,-8.356014589644674,-1.930456352781716
8.84,-4.893792153142273,-8.267250673048396,-1.9678335776729172
8.85,-4.989802488033435,-8.212299601208235,-1.9570040358458465
8.86,-4.960938909041077,-8.223590918771217,-1.982905589105303
8.87,-4.811016227376616,-8.30825065220804,-1.9990674734396678
8.88,-4.629507160807944,-8.415445978868808,-1.9790876735287017
8.89,-4.53942161915778,-8.482072676749743,-1.9020883164000388
8.9,-4.516975414449154,-8.499080699064203,-1.8796053196841862
8.91,-4.513413848705801,-8.495062362422495,-1.906143528782983
8.92,-4.486996636864326,-8.49547494238663,-1.9657210978106348
8.93,-4.457187943100274,-8.492852763711891,-2.043341313495867
8.94,-4.476537198112966,-8.474284549912968,-2.0778577183140405
8.95,-4.542474795029498,-8.447370235524827,-2.0440697011653195
8.96,-4.598620533924974,-8.429651530560317,-1.9909916128867053
8.97,-4.609257768723579,-8.433478868176433,-1.949754219686643
8.98,-4.633487217065916,-8.434521970270417,-1.8867786225255827
8.99,-4.694489171892953,-8.416472287317557,-1.8152517925644267
9.0,-4.687160522804258,-8.412953667784013,-1.8501182455726852
9.01,-4.602845684769501,-8.449418587336359,-1.895007814902027
9.02,-4.480073212080692,-8.506299373844609,-1.9344525322552448
9.03,-4.435329210380417,-8.522355762111268,-1.9666025105987774
9.04,-4.500658986761676,-8.493895537061636,-1.9410524121315627
9.05,-4.599510470265096,-8.45144220156822,-1.8941636820128331
9.06,-4.625755320634358,-8.44850863900321,-1.8425856288528388
9.07,-4.561680886412757,-8.49295789721192,-1.7974326858090648
9.08,-4.521745603797275,-8.527444564538635,-1.733856158525923
9.09,-4.567110878135026,-8.522308018417512,-1.637642890216948
9.1,-4.624938867356328,-8.4938539834261,-1.6231802562865103
9.11,-4.612045833903957,-8.493932007322716,-1.6586684901613302
9.12,-4.49467945531886,-8.54354284401251,-1.7249644174924201
9.13,-4.421418090215566,-8.582313594217279,-1.7215337569372688
9.14,-4.49845127899222,-8.566502476029322,-1.5964373638501272
9.15,-4.581897003474851,-8.529059190297696,-1.5592290235187682
9.16,-4.638029777058675,-8.506498704561118,-1.5160469163351373
9.17,-4.601458952839239,-8.528093504623484,-1.5061075640979764
9.18,-4.563850142326277,-8.54475719053957,-1.5259697966372907
9.19,-4.552754178892596,-8.558208762979623,-1.4830029888715164
9.2,-4.482093709929424,-8.597352107675192,-1.471687204414022
9.21,-4.402271113040175,-8.643228061571627,-1.44366950207549
9.22,-4.350540761816614,-8.677848503170976,-1.3921001434885938
9.23,-4.383008446133943,-8.66690969130918,-1.3575759639985316
9.24,-4.477069476806135,-8.624549819219176,-1.3199499162933235
9.25,-4.556683931553339,-8.588561634600678,-1.2818993346284815
9.26,-4.604159391395442,-8.565283817368066,-1.268003658184499
9.27,-4.642996180540863,-8.54794866691017,-1.2426232365959478
9.28,-4.717238322515897,-8.516380236881838,-1.1784328516612188
9.29,-4.765468354077759,-8.491063936192054,-1.1672129236609106
9.3,-4.717116687704286,-8.517975135594718,-1.1658965459384816
9.31,-4.557258102044165,-8.607002537252583,-1.1465358388355595
9.32,-4.367995024581728,-8.707635237567066,-1.1245484615106165
9.33,-4.2506774579987505,-8.772355397012303,-1.0709589665257513
9.34,-4.246492678240638,-8.78293650934418,-0.9973337441769436
9.35,-4.381130265992522,-8.723561066508557,-0.9315211300697592
9.36,-4.58006455817245,-8.625141079209829,-0.8916316758452245
9.37,-4.729446391962027,-8.54323496694475,-0.9026529121794649
9.38,-4.782649233848452,-8.511781623054048,-0.9196302686573806
9.39,-4.771712278832223,-8.524107060815805,-0.8600497498291633
9.4,-4.723082523279675,-8.55649183759656,-0.8048504232979723
9.41,-4.622336017030019,-8.611758563808863,-0.7980859637400296
9.42,-4.4676985573415795,-8.693937128399801,-0.7881142853184887
9.43,-4.356173374878731,-8.753802780974343,-0.7485707725573629
9.44,-4.398006909623484,-8.745480510096492,-0.5802100286317706
9.45,-4.52278424159748,-8.68956320353275,-0.4500154234062253
9.46,-4.637008617185781,-8.628009901424043,-0.47396342554963405
9.47,-4.670706123547662,-8.605019276499895,-0.5521864763544514
9.48,-4.633621525426877,-8.615410256999136,-0.6868779583365143
9.49,-4.63072917635913,-8.613611825319326,-0.7203753054173111
9.5,-4.753032640825402,-8.5612623641123,-0.5255235311208308
9.51,-4.909950531861761,-8.474132747277716,-0.49947062484099863
9.52,-4.9449219450805035,-8.457432299085111,-0.42643490224442954
9.53,-4.786888628902155,-8.550450875626046,-0.3568463947221381
9.54,-4.549308564639804,-8.671367951590558,-0.5140609719872123
9.55,-4.3633476644489475,-8.758461927621912,-0.6468182589461292
9.56,-4.307299837369131,-8.788343851091808,-0.6167133452139387
9.57,-4.4269443896177325,-8.73324827145831,-0.534053460065742
9.58,-4.67080696982269,-8.611515485832964,-0.4245152729120192
9.59,-4.851895718898132,-8.516575521150225,-0.30704648690134545
9.6,-4.887631323217685,-8.497927150558825,-0.253941346685257
9.61,-4.761722662639496,-8.56789729176088,-0.2740182614383018
9.62,-4.5493865878005755,-8.680398477084138,-0.3330315182796777
9.63,-4.365642254322495,-8.77087617526249,-0.42234402538875215
9.64,-4.312160493809777,-8.796735633939265,-0.4318758118972892
9.65,-4.44944568498527,-8.732887394232867,-0.31048916024649714
9.66,-4.63456716089344,-8.639165930915508,-0.2225538128162867
9.67,-4.71657928365075,-8.596588437735385,-0.14344867087468297
9.68,-4.639801237974938,-8.638916842290335,-0.07374451973086305
9.69,-4.518070970824396,-8.703510548914121,-0.0703446469444889
9.7,-4.488314531282036,-8.71847380102623,-0.11163992181310406
9.71,-4.555772126756629,-8.682279215939433,-0.16852382840246893
9.72,-4.66479145293069,-8.623189941635173,-0.21979006950719332
9.73,-4.687089618911642,-8.610396258660268,-0.24500757789330962
9.74,-4.522191392378084,-8.697696038983073,-0.20690526842661072
9.75,-4.237512846178744,-8.841993129176668,-0.07384482450703313
9.76,-4.045295718715974,-8.933014644127729,0.07190839594765312
9.77,-4.090068696120735,-8.911650834271663,0.05823997244011357
9.78,-4.346182238450488,-8.789244738090044,-0.06706963068548617
9.79,-4.589325619658291,-8.664438811806717,-0.15844499984047705
9.8,-4.681433418639529,-8.612279970674477,-0.2804507416755507
9.81,-4.625243594440087,-8.641134961728893,-0.31784023151259605
9.82,-4.535053507489442,-8.692387152167914,-0.20790928931818026
9.83,-4.50999462901845,-8.706437887125107,-0.16655937785027183
9.84,-4.551217233323465,-8.685117885048806,-0.15370747091080558
9.85,-4.589601355103871,-8.665458358073451,-0.1239515565925019
9.86,-4.555695622613323,-8.681875450480593,-0.1853793995920482
9.87,-4.410301932870257,-8.754623694318997,-0.2562401300310757
9.88,-4.264423508393131,-8.826445970462146,-0.27678474307230666
9.89,-4.255809948053905,-8.829458092957179,-0.30876726162610746
9.9,-4.409339345376206,-8.751782254340734,-0.34505075336325597
9.91,-4.6204547299167675,-8.641903118078815,-0.35727303095096824
9.92,-4.771786017124543,-8.558982588033551,-0.3755929236072755
9.93,-4.82718467839237,-8.528941368079499,-0.3514451144470525
9.94,-4.803379194929373,-8.545593994183044,-0.26076157339556344
9.95,-4.741495456784544,-8.581199363486958,-0.223851710794104
9.96,-4.67162105530469,-8.618128711124324,-0.26696488022406656
9.97,-4.597831502992816,-8.654534523794876,-0.3535749927643365
9.98,-4.530751295348953,-8.685318663071843,-0.4525903894772721
9.99,-4.480423830145129,-8.70911772524904,-0.4968888586714056
10.0,-4.445854723244308,-8.728587691962248,-0.46416826358032554
10.01,-4.450313232710706,-8.729258217803,-0.4045855992902729
10.02,-4.532300544380007,-8.689651635731805,-0.3347741093728843
10.03,-4.694783936449086,-8.604517873102717,-0.2802952376153212
10.04,-4.876604304455511,-8.502788322808868,-0.28734597268619666
10.05,-4.958456509104916,-8.453364664449571,-0.3507762935000955
10.06,-4.886520021717438,-8.491246651776303,-0.42783577763064945
10.07,-4.7224180968975045,-8.58097409398798,-0.4743715140438489
10.08,-4.572819942379643,-8.662514577342854,-0.4646552022144267
10.09,-4.510267342282136,-8.69746444591808,-0.4261556186784534
10.1,-4.533251394944928,-8.687630725512635,-0.37854781717925434
10.11,-4.593012701692569,-8.658105061357132,-0.3320872603758653
10.12,-4.645077599470682,-8.630393995943129,-0.33039559993074374
10.13,-4.676781659789959,-8.611529558624312,-0.3725184161687311
10.14,-4.701986226137943,-8.595923510618498,-0.4139179352645551
10.15,-4.750200369143669,-8.56838725294619,-0.43274411622558207
10.16,-4.8324476487589045,-8.522078365968008,-0.434773753523697
10.17,-4.91066353363439,-8.477429225467297,-0.4331975173707765
10.18,-4.910625358147822,-8.476330648212059,-0.45463012421260457
10.19,-4.795215501928808,-8.539900442225413,-0.48712771508621827
10.2,-4.625544574177304,-8.632257597679539,-0.49952793888347774
10.21,-4.520427579246955,-8.688435372953924,-0.49634617980933066
10.22,-4.543241866075508,-8.676264743941925,-0.49967778543193836
10.23,-4.659429563068113,-8.612864025178071,-0.5214961324867728
10.24,-4.76160714930182,-8.55444507587663,-0.5627405567262275
10.25,-4.769354146670876,-8.546390030136887,-0.6177116052297446
10.26,-4.725653332297607,-8.569580590157733,-0.6325255030232149
10.27,-4.699136395742344,-8.586869995769812,-0.5944987349080895
10.28,-4.710020989740776,-8.58150116422732,-0.5861468587365755
10.29,-4.748243557498577,-8.557693018289056,-0.6238697533858167
10.3,-4.767176760887866,-8.541312972984533,-0.6987827401709619
10.31,-4.738017523888545,-8.549437549398641,-0.7912198948414942
10.32,-4.702470420712842,-8.567820895501255,-0.8056306290551734
10.33,-4.689560083255521,-8.579657670265076,-0.7529415412247572
10.34,-4.713720143378651,-8.570463670932478,-0.7053627031684704
10.35,-4.761465008793262,-8.545934484856156,-0.6819128195961139
10.36,-4.7931552551810865,-8.524752503205386,-0.7233089575628647
10.37,-4.785178895607154,-8.519902280627457,-0.8248718285828452
10.38,-4.72909998650866,-8.542552758994074,-0.9100681717586153
10.39,-4.649920245946458,-8.582983800803689,-0.9375669965564652
10.4,-4.592454393040695,-8.617413715162254,-0.9047887717703607
10.41,-4.585532323470923,-8.628036915844977,-0.8359975486803708
10.42,-4.632856959108656,-8.607489899963932,-0.7852694490005816
10.43,-4.706461772593043,-8.568980923463762,-0.7683813404313375
10.44,-4.777007334420911,-8.529908855446129,-0.7680677207917254
10.45,-4.833215722471267,-8.498853516052526,-0.7609984664472628
10.46,-4.8879976143315895,-8.471239181160811,-0.7171532329251774
10.47,-4.950796433672689,-8.434956868461581,-0.7141897106969455
10.48,-4.990212515148026,-8.40937614166736,-0.7417242100706928
10.49,-4.968288053982141,-8.420708796586998,-0.7599689603118349
10.5,-4.877632719709768,-8.470676583012,-0.7892864454335472
10.51,-4.736107106668501,-8.550337089968796,-0.7903597230168052
10.52,-4.597728580161005,-8.63036503804093,-0.7363411476677857
10.53,-4.51033499034932,-8.680782783513695,-0.6852886642345857
10.54,-4.511160241047714,-8.683595955961364,-0.6437448135146631
10.55,-4.611246508748178,-8.634220261278447,-0.5934482220214268
10.56,-4.750961938244196,-8.56104239670762,-0.5491791206435482
10.57,-4.8712487707614835,-8.495581372050822,-0.5128158624504751
10.58,-4.937495672090529,-8.459348285317661,-0.4797243218307387
10.59,-4.937571719526041,-8.460621798013554,-0.45660749258990946
10.6,-4.90625825293258,-8.47978795747962,-0.43794340662684994
10.61,-4.863040272916882,-8.505355732246029,-0.42375815970806097
10.62,-4.830845487833127,-8.525244292012834,-0.39117828213109995
10.63,-4.804747431610911,-8.542718682433309,-0.3247807636658269
10.64,-4.746761433391961,-8.57703203748906,-0.2674124733193234
10.65,-4.667363635767031,-8.62168499561934,-0.22521640290385458
10.66,-4.626051007449172,-8.64525953625466,-0.16923583235639728
10.67,-4.671912089347467,-8.621647677688784,-0.0924260305103063
10.68,-4.777456785993111,-8.563976536701423,-0.02992690487198487
10.69,-4.85149966722648,-8.522460148848298,0.003718761532692542
10.7,-4.824522316830702,-8.537760504029958,0.01882974617712948
10.71,-4.7195835305427405,-8.596043275939783,0.02784385807008318
10.72,-4.605766247603608,-8.657314925630947,0.07105264080880037
10.73,-4.523828981803675,-8.69971894373615,0.1355807164965995
10.74,-4.5054033539278935,-8.707968397844843,0.20542896116249815
10.75,-4.554311979165001,-8.680337566506173,0.2804071551851858
10.76,-4.680699955162234,-8.610580045398956,0.3387885935795
10.77,-4.820303347677731,-8.53188751888445,0.3713954125937045
10.78,-4.910071564959785,-8.479905271048072,0.3892607653494438
10.79,-4.925405955526461,-8.470632429185153,0.39892040692126046
10.8,-4.889084447344482,-8.491192436694682,0.4080412480328784
10.81,-4.87898329708138,-8.492484041927836,0.492129570113447
10.82,-4.911742422020619,-8.469620816983422,0.5566924397723962
10.83,-4.959376148634616,-8.439469378245484,0.5913923734115983
10.84,-4.951053505659814,-8.442555847970487,0.6169002987579632
10.85,-4.861059346220776,-8.496656216425967,0.587563728397203
10.86,-4.7272667625935245,-8.57397570070456,0.5539483665091595
10.87,-4.596716082822152,-8.645726948623874,0.5378690178087342
10.88,-4.568599177505156,-8.662084879786855,0.516226583776463
10.89,-4.6604399845560245,-8.613041788834222,0.5142058469532994
10.9,-4.778955256001409,-8.547707787858236,0.516237678403289
10.91,-4.84472698726808,-8.510669264049533,0.5167306167603227
10.92,-4.885534434180602,-8.485270449804343,0.549321199382533
10.93,-4.93239345008169,-8.454051499901825,0.6083880538099956
10.94,-4.994361616424378,-8.414770555929321,0.6462893452248983
10.95,-5.055781237721632,-8.377013700401944,0.659234934285155
10.96,-5.087139846476702,-8.359933471815259,0.6346104541269295
10.97,-5.117446256512574,-8.34515504918045,0.5832181773302487
10.98,-5.093597653917427,-8.364473611718111,0.51050999279083
10.99,-4.999439115535293,-8.423299535806706,0.4719595665235765
11.0,-4.853078402163614,-8.509854857340104,0.44482741761042566
11.01,-4.757990022951793,-8.559933603168643,0.5082174870816958
11.02,-4.938961845082232,-8.452215374024068,0.5767260897701854
11.03,-5.130822202088797,-8.34257441664579,0.4924909227731076
11.04,-5.2099794505807075,-8.290198434229717,0.5462275014593054
11.05,-5.130672003545179,-8.340648450368725,0.5286050458753387
11.06,-4.88310458160476,-8.494572359744389,0.4019351680600048
11.07,-4.6744144905959155,-8.613538941324032,0.35225915999247365
11.08,-4.641206283499814,-8.630428293025647,0.3810727347010431
11.09,-4.828389447096734,-8.527709187739838,0.3644792635703879
11.1,-5.035005802122144,-8.402669956311971,0.4597504999614172
11.11,-5.152187931620617,-8.325215184539706,0.5612973385929624
11.12,-5.0864280254467715,-8.370127799257071,0.48900242963235135
11.13,-4.870731729153821,-8.501606982932215,0.4085001942009743
11.14,-4.570571283510874,-8.669653225419253,0.3379830423736062
11.15,-4.415207691096719,-8.75262655771797,0.2590886785862557
11.16,-4.5940780133048005,-8.660810673805129,0.2333566267416924
11.17,-4.699665041332493,-8.604830696784381,0.20063561233912242
11.18,-4.667686784237353,-8.619775201843327,0.2872053153940949
11.19,-4.477145680363817,-8.719582116924533,0.3070094958724498
11.2,-4.289129579229057,-8.812977255241481,0.3242961900140999
11.21,-4.33048119935658,-8.788147447333774,0.4301830285480847
11.22,-4.651053289453264,-8.628254886840644,0.29866697868941017
11.23,-5.0516172264292925,-8.402816690892081,0.20863268953706773
11.24,-5.231712651096534,-8.291896858931148,0.2012904552619184
11.25,-4.87383016128436,-8.508841722732535,0.04507660520403442
11.26,-4.186958306240352,-8.86753098098548,0.007566028020715506
11.27,-3.800690622059674,-9.037146675206937,0.23329719532064627
11.28,-3.9102029546391868,-8.992132835124204,0.133060110309987
11.29,-4.232073287610811,-8.84582482902765,0.09146261329511067
11.3,-4.430332434128744,-8.74595351151847,0.22380781405274808
11.31,-4.365074418310032,-8.780759863765837,0.11929853461413584
11.32,-4.278380097907114,-8.822830013036452,0.14466936063578736
11.33,-4.377475632313532,-8.76900518450943,0.3221987344610117
11.34,-4.658073458995682,-8.629014811495619,0.10444730345099244
11.35,-4.798034617369087,-8.55055324722774,0.18732409875965483
11.36,-4.883331436474905,-8.497977625319905,0.3283607679354256
11.37,-4.861804604330324,-8.510574299025576,0.31942062006728383
11.38,-4.734675401160292,-8.582601655141904,0.29557651292630105
11.39,-4.510572770630024,-8.703584191626303,0.25819978053513004
11.4,-4.286816107882674,-8.818134509214213,0.18253484555952124
11.41,-4.2460525212323805,-8.838940440499686,0.11120410181078678
11.42,-4.390680166533098,-8.768311234197386,0.059066014242259275
11.43,-4.606410546539791,-8.657150658738438,0.04077742228705553
11.44,-4.76676064595694,-8.56967464938898,0.08404990860140346
11.45,-4.872687692224694,-8.508908423834995,0.15555720775235782
11.46,-4.937993724359725,-8.46910779412102,0.24552412299800164
11.47,-4.988281052867073,-8.439578840762104,0.24437330868908488
11.48,-4.947297807081452,-8.465794718974244,0.14556714944126195
11.49,-4.796051211733393,-8.553221800798458,0.07825786572691876
11.5,-4.627407924273302,-8.645929135497019,0.05023771328853508
11.51,-4.499846328675313,-8.713007239936156,0.06845250796752725
11.52,-4.455510806141664,-8.735553548629651,0.09302560840307524
11.53,-4.502240787722045,-8.711321681430235,0.10786572366050622
11.54,-4.6003957375212785,-8.659588072174868,0.12564644898758845
11.55,-4.722656244805897,-8.593375386361146,0.13490312189523077
11.56,-4.835839341697142,-8.529915667127867,0.15702409197251668
11.57,-4.899956495999684,-8.493359388085405,0.1531337418658816
11.58,-4.9117072729194575,-8.487022556736108,0.12476355919398847
11.59,-4.855670894520916,-8.519417826386015,0.09268571290830925
11.6,-4.717700119656914,-8.596892273028947,0.031518178937881135
11.61,-4.551990324005309,-8.685981132721142,0.010749365393042077
11.62,-4.454214951426838,-8.736273020582678,0.08420554778980459
11.63,-4.457593553883522,-8.733708774481377,0.14528340297548364
11.64,-4.544505797551818,-8.688516570406394,0.1596613400518227
11.65,-4.631638280089838,-8.642992025027022,0.1239820336150381
11.66,-4.668009463982313,-8.624252562980853,0.03749652806578114
11.67,-4.687270356587454,-8.613908012091713,-0.008245245694575186
11.68,-4.6917798342028565,-8.611424988825819,0.029778069433770676
11.69,-4.70393799716483,-8.60480120554018,0.027362968484602235
11.7,-4.6951682394346905,-8.609581532617929,0.026918518915968772
11.71,-4.675800913946341,-8.62011916794904,0.02128620629571716
11.72,-4.688195100382623,-8.61341146197197,-0.006813983463403073
11.73,-4.714600172004079,-8.598979109833705,0.018052183093491502
11.74,-4.734005600994052,-8.588297845140927,0.01603151532324168
11.75,-4.7318880790904405,-8.589415700499076,-0.03239228637150345
11.76,-4.7040206576474946,-8.60433633376196,-0.08257803575606534
11.77,-4.683687479860739,-8.61461215472213,-0.14691431547743738
11.78,-4.689495247494181,-8.611042098226337,-0.16963212347213166
11.79,-4.6884111351307975,-8.612072604748711,-0.14565478871657525
11.8,-4.652084730809738,-8.631729858194413,-0.14393775047685478
11.81,-4.591946173630197,-8.663729476188001,-0.1534273855090399
11.82,-4.569094345770244,-8.675775521468443,-0.15476466075149542
11.83,-4.631923324174037,-8.642419819505122,-0.1480098341209871
11.84,-4.706471648347118,-8.601513589973733,-0.18074509002705244
11.85,-4.706730010292987,-8.600002460317791,-0.23465928830441174
11.86,-4.629225979380047,-8.640170104956182,-0.2918030130286003
11.87,-4.555557388238061,-8.677869381893432,-0.33410784370472585
11.88,-4.546304301041045,-8.682872987854276,-0.3298188787924592
11.89,-4.5929791169581,-8.658635254394932,-0.3191091079091228
11.9,-4.646397382058817,-8.6302998691946,-0.31472003585543845
11.91,-4.665578657378163,-8.61975100655741,-0.32016394399159237
11.92,-4.657503857783901,-8.622981366655985,-0.34905737111280266
11.93,-4.639830461326329,-8.631096148554182,-0.38250295469296086
11.94,-4.63510812546166,-8.632538290450336,-0.4065576774568193
11.95,-4.65600817803251,-8.620513828806184,-0.42239321349764775
11.96,-4.685682302925009,-8.603822173658907,-0.4344357932675257
11.97,-4.701897460329399,-8.59450700591535,-0.44382319967199163
11.98,-4.6808823005497056,-8.605874050739356,-0.4449848421168006
11.99,-4.634432682553034,-8.631132264648826,-0.4419660213815821
12.0,-4.608522824567384,-8.645681813045117,-0.42883440654334215
12.01,-4.641831331154208,-8.628647955884102,-0.41057714948867796
12.02,-4.7263413673515196,-8.582249717185187,-0.4168333473430205
12.03,-4.820097447713568,-8.528720792540577,-0.44257965759464585
12.04,-4.88035431733615,-8.493520379886391,-0.4608580493264829
12.05,-4.876847955981171,-8.49480779518472,-0.47326000476894614
12.06,-4.798316072619831,-8.538834610975346,-0.48022906311524544
12.07,-4.683580814335024,-8.60298723386026,-0.468165006421752
12.08,-4.586980058236876,-8.655108355092402,-0.46636198634132225
12.09,-4.530585414812764,-8.684108742758728,-0.4796666227378349
12.1,-4.523425094360334,-8.687017873178899,-0.49436987884024325
12.11,-4.571255672202252,-8.661486917820218,-0.5009795045151352
12.12,-4.646321195472662,-8.621958678041848,-0.4919800813567713
12.13,-4.724360486223274,-8.580488857193565,-0.4731554019773311
12.14,-4.802857661791826,-8.539028456598977,-0.43016263951421113
12.15,-4.8612459787742255,-8.508104964395033,-0.38787380043214637
12.16,-4.86632955633999,-8.504779154093221,-0.39669750594684233
12.17,-4.807942497533711,-8.53642121078557,-0.42516154875595014
12.18,-4.714192084153456,-8.588087775656659,-0.43422352698301914
12.19,-4.640098073813057,-8.62958774732308,-0.41111947764080947
12.2,-4.614115729334842,-8.644949306668376,-0.38090816190498566
12.21,-4.628447889729336,-8.637975925755361,-0.36447270403483667
12.22,-4.6551953781544,-8.62346303081824,-0.3676336709289362
12.23,-4.658164987986641,-8.620473769945116,-0.39853676639593183
12.24,-4.631132984310132,-8.63357897791242,-0.4286402356312952
12.25,-4.596923642811406,-8.651626543824243,-0.4333059460042091
12.26,-4.58859721747167,-8.657338553609222,-0.40633979835134865
12.27,-4.626157088847928,-8.639401418898661,-0.35754783251707506
12.28,-4.6843107161187625,-8.60965968199824,-0.31673708251176413
12.29,-4.717436917310832,-8.59190780300302,-0.3085650009048271
12.3,-4.711320259514582,-8.594526136130911,-0.32799659049362917
12.31,-4.690667032005594,-8.605659993866789,-0.3323676612904857
12.32,-4.687916435766873,-8.60735643478216,-0.3273819218534318
12.33,-4.696760344560025,-8.601517359742116,-0.352537132944141
12.34,-4.684736708154021,-8.60648464751709,-0.3892118001227885
12.35,-4.647656925335597,-8.625377501369291,-0.4145698305984228
12.36,-4.614391203962195,-8.643507306599203,-0.4088529035393802
12.37,-4.598176116483709,-8.653992833761489,-0.3671828840052604
12.38,-4.612785967709701,-8.647938652659292,-0.32415673170129344
12.39,-4.67496664147016,-8.614814273884956,-0.3125363730568043
12.4,-4.764710735504423,-8.56387392211802,-0.35209744800293136
12.41,-4.846751181849387,-8.514019059310902,-0.4324361251364001
12.42,-4.875548388826877,-8.494293831301121,-0.49595591384832705
12.43,-4.815404346530661,-8.526634078806817,-0.5246555970097498
12.44,-4.696689134813244,-8.592652808945886,-0.5217166196323997
12.45,-4.59173047635001,-8.651397482816039,-0.4867593975171691
12.46,-4.566290608539002,-8.66644442621316,-0.4604020776444037
12.47,-4.621859821891161,-8.636874510660828,-0.4594092967819513
12.48,-4.699640227745748,-8.594324801825248,-0.4685948637696174
12.49,-4.7609270457965,-8.559612841530683,-0.4858110772124572
12.5,-4.795328925294283,-8.539988825648056,-0.49360754147059377
12.51,-4.812891283046897,-8.528939018338434,-0.5131186557932597
12.52,-4.814606139584829,-8.524765683683531,-0.5634040830105617
12.53,-4.784258535687586,-8.538295583044649,-0.6145372110994073
12.54,-4.716157080892337,-8.57331483703805,-0.651310696211995
12.55,-4.624619689364398,-8.622044272976135,-0.6638820663936419
12.56,-4.568606463600968,-8.65411484798724,-0.63538575220193
12.57,-4.59274194934725,-8.643662682839247,-0.6025546688872845
12.58,-4.681345414267575,-8.595259593934038,-0.6108563584806384
12.59,-4.7751963141882685,-8.539407768046742,-0.6655007764771661
12.6,-4.837963250795601,-8.497977198571789,-0.7394071731155163
12.61,-4.864263891519017,-8.480156853308177,-0.7721423206408067
12.62,-4.840702740140984,-8.491944632639742,-0.7900258235874721
12.63,-4.7727780893787015,-8.53081125358109,-0.7836276314974993
12.64,-4.6899765121371795,-8.58003847590053,-0.7448255295021639
12.65,-4.617313085889218,-8.621636803542138,-0.7189029096418325
12.66,-4.55666962675713,-8.654165738275141,-0.7152761569989277
12.67,-4.519704128041193,-8.673004667010456,-0.7221073214084625
12.68,-4.546493607095692,-8.659366446456842,-0.7171465005313857
12.69,-4.664967966370975,-8.598014490783898,-0.6898871051875459
12.7,-4.814941322983955,-8.516139299917409,-0.6750428652427007
12.71,-4.922764137021783,-8.453786731962285,-0.6840828017180909
12.72,-4.918969755567522,-8.453723952499553,-0.7126063092823868
12.73,-4.823078937049566,-8.509838477497647,-0.6975242921918448
12.74,-4.7102129420929675,-8.578159193220714,-0.6280375372963394
12.75,-4.598424362270896,-8.640647932272717,-0.6005460426070577
12.76,-4.514933794884827,-8.684545831250796,-0.602584863211315
12.77,-4.448373321864187,-8.717214451248699,-0.6255206622003656
12.78,-4.398412833114976,-8.738880287700423,-0.6746911545208515
12.79,-4.414357273026831,-8.729918614476558,-0.686970713421111
12.8,-4.49208601998249,-8.692946465915188,-0.6493094994520279
12.81,-4.626273380389925,-8.6260114161414,-0.5946264310146063
12.82,-4.780225781387971,-8.544618778457275,-0.5503165046522812
12.83,-4.88225340106295,-8.487697362155231,-0.5396689133559214
12.84,-4.9244385237916175,-8.465436290851168,-0.5060444434858363
12.85,-4.885388004344084,-8.487851887179104,-0.5085777634827341
12.86,-4.770154319803103,-8.550540900162268,-0.5472539320946394
12.87,-4.635229992874188,-8.624614744143102,-0.544514215256402
12.88,-4.509624715218667,-8.690633048586593,-0.5504650788235977
12.89,-4.438597581400427,-8.725314486623674,-0.5807279160795225
12.9,-4.437713165272779,-8.725608773607313,-0.5837576686697639
12.91,-4.508998422411828,-8.691686544107654,-0.5400285899416541
12.92,-4.647695723705148,-8.621981549849156,-0.4739430776613774
12.93,-4.793114053396428,-8.545259442171439,-0.4120739797906941
12.94,-4.918142530254142,-8.476920407892319,-0.34654123435278245
12.95,-4.995837974256193,-8.43209169275334,-0.3329070893613398
12.96,-4.978416807620027,-8.440306644382787,-0.3820793582851612
12.97,-4.849727144608012,-8.511559656827,-0.44524203281479097
12.98,-4.642679972461695,-8.623430375344695,-0.4918119773404352
12.99,-4.478282197796739,-8.711064059154145,-0.47752626514750524
13.0,-4.431669673023704,-8.737330175086369,-0.4351119428187865
13.01,-4.499500504751968,-8.704599045872353,-0.3911747596903643
13.02,-4.6066981575311345,-8.650419454134273,-0.3408809714038269
13.03,-4.678381951503996,-8.61176776661912,-0.3460774328519974
13.04,-4.719689357762757,-8.587753628652475,-0.3806991220849113
13.05,-4.774683781509566,-8.559361926301724,-0.3298148078282099
13.06,-4.828906979970778,-8.528910757092254,-0.33040418888372985
13.07,-4.839419059683433,-8.521297851150345,-0.3709594885876616
13.08,-4.778205825151406,-8.555120866537267,-0.3848371256460313
13.09,-4.706912641209111,-8.594928297281832,-0.37640696381587946
13.1,-4.634742561819011,-8.633769270991923,-0.3830236672586293
13.11,-4.524408946533347,-8.691480190642892,-0.3950996864345369
13.12,-4.423334300842837,-8.742988825590238,-0.40395216704600667
13.13,-4.409041808308901,-8.749702771125193,-0.416428372713362
13.14,-4.524925939758076,-8.69015738506341,-0.41710804841861626
13.15,-4.685712474080323,-8.602748247386277,-0.4506679591630751
13.16,-4.785019933627453,-8.546227624483441,-0.484455067593788
13.17,-4.796695799030864,-8.540923932142674,-0.4632987272383738
13.18,-4.754794394069492,-8.567227416003979,-0.40524721246751155
13.19,-4.723483096718652,-8.584071726945801,-0.41553533787026226
13.2,-4.705203121803024,-8.592545488668597,-0.44664319365616706
13.21,-4.686954936877262,-8.598416426047143,-0.5191461193511492
13.22,-4.62265872471259,-8.625288630534081,-0.6356456116361892
13.23,-4.513007840290622,-8.678059938120299,-0.7019813207798068
13.24,-4.443733590167148,-8.714598309837749,-0.692056241476713
13.25,-4.455877234049577,-8.712175058420744,-0.642888209456713
13.26,-4.537218753399464,-8.67424090572865,-0.5836445591915532
13.27,-4.655631243144952,-8.613085139197546,-0.5558098929171872
13.28,-4.752230013527598,-8.558609634823293,-0.5797205145293602
13.29,-4.803296075605254,-8.526025860588932,-0.6365503298030454
13.3,-4.814798511265195,-8.51332430165139,-0.7148648199355636
13.31,-4.774239628530086,-8.530227996767346,-0.7822235834861964
13.32,-4.692166982410915,-8.570337745724283,-0.8382539554372622
13.33,-4.5735286351257205,-8.628817221383446,-0.8920595585748052
13.34,-4.4890435786352,-8.67273889181911,-0.8956100997698565
13.35,-4.526978506329917,-8.66127563975472,-0.8116644982970165
13.36,-4.614280382411309,-8.62044883617346,-0.7524814702718494
13.37,-4.67610091896405,-8.586819187727096,-0.755561936083632
13.38,-4.640652099501864,-8.601596475777969,-0.8044601756555299
13.39,-4.57460276310696,-8.628205199067748,-0.8928525562108944
13.4,-4.553708372082361,-8.631814446774188,-0.9621940725242747
13.41,-4.576818854193946,-8.616572791570933,-0.9888245405713662
13.42,-4.612395953709437,-8.59857478292445,-0.9801488559834394
13.43,-4.629749473098902,-8.59493623799287,-0.9289093188978662
13.44,-4.644740415412602,-8.590946887661238,-0.8901706741113579
13.45,-4.697314232679109,-8.564632944859815,-0.8675560913158061
13.46,-4.775904983243201,-8.52416379538345,-0.8364899785776546
13.47,-4.8295954870442035,-8.491331354354518,-0.8617717843533728
13.48,-4.856776725045565,-8.473270065944622,-0.8864478487088531
13.49,-4.848226948663914,-8.475993061394544,-0.9068404695032669
13.5,-4.766607456670119,-8.515459893928101,-0.9675075255733944
13.51,-4.624048371932761,-8.591039165298803,-0.9907371222007642
13.52,-4.466756078942453,-8.677487486991529,-0.9587340045941675
13.53,-4.387845210755668,-8.725320129410317,-0.8863453943113264
13.54,-4.431571537848769,-8.711623071417566,-0.7988500219269717
13.55,-4.56149823984397,-8.648988644510458,-0.7460928677467369
13.56,-4.712518841793208,-8.566728692049985,-0.7568638714220817
13.57,-4.792295406644337,-8.514500105516525,-0.8407557775913101
13.58,-4.770845757547723,-8.515043466390296,-0.9501744305100395
13.59,-4.690723866552956,-8.554604703980003,-0.9927753919762226
13.6,-4.637539479916848,-8.591906908198993,-0.9178155430403278
13.61,-4.625023708188,-8.605990987084928,-0.846261363081019
13.62,-4.630178398819326,-8.60922817090156,-0.7829063462937699
13.63,-4.6325024288377525,-8.610566326304557,-0.7538586608556229
13.64,-4.602804480132985,-8.623235052642016,-0.7898022784662084
13.65,-4.542444513068387,-8.650613262618611,-0.838672282649685
13.66,-4.524223936783784,-8.658086791980706,-0.8596972985740735
13.67,-4.572802438202502,-8.632550082886407,-0.859173747207006
13.68,-4.646724962289867,-8.595003032611883,-0.8390992499062009
13.69,-4.674591885366973,-8.581865149974465,-0.8185541173063627
13.7,-4.661035898838972,-8.592713768505758,-0.7807463263741383
13.71,-4.651393740101233,-8.605077403521246,-0.6979550988391305
13.72,-4.6047997750588685,-8.632347924172791,-0.6696824184677795
13.73,-4.56759719891375,-8.651678641342706,-0.6751290579413887
13.74,-4.603179408196942,-8.631788220254059,-0.6866215268275627
13.75,-4.719897336673033,-8.566701647112847,-0.7076642142079815
13.76,-4.860057229696494,-8.486610024089618,-0.7259795076638135
13.77,-4.895729329687684,-8.463710236145793,-0.7530183886880356
13.78,-4.823820408903389,-8.50654710602198,-0.7333384963443431
13.79,-4.727662149120618,-8.56407974872918,-0.6889078178034161
13.8,-4.639418769157801,-8.611342855137824,-0.7002758075317584
13.81,-4.585420243895243,-8.637609118797593,-0.7314961704314565
13.82,-4.524838035834165,-8.665139476644855,-0.7813686127235232
13.83,-4.47834270493042,-8.685886243866793,-0.8184625288178438
13.84,-4.526911253216448,-8.663484631139067,-0.7868558940270803
13.85,-4.643491765366854,-8.60503594854386,-0.7461394649465003
13.86,-4.8006461716552415,-8.52023793630409,-0.7249605495766258
13.87,-4.93257300683737,-8.4452969860749,-0.7180668709850088
13.88,-5.001095901083271,-8.40360257925721,-0.734004387137483
13.89,-4.994233297001286,-8.405345391558027,-0.7591026640071639
13.9,-4.899061627997243,-8.458500827132362,-0.7875736945027532
13.91,-4.785463935963124,-8.52539162333668,-0.7649154778610978
13.92,-4.686105013131639,-8.581675480102945,-0.7509416968217537
13.93,-4.60440335489511,-8.625402081630478,-0.7560949141464505
13.94,-4.567050792163225,-8.644764031363056,-0.761853499857642
13.95,-4.603053290693126,-8.626536169660907,-0.75004748310234
13.96,-4.711893002394054,-8.571045397787953,-0.7080990815931493
13.97,-4.830692718163861,-8.507346215740059,-0.67710621624892
13.98,-4.883577929700589,-8.476779187786876,-0.6819049957902411
13.99,-4.844566291163777,-8.496689119292927,-0.7103297549355034
14.0,-4.75342262588623,-8.547682764856887,-0.7145445148271147
14.01,-4.674409145138679,-8.593780712966579,-0.6823165553479499
14.02,-4.593621168786804,-8.637212686516495,-0.6827766501215454
14.03,-4.534291073402027,-8.669292752655895,-0.6736910954266662
14.04,-4.55680295465908,-8.659021943425309,-0.6506340066475306
14.05,-4.697893744420679,-8.58597851551845,-0.6094366800263763
14.06,-4.877721195277145,-8.487947249395631,-0.5719391572011765
14.07,-4.990440545386039,-8.42330451821453,-0.5600999358363813
14.08,-4.973604852807325,-8.432073273526846,-0.5743735092354052
14.09,-4.849510077819251,-8.500871116091673,-0.6177084151446226
14.1,-4.698650712474263,-8.58388524213463,-0.6356155856111287
14.11,-4.558535719339806,-8.659222619121179,-0.635829238938174
14.12,-4.4525063659222806,-8.713355371964484,-0.6491533161431253
14.13,-4.3941126772520525,-8.742206554415985,-0.6602254396799281
14.14,-4.4217037888940185,-8.727572963328964,-0.6667007732707819
14.15,-4.561738798478273,-8.655675984075858,-0.6565405000518364
14.16,-4.742644298556979,-8.558813127357062,-0.6445346501512536
14.17,-4.9066422591228305,-8.467252069584804,-0.628803139611004
14.18,-5.025600760267559,-8.400601713435597,-0.58358521935364
14.19,-5.080548980783568,-8.368427693920786,-0.5710309781629804
14.2,-5.024719234796103,-8.395356216440781,-0.6578280710198335
14.21,-4.845454689283968,-8.493502865560137,-0.7314237094201528
14.22,-4.602037427361696,-8.622568171616757,-0.7901633702792898
14.23,-4.375175141844249,-8.7355212241222,-0.8421768057602079
14.24,-4.242823527210773,-8.79997884055175,-0.8536238064461124
14.25,-4.276991522709635,-8.786558936612156,-0.8158699947323095
14.26,-4.473183884687386,-8.693328590444818,-0.753693559051945
14.27,-4.70614107496689,-8.572061020253713,-0.7281605055219734
14.28,-4.856295920017866,-8.485487577485422,-0.7621689492253165
14.29,-4.897619046249487,-8.459169738271877,-0.7912247829765848
14.3,-4.887072203393949,-8.467234568788172,-0.769779952622247
14.31,-4.854738236323469,-8.485399681703846,-0.7738929866924031
14.32,-4.801128456607307,-8.51312456356912,-0.8030128228395583
14.33,-4.718310779163919,-8.55684501527415,-0.8273355782539336
14.34,-4.607628778058766,-8.612159093933291,-0.8752939112270065
14.35,-4.507362745905014,-8.662421179504694,-0.9026432118143882
14.36,-4.459237487089642,-8.688484786563874,-0.8920519487805018
14.37,-4.472544693927195,-8.68188692157564,-0.8893292855221815
14.38,-4.547400446582294,-8.642192395614396,-0.8943584074379378
14.39,-4.682585797963587,-8.569961290930232,-0.8896086103498383
14.4,-4.835615915084333,-8.485663298023976,-0.8798924304237865
14.41,-4.9293041742290225,-8.432374430884222,-0.8758375365212376
14.42,-4.916424832820178,-8.439021399667004,-0.8834947303871549
14.43,-4.855621181516613,-8.476368077857643,-0.8618146062586916
14.44,-4.824801470597028,-8.496824950704877,-0.8340359393235677
14.45,-4.8367117172604885,-8.486954678863267,-0.8643197336784241
14.46,-4.856275527008536,-8.470689374625923,-0.9132095330828695
14.47,-4.824189607501489,-8.484387183873043,-0.954238358441839
14.48,-4.751413862946439,-8.525516884828109,-0.9527182387087696
14.49,-4.707678388044641,-8.55765802981842,-0.878639339772834
14.5,-4.7151353626040855,-8.559361991372832,-0.8215014989662198
14.51,-4.750714338740001,-8.539109240964178,-0.8270823575214366
14.52,-4.759258891635602,-8.52965107595183,-0.8737182429583742
14.53,-4.725918540447482,-8.540268724972316,-0.9476567215680183
14.54,-4.697338769502937,-8.553309180057665,-0.9726474937374792
14.55,-4.68946533933933,-8.561189981797162,-0.9407272793984014
14.56,-4.704621416626914,-8.556826755049462,-0.9039052502368446
14.57,-4.7431523655533745,-8.539301863099578,-0.867321915952844
14.58,-4.805831877825416,-8.506022473676826,-0.8484771834141107
14.59,-4.885154995010595,-8.45991138148043,-0.8563569205789976
14.6,-4.927236405428136,-8.432063022929329,-0.8901531837840044
14.61,-4.8915725773123935,-8.448086020325125,-0.9330854081968242
14.62,-4.801694005572251,-8.497049216311124,-0.9543541926459554
14.63,-4.72156659962595,-8.541787679239453,-0.9559821310325902
14.64,-4.675446818956354,-8.567972513452112,-0.9486875503561765
14.65,-4.623738572980274,-8.597729030138277,-0.93215897293276
14.66,-4.539471468597828,-8.64451374140723,-0.9125522223154621
14.67,-4.478799291327684,-8.679555622821743,-0.8805133895398126
14.68,-4.508119635463539,-8.669577195845287,-0.8264529693366135
14.69,-4.627303292857534,-8.609213820912975,-0.7953084637735569
14.7,-4.780801387893703,-8.523205685819143,-0.8131720397997714
14.71,-4.872417670202081,-8.466096437570867,-0.867919533750392
14.72,-4.861494797393271,-8.464979550877986,-0.9372355006548347
14.73,-4.798136470583475,-8.499581293927388,-0.950524100631262
14.74,-4.738290671056704,-8.53853300289047,-0.9002574916165242
14.75,-4.714003860390577,-8.557135659681572,-0.8506654104754411
14.76,-4.7279101173560925,-8.552220751299686,-0.8224655571448146
14.77,-4.750206379836557,-8.537568118858578,-0.8455940012366522
14.78,-4.746223895137615,-8.531835021580306,-0.9216693136879334
14.79,-4.70637134113674,-8.546511359508141,-0.9880231358861298
14.8,-4.675080640990167,-8.562993139462996,-0.9944513090203653
14.81,-4.69467369552701,-8.555014176644796,-0.9702935652606502
14.82,-4.765926393565206,-8.518398160204729,-0.943756087166153
14.83,-4.847102072565285,-8.473419883460611,-0.9355888535269465
14.84,-4.889086525013071,-8.446076761168014,-0.964558622320451
14.85,-4.857146257845959,-8.460643808710463,-0.9973306040701343
14.86,-4.770306372936955,-8.50774554216048,-1.0147788931504436
14.87,-4.695145541364289,-8.548172775755294,-1.0264662025952573
14.88,-4.692212769516263,-8.548918612352304,-1.0340402359810041
14.89,-4.758399399976713,-8.509594786781436,-1.0546697526869593
14.9,-4.824379964950026,-8.466885125959399,-1.0981805128255107
14.91,-4.816806301425807,-8.46565589292881,-1.1404728299603468
14.92,-4.748408360297773,-8.504192887839167,-1.1399829346834252
14.93,-4.688663366604938,-8.542281893411126,-1.1022772979846263
14.94,-4.6633673416513854,-8.55879572690453,-1.0818218980776486
14.95,-4.668072434263577,-8.55577762509238,-1.085399228624672
14.96,-4.667730937326671,-8.550772617171777,-1.12530528733877
14.97,-4.660101948654506,-8.546204044476195,-1.1896206034581298
14.98,-4.667989458615962,-8.539672735402728,-1.2058907755732207
14.99,-4.672206007739469,-8.539112580097104,-1.1934752046520356
15.0,-4.697718337919176,-8.527812041735583,-1.173792309758312
15.01,-4.736563954145488,-8.508466138289771,-1.157974515095974
15.02,-4.755470119996615,-8.495931790965699,-1.1725425309408894
15.03,-4.741544522355565,-8.499187506505969,-1.2048135385495151
15.04,-4.687862363901527,-8.525738867522199,-1.2267619440638597
15.05,-4.645310368209318,-8.550564369219986,-1.2161052609588945
15.06,-4.646659572679488,-8.554020492656438,-1.1863428146456907
15.07,-4.706898608523411,-8.524784494661494,-1.1584157855729351
15.08,-4.805467062855535,-8.471493521274553,-1.1440217286466365
15.09,-4.876195208129683,-8.428394819878612,-1.1636946342825092
15.1,-4.8744580839817315,-8.422690999278977,-1.2114716820528804
15.11,-4.798645345630068,-8.462129454090013,-1.238358343540956
15.12,-4.704180242147172,-8.517788617573375,-1.2189674961446721
15.13,-4.634852235766536,-8.557885136486995,-1.2042471409649773
15.14,-4.587715854394482,-8.582685844137783,-1.2084390135876537
15.15,-4.568224504709382,-8.59115125293978,-1.2221965245902973
15.16,-4.598022529358138,-8.572739052987709,-1.2394483850911295
15.17,-4.682140716247284,-8.527941220261601,-1.2329052365185487
15.18,-4.773035648201304,-8.477329884340419,-1.2335262404618739
15.19,-4.817538125271911,-8.449598808846542,-1.2512658359788764
15.2,-4.773868660538965,-8.46913662466139,-1.2857648013123228
15.21,-4.69238316360722,-8.508975406692985,-1.3219490049675289
15.22,-4.616038757664932,-8.549617877695132,-1.328707687196313
15.23,-4.56475433711729,-8.579162277594024,-1.3156340922489842
15.24,-4.534462168936985,-8.598363665512172,-1.2949683487173187
15.25,-4.536948279382867,-8.601340045458333,-1.2662023407937766
15.26,-4.612961568157087,-8.56414155745498,-1.2428955715817878
15.27,-4.730097833502148,-8.498099636377153,-1.2553179094720521
15.28,-4.786866476089665,-8.458179929080595,-1.3093957929246627
15.29,-4.729971243698581,-8.481864519589351,-1.3617317153285051
15.3,-4.598023575459415,-8.550900511326638,-1.3809344334805163
15.31,-4.4850013989732735,-8.616435731392796,-1.3452827723442815
15.32,-4.458488713387823,-8.64032281953825,-1.279209409849776
15.33,-4.522765384995704,-8.615987342214515,-1.2158563987662139
15.34,-4.61999334484879,-8.570086273490714,-1.1738362757066334
15.35,-4.7158715664144015,-8.51688399797871,-1.1798828924091687
15.36,-4.793820889816943,-8.469181330553306,-1.2089526745542616
15.37,-4.810134377268524,-8.452360442535719,-1.2610342208803238
15.38,-4.770578812970979,-8.467299798145921,-1.3100508634981731
15.39,-4.68809097038678,-8.51013877667253,-1.3298826770506047
15.4,-4.59081985215683,-8.563391851046095,-1.3272894525368144
15.41,-4.534275355663605,-8.60012708675298,-1.2837041551840909
15.42,-4.532564118484286,-8.610819674927436,-1.2163585983938061
15.43,-4.589748072733909,-8.585895887009526,-1.1774511620318164
15.44,-4.68098770781444,-8.535247829691711,-1.1862347754358
15.45,-4.770848028846481,-8.478602413477631,-1.2334660122644892
15.46,-4.853674247428574,-8.423050923245725,-1.2896910810230882
15.47,-4.895903062468015,-8.391782094896563,-1.3334791676876878
15.48,-4.848081606192769,-8.413632847695922,-1.369980415692146
15.49,-4.726246800303443,-8.481800996973083,-1.3749102764594774
15.5,-4.645010697438637,-8.535146038279883,-1.320860378670336
15.51,-4.708298157187771,-8.518240887396866,-1.200152191047312
15.52,-4.853518619744069,-8.439362318451277,-1.1785392977704874
15.53,-4.946522641379447,-8.380943210463995,-1.2088612554833624
15.54,-4.895506299705274,-8.397702185874387,-1.2970206368645478
15.55,-4.72983557817827,-8.46894984184531,-1.4397504953170033
15.56,-4.60755662853326,-8.529380926679757,-1.4797060673073248
15.57,-4.642139302099464,-8.53167663462938,-1.3529595267512633
15.58,-4.761583919020704,-8.46493396487535,-1.357115438335564
15.59,-4.893219912886979,-8.399501646784095,-1.2938955319898933
15.6,-4.923464005507457,-8.393382728424115,-1.2168694836378886
15.61,-4.844192211174717,-8.429333279206732,-1.2845787865904665
15.62,-4.718141268880369,-8.492276318033818,-1.33797900562901
15.63,-4.596303285128742,-8.55867352645364,-1.3390591513769532
15.64,-4.5589771532011,-8.57204058088105,-1.3806451487648193
15.65,-4.6406450956814425,-8.529115929708084,-1.374362807185759
15.66,-4.76594273213075,-8.469392783591193,-1.3135360633513766
15.67,-4.845848508596851,-8.431528410380979,-1.2638887056567956
15.68,-4.842280192355735,-8.441081156848423,-1.2127869169914198
15.69,-4.779908944947224,-8.482349978480368,-1.171565586853074
15.7,-4.715939703410719,-8.515588773113295,-1.1895468350376976
15.71,-4.7206520112737085,-8.507784649473747,-1.2260533896254187
15.72,-4.834126237592361,-8.442463677807103,-1.2352631288740277
15.73,-4.982310593039414,-8.355420511459473,-1.2384061319695265
15.74,-5.074651180620429,-8.300300528530947,-1.2342057379248694
15.75,-5.063602409100839,-8.313334724726706,-1.1909750212581125
15.76,-4.991098282473512,-8.364392946518647,-1.138475815645973
15.77,-4.995907133200561,-8.369506306172404,-1.0781088438721314
15.78,-5.063816063489923,-8.33435352026145,-1.0327895363349642
15.79,-5.076011109542068,-8.323762312842415,-1.0577758763069953
15.8,-4.994104344782612,-8.364997365333268,-1.1205141035153217
15.81,-4.9087662161889645,-8.418245882260663,-1.0983534806080832
15.82,-4.909335778426267,-8.434773565931092,-0.9607807187248606
15.83,-4.968612760701359,-8.404613711690114,-0.9184785746526111
15.84,-5.130128672829453,-8.30888898276338,-0.9004141567054272
15.85,-5.32922892306578,-8.1850765294661,-0.8783213486524536
15.86,-5.485001609922698,-8.07827331835644,-0.9087153882138955
15.87,-5.55177565531026,-8.028033407663871,-0.9477229034404512
15.88,-5.506965162248894,-8.067609717830667,-0.8691392973535649
15.89,-5.431250663152618,-8.128754677125773,-0.7709137182878197
15.9,-5.385279519561137,-8.151450153766179,-0.8496045188698804
15.91,-5.309739417594048,-8.20710178327846,-0.787100904193021
15.92,-5.223611527926409,-8.26172164361402,-0.7914622924101088
15.93,-5.13435894179484,-8.305630816362246,-0.9044659279008973
15.94,-4.908247262495633,-8.42511429731666,-1.0380835410535982
15.95,-4.560999169428638,-8.597374162621582,-1.2009276403436064
15.96,-4.337417511548233,-8.701534894681284,-1.2786747715792288
15.97,-4.443132033206712,-8.673296394813665,-1.0923361573203145
15.98,-4.709622717819874,-8.537220336860317,-1.044176495031639
15.99,-5.013489062190228,-8.373662877092114,-0.9510921108172453
16.0,-5.225020476989639,-8.25890449547877,-0.8122895565508508
16.01,-5.2242743933239595,-8.25387897680803,-0.8644284443660032
16.02,-5.1267382569101185,-8.301574815823443,-0.9841263166453644
16.03,-5.011243973363758,-8.366362101048683,-1.0285223112276636
16.04,-4.871568476464739,-8.444933990294997,-1.0580870776632614
16.05,-4.783043165470853,-8.490823486770958,-1.094406962053323
16.06,-4.690654288968356,-8.545226390030763,-1.0679366146284486
16.07,-4.480006264422026,-8.65914377498742,-1.050191950902325
16.08,-4.1929387062494365,-8.805707415253735,-1.019200844696319
16.09,-3.982104535450096,-8.90992071489652,-0.961132774948551
16.1,-3.86896647819282,-8.958194000027712,-0.9749649448387244
16.11,-3.8125150748550483,-8.972764952417137,-1.0597381866432254
16.12,-3.8324643689842715,-8.953693052951792,-1.1425636058425543
16.13,-4.098926912338315,-8.832926482790628,-1.1404865193882774
16.14,-4.592613847740763,-8.599080054111715,-1.0379214041765183
16.15,-5.090090921223672,-8.321586783231194,-0.985767844133182
16.16,-5.427896925262192,-8.112644585207715,-0.9449761444666962
16.17,-5.390506765469274,-8.131372756393379,-0.9858741542509551
16.18,-5.06803127246284,-8.32097612668065,-1.0961143299129732
16.19,-4.624209958992459,-8.565908169762723,-1.1691099890776029
16.2,-4.201749594241163,-8.772241204391637,-1.2410731661917132
16.21,-3.9155905550312187,-8.900891539626171,-1.2679935425628472
16.22,-3.8156178085727603,-8.946503616389958,-1.2532580432167808
16.23,-3.9288454688308634,-8.901173736253973,-1.218999606871873
16.24,-4.256996316191883,-8.753834193330851,-1.1695641225725777
16.25,-4.724670009561677,-8.51647111827472,-1.1236043588064024
16.26,-5.160758051463869,-8.260337850860209,-1.127927752306143
16.27,-5.435718238721838,-8.078583094857816,-1.1648018704577108
16.28,-5.467061094470468,-8.052404644941946,-1.1978954276204767
16.29,-5.281852293512034,-8.175481873107012,-1.186079049947425
16.3,-4.952503023894096,-8.379070348595972,-1.1821561291565224
16.31,-4.60235257118833,-8.574921982536235,-1.199079558233911
16.32,-4.3485471533412,-8.704719998679057,-1.2172795316759146
16.33,-4.219061911684109,-8.762440736676435,-1.2601953742787269
16.34,-4.199089451754772,-8.763882511083128,-1.3157203300362823
16.35,-4.299815725046111,-8.711656678717851,-1.333701807710407
16.36,-4.523759344638611,-8.60310070216055,-1.2926100579077864
16.37,-4.794348300631855,-8.465242698494215,-1.2276845006467496
16.38,-4.999285348607944,-8.355330234713282,-1.1667780337605256
16.39,-5.0773451921139054,-8.317128373199562,-1.1023986168736215
16.4,-5.0389885571116775,-8.34762424819634,-1.0452883291342272
16.41,-4.924621362053577,-8.419302996943296,-1.013941052047292
16.42,-4.786239041025615,-8.501195728594977,-0.9930855987768924
16.43,-4.6473673344360185,-8.578298056197553,-0.9898921818455765
16.44,-4.518517367712352,-8.644348551953888,-1.0123106159388013
16.45,-4.4213067064583145,-8.692005786072073,-1.03456426792548
16.46,-4.385052777389713,-8.712458170084242,-1.0169133026523594
16.47,-4.426739258266931,-8.697271379521187,-0.9638527967139527
16.48,-4.5281966033547425,-8.650160721255984,-0.9142574137998289
16.49,-4.658294279642385,-8.584616766984574,-0.8768925270011833
16.5,-4.799448850687302,-8.509687860871656,-0.8454692815083511
16.51,-4.918944240177186,-8.445133136349043,-0.8070780743226557
16.52,-4.966508081879883,-8.421139236095307,-0.7670720803513971
16.53,-4.924451426351999,-8.4482041886445,-0.7383716287328056
16.54,-4.829859514969412,-8.505635033283088,-0.7022618192780039
16.55,-4.733024396034083,-8.562232795232191,-0.674436212097736
16.56,-4.664745933183727,-8.601974065429916,-0.644531968899298
16.57,-4.628731346227032,-8.624857692547266,-0.5967740748104279
16.58,-4.630752084087849,-8.628296322849272,-0.5262697009778095
16.59,-4.66665506703018,-8.613680565993652,-0.44170511234303705
16.6,-4.708668728106374,-8.593935441114345,-0.3771591600153974
16.61,-4.738780653093549,-8.578523255410408,-0.3509449863948372
16.62,-4.751542367280586,-8.571573604591732,-0.34835678633500755
16.63,-4.750651775862855,-8.572608724673271,-0.3343912787974764
16.64,-4.732564669413604,-8.583788666514451,-0.30190832754028746
16.65,-4.70083741589768,-8.602360887979843,-0.267014758774429
16.66,-4.675028439961186,-8.617555102023125,-0.22718773194820518
16.67,-4.6557745970135995,-8.628987033245371,-0.1851172171298129
16.68,-4.644923766518934,-8.63554167725647,-0.14904331119784228
16.69,-4.642954732221419,-8.637059322539223,-0.1199888182020744
16.7,-4.654794642589668,-8.631069770452907,-0.08431112590743098
16.71,-4.6886793419641695,-8.613028948645965,-0.03169601279049493
16.72,-4.726866985759475,-8.592231727149537,0.011685859004912551
16.73,-4.750265263639523,-8.579297446718499,0.030532994052098337
16.74,-4.752076985133561,-8.578257867549011,0.039698674137774545
16.75,-4.739454165067647,-8.585144082725444,0.05523700488682763
16.76,-4.7201049389986505,-8.595558148187031,0.08316519540058558
16.77,-4.692253991820171,-8.610334407591727,0.12054260603794471
16.78,-4.668686738332888,-8.622443830596605,0.1633183074034634
16.79,-4.670679596198085,-8.620588588505854,0.2005965512455785
16.8,-4.695570504801682,-8.606194232625016,0.2340604813119471
16.81,-4.718916828057413,-8.5924583507869,0.2674781595559712
16.82,-4.733300920329693,-8.583835142700062,0.28968170347270933
16.83,-4.758491674105178,-8.569051810089142,0.3127025947352208
16.84,-4.8023876893194934,-8.54358251772667,0.337251450371783
16.85,-4.842155958175827,-8.520708062142884,0.3480395117637694
16.86,-4.8399993172289,-8.521414611534526,0.36037063498425276
16.87,-4.790813445550052,-8.547674602193071,0.39237602783805536
16.88,-4.729289710345468,-8.579711368341966,0.4372098123720791
16.89,-4.683608089901579,-8.602941355178102,0.4722985948595101
16.9,-4.662500643835716,-8.613846970059301,0.48278557612015993
16.91,-4.652209919562913,-8.620384848877439,0.4647757530917667
16.92,-4.646386054639498,-8.625181158416847,0.4329938012332535
16.93,-4.651264701647206,-8.62336777175492,0.4166762338640787
16.94,-4.6737293973855785,-8.610496186991085,0.43066829695371495
16.95,-4.7098649290485275,-8.589164789780908,0.4615555777968765
16.96,-4.74541043074045,-8.568477675402676,0.48196016845639794
16.97,-4.788031665556812,-8.544619965561312,0.48354280542353506
16.98,-4.831438854184583,-8.520761119258617,0.47296446950263576
16.99,-4.847498596138896,-8.512940454924433,0.44918381925464124
17.0,-4.826635616320603,-8.52614000406584,0.42232350088248866
17.01,-4.783239993809979,-8.551378795799996,0.4051265755440414
17.02,-4.739951626861399,-8.576282874069603,0.3873075590811411
17.03,-4.699186768602919,-8.599838703598184,0.36060426110270044
17.04,-4.656748639262822,-8.624023720797492,0.33247842820203277
17.05,-4.625590766666742,-8.641800179303868,0.30533892876228114
17.06,-4.621891229651829,-8.64443688653848,0.2866235047241017
17.07,-4.647398849499722,-8.630683752170077,0.2880143124227949
17.08,-4.690964983208487,-8.6068428038728,0.2945883888124676
17.09,-4.732522409627808,-8.584370893465831,0.2858587626197584
17.1,-4.762389474759532,-8.56846217407021,0.2668448525384633
17.11,-4.781904198084991,-8.558196699078339,0.24672568161382638
17.12,-4.779267086855074,-8.560566453034657,0.21268966492030408
17.13,-4.746826558289016,-8.579278543163822,0.18255243107338323
17.14,-4.692557000215852,-8.609320861167383,0.1697430250411617
17.15,-4.638850411390715,-8.638363260116348,0.17146577976586153
17.16,-4.612777041226019,-8.651976261869958,0.18923815258795407
17.17,-4.612994158490965,-8.651527138566795,0.2042152497593523
17.18,-4.640087804497904,-8.637069386620427,0.20147204933034155
17.19,-4.6799429494778995,-8.615990893285328,0.18053708529038712
17.2,-4.707902315429959,-8.601373882002768,0.14842159785843922
17.21,-4.73629049237366,-8.586197831058723,0.12147975858808972
17.22,-4.763576084471127,-8.571238715881703,0.11142233406202784
17.23,-4.780340873271702,-8.561776325785878,0.12090315086583463
17.24,-4.764470097127801,-8.570413372220015,0.13407137699642235
17.25,-4.710667460343974,-8.600055234957548,0.13385152253756935
17.26,-4.661847465947837,-8.626840120627872,0.12112707124517887
17.27,-4.6488741279839525,-8.633971900338649,0.11348983960562938
17.28,-4.67726807525355,-8.618603833904562,0.11313465589307481
17.29,-4.707504186461025,-8.602219936130926,0.10683510518600221
17.3,-4.71293985443483,-8.599440545669673,0.09020294782414004
17.31,-4.705984713551657,-8.60336886129044,0.07814116896771886
17.32,-4.703631626638446,-8.604651155417052,0.07876015921804454
17.33,-4.699812675492822,-8.606819770869038,0.06897251487655798
17.34,-4.679493979849839,-8.617998374913544,0.05100622161174792
17.35,-4.649339348087783,-8.634407069492957,0.02561131144072857
17.36,-4.628314008236402,-8.645746611444885,0.003932156444163062
17.37,-4.6231390737429665,-8.648524367191463,0.0014990814358382142
17.38,-4.631264176611212,-8.64416070544265,0.013875603018536844
17.39,-4.666379118755915,-8.62516507820924,0.03595203674719234
17.4,-4.716101987639341,-8.598024186696444,0.04609416904800261
17.41,-4.745220336141641,-8.582079271340442,0.031709123092444974
17.42,-4.7293160830577605,-8.59088712641936,-0.008963458278553257
17.43,-4.682205545624098,-8.616577854087193,-0.035285662707609904
17.44,-4.637474275402011,-8.640804553759788,-0.008588263146920584
17.45,-4.60200009300234,-8.659777293223755,0.0009087792520627269
17.46,-4.581466987407783,-8.670654010369775,-0.01325281543969911
17.47,-4.579820838440656,-8.671442620545772,-0.03959602199938155
17.48,-4.589324032972919,-8.666126588272759,-0.08014301933911205
17.49,-4.589307987106183,-8.665809229830357,-0.1108250576908184
17.5,-4.5782574988708316,-8.671533892699404,-0.12001078000486692
17.51,-4.593936518057368,-8.663432306515826,-0.10448101415842237
17.52,-4.645557071705996,-8.636132018580494,-0.07504370846494056
17.53,-4.7113530888594815,-8.600526079020996,-0.06030765218645854
17.54,-4.746191607727993,-8.58133511984806,-0.067755048085612
17.55,-4.734956811986998,-8.587353491087708,-0.08832659370613438
17.56,-4.698491161878099,-8.606995672745242,-0.11750550957262922
17.57,-4.647443893636404,-8.634031145675234,-0.1564851760624488
17.58,-4.585103646349067,-8.666903262414099,-0.17689809861679112
17.59,-4.543003858469855,-8.689005084430782,-0.18015074178421076
17.6,-4.53744583686166,-8.6921835286098,-0.16699637168300005
17.61,-4.578048189500188,-8.671377274374276,-0.13641590475791338
17.62,-4.625712794214877,-8.646240505101181,-0.12383400396173667
17.63,-4.6677483020729404,-8.623359842409508,-0.14096050648808686
17.64,-4.7122806324373,-8.598212253994555,-0.1870176873382061
17.65,-4.738653469558472,-8.582261903298518,-0.2446914337044744
17.66,-4.735222555700303,-8.582761049666292,-0.2899299942461884
17.67,-4.672260635932827,-8.61599526725896,-0.322896142335023
17.68,-4.586557733866651,-8.661274415048572,-0.3394870535629336
17.69,-4.546556902153377,-8.682204327118216,-0.3441014990145679
17.7,-4.567564971008053,-8.671098225523108,-0.3459989097353023
17.71,-4.625728259604127,-8.639344635603196,-0.36648672980591385
17.72,-4.668071713015004,-8.614425036809171,-0.4132883726581959
17.73,-4.680023383021825,-8.604865275692257,-0.47303640663100005
17.74,-4.681877488615502,-8.599771543568215,-0.5421922276410114
17.75,-4.690361739538292,-8.59235966297735,-0.584919582028283
17.76,-4.705784002197209,-8.582742698396153,-0.6020582367540872
17.77,-4.708168846273122,-8.579594214170925,-0.6277310065083833
17.78,-4.6865136130883975,-8.587889836746706,-0.6745054238983093
17.79,-4.63980054627132,-8.609090279888562,-0.7251961619567623
17.8,-4.582259966232516,-8.636169128399896,-0.7678330843796308
17.81,-4.543879738507281,-8.652802483324521,-0.8077101717324221
17.82,-4.557621776361347,-8.642812203446406,-0.836789981678929
17.83,-4.631948645675695,-8.600351983244208,-0.8654862835769419
17.84,-4.728417418970527,-8.54403423392363,-0.9008203841750578
17.85,-4.800306868443362,-8.49992630367016,-0.9372617127627965
17.86,-4.82563097165746,-8.484202093679901,-0.9497151066632682
17.87,-4.7936143205318595,-8.499251088568244,-0.9769027647365444
17.88,-4.71171755941566,-8.53882271320727,-1.0287989390690626
17.89,-4.61739342403051,-8.58456713980576,-1.0747554763530391
17.9,-4.542509902255587,-8.617603744791078,-1.1281885383432846
17.91,-4.509814830057932,-8.63020419601149,-1.1625492376045354
17.92,-4.529536865895296,-8.619148695548567,-1.1678880398907914
17.93,-4.5888765408009045,-8.588134656932516,-1.1647018456213325
17.94,-4.654111050114808,-8.55358671879357,-1.1600674731456246
17.95,-4.707398012930081,-8.52191611926652,-1.1779846900786086
17.96,-4.772128005226877,-8.483701893442213,-1.1932814693205256
17.97,-4.81984247533818,-8.454701825329103,-1.2072365266282987
17.98,-4.793780278122967,-8.46000114259014,-1.272013579016927
17.99,-4.693603401528771,-8.50794495455617,-1.3247035878998739
18.0,-4.58478154313144,-8.562162470701853,-1.3562604726774097
18.01,-4.544847129484323,-8.583290160126742,-1.3571467572131335
18.02,-4.568800384997636,-8.5723236829321,-1.3459432942631377
18.03,-4.6190463227018075,-8.54576260639178,-1.3433652328392005
18.04,-4.658379285844757,-8.522119386805482,-1.3576726224281632
18.05,-4.6840380751635475,-8.503927990429254,-1.383219700070549
18.06,-4.713403544136879,-8.48663382521663,-1.3896874662055876
18.07,-4.722880568024884,-8.479190894866335,-1.4028768879829494
18.08,-4.699978470478621,-8.490250556665108,-1.412819701066981
18.09,-4.655224320703378,-8.514088551136107,-1.4175308237150652
18.1,-4.613871917995432,-8.536710556485895,-1.4167274629596285
18.11,-4.600365985344794,-8.545016300728953,-1.4105575735449303
18.12,-4.616120716501734,-8.53904272430664,-1.3951669797477058
18.13,-4.638618848630431,-8.529570590277737,-1.3784017111356655
18.14,-4.657760254158237,-8.518860431808557,-1.3800967697940003
18.15,-4.667376219762577,-8.512632484730156,-1.3860191705085563
18.16,-4.682082908841495,-8.505827619915538,-1.3781519975761767
18.17,-4.696518294889767,-8.501450849059154,-1.3558689122800862
18.18,-4.696140574228449,-8.50496652971679,-1.3349621370186135
18.19,-4.6736059317951035,-8.518510796918918,-1.327595831818875
18.2,-4.63356776714406,-8.539847199704786,-1.3309281202915855
18.21,-4.615948479983701,-8.548736539392122,-1.3351046665752302
18.22,-4.624086123853501,-8.544979693727578,-1.3309640624034
18.23,-4.648463222749512,-8.53282855798957,-1.323946554670949
18.24,-4.683473124368189,-8.516782435038985,-1.303561416331339
18.25,-4.7357994796831795,-8.494586332798239,-1.2584598128816231
18.26,-4.794989143523969,-8.466350942098773,-1.224457203756666
18.27,-4.804709339636886,-8.459181941626257,-1.235681223483259
18.28,-4.7531683691423705,-8.48398233606661,-1.2643831170210351
18.29,-4.6774366979269955,-8.527032486311462,-1.2573130141090603
18.3,-4.634783370717378,-8.557198383043083,-1.2096958915449103
18.31,-4.63055263985834,-8.563933355020069,-1.1778383171939428
18.32,-4.643926049865709,-8.559643825407855,-1.156186851003546
18.33,-4.659806410087684,-8.5505349964277,-1.1596590328463785
18.34,-4.660873726107386,-8.546087850499855,-1.1878267524322788
18.35,-4.662618107155027,-8.542614353660824,-1.2058362876334277
18.36,-4.688768838192859,-8.53063957530735,-1.188707574832745
18.37,-4.74030363690053,-8.509232499286325,-1.1367519142370328
18.38,-4.77677986789598,-8.492732540502372,-1.1073564309597395
18.39,-4.764298036351451,-8.49823775006422,-1.118562063066458
18.4,-4.716283187818137,-8.520484660534729,-1.1522263748318378
18.41,-4.663951453510974,-8.545527929628614,-1.1796061339488646
18.42,-4.623516161212339,-8.565665088675967,-1.1927531322904297
18.43,-4.593838184962743,-8.58126659090354,-1.195309185913238
18.44,-4.569795531540409,-8.59489216007107,-1.1895647491962438
18.45,-4.559196124710462,-8.6026887891156,-1.1736762055825987
18.46,-4.590751571179489,-8.591401901785284,-1.1322126467443305
18.47,-4.652453504373673,-8.563984069206073,-1.0872976519969493
18.48,-4.711261417138687,-8.533692267186035,-1.0723831663291796
18.49,-4.746147825927601,-8.512368649412826,-1.0880111046611607
18.5,-4.746331979288832,-8.507444638498724,-1.1250577385048304
18.51,-4.723893050767013,-8.516959334089512,-1.1473145346828477
18.52,-4.690399264708143,-8.538719869665906,-1.122418271049802
18.53,-4.641219124018806,-8.57130551587753,-1.0774096248222855
18.54,-4.593657165216904,-8.603509668829316,-1.0234511726734972
18.55,-4.568057191952703,-8.621605834074133,-0.9854606988010053
18.56,-4.58147076819232,-8.614836264657146,-0.9821172698010406
18.57,-4.623793399768165,-8.590472384145245,-0.997078980946185
18.58,-4.655549998973861,-8.569745137187294,-1.0272659451928614
18.59,-4.6689950681614505,-8.5589628741058,-1.0559425175321178
18.6,-4.669871260573125,-8.559215141881563,-1.0498669225008732
18.61,-4.681911723722653,-8.557892488763274,-1.0058590524808573
18.62,-4.699640333094932,-8.554188392481981,-0.9535551557031329
18.63,-4.697490355659036,-8.558360283264797,-0.9264302272826824
18.64,-4.663025037023825,-8.576018739988726,-0.9367118478021673
18.65,-4.60820915250465,-8.60223544188467,-0.9671806705234056
18.66,-4.576665645496284,-8.616339290727744,-0.9915480506220302
18.67,-4.600727770807336,-8.603023930276967,-0.99535931243344
18.68,-4.664957624558653,-8.570283299481224,-0.9781982907071377
18.69,-4.727421820441376,-8.539099121487233,-0.9514751256958965
18.7,-4.7428087030368244,-8.531882616712346,-0.939711953088847
18.71,-4.72941047263559,-8.541263568285583,-0.9215513783388483
18.72,-4.726035104088492,-8.548314184413478,-0.8722362991529028
18.73,-4.735730379256194,-8.545571632285421,-0.846371418630296
18.74,-4.744718349864291,-8.538907194211678,-0.8630957352002941
18.75,-4.734782698144154,-8.540523432765415,-0.9004546909119493
18.76,-4.7041072908694295,-8.55218768082291,-0.9492285002107138
18.77,-4.668953406006806,-8.570310862986572,-0.9594561181566575
18.78,-4.665574471601765,-8.577558654381074,-0.9092247250139477
18.79,-4.705856131220482,-8.562964949220989,-0.8360286116670634
18.8,-4.761989963324162,-8.536991371061566,-0.7826184452960802
18.81,-4.800992370668973,-8.51569320430669,-0.7768595714394839
18.82,-4.799280003004442,-8.512755281360777,-0.8181701375791106
18.83,-4.764739612958226,-8.528163352045972,-0.8586606220914845
18.84,-4.713647478875138,-8.555378737186388,-0.8697238319198033
18.85,-4.664981533626336,-8.583140600003386,-0.8587182900004278
18.86,-4.634031238171791,-8.602575779415593,-0.8315367717456698
18.87,-4.624711866099499,-8.609965404698238,-0.8067438283837454
18.88,-4.641024840379899,-8.60306972237192,-0.7861740456541191
18.89,-4.669457340421339,-8.589711770674818,-0.7635888779989428
18.9,-4.695808995917476,-8.576518320875756,-0.7502605086374504
18.91,-4.722258487224579,-8.561997984200945,-0.7500485138043318
18.92,-4.758127410888607,-8.54163208169137,-0.75530285875356
18.93,-4.800974367509437,-8.517756824237056,-0.7538618023812726
18.94,-4.814969683904799,-8.51020560807356,-0.750167934359053
18.95,-4.7670511773990265,-8.536966749049949,-0.7507086448770689
18.96,-4.674955218703328,-8.58842538612486,-0.7420865200048129
18.97,-4.592354806624847,-8.63383186216364,-0.7324291337549853
