seconds_elapsed,z,y,x
0.0,0.2400072664022445,0.4739952683448791,0.0945805683732032
0.01,-0.03783651282970631,0.4555672096439691,-0.259305798715089
0.02,-0.22215135424690025,-0.6491658198066284,-0.1788626418451116
0.03,-0.2658529330775194,-0.9792529539236015,0.17175652021327964
0.04,-0.026471776605170187,-0.0981219208800715,0.13937894778196058
0.05,0.384427217911926,0.23573452529398192,0.19014433977071546
0.06,0.4869651358252659,0.1009118360308812,0.07139203502035174
0.07,0.11482934601288815,-0.3832213068882458,0.5075264699570925
0.08,-0.14948462558193923,-0.3677261197127582,0.22052324960909842
0.09,-0.18296630822523477,0.4453096865844758,-0.28462380668953335
0.1,-0.14293535691327977,0.5242046448455002,-0.36895475116996224
0.11,-0.14693523847014167,0.542643458795662,-0.5666186740969199
0.12,-0.09578889022244512,0.10500926298285031,-0.21286990007153722
0.13,0.15436639568674393,-0.1759205225234642,-0.16426179737340174
0.14,0.2921787252522121,-0.2613027510326034,0.11440291633893858
0.15,0.22914896141378585,-0.28033222886298353,0.49965212279987997
0.16,0.001278388314243143,0.05965710824763274,0.6271851878180355
0.17,-0.25336904170284846,0.5658474942820779,0.45139168059731877
0.18,-0.31649988981044785,0.32912407101964186,0.20044308919980366
0.19,-0.2569235803422326,-0.25740517587146694,0.1908717830299632
0.2,0.0005853683292585117,-0.4658332866173055,-0.04281485276963131
0.21,0.3433981813732235,-0.34536740991021103,-0.2963453034254764
0.22,0.48767569046531745,0.07922630761660802,-0.6549554883907572
0.23,0.2436957043497888,0.1967236759647149,-0.5821631844609635
0.24,-0.11507617807353734,0.10312751308274992,-0.43977309109306334
0.25,-0.27986094299888564,0.20931561263328446,-0.4296627293202401
0.26,-0.23650363737106023,-0.37958602229176963,0.02731123666839547
0.27,-0.09660122639010521,-0.46288572129627653,0.555408643410288
0.28,0.13554983648647748,-0.16141778097916648,1.0312135316932152
0.29,0.4137679990063067,0.23127664776502962,0.8263306589999215
0.3,0.3643703890864322,0.48391368362950726,0.33546364432173065
0.31,0.023130714516249738,0.14289666203496865,-0.0023783965510239067
0.32,-0.2101437661963544,-0.2695674339706074,-0.5876337334146389
0.33,-0.22827831866836276,-0.5675890841560283,-0.4486047999919626
0.34,0.043594060988598034,0.006302161582020358,-0.5055454327486129
0.35,0.2684028994567831,0.7639818248633102,-0.18648537323090636
0.36,0.2996093122177699,1.1079897615252947,-0.07819765291300794
0.37,0.10607090733136353,0.5811585405209793,-0.21953456206918104
0.38,-0.20595336757704752,-0.3347260003388129,-0.12024304909313413
0.39,-0.2775012339777444,-0.5893988922216443,-0.09736555858044715
0.4,0.029955242789813975,-0.5082637432877352,0.165125864551398
0.41,0.3871202483750874,-0.11628565653135332,0.4659447415258971
0.42,0.4546099844189235,0.5673844134566655,0.38616175526564755
0.43,0.20927262640460542,0.8483649815134183,-0.01939012311217311
0.44,-0.17247071539009642,0.5270116900838763,-0.6190546243514526
0.45,-0.4945354770085464,-0.3108093911674244,-0.45054627159745847
0.46,-0.3790424437826151,-0.6986560455983204,-0.06215777011726978
0.47,0.09664708337906033,-0.0019452995313896193,0.17009105561957832
0.48,0.5044597778624347,1.265222703492575,0.09776808809846661
0.49,0.5546784995989069,1.376205337473504,-0.29466091236622344
0.5,0.10424943759726776,-0.02088900140150001,-0.05113948695780416
0.51,-0.35410453580991264,-0.8836701387908843,0.13916076327086338
0.52,-0.30438067918935785,-0.5971622358398538,0.21662061453494152
0.53,0.16893610889840685,0.5381154226135403,0.16720115074098493
0.54,0.6016691258837629,1.3338030860259171,-0.031907822616131606
0.55,0.5754536574738862,0.9383251256199643,-0.08333373566042243
0.56,0.1914749591198439,-0.026513069434907284,-0.031921748682357476
0.57,-0.01077688584191069,-0.9097782570814359,0.14408817154107048
0.58,0.16237813775548754,-0.37945970014463076,0.0917441243909482
0.59,0.41653450116097707,1.1763014932643197,-0.06696126094560517
0.6,0.43757526924355555,1.1397302591034,0.05277339268441949
0.61,0.1784571842020411,0.23649215616387717,0.3166045666267235
0.62,-0.012567132322254563,-0.5116160032253632,0.4301069030785159
0.63,0.09581723102509146,0.03552304794830815,0.09847725887706063
0.64,0.33350565987157155,1.2202873711951718,-0.4348451104252622
0.65,0.30313922526182685,0.5604045904022258,-0.4329644215741378
0.66,0.03999171762600657,-0.14430059192507902,-0.2172440880237989
0.67,-0.010416199848637,-0.5436910197241214,0.16478507673772183
0.68,0.16123232095067108,0.10576672326757888,0.26592091449176547
0.69,0.2185514030744597,0.6994809035099588,0.33428668842749165
0.7,0.0003922737601652614,0.5411474142250463,0.5162874466103776
0.71,-0.27849644372179916,0.31172298396093046,0.40965120303885333
0.72,-0.37010631110681613,0.07474215899121334,0.23642967096465192
0.73,-0.25786099977546484,0.23487834152073586,-0.06596887803441175
0.74,-0.03435368365711252,0.37143166173794734,-0.24511918504935357
0.75,0.13497557854019823,0.3258156911810216,-0.3457278796596429
0.76,0.08277046931863026,0.1987556557826511,-0.27986224980928676
0.77,-0.103143890726551,-0.017166630414950403,-0.06392180821688853
0.78,-0.2753590753012324,0.09173556290722275,0.025497390216921084
0.79,-0.4017559440595637,0.5784410015449868,0.07051599898068302
0.8,-0.3931599452718988,0.8292977598878458,-0.07475067910305301
0.81,-0.3207854247699912,0.33027950905794806,0.01961379049269486
0.82,-0.19267771521316943,-0.37876649618792796,0.25379910249667026
0.83,-0.0076748374834819605,-0.4440559280434103,0.21908441369985085
0.84,0.13804547555103575,-0.09077974676957737,0.07869856093205956
0.85,0.08684316950334214,-0.026853279103444566,0.2027991155630398
0.86,-0.17034966681096061,-0.05046619412440298,0.2948462262070013
0.87,-0.43721964435942745,0.12053275394418296,0.14819830783120952
0.88,-0.5317521202833353,0.387176824765317,-0.16246110003084524
0.89,-0.4541092833947267,0.4998414375717763,-0.5023514295443456
0.9,-0.3519034434389336,0.08776060751232637,-0.2614543857833777
0.91,-0.1775596832168093,-0.3700007498198774,0.0170100153606532
0.92,0.036696580818984054,-0.5174897175650935,0.1747288627817502
0.93,0.1724204371238899,-0.2540882097787254,0.06664041764397273
0.94,0.05951313381953602,0.07836309045151266,-0.04717839870704643
0.95,-0.23183518496688124,0.08078815518476755,-0.09634446990806442
0.96,-0.5651564197040306,-0.00043332773842659055,-0.029814600853159897
0.97,-0.697741901672839,-0.06816721550504647,0.22709605605316485
0.98,-0.46406701022543245,-0.12645133915936183,0.40428565396078153
0.99,-0.11617340388356333,0.07588464194688122,0.37731056405995034
1.0,0.11380030476710022,0.3121627922365385,0.06520082759642844
1.01,0.14594577613671963,0.22108697634967922,-0.5189298491590024
1.02,-0.08718241844203316,-0.17970417655519091,-0.8873054069072431
1.03,-0.4167478544201538,-0.44205539688639367,-0.8736206487349879
1.04,-0.5478664421601946,-0.34996199768094083,-0.47566660191064203
1.05,-0.38641201510015777,-0.034471813927681415,0.13024531670205766
1.06,-0.09918680027079452,0.3793661270460393,0.5212639761698004
1.07,0.10686717230234974,0.4502328484457468,0.5554064037564493
1.08,0.08972021250520601,-0.07444512754047632,0.30897315396784275
1.09,-0.15647027198208568,-0.8134983338409082,0.16536142858440522
1.1,-0.32464772967101924,-1.1736591704485755,0.20308583570117286
1.11,-0.22324735710513216,-0.4132040054260592,-0.027421904769055747
1.12,-0.10702215870509009,0.7257424628415743,-0.3149521026404024
1.13,-0.14564501751584683,0.6125567991280051,-0.3927113247024141
1.14,-0.31934000593688244,-0.4576037277877542,-0.15014615657792035
1.15,-0.4220940553136621,-0.8253544397014567,-0.03439224519845169
1.16,-0.2600238039604041,0.06737166103498274,-0.263361814958743
1.17,-0.0453743868512558,0.20566915029033395,-0.32018175816404193
1.18,-0.22761355867506325,-0.25946236857790633,-0.06849563954019858
1.19,-0.5414195518080419,-0.42255283436010205,0.2779138246413449
1.2,-0.44180545732449444,-0.6666325036343662,0.302404180837448
1.21,-0.19504005156353765,-0.47349666701884036,0.2034658579014532
1.22,-0.12638473077868378,-0.15041499795686533,0.34317015161876835
1.23,-0.14763857506144104,-0.0887782268297579,0.28172921684379654
1.24,-0.20840827991375546,-0.12882339858025252,-0.07137148265818112
1.25,-0.2633973065984739,-0.3766024393275995,-0.35300614507340466
1.26,-0.2849913648427793,-0.5397567261673318,-0.43194164928178236
1.27,-0.29078142593907225,-0.35960992564955574,-0.1141384948368938
1.28,-0.18496192490495672,-0.004508574107119931,0.18023447656545213
1.29,-0.10507179581613792,0.35926166280103194,0.20439262341273243
1.3,-0.17338975638676063,0.4429058933496534,-0.004181225423901301
1.31,-0.2518473529435523,-0.10764006028193494,-0.22481185932748762
1.32,-0.25852687229002086,-0.6976935492824128,-0.16402983445881078
1.33,-0.11917951147236644,-0.6210463813888545,-0.04882040376665232
1.34,0.12939842304433385,-0.16418862262152945,0.05565902252881267
1.35,0.23413006837464703,0.3755917924368508,-0.019894360952034618
1.36,0.034927824414405985,0.4347408814276805,-0.024737900485437298
1.37,-0.21122667636720155,-0.18695715893126713,0.052873026042683506
1.38,-0.27287558498113196,-0.6628443791778063,0.1712121640543285
1.39,-0.094932868475488,-0.3654245072490242,0.23051496568959917
1.4,0.2573085706790408,0.22637539012627111,0.035208269774862425
1.41,0.45271174982774814,0.45512921055049804,-0.20781283280783822
1.42,0.3168131592024195,0.0462931186320882,-0.28556828929778755
1.43,0.05636600974241431,-0.7279570014722975,-0.05341941917127994
1.44,-0.03175562047104596,-0.9354282797468876,0.263141795554911
1.45,0.136571974802733,-0.1600778193268634,0.3027515639863888
1.46,0.2651828488787102,0.8633270511126233,0.24578406808326428
1.47,0.1935441014066638,0.9196234702361683,0.14633733371399277
1.48,-0.001962542648998618,0.02200529505908707,0.029879804533073966
1.49,-0.16184859873962168,-0.4855258235506206,-0.14520659956130758
1.5,-0.03599477996686329,-0.3710751213003265,-0.3682751964744065
1.51,0.20846931987678435,-0.03568464518158639,-0.24928013838096075
1.52,0.32748930173771923,0.38114902781669413,-0.11346643330149007
1.53,0.25237319145850945,0.41309115873241975,-0.05771851576883184
1.54,0.03203019727966123,0.202036053915112,-0.2632446847646656
1.55,-0.27422433039322813,-0.11448299312864832,-0.17969129341379284
1.56,-0.35966627210984076,-0.33950583009116286,0.06791275318954629
1.57,-0.15498756563521074,-0.0025334104710748482,0.19821708073633873
1.58,0.1848262770593743,0.556269119552757,0.06529139834026353
1.59,0.3337628153370299,0.30203661088927963,-0.08999182486213997
1.6,0.13813641451710817,-0.4925885177839061,0.08153920256229276
1.61,-0.1341338278326684,-0.7141791029358342,0.17359222704462526
1.62,-0.19770780700044616,0.14771634617049528,0.061596112001482885
1.63,-0.08516559570835654,0.7467180612056612,-0.1874292211471243
1.64,-0.154408500622237,0.5500592912440122,-0.08435425407073871
1.65,-0.2942331837201017,0.14879648848932667,-0.05342571268399034
1.66,-0.25526479898369697,-0.053255546524082494,-0.23791506783896998
1.67,-0.05018523452455013,-0.0726448114826523,-0.35860155718261005
1.68,0.12484902533477953,-0.14269644020398192,-0.18693159612964128
1.69,0.08915373907610326,0.015773344389231503,0.1415052632744075
1.7,0.007142405226775586,0.3500382762009722,0.13844902006621904
1.71,-0.02605719241501277,0.1715293346352147,-0.07100403388963897
1.72,-0.17634788449661498,-0.29606820960880686,0.049645925669757826
1.73,-0.29713308906889035,-0.6450853670707984,0.5374890031291646
1.74,-0.11469844012103374,-0.5389951052937854,0.6958463182411514
1.75,0.1571223755210035,0.09245179175091944,0.42740564136796194
1.76,0.2129915862398452,0.43764641789626335,-0.0018522089540583073
1.77,-0.09701902023962992,0.18337977418767235,-0.1844125659516099
1.78,-0.46000712230140517,-0.22629499077041287,-0.21167300494264632
1.79,-0.4601342191469357,-0.26852592387405383,-0.39554123607275576
1.8,-0.1339875306847592,0.2529980992511055,-0.6726140692832054
1.81,0.09000788836530428,0.33882593982079,-0.45835766905427777
1.82,0.0659559268150004,0.10570344782753036,-0.10411075618492578
1.83,-0.10031971794041708,-0.28849522126348265,0.4343996276543797
1.84,-0.16689761932857322,-0.3012688720837194,0.5084958026124402
1.85,-0.18394735839233894,-0.09035969373137748,0.49850989613044777
1.86,-0.21654644805079776,0.14362077393877584,0.5059413748144563
1.87,-0.23464249930595277,0.3915237826902098,0.20218469669961509
1.88,-0.2041585571500693,0.12748383216793432,-0.03282354781479156
1.89,-0.22619922234348985,-0.11783484834032033,-0.17576050729930515
1.9,-0.19462565454497696,-0.32432350612789496,-0.21709109526732034
1.91,-0.09749888219162577,-0.23042847237434172,-0.24884020588136488
1.92,-0.0005226667009795532,0.21038937178417014,-0.5628449247654219
1.93,-0.04146369957154389,0.15942504534552052,-0.5617663023084546
1.94,-0.19908268324968226,-0.31454331189494933,-0.23357257440928358
1.95,-0.30328358297695435,-0.5829192773057548,0.22420085703863696
1.96,-0.2280392537698164,-0.14955682967266276,0.4105274941799807
1.97,-0.0929984091245493,0.03259528959773586,0.42815960960471316
1.98,-0.14853734634882276,-0.05601776500899411,0.5492407223196923
1.99,-0.23960441204377697,-0.5127075112464341,0.7487677573391988
2.0,-0.21050794384583088,-0.41210374572245506,0.3432288793673825
2.01,-0.14930286794656747,0.13271009466168504,-0.23404172705975865
2.02,-0.12361714746380563,0.29987437392801,-0.7038200235074312
2.03,-0.21533514100201448,0.14498921596575598,-0.9154943437544086
2.04,-0.3072132690902353,-0.16282442914572856,-0.704670878573355
2.05,-0.1614749056039097,-0.49533185150034514,-0.44886297038984874
2.06,0.0027426441928703827,-0.3882085675041434,0.0024522126158312567
2.07,0.09554560824382265,-0.04335810936635103,0.37995659902474066
2.08,0.07694868749083321,0.07616417927121033,0.521747465111489
2.09,-0.057452368160388505,-0.11797343848459729,0.4061449327371956
2.1,-0.21471005329082446,-0.4615845026934426,0.26550397288715477
2.11,-0.34372149100090765,-0.4006147178140979,0.298808715911574
2.12,-0.24715680091870862,0.10768565482382626,0.0005382922456799487
2.13,0.027598070782218168,-0.04471279209529027,-0.009006588639158
2.14,0.2420463677962357,0.06061600903190126,-0.47460244310111416
2.15,0.23940339404655842,0.1353138226491363,-0.8683847630012194
2.16,0.20410325761067122,-0.40374377977921333,-0.9273080681419854
2.17,0.0942618348757825,-0.8802374337714953,-0.40646172299113653
2.18,0.06998737637530021,-0.7531399101485963,0.24915981120393318
2.19,0.16540332404350894,0.5484687626624462,0.62877913346954
2.2,0.21294899893697736,0.6757776505845936,0.5402189710265142
2.21,-0.042029158107521274,0.019745751967275037,0.5055606437583059
2.22,-0.26208388561471474,-0.6982526544606439,0.587582890936236
2.23,0.010963375281447956,-0.9832347317462584,0.3382518949713179
2.24,0.47808048478564036,-0.2624648443997417,-0.16933751952525314
2.25,0.6297827603838779,0.6671047250613964,-0.5363889460177717
2.26,0.39976251289910886,0.6388722392004054,-0.7683793220692586
2.27,-0.047461287386916455,-0.34465266212370993,-0.43077739016311134
2.28,-0.39242481090029263,-0.6852482672997751,-0.07518501820507337
2.29,-0.2897317820419391,0.11326857697674284,-0.0010856906979042253
2.3,0.10777251439798992,0.5141612654954124,0.22415928647309089
2.31,0.21790873781047057,0.4022133291017803,0.35861969711084807
2.32,0.014057975622256276,-0.20314535830922084,0.8447686463948868
2.33,0.04047402829039572,-0.7323865681959771,0.4081325045863106
2.34,0.08394629040558726,-0.33411208840749396,-0.24295419136523957
2.35,0.05407027024345791,0.294317105257153,-0.7540496512041587
2.36,-0.03356968946593601,-0.01877050999580435,-0.6227006397374532
2.37,-0.1972087391869888,-0.4018699905353976,0.05362431659642123
2.38,-0.1884539554700892,-0.04658078197673545,0.15305596070813174
2.39,0.00885645068665534,0.09449358019896766,0.017382873812555436
2.4,0.03165910477590021,-0.1353063890039261,0.047286279983695306
2.41,-0.0486848404168189,-0.4597909248552513,0.11745862141054073
2.42,-0.04718149828392171,-0.652101640330244,0.14557259251544422
2.43,-0.020897304354177325,-0.27978692012124295,-0.009957005040147753
2.44,-0.0319919532586029,-0.1897439298631454,0.0433710778697446
2.45,-0.15071210198030535,-0.36891556470400155,0.3754934522156742
2.46,-0.27962146141041244,-0.053820570938495176,0.26728004003893907
2.47,-0.24916795123507038,-0.2601006994928682,0.30551695160013165
2.48,-0.1671247345178364,-0.26658342732573836,0.0829383626201294
2.49,-0.2026086051151415,0.14462921436132986,-0.10072459218872548
2.5,-0.08160534114058465,0.17241826799422624,-0.550983868165878
2.51,-0.07534184465503976,0.11951660639494073,-0.7569001914473907
2.52,-0.030404841391391203,-0.5197761218782844,-0.5629744099424103
2.53,0.05297269418492222,-1.1754451837739839,0.04070219217123398
2.54,0.047661491033309654,-0.44799815809261606,0.614841665249521
2.55,0.09985558948242582,1.6270892085383277,0.35890775339171327
2.56,0.11360703152064303,0.7727719590223331,0.10220073988485694
2.57,-0.25871978419488045,-0.7059126003110404,0.0021721977887589022
2.58,-0.5237015556103364,-1.5491868125847412,0.5363107166946077
2.59,-0.02023840489033016,-1.4535262732064365,0.6386309080387661
2.6,0.6901375262088247,0.37867374705139706,0.0942366858679691
2.61,0.9143696973697092,1.5769691246874018,-0.40150529225115117
2.62,0.48178129539064213,1.0094359918822577,-1.137855164264561
2.63,-0.3259192863557294,-0.1539599692573116,-1.3595397135959884
2.64,-0.5678049604402321,-0.9945071939161487,-1.1849821313389592
2.65,-0.08762519365682851,-0.6794199493810515,-0.480028075627026
2.66,0.5141378652075809,0.260628497615846,0.5754929361914745
2.67,0.8208836336299601,0.9662725980526083,1.1649316546845345
2.68,0.6783478087996229,0.38583682779916284,1.0896777739230303
2.69,0.19354646131190728,-0.5704415422719518,0.8629241692890215
2.7,-0.1969927644501174,-1.0462083370753308,0.6074061875987006
2.71,-0.2293078810959736,-0.2624565805211175,0.28007335166344915
2.72,0.0950518162216095,1.018338713632965,-0.14543574494404357
2.73,0.47651922586734585,1.4851145022677499,-0.6769804748261047
2.74,0.4604511947895499,1.1620939079629837,-1.1315281858439032
2.75,0.2509338341556613,0.27009828713063216,-1.5289600031556874
2.76,0.09497772767826072,-0.8564379120168876,-1.1249945054347514
2.77,0.18619140063066494,-1.4130321126538685,-0.042562117859659236
2.78,0.42241671232705397,-0.4123326151566644,1.0817231256869322
2.79,0.6121395333337155,1.4524089850065183,1.635512357859581
2.8,0.5719906351868763,1.2659886022696278,1.3891543160648447
2.81,0.04242619248569111,0.05851329922852757,0.9666784727146683
2.82,-0.4243160698554191,-0.8286429023962013,0.2571825969767188
2.83,-0.3014517962729343,-0.6322122556728678,-0.5373409797330386
2.84,0.2913337245173568,0.8151837883663201,-1.3236540893842081
2.85,0.7095419435235016,1.4377893248954774,-1.5831738059817348
2.86,0.4355959560933679,0.2198412119728569,-1.0023021563061907
2.87,-0.09494558200035043,-0.9425350576142495,-0.12494802849181635
2.88,-0.2736061194002537,-0.8586910411034473,0.6286481269789376
2.89,-0.02332618324185914,0.7924548843070025,0.9252919894364692
2.9,0.21116683998004895,0.8367920379357041,1.2003415098150303
2.91,-0.05162488544859948,0.07844236702643709,1.2620774345505041
2.92,-0.38470866604709536,-0.4402253332903819,0.8497446374593245
2.93,-0.2921412644875655,-0.5655146000412377,-0.011173100328231229
2.94,0.018544110906078114,0.09656151567544646,-0.987201203684277
2.95,0.11337106376429545,0.6096440485495459,-1.2214081539834105
2.96,-0.018859390678992102,0.5016595976197237,-1.0140876299304133
2.97,-0.23613939857750682,0.03909801237502958,-0.5783306402003516
2.98,-0.37079654912683024,-0.2580118399166099,-0.11833520804369628
2.99,-0.35952147305771526,-0.232210513229901,0.3811589336245334
3.0,-0.26063883633589413,0.13974527668768036,0.7670903602894559
3.01,-0.11679656147708435,0.5362491518507421,0.4553689690651106
3.02,-0.1814523936195089,0.003309041121318786,0.2541852386393104
3.03,-0.2799109195875948,-0.971562412513341,0.24097511992096945
3.04,-0.2626925193746129,-1.4049802163265939,0.4588985035562515
3.05,-0.13503088878767305,-0.2970267457361713,0.32516584703068535
3.06,0.023868673674665414,1.0028112760137855,-0.2557130359714204
3.07,-0.10756765826689846,1.0099228544028687,-0.6213728955663336
3.08,-0.44721891805491376,0.0332378417816848,-0.6774997649106946
3.09,-0.5788817590639466,-0.8003387559680938,-0.5640265725669042
3.1,-0.269945519148011,-0.7387694639323846,-0.49993649874322443
3.11,0.1858025539864842,-0.18431377593096895,-0.3034661339958801
3.12,0.36157434405762917,0.19113135463567923,0.051165601738627005
3.13,0.18659661760332366,0.014181180381507865,0.529171724274766
3.14,-0.09921752303612089,-0.5166444628495175,0.9528467286898872
3.15,-0.20225952294351157,-0.5000054952759458,0.6867867694327839
3.16,-0.14133537930087234,0.03895916268363177,0.10943268702288628
3.17,-0.051114009591543885,0.3606302201398565,-0.38134582815899504
3.18,-0.05105755273625754,0.10220269232947271,-0.37845632186779554
3.19,-0.036971861999490936,-0.25074272245750945,-0.22446115401083364
3.2,0.1183305661658913,-0.2282191066161651,-0.4500571334829789
3.21,0.23150255268236639,0.005144759707102595,-0.5602145977833248
3.22,0.24572562929758207,0.14742501145066222,-0.6162224487581172
3.23,0.12443660834279333,0.056298015528305795,-0.2540393727244439
3.24,0.007951022046552006,-0.24731469257712785,0.3376516010555272
3.25,0.010865383864451223,-0.5600426582187467,0.6855679921451459
3.26,0.07361172083371692,-0.31659028339311335,0.6252573533143819
3.27,0.1545522158475513,0.06790566680293253,0.30827010122273346
3.28,0.1561439518285607,-0.05587502716031834,0.25831308427058813
3.29,0.11110695850046134,-0.42238632895745815,0.2940863949225274
3.3,0.07904393084986719,-0.3005724309658225,0.08587721485404472
3.31,0.05397158865655216,0.4978641438652092,-0.4044976955747699
3.32,-0.029115012016457283,0.640628406661493,-0.6218241783620821
3.33,-0.17613578782567624,-0.1905911261011304,-0.3786354975719036
3.34,-0.1848488398043796,-0.6806286540042126,-0.15205482169690923
3.35,0.07146711873946548,-0.03532473587062908,-0.17698291348239578
3.36,0.3708368977553088,0.4779098711565922,-0.2683820891012262
3.37,0.3274423083285796,-0.14678951355906777,0.05102799206922746
3.38,0.033526448542269056,-0.8262573102653724,0.5814060678872384
3.39,-0.10166149663870096,-0.8615488230227728,0.8213961514373899
3.4,-0.03489515528339883,0.037417835325137434,0.5698690000546753
3.41,0.017988310633989903,0.9629762008501284,0.14249581016029428
3.42,-0.05219254613577017,0.9089534961862484,-0.24982820652890064
3.43,-0.1793297325636168,0.06857236266379158,-0.45850817152409784
3.44,-0.11556546542641015,-0.7738863237075735,-0.521787751722584
3.45,0.1779691164858302,-0.90032452471618,-0.4158222001699815
3.46,0.4313759263506255,0.002661755102801947,-0.18229122518065904
3.47,0.4705814296710035,0.6851991957135388,0.0009792660067307185
3.48,0.19500107360470617,0.2272382502022823,0.2467828108677984
3.49,-0.2645635913966468,-0.3786179694374247,0.36161946368224474
3.5,-0.4764571082232453,-0.5719308165942054,0.36360180852254115
3.51,-0.25098482741413825,-0.23842639767448554,0.2223111961511457
3.52,0.12302313486951551,0.36393795352351443,0.04037853349684295
3.53,0.3869154103880541,0.3803287992499055,-0.1406799257783099
3.54,0.3859533511014398,-0.09076296058379722,-0.4217280325632398
3.55,0.13485306881274645,-0.554197314009145,-0.46069451226646857
3.56,-0.08386877875864303,-0.8343628253172165,-0.11652969793395747
3.57,-0.11051215843836965,-0.3291272001639649,0.13441866262788224
3.58,-0.043686480953067264,0.8741352199494913,0.18561854171381795
3.59,0.011230272057797095,1.0241658833873435,0.07297013799849103
3.6,-0.09031687100243936,0.09255042201173805,0.008561197545390394
3.61,-0.17182589825343297,-0.936553383218535,0.2020231746853515
3.62,0.046265046762792826,-1.0701969843361145,0.1462330618743836
3.63,0.3925831088638124,-0.1486230975301054,-0.08310809160406694
3.64,0.5042359706856949,0.7361862708411234,-0.21855062920080254
3.65,0.1827318679255087,0.8911608613479401,-0.2497465058767627
3.66,-0.3017748290159677,0.30143491111466636,-0.12265037337103493
3.67,-0.486902138107249,-0.15177594914899864,-0.21525986841567102
3.68,-0.26121306296153124,0.03308730214817116,-0.3326430101294876
3.69,0.18326712011008872,0.18725134438418775,-0.010606956502410432
3.7,0.532748951146113,0.18450359028355076,0.3074132744267437
3.71,0.5286768094941832,0.1806349614267843,0.4362471397306158
3.72,0.30336541666184946,0.20597373485097437,0.09445146169512043
3.73,0.00790450531088457,0.15348925117954137,-0.29825219920062507
3.74,-0.23456056681275625,0.022141970979568906,-0.1475482005079531
3.75,-0.16968941496313372,-0.009121452348947264,0.2285480405725703
3.76,0.1575709159966316,0.28008052607262734,0.3946937391438329
3.77,0.4189419556097195,0.7720337457786282,0.11987966994209028
3.78,0.4392400827596748,0.6416791709309775,-0.3915711592456825
3.79,0.2589829431182456,-0.25640649445336977,-0.5942405934425039
3.8,0.02172378311998471,-0.6711598104585721,-0.4364475754095171
3.81,0.059202575571563366,-0.43605112059576373,-0.042081090372292185
3.82,0.30833438371375677,0.23273318446696872,0.4000622935904444
3.83,0.44015433741147486,0.6855744133120734,0.620479589864565
3.84,0.2963883693188737,0.4625701721539857,0.6127840147395812
3.85,0.02328990157435135,-0.12300476521376524,0.4201872308188826
3.86,-0.09482502790954803,-0.5348945267137627,0.13681899480918963
3.87,0.001154252536721288,-0.24008920186212288,-0.16454808965012274
3.88,0.17782578675255498,0.501007898356418,-0.40495971151282706
3.89,0.2812869700706738,0.813981581781025,-0.5461813823667071
3.9,0.21341276189653122,0.3125372701227725,-0.4722819849883623
3.91,-0.0012353092779196196,-0.2808172462324214,-0.11562835137462031
3.92,-0.06458232351023815,-0.07508864393341942,-0.07560392762632843
3.93,0.04441724213165824,0.17948444148467937,0.17871398020379411
3.94,0.08122430755708825,0.38097593816706615,0.31643256056010444
3.95,-0.11437219057802808,0.5087732524297419,0.628196892083488
3.96,-0.17321897807366463,0.2228979031125157,0.6068687344181404
3.97,-0.11193754999384946,0.14891389100739102,0.09576078815822622
3.98,-0.08523862245051649,0.030254607965574044,-0.04509247840939867
3.99,0.060607018372423827,-0.05622479192825085,-0.40575488957941613
4.0,0.12432726358519168,0.025985777462227383,-0.43686672173596786
4.01,0.13649586692320853,0.15225261424298964,-0.38756708170836957
4.02,0.13504867264714282,0.07839267255839809,-0.44085914623730155
4.03,-0.03935802510387693,-0.08569336173600955,-0.05268178330053175
4.04,-0.18227752671641068,-0.03809875564941812,0.15086689246258173
4.05,-0.1838869868728999,-0.10916868295323183,0.5158911217649153
4.06,-0.016264959499603736,-0.11201953639014202,0.6633874306044361
4.07,0.14285460216910545,0.04869106397463531,0.4120998499658372
4.08,0.05354919079790237,0.12039844480492679,0.32715868817454946
4.09,-0.048702950256017626,0.05579696240386965,-0.12844236303392112
4.1,-0.1583951754035128,0.04047347813477068,-0.5188300959617085
4.11,-0.23591963069875302,0.17935616462010945,-0.6924829048115593
4.12,-0.18992949546184545,0.1783317006222454,-0.6996657912769936
4.13,-0.0674538945353177,-0.168184876335991,-0.23935874464464474
4.14,0.07147832141065213,-0.15100282484363964,0.020858555359363026
4.15,0.09764221328558702,0.17218331527134811,0.13240854259885465
4.16,0.03693779422011837,0.15108946069686088,0.14342106133991672
4.17,-0.14218727029115125,0.06015094590252989,0.01905362331617696
4.18,-0.3809897804054114,-0.09085037208785988,0.2938776838695436
4.19,-0.38801442926638474,-0.07668436563400967,0.39634894629951045
4.2,-0.1432945064128,-0.011593907838018593,0.3224731221308709
4.21,0.10350101086078556,0.24634409772562238,-0.042795138934300536
4.22,0.14732972762432545,0.3116758766662533,-0.49578845367042784
4.23,-0.0031418529486744256,-0.10682167441400418,-0.5519821438530956
4.24,-0.08881613050960926,-0.20386471545840443,-0.6103210145465481
4.25,-0.0013249299371558183,-0.23292521114101788,-0.36476102164619645
4.26,0.035362912239721704,-0.650563653285527,0.2621908458299006
4.27,-0.04228190872713142,-0.5320783601087095,0.9759728409672349
4.28,0.06370364790181443,-0.25043836545102216,1.1108544188822407
4.29,0.10095590614963963,0.2834672653931816,0.7409828050096032
4.3,-0.11152309207098061,0.6612411068227327,0.03524337002467577
4.31,-0.36232096929251373,0.18550723456192886,-0.5764556616720634
4.32,-0.44962247769982316,-0.3324478093503153,-0.8983339086957397
4.33,-0.1942090186314167,-0.6303869774588541,-0.8428943135722318
4.34,0.17719381016921523,-0.5132452638564985,-0.413757219967637
4.35,0.41227723949409434,-0.09872275928003568,-0.03919558074328451
4.36,0.3284940996419599,1.236315966736556,-0.04379110152309495
4.37,0.002056429167723517,0.2932050164574264,-0.0204294180674986
4.38,-0.5691907289272419,-1.1024291225863603,0.4835908233128503
4.39,-0.810053737836632,-1.2442810953201267,0.9560062481049404
4.4,-0.34099571810070006,-0.5487809691971922,1.0799540888421626
4.41,0.21292595024206165,1.106709666712946,0.6511305287976917
4.42,0.48918976151159643,1.3039011798849203,-0.16188886357474727
4.43,0.1711396113206404,-0.0038555826262256596,-0.55304476518796
4.44,-0.31283796424484517,-0.7725842106457936,-1.1374418809325133
4.45,-0.3923315656525999,-1.1707859626773163,-0.9250048033851291
4.46,-0.03996069052005405,0.1579514337964238,-0.7985591622423631
4.47,0.2641093820752313,0.5352699346059397,0.003961921621635161
4.48,0.22863458411495519,0.31662598458165325,0.7406823067681026
4.49,0.03098472812545064,0.2770609041113295,0.38844207989711454
4.5,-0.29250378253751097,-0.17193970369464037,0.4579346786173884
4.51,-0.35750472376037096,-0.5204148631322395,0.18297008333074233
4.52,-0.19023549091207542,-1.0733011768031104,0.6271289961727972
4.53,0.030823575485212504,-0.3871551541501788,0.8717875146706209
4.54,0.335036007095013,1.4254882323880829,-0.11244026693716098
4.55,0.287074633734913,1.2645062854130016,-0.6951592571598031
4.56,-0.16781831188542412,0.06685186255049501,-1.2537883263485885
4.57,-0.5903846979278345,-1.3447714910024868,-0.7165381979206411
4.58,-0.42711673733505695,-1.6518905482811617,0.20582208410133027
4.59,0.21770206195741287,0.12386323384228681,0.3685546988074812
4.6,0.6663996915096111,1.765663896228053,0.4444253310332078
4.61,0.48654258930915784,1.256252242227306,-0.06843824977846179
4.62,-0.34680432745669426,0.010083977170042818,-0.10124013991247115
4.63,-0.7781942342542573,-1.467190954470323,0.14897840273372892
4.64,-0.44074981230955856,-1.419885616806068,0.16308373222497485
4.65,0.2097358151654488,0.4219435791235325,0.1228182056701565
4.66,0.6892243935495806,1.9320517185974342,-0.2977768250442214
4.67,0.5053644317096978,1.1403303007262575,-0.6061169545157074
4.68,-0.23992658444916698,-0.581037162576754,-0.310747038797675
4.69,-0.7039411110309783,-1.5575259509833574,-0.0704585964880492
4.7,-0.5633062037270323,-0.7510681688050884,0.2561913233346342
4.71,0.08238609935197569,0.7151832537697957,0.4657967567826633
4.72,0.48972207925057876,1.1103049243176193,0.6736427896524202
4.73,0.26136691808376933,0.6066088547939832,0.7275415023440442
4.74,-0.17326977146195108,-0.08082266350705773,-0.0031136844073111213
4.75,-0.44147022146404397,-0.3436529897515146,-0.9074476542690564
4.76,-0.3875574106465842,-0.38112541493806124,-1.1613359748353103
4.77,-0.15411565871012395,-0.4241131695014045,-0.3575899928648616
4.78,0.18983927656940464,-0.14080480077948504,0.43077094132278837
4.79,0.40434920405379743,0.8791444065232574,0.4243534229030941
4.8,0.39052593989872875,1.7227308592886135,-0.2551720549510571
4.81,0.05464785732206388,-0.587179666688792,-0.3928497064268957
4.82,-0.5937682460518416,-1.6840178337866338,0.20688195432726206
4.83,-0.6154422983913631,-1.4555451282645089,0.9517758713137199
4.84,0.11693838069098372,-0.10899902693061837,1.0716848957246474
4.85,0.742108270572349,2.2519158589569264,0.23465166546307942
4.86,0.6546321907263778,1.7393580597527745,-0.5560870204912058
4.87,-0.06694625396110061,-0.26671151284477107,-1.0553160106314774
4.88,-0.6964107339904838,-1.8373605853380588,-0.6584763959671026
4.89,-0.5368602382812327,-1.2382667291062923,-0.08794668746890578
4.9,0.2408261951334934,1.6777819622258687,-0.08890391868549063
4.91,0.7248185067427532,1.5844218694908778,0.19092437241073557
4.92,0.3995929866939224,0.9010229585344764,-0.045605344671110694
4.93,-0.21465447182094355,-0.6029477635825521,0.12483187167007492
4.94,-0.31948407830197945,-1.80351332098411,0.28701256957855004
4.95,-0.02338668187561499,-0.9647779602293721,0.26256495318514994
4.96,0.30091776863056285,0.7130241113385445,0.5313609098229528
4.97,0.47112630531122973,1.6619857888974718,0.16830134900063676
4.98,0.13365819943083104,1.0010584087201633,-0.021015800588113028
4.99,-0.3476178553311841,-0.41143675038506283,-0.27971559456931616
5.0,-0.5158637060079612,-1.0911020048405744,-0.517917517359296
5.01,-0.19385153974545813,-0.7838672399959201,-0.2885271116265351
5.02,0.33751112282743756,0.3338208783919242,-0.18305673398363437
5.03,0.5533152980197218,1.024665504555058,-0.11075701997361066
5.04,0.3265727722082377,0.40460243189680134,-0.07497796882562863
5.05,-0.19644202384274367,-0.7102765587584213,0.11099243852110478
5.06,-0.5881052671021372,-1.2735728107403743,0.6512623104878417
5.07,-0.4489511608784944,-0.30645278347694466,0.5744112816038079
5.08,-0.0074299278185004924,1.1251933365343734,0.1797748085881262
5.09,0.24369750228307538,1.0938153954343248,-0.321555626746856
5.1,-0.0007495815715339062,0.12317733836982554,-0.5401382514877338
5.11,-0.3164994887874639,-1.1052718249891738,-0.23851517617500878
5.12,-0.24737795955379444,-1.2156843482671122,-0.20169443981623922
5.13,0.04568549415395146,-0.27129667618956305,-0.024748957623595684
5.14,0.2392899324307805,0.6204450476498323,0.20956507131226967
5.15,0.10483788685482379,0.5785689019464179,0.4776384118563397
5.16,-0.2183479435535223,0.0033209001399445714,0.44884871048501546
5.17,-0.41790717412661815,-0.05774301443104124,-0.2332538093865235
5.18,-0.36515577031527885,0.07900413144229894,-0.8271965828035411
5.19,-0.21903705394805756,-0.3147645604177521,-0.6638947981941953
5.2,-0.041410241800049014,-0.655299326462317,0.003583552014397718
5.21,0.22166140855470512,-0.4808262245598621,0.47136677206000555
5.22,0.4214920078226882,0.5186312880749814,0.1969256429345496
5.23,0.23496409216637562,0.6484615877958823,-0.07129637336559619
5.24,-0.34938824378458977,-0.8785701539588342,0.2615979047227039
5.25,-0.7856973573048015,-1.4904959332493906,0.7301734671251031
5.26,-0.47471898336798235,-0.8164574340345571,0.7201303090898863
5.27,0.1818061374717511,0.8922381417652737,0.056467556200641894
5.28,0.4487493279074764,1.4597929470476236,-0.6184889539327179
5.29,0.15824994210005527,0.08888904235890627,-0.8518375885566993
5.3,-0.28466421947257414,-1.439860791192375,-0.5962835248597541
5.31,-0.32415385462336027,-1.5537692847656028,-0.12307741473783923
5.32,0.09664983731955945,0.1900194245454666,-0.0361120606897931
5.33,0.3595572194574936,1.2482122114590373,0.13179607746347774
5.34,0.050977127089382034,0.49100041023570246,0.3918334518971426
5.35,-0.3733983670024583,-0.5431031411655126,0.39787908879741973
5.36,-0.3189039478083219,-1.2895254260740612,0.20627332041278304
5.37,0.064584109233597,-0.735254796032391,-0.07256576799721845
5.38,0.37802495107957224,0.18799339752870123,-0.00597503921649886
5.39,0.3881767844528449,0.47987311738577143,0.20510871430760502
5.4,0.12240736323385844,0.34233838848219705,0.013510435623769333
5.41,-0.20604761952005404,-0.01777720068996609,-0.358241826132152
5.42,-0.3520835494044464,-0.3301120765738998,-0.6334202359477411
5.43,-0.24326768833318124,-0.60919115216933,-0.29359826466411226
5.44,0.043520730708070804,-0.40386162856813357,0.2919070186980365
5.45,0.37139902707333977,0.34580169664433685,0.30441007113178337
5.46,0.4777433309735128,0.5422937741812808,0.06998566737386684
5.47,0.19650326748150446,0.04296386215307905,-0.11637661918341621
5.48,-0.23144275259449526,-0.6506749062774736,0.08641258877828743
5.49,-0.3568114102692105,-0.7539291024462025,0.34748234061435596
5.5,-0.1094748509698005,0.08319502483106021,0.12549802085160205
5.51,0.15792320179788655,0.7599514688897605,-0.056293845028609985
5.52,0.25619472910079877,0.5980795608497999,-0.3180052810018774
5.53,0.15970833878097557,-0.17207210743725285,-0.4440594094021324
5.54,0.02822035016867967,-0.8705298342241738,-0.21357242685753058
5.55,0.020665716220630015,-0.6880110941223934,0.017201607562196665
5.56,0.09654647763231895,0.17316127669807288,0.25422001011748013
5.57,0.1933535202026315,0.9217686328622315,0.16560569528894956
5.58,0.14687775366052086,0.7471993698326937,-0.005153433226697066
5.59,-0.0318310862862166,-0.22986812967080078,0.020071127527254012
5.6,-0.1155763643839325,-0.6846616092362594,-0.10881875248426574
5.61,0.04920027446024603,-0.1848463217129209,-0.2768826496899363
5.62,0.3267702320061923,0.3643487815605199,-0.3332227480417387
5.63,0.33566987956969546,0.38774014453350053,-0.12316614429543932
5.64,0.08531441999064772,0.2560710607914172,0.026413709064280446
5.65,-0.10422611185337391,0.6716599138378839,-0.24398175647626874
5.66,-0.10364623876597408,0.2993712667735323,-0.2961968871277637
5.67,-0.09194219364281818,-0.5979588688260563,0.1649461680318384
5.68,-0.03289312432179104,-0.6278801223353769,0.7740414293213003
5.69,0.274055705105945,-0.11167651999864009,0.8876049711186326
5.7,0.5070984724108546,0.7173162233345335,0.3217688085399669
5.71,0.36166252918458686,0.8049728154525744,-0.30232410325968756
5.72,-0.05126342415268794,0.025440940568164736,-0.5970683185406671
5.73,-0.31685863696312927,-0.6099730919248231,-0.520582221684468
5.74,-0.08228953593011028,-0.32034625354910107,-0.393006174622129
5.75,0.4309769734876384,0.46296557517985726,-0.2133563727581539
5.76,0.7327433040803087,0.5567661821798091,0.07121468570935865
5.77,0.6003297312185455,0.08954346779825906,0.2327220258081535
5.78,0.2614264976822875,-0.429616583727599,0.352071777555824
5.79,0.0031934323608829944,-0.5102498334959132,0.5457721552102106
5.8,-0.041610975640618116,-0.025158792486818963,0.7328907934865538
5.81,0.11419788294931969,0.7123545002549475,0.6252086308765532
5.82,0.30225216746681516,1.3762062592177875,-0.04392949053411142
5.83,0.3837205999554061,0.9659163041783095,-0.7789212701623373
5.84,0.23519222107966453,-0.21147015578472897,-0.9003415778332333
5.85,0.047234555143853635,-0.9693424292850933,-0.37294648694276544
5.86,0.13235536758772196,-0.5609765752548104,0.2031787053451643
5.87,0.39248234089862766,1.2181973221014792,0.24393071074087427
5.88,0.4481258322614951,1.6582975682410022,0.09071933304093294
5.89,0.04531305836069556,0.6198367437390049,0.027051200062690673
5.9,-0.3949858956158935,-0.6756973500561814,0.24149286396181263
5.91,-0.33285914349343554,-1.1615260002161725,0.4676641766042301
5.92,0.153305749089672,-0.15982695079778791,0.32274545118438713
5.93,0.6164035319489712,0.8949301763398703,0.04806696018900092
5.94,0.6309626480247801,0.9152500024504835,-0.35252104942908263
5.95,0.10829720511017445,-0.014150127614303072,-0.2723155400649579
5.96,-0.3919756720921981,-0.8188769739403385,-0.06686878287384003
5.97,-0.4047140132362477,0.10603629438472116,-0.26552543073541235
5.98,-0.09948023651920593,0.8041699570091351,-0.17216053844512266
5.99,0.08137096351213907,0.487657482890575,0.12614200484977833
6.0,-0.01549650302561259,-0.13778503527990238,0.5385807045530745
6.01,-0.020569998855117913,-0.4965317702690715,0.4534424560664706
6.02,0.13697953911602034,0.10182239578614352,-0.30364815147207425
6.03,0.12058397058096003,0.08629448070941312,-0.467781892400424
6.04,-0.12826744386817515,-0.32825865437312735,-0.10741904940014448
6.05,-0.32355277748249023,-0.3410200680968731,0.2610922717361808
6.06,-0.19712771271787943,0.9900074958353443,-0.08805653459077967
6.07,0.0197058449073021,1.4597452743944057,-0.703451143689884
6.08,-0.13928199709790104,0.0918215216632226,-0.634938869538659
6.09,-0.48461113950181756,-1.2160399725236004,0.06005813253255457
6.1,-0.39025870663674445,-1.650817351777279,0.8680774894881351
6.11,0.1325718744682369,-0.485065343984488,1.025242693989186
6.12,0.5075813100101251,1.2321121817698217,0.5108308842896387
6.13,0.28445227938785755,1.1488981821655744,-0.10284775640223993
6.14,-0.49959226710712185,-0.010769478907848143,-0.4125784739192331
6.15,-1.0268251764388971,-1.2152426015651152,-0.29699377398194976
6.16,-0.7101585853720505,-0.6853984707870827,-0.5284220326399379
6.17,-0.030971871112226258,0.8314985798296277,-0.4251052404586382
6.18,0.3697557761879084,0.5961185223859344,-0.07176909333902426
6.19,0.10670728202231534,-0.09183017891770004,0.16698591599909218
6.2,-0.29708673520558154,-1.0040714963730146,0.4310251959271249
6.21,-0.37493243460052733,-1.1336963883767581,0.18444365079122813
6.22,-0.33560473823936926,-0.2364913325792588,0.1508341922293772
6.23,-0.2899897805590916,0.6893350012457566,0.18801541570286565
6.24,-0.31476085138136456,0.8186470072692775,0.077550369861412
6.25,-0.38748001678608324,0.1452459358036031,-0.11059819393068057
6.26,-0.4096941666730079,-0.3642794148978235,-0.5255909828248411
6.27,-0.25873638408858846,-0.6572539221896857,-0.6711439443659034
6.28,-0.035861722646259996,-0.6330823808279795,-0.3785391167251317
6.29,0.03415973835346647,-0.2280180282712667,0.12147687222970487
6.3,0.024412176574071,-0.17481615252759736,0.5254991560143788
6.31,-0.13740377073449994,-0.040700876331575354,0.5359454599664542
6.32,-0.39262911079856383,-0.022283584942699938,0.4983725902640942
6.33,-0.4831642866529373,-0.22644165874101954,0.2752534225765302
6.34,-0.41366651931247483,-0.06333388831537776,-0.08970325094020541
6.35,-0.2139702009593775,0.11448156903703391,-0.35647651609276565
6.36,0.07461807079838569,-0.18065866386139529,-0.5630714212079444
6.37,0.16153647710695462,-0.49826870384624217,-0.3860602879920537
6.38,0.07970012201065287,-0.3958783241339781,-0.1394571100837588
6.39,-0.02010548967246163,0.238473086227258,-0.05003634310414023
6.4,-0.21803600187104946,0.15779615605483954,0.2033055088579762
6.41,-0.421248954340844,-0.013739490407165223,0.3431430444960071
6.42,-0.42146989104735294,-0.2850288409704817,0.6166927326345252
6.43,-0.1388854110239135,-0.3251140188498412,0.6420129849353794
6.44,0.20431313139177654,-0.015980783492241593,0.30975552719170685
6.45,0.3424020869763568,0.0168825905942894,0.08339488625197995
6.46,0.263763740146096,0.0024175192085125036,-0.5392794048731768
6.47,-0.02597564578000999,-0.26668010594126923,-0.6881668576925231
6.48,-0.21954988058678193,-0.1972999858747935,-0.8340367195944299
6.49,-0.2548999248029192,1.291248258058411,-0.8653658234812069
6.5,0.0015309569391891706,0.5536269305502444,-0.531055679578239
6.51,-0.0011123944781958651,-0.45765879356326516,-0.02109674008805605
6.52,-0.07813956618126157,-0.8986096027480621,0.7500929266247127
6.53,0.2615874485263338,-1.10674751118273,1.0370078998082266
6.54,0.4714220744127231,0.06967361413040665,0.712381491725112
6.55,0.33223173208109325,0.7834360316457756,0.5120528721680115
6.56,0.004633626404695015,0.4136169053126202,0.10156522370120041
6.57,-0.38900177863428126,0.13908359630546846,-0.30477291525735933
6.58,-0.3537301224442127,0.2440351023875275,-0.9976113897217632
6.59,0.06305776784836274,-0.0631312105016626,-1.099859385584081
6.6,0.4397122185529402,-0.7017195845646901,-0.22359851540382142
6.61,0.5340601639178698,-0.5558311688489261,0.6580353257219606
6.62,0.4293433647754268,0.7791109721325947,0.8473903448471429
6.63,0.2795142515315339,1.1969830326241426,0.40048516617973795
6.64,-0.20037160703637205,-0.13294234512957928,0.15618926721465
6.65,-0.8247142442105863,-0.4017338073277905,0.30855434077008553
6.66,-0.5155753867467278,-0.3845969163783886,0.10743033603934282
6.67,0.3710018186200038,0.27795761244777756,-0.4399184894773231
6.68,0.9067824567983296,0.8346204785226766,-0.7886175747944063
6.69,0.7669436692525176,0.23992042811053416,-0.5196777483483013
6.7,0.2965365108905045,-0.3686818765878124,-0.4040640014355493
6.71,-0.20737422974952074,0.5731604857336555,-0.20079823943186023
6.72,-0.44175819475382166,-0.7966224240161536,0.4447755034217908
6.73,-0.5438300933148821,-0.6382634400584115,1.2162257190343932
6.74,-0.092742027154942,-0.08625232428771268,1.5554632728086446
6.75,0.5349067339326627,0.2367094954515055,1.1889224092100228
6.76,0.5598327887157339,0.12020411435545998,0.8375416091160435
6.77,0.16362185796950351,-0.2443031514400304,0.2597077907883848
6.78,-0.09322920486821477,5.209832365846529,-2.424118281235444
6.79,-0.5088001766307697,-1.4145156788410398,-3.78522199644893
6.8,-1.3460353030067707,-2.0047603186593346,-2.7156401175290026
6.81,-1.148786756750877,0.05876478029479999,-0.4444486685325561
6.82,0.6479505099619585,-1.4671356939133104,2.097276663462084
6.83,1.7003723496104235,1.269737748432103,1.8165437812496972
6.84,1.0967970308018449,1.8539806023846443,2.3440502101036125
6.85,0.12267433892686246,-0.9350331331584539,2.5258845799966463
6.86,-0.9464987290270966,-1.6507728616896955,1.047938714295431
6.87,-1.5932434866354643,-0.415779593360585,0.556908408942872
6.88,-0.8578768275182161,0.5482837982319329,-0.21078171160638673
6.89,0.13523461288249447,1.3182215124898597,-0.8368890417418824
6.9,0.5000237319444857,1.2008895090014395,-0.7956472997311255
6.91,0.5504461597999961,-0.7125935402246842,-0.47552492191526896
6.92,0.35989444051933916,-1.999157252920994,0.30389740294711465
6.93,0.23024779561616962,1.817467238208695,-0.07905497125235146
6.94,0.21777417009837904,1.0112988530547757,-0.12613864411169548
6.95,-0.5515305301914727,-0.7823520179633527,-0.021028009890806797
6.96,-1.3597134160386353,-0.5670778039753632,0.27512467112984834
6.97,-0.6988977403252827,-0.6735489693385484,-0.11846828662137039
6.98,0.43214794275095164,1.4910501117316812,-1.2329326355702648
6.99,0.6481917230878553,0.2893926182113489,0.4749891576918281
7.0,0.05948695926327721,-1.9150143264204516,3.5565031256329616
7.01,-0.24812162034193894,-1.8505947254392314,4.073469532287484
7.02,0.14534164466050367,1.4822691756357638,2.1073025296794636
7.03,0.2706271936535109,0.9312272237477041,0.34053358401868017
7.04,-0.6220773714280329,-0.10320643296228235,-0.8123414646680203
7.05,-1.3593593506945718,-0.960562469871326,-0.9114660926364327
7.06,-0.7592858853320944,-0.6656191757590247,-1.582766636388644
7.07,0.48066880751291635,4.798137589649643,-3.962724830207474
7.08,0.6865756068487806,-0.7867465644576778,-4.274238838847177
7.09,-0.6916066357492856,-2.571371883148068,-1.6811350611277187
7.1,-1.4021419706444884,-2.2881011310220845,1.6015473745219366
7.11,-0.292029614751012,-0.523734157124595,3.0187060216684425
7.12,0.9887483206433707,2.2077003504846595,2.3426580738238445
7.13,0.7332089660343154,0.9218110601670205,1.9366296630806539
7.14,-0.6271547323787959,-0.6976849868325902,1.823068591017725
7.15,-1.319311713424581,-2.0295178175282396,0.7229560243134785
7.16,-0.7638988895257809,-1.3094974431866961,-1.2381518811335748
7.17,0.24864412089097723,1.6465116519890104,-3.0841700785420234
7.18,0.48313943895220335,1.419620121810264,-3.3165358370261115
7.19,0.16200175900791755,0.027910543586243113,-2.9023591763293854
7.2,-0.15811519865689797,-1.5586339800933782,-1.4512883413123592
7.21,-0.08960879546457462,-0.30351918242518083,-0.30528002749503114
7.22,0.25505653464366085,0.2136116108344873,0.7949322687836439
7.23,-0.034042941738485495,-0.5810020310474086,1.7140190903209194
7.24,-0.6969786306787454,-0.011522389159656988,1.8943606565751672
7.25,-0.5836667486298497,-1.795450537107471,1.805340557132792
7.26,-0.19590453301440375,-2.3979381496300594,1.4442258645520216
7.27,0.15555062875748676,-0.7097924275211697,0.6190038244817403
7.28,0.5894589924008046,1.339413003369601,-1.0254213645220054
7.29,0.5199788583686891,1.4262672522950468,-2.3346473028118955
7.3,-0.2095823128004203,-0.27134977740052885,-2.652751939228542
7.31,-0.9241290468549276,-0.13335699072273755,-2.3124464444840696
7.32,-0.6959908149848144,2.052415585541427,-2.306838182692103
7.33,-0.01329898780348415,-1.7088214596805382,-1.3292896664538145
7.34,-0.3063811284088087,-2.2900341713377244,0.9681351933429803
7.35,-0.39689979213265575,-1.4255904113211573,3.044473315325819
7.36,0.4766040809666955,-0.6152142002136521,3.300922402043209
7.37,0.9788375079398021,1.6764127951792809,2.0955603671869545
7.38,0.5611493841959277,1.704671601208155,0.7461683933030254
7.39,-0.4422874433055755,-0.30581900627846487,-0.34725519347141065
7.4,-1.2212528996849206,-1.132660082415906,-0.9988764285594253
7.41,-0.754655790004566,-1.0311143654257648,-1.4593313445366836
7.42,0.4740138156918398,0.3911909606611794,-2.0208040428367373
7.43,1.2783519045402714,1.7771240689112588,-1.9631402733397356
7.44,1.2733805693866747,0.9759903155316183,-1.2669600210978336
7.45,0.5798602558091968,-0.47289857918469136,-0.20312683113796431
7.46,-0.07796245099902074,-1.1022077600585178,0.935427138105809
7.47,-0.07154789998499203,-1.1145777749472674,1.5910285594116091
7.48,0.23576835030990084,-0.3059813983115123,1.8016121289229745
7.49,0.5283116159316376,0.9993992344606746,1.401981498100197
7.5,0.7539325651963561,0.9391691718894045,0.8023017776134751
7.51,0.7052454479931499,-0.07944027664376539,0.27895552257155826
7.52,0.433667848548972,-0.2014278583458708,-0.4402948104016966
7.53,0.31827595143279364,0.2737608795343592,-0.9614782685529312
7.54,0.42529890278443006,0.5206281714878086,-0.8323165485509383
7.55,0.5113168021191746,0.6155471333047242,-0.21924348612072875
7.56,0.5556203121995714,0.7666928843367073,-0.025824446509303968
7.57,0.5312682255949195,0.8550802206864705,-0.3588065401720322
7.58,0.4422922146970647,0.40598223149809815,-0.5744945472400633
7.59,0.33891950015499134,-0.33636058433101423,-0.20976520086718106
7.6,0.31375939706535444,-0.399623648419763,0.458150224269408
7.61,0.5043083047577832,0.5652214648706322,0.5775959510350136
7.62,0.7869940792406626,1.256328175027206,0.06008309440212547
7.63,0.7423139855335162,0.5469248582621526,-0.34842456889073614
7.64,0.27586336047161475,-0.46068299181593136,-0.18869036229992156
7.65,-0.02041854473898289,-0.9672324982119274,0.15833490720889926
7.66,0.09635965349940065,-0.3418392959325889,0.24108365248923833
7.67,0.2793404215700905,0.9908373471724994,0.23287009121511176
7.68,0.28898459262578674,1.5996258867143367,0.01650427441171176
7.69,0.04175788363854318,0.7385526677386073,-0.09246171962385107
7.7,-0.30919378537983905,-0.48661464362494256,-0.11102330711262935
7.71,-0.44780592254996154,-0.8272070186050052,-0.06715630370767564
7.72,-0.21186727442391415,-0.22326348559540302,-0.007898908488994588
7.73,0.08666162378379366,0.5765973922784883,-0.09260830456417155
7.74,-0.01663269633903168,0.813377091117153,-0.028328208520413258
7.75,-0.33800245582401794,0.9128846260504557,-0.3124596432023538
7.76,-0.5525760389090579,0.9340987027049648,-0.7618269048228282
7.77,-0.6635975078233886,-0.4432789486411483,-0.4980918161187709
7.78,-0.739974085233427,-1.851902897806927,0.32999511208505505
7.79,-0.5841426281601593,-1.4781446718427378,1.1994969909803275
7.8,-0.05185185958493062,-0.13275927417020772,1.2833102191996664
7.81,0.24802199126784807,1.2613187991544246,0.6718044518665022
7.82,-0.10459616975782192,1.2331780418677754,-0.12059720235364203
7.83,-0.8600250858859269,-0.3369169331266298,-0.589786683876347
7.84,-1.4087481218198374,-1.618034235912955,-0.3750568932001782
7.85,-1.1637336280521164,-1.0705503851640832,-0.2675537306414552
7.86,-0.29777670076883384,0.5798758179647558,-0.5325028545265619
7.87,0.34458357485215885,1.2003410299857535,-0.6472322786475605
7.88,0.21191914431485595,0.38940658128516586,-0.5371489476023442
7.89,-0.41522241255971276,-1.1150571871236101,0.01744443089308864
7.9,-0.8388238406086093,-1.942128801756862,0.605974021530837
7.91,-0.759350742246092,-1.0329706518733945,0.7493586830666716
7.92,-0.3939670030607407,0.4261711105585285,0.6122244051831595
7.93,-0.1693796546198121,1.1297499523217605,0.11814470408654774
7.94,-0.2891325286694329,0.718458207233829,-0.5022125792989942
7.95,-0.4526627015371774,-0.2655549702646081,-1.3405137151596624
7.96,-0.46734678100415167,-0.6167483406295954,-1.8093544974212714
7.97,-0.33760977056413866,-0.9965890769227894,-1.0824890203193531
7.98,-0.15791156185596314,-1.1234765959085242,0.23822068856156148
7.99,0.005085100602539772,-0.6544980438640036,1.3915480214493219
8.0,0.1586542039124864,-0.26820624732266835,1.791919598163139
8.01,0.10297285241346099,-0.10285625138793353,1.5535589463428439
8.02,-0.18542429827489967,-0.19730822251687322,1.06939119935151
8.03,-0.3795732568883136,-0.3449288382799078,0.2601400866599418
8.04,-0.2773477283188292,-0.21196843982431082,-0.755067600882779
8.05,0.029892757397958627,-0.03466491874232516,-1.5348826016992048
8.06,0.28880792958531515,-0.15578560996747506,-1.7634974579295548
8.07,0.2960601790679769,-0.3855226077537711,-1.2593990366969696
8.08,0.20633561029512484,-0.2732772243629125,-0.5040519576967466
8.09,0.1968782825386867,-0.17857216868185907,0.12828950224265728
8.1,0.09423738017956741,0.4685834110322018,0.6617150331295487
8.11,-0.0007979231933911401,0.590421033684984,0.8289581573963409
8.12,-0.04464132648554208,-0.6598065994885041,0.7861519333823725
8.13,-0.14127629269838798,-1.5586423716164468,0.9614977413033375
8.14,0.0046831673372713135,-1.5396638868280486,1.2775130902090917
8.15,0.4676306000273927,-0.4418774088052273,0.9031637025412198
8.16,0.7486330786957432,1.0816109330268817,-0.05681338052223927
8.17,0.47465344751340444,1.6443520064678914,-1.0563947943602476
8.18,-0.1364403653759832,0.7405390916033923,-1.625498210039116
8.19,-0.45884777186035725,-0.9833638492791801,-1.4655182499654462
8.2,-0.2715275569712828,-1.6179209990381085,-0.6310726310619633
8.21,0.3938803845355353,-0.32187085862468207,0.19132004779661824
8.22,1.1167173548735867,0.5185529382103545,0.5169627359534227
8.23,1.098343601104269,0.5220800839219877,0.5928143830726891
8.24,0.47861841874881583,-0.16468481022691572,0.570549428322662
8.25,0.014157979236667458,-0.9874659038315883,0.21066026906000312
8.26,-0.06884223601912694,-0.9404015696640935,0.04325585512345016
8.27,0.18864457097032214,-0.30308287237773784,0.20767199885152904
8.28,0.5681003739076343,0.30008718425541975,0.4940718237967291
8.29,0.8608506232103093,1.3331140912780768,-0.09471500235163732
8.3,0.8873026473953698,2.404774235257248,-1.5578580265964395
8.31,0.4431648745905208,-0.1885426473250812,-2.2851653641845884
8.32,-0.17625128035455762,-1.755350939126787,-1.6863888392866335
8.33,0.0461269535054624,-1.067722205708862,-0.3360998275819715
8.34,1.0600010894395078,-0.2564148773973474,1.0558801428198044
8.35,1.560864293637469,-0.15862304421474765,2.077166751388911
8.36,1.1362987745928355,0.17430268683900116,2.148244394047345
8.37,0.4799180457597502,0.16764903697828948,1.1761193713452602
8.38,-0.0717558837845588,0.24601820850468162,-0.28889183087180376
8.39,-0.41810161462836637,0.4070461746367303,-1.2511914432259057
8.4,-0.2821938620278294,0.6230580471547358,-1.5313260321876687
8.41,0.24325499833840664,1.0382274177073325,-1.2215633122164906
8.42,0.8412821204055528,0.18163752129187768,-0.38146541188841815
8.43,1.1792673281426627,-1.0800968071314825,0.4218034297923189
8.44,1.0118855835513745,-0.9328568670480812,0.9325153662294661
8.45,0.598616865659588,0.6555422706714986,0.9440310637219725
8.46,0.1768709907314425,1.295447119874022,0.6805560948297307
8.47,-0.37423470452700613,1.6069201538760711,0.28445306577555135
8.48,-0.564552415279741,1.32454285581581,-0.23379340973545626
8.49,-0.03347053589132044,0.252896370753022,-0.905660237080229
8.5,0.768861355340237,-0.5020533876443632,-1.28511902074129
8.51,1.3614654838578224,-0.9412478057874788,-0.7598623658598459
8.52,1.4442920337968532,-1.0626466250639426,0.5050429535163756
8.53,0.9100945473666194,-0.2583374783358142,1.8975229791849364
8.54,0.20735411653975167,0.9905106713054308,2.444041982791128
8.55,-0.3359975147725377,2.2418326863420934,1.727695454744018
8.56,-0.560329376034636,2.7409019547097797,-0.009141063501857966
8.57,-0.49113569757138054,0.600252075015876,-1.371913925814598
8.58,-0.1847518514942179,-1.231376167031281,-1.9724686047912892
8.59,0.5187229447951276,-1.5876373891316016,-1.6556756626879303
8.6,1.494221492585834,-0.12648610977691874,-1.0444980991536543
8.61,1.867136404523315,1.7946393930796942,-0.5506460611360399
8.62,1.21021338791569,0.5913634494895573,0.29312921261432656
8.63,-0.036653310901722136,-1.0372235786602746,1.2616826760190767
8.64,-0.8328277025349689,-1.057625987653445,1.7434893750499487
8.65,-0.5772690473495918,1.627098201381477,1.2780123533124514
8.66,0.20431720750325058,2.171946172120654,0.2774039455972766
8.67,0.3199031374651171,1.6093069167944782,-0.4191399625489289
8.68,0.2000730457798664,-0.5333690608224892,-0.1464457760986017
8.69,0.38295643437192073,-2.5876366610849346,0.3660082224538342
8.7,0.5737906664036692,-0.9065285085558368,0.41911517486797845
8.71,1.046212507785668,3.566188768358911,-0.5887332645897824
8.72,0.8643654419444761,1.3688037445730779,-0.7323994486866284
8.73,-0.6432028097213466,0.21729567530316724,-0.6699378591572298
8.74,-1.5254254981035864,-0.6236484309243406,-0.37583998954093173
8.75,-0.6905894015252863,-1.1465395523451782,-0.6982447602408707
8.76,0.5218393160160586,1.2365444927547866,-0.800132117229859
8.77,1.318929460936859,0.9476859471216509,0.2102295784962392
8.78,1.1604379211470415,-0.6736101592185318,1.5555867573952198
8.79,0.281123152351565,-0.8638351292788445,2.0093959794023637
8.8,-0.21214310560710975,0.5075380726614864,1.387661990883209
8.81,-0.2273820360032621,0.33704587833115285,0.7701779675210111
8.82,-0.5071702962401495,0.6406775496534104,0.5293351687586632
8.83,-0.49684517558384234,0.7182277800289719,0.247623960072325
8.84,0.13774658790737027,0.2661834901071311,-0.7173559399144279
8.85,0.6884703455792323,0.2536499596244293,-1.4655281316539324
8.86,0.9065779435656367,0.15838409320407068,-1.5816689622160922
8.87,0.8261206848005235,1.1788181100202322,-1.4609660784159995
8.88,0.4112034062014856,0.7735736179443655,-0.6775483951915922
8.89,-0.24522218486393452,-1.079928830190765,0.5369288990948007
8.9,-0.6777663538886912,-1.3419465555520056,1.8265248608534972
8.91,-0.2916828479465769,0.13745456387189256,2.154134314240008
8.92,0.49207285141509066,2.6997543988657036,1.325984630463698
8.93,0.7275750255667213,1.3901170547075545,0.42371493045582753
8.94,0.14348716468325984,-0.5051006659376328,-0.08011906067291913
8.95,-0.27332117192505145,-2.070284401966221,-0.0534950462309707
8.96,0.007473612716082452,-1.7424565011187676,-0.13895807280344885
8.97,0.5146148058817414,0.6355878622290003,-0.27137562772291124
8.98,0.7037246536075342,2.4035178955826253,-0.30944734456575373
8.99,0.3277172279626527,1.6994217712579436,-0.14391960550232205
9.0,-0.4101817897812829,0.10851089335027912,0.023364472358666864
9.01,-0.7787614606425421,0.2101409031286618,-0.4313393427808054
9.02,-0.30088309499380533,0.48811290237053795,-0.5564510331489781
9.03,0.24068940154899576,-0.7835637613669407,0.17122895614530084
9.04,0.26087193134778364,-0.32890958579047097,1.154792744017731
9.05,0.45568274269802095,-0.10472235634667104,1.4122913395969663
9.06,0.6112202954555407,0.627129541690721,0.26919841857861043
9.07,0.22959652114458817,1.338097313281986,-0.7218736612775659
9.08,-0.4044369275833842,0.2929158258123512,-1.0984176210295336
9.09,-1.0160027174270145,-0.7212986646555405,-0.0968614044652123
9.1,-0.8428889214236474,-0.6265312050351126,0.777582339905921
9.11,-0.00497727964537079,1.8292357396997332,0.5452895595636983
9.12,0.5692781577345739,2.8363233450277052,-0.12839163171519594
9.13,0.21374716662250504,0.2663772973515701,-0.6038605810279519
9.14,-0.6658653755681175,-2.202676448446216,0.07538535457158838
9.15,-0.8483710204810593,-3.1453404884364775,0.9798681502888545
9.16,-0.15894567326669973,0.7243894158349226,0.4956643888000047
9.17,0.6600818724664288,3.8126032647114463,-0.33072062694100823
9.18,0.2566938346366721,0.9006019416426733,-0.8234242115493274
9.19,-1.17139037112189,-1.018561664312762,-0.6523505155812084
9.2,-1.4849989301581434,-2.9803018033405526,0.18775534341514702
9.21,-0.5276209700304069,-1.1901753198447642,-0.00793256698893532
9.22,0.40439063093425287,1.7128017475215267,0.5813753923061632
9.23,0.628290295740008,1.2541355408092303,1.166605620887055
9.24,-0.14981491396894062,0.6130362825263389,0.9965690764265476
9.25,-0.8910085198056203,-0.5907881046032329,0.3596064054020672
9.26,-0.9234824386033844,-1.1760692566110469,-0.8953341142898014
9.27,-0.674404533974863,-0.35501002795029085,-1.197277646743408
9.28,-0.19026296428492717,0.37331564207152407,-0.7941082820170388
9.29,0.2237910297485906,0.5818716632933013,-0.35769434234147246
9.3,0.2145058027158463,1.074629792166993,-0.3481567772797591
9.31,-0.027656055139591382,1.4270559713325495,-0.7778843935431095
9.32,-0.5064139702727952,-1.0730990611432465,-0.5222089793366332
9.33,-1.145333063082117,-1.8710300113243754,0.6704867659261531
9.34,-1.0392662481580588,-1.4922746877391446,1.9634059169362046
9.35,-0.25413368947846043,0.048644583138908355,2.103279702352726
9.36,0.23535529869942973,2.0105628925628873,1.292413222700022
9.37,0.09170490496154732,1.9360940036881942,-0.11603555038012216
9.38,-0.5190591948236555,0.41248445902435105,-1.9162325724839078
9.39,-1.084702625868147,-1.4214351333891067,-2.4737423790253827
9.4,-0.9759367914057459,-2.3264658634633695,-1.7306191452437887
9.41,-0.3382471864481041,-0.7829020892342583,-0.4155776938239923
9.42,0.40869877865574505,2.5248534221389876,0.5096751474484428
9.43,0.6849113704079217,1.9237792993134213,0.859169394396887
9.44,-0.20297043694715433,-0.3164983946884261,1.3467383111389424
9.45,-1.1954040868492815,-2.081010211718102,1.6997899544526387
9.46,-1.1310115250108164,-0.880725718314389,0.8739287627429511
9.47,-0.3376311531478388,4.5782009136760795,-0.7853337316225101
9.48,0.22316280864464125,2.0465971545446138,-1.372967549374414
9.49,-0.27167945451353065,-1.5030528140454413,-1.2957624597590693
9.5,-0.7511324186839318,-3.3529248485706193,-0.28135994290145894
9.51,-0.11685527272739063,-3.473495733196951,0.30577457281830733
9.52,0.7012831622875735,1.7261997806428186,-0.07048941416991544
9.53,0.7483404313122852,6.794673588890924,-1.303445274545835
9.54,-0.5176658043994259,-2.935501263313954,-2.0432724255752928
9.55,-2.285331411823607,-0.9555164241878881,0.15227200894045448
9.56,-1.3862076750191608,-2.1701047594403287,2.2899624617752266
9.57,0.8595992127202647,-2.850692772230878,2.6438216811670223
9.58,1.6329968872462928,1.2628893603251117,1.930822483752999
9.59,1.1399559202337421,3.8084311790508028,0.45557446306293575
9.6,-0.07429652935468596,1.8326977379098521,-1.7636240578878493
9.61,-1.8477563989677719,-0.9166214254154108,-3.064722588477697
9.62,-2.513194734391456,-2.156232354271402,-1.8254857276796517
9.63,-1.5410517195731148,-2.0674755596364274,0.01797474487416031
9.64,0.10402453888559093,-0.5221487508824034,1.9217621573489123
9.65,1.3292169188292446,1.0100267817754234,2.5934956133220637
9.66,1.5249794390192324,0.8151008514929934,1.9311135191763256
9.67,0.3887497817492773,1.1846175446354636,0.15299692967741318
9.68,-1.1549802313590993,0.9260980276034423,-2.107059637155786
9.69,-2.2165212079085173,-2.562791838068208,-2.0760282183700647
9.7,-2.3237241985332675,-2.440243495780858,-0.557539342594713
9.71,-1.0045700466122887,-0.5840508504962609,1.3490353086288571
9.72,1.1029547483507987,1.7455952167910824,1.3051250271791996
9.73,2.0507890516128344,2.887268906413751,0.02331759005722317
9.74,1.1405729300427099,0.9141113329761785,-1.0332543944105543
9.75,-0.599534430878033,-2.1391207350101156,-1.336059624605165
9.76,-1.8437769520685972,-3.72087626736676,0.09446363062929537
9.77,-1.919094434641087,-2.2842453784769674,2.461979019868484
9.78,-0.781830658509514,2.171124938783554,3.3794123629834814
9.79,0.8211364468293685,4.98747476199252,1.5477998618383653
9.8,1.1354490386495355,0.9965702670743807,-1.268527597299071
9.81,0.09194382551892595,-2.635640003284774,-3.2967085944957235
9.82,-0.4949477941458281,-2.866540033910455,-2.5520708103236744
9.83,0.058667023685587336,-2.869840589582949,-0.5781842781776589
9.84,0.7818817423661112,1.5440635704361234,1.0681143627531404
9.85,1.1182048890361416,5.119288207147497,1.1084763068899117
9.86,0.35021144192502446,1.0192968176286616,0.04797691373139915
9.87,-1.3291555768050782,-1.9046597065518722,-0.6153478848539164
9.88,-1.5871657699111812,-2.6328479596422603,-0.4262002024930726
9.89,-0.4111303112280122,-2.701507837557226,0.6853944594489143
9.9,0.7274806045376142,0.20710994474055394,1.9660821672056676
9.91,1.6042137770180742,2.9849121212446104,1.5391755134765444
9.92,1.5605763856705774,2.1502143702960335,-0.4018424645332203
9.93,0.13071809570984938,-0.4951414634103625,-2.238604456638654
9.94,-1.2147443536968874,-2.399425762006381,-2.506752167177445
9.95,-1.2171831783088336,-2.768499302761859,-1.6116841941433504
9.96,-0.2739691246135119,0.4909134979863306,-0.3355969078345997
9.97,0.8317933489548032,3.5872748469022464,0.5937746374656965
9.98,1.1342671172201255,2.147241910561176,0.8294428240780137
9.99,0.2883941673308687,-0.7547995255647201,0.7912974162157874
10.0,-0.5014026853929769,-2.9890398521000754,0.738420009009333
10.01,-0.4534573781616269,-3.035558245204349,0.5791660809550607
10.02,0.056611269431779375,-0.3603108565533716,0.5133011175221974
10.03,0.5027675076902043,2.0774333438344095,0.4548570767213396
10.04,0.43677507442435287,2.2468764104148216,-0.12475472801950854
10.05,-0.21514855594889545,1.2273902746936785,-1.1648743465864724
10.06,-0.7378310340763349,-0.3766525057271628,-2.1296915525943962
10.07,-0.6375391965041007,-1.686987084912649,-2.118597162768261
10.08,-0.20472531886388468,-1.8590129183781317,-0.5711341795716812
10.09,0.3388444703425129,-0.947998160896382,1.2624889934736145
10.1,0.7621938403693818,0.7026055968160205,2.1066716924901545
10.11,0.7145291706757053,1.813275008075884,1.6550553551837048
10.12,0.01195924722886373,0.9011601999781116,0.44359917918585096
10.13,-1.026524078460903,-0.8250292947884043,-0.5215447591343971
10.14,-1.3944005901407956,-1.7254743270045765,-0.8017879041343908
10.15,-0.6122716191822691,-1.4602144573295628,-0.604258494455505
10.16,0.5969414085756322,0.03397009229161516,-0.3076637019174093
10.17,1.2601514680179207,1.5338900470251031,-0.2365794553779285
10.18,0.9959852427711947,1.5330636514639606,-0.6028908698611833
10.19,0.08065724110632329,0.20153142847166547,-1.0568441771815813
10.2,-0.736432959611325,-1.291696913373264,-0.9020853657053214
10.21,-0.8811266100752483,-2.1375852015870938,0.23271777009439465
10.22,-0.3650790215572328,-1.2565199319288822,1.6275934254410418
10.23,0.5484940490471332,0.8971717703717904,2.0546260689899496
10.24,1.2723127681436968,2.5320484108044505,1.0132489628738102
10.25,1.0253153590781388,1.8204778887765805,-0.5809516623790822
10.26,-0.022805852705906432,-0.611666926681638,-1.5852634042523521
10.27,-0.8772824320817868,-2.555913711749313,-1.1533696898206847
10.28,-0.6963773453600525,-2.4532354346941423,0.06069052685636467
10.29,0.44413728866532554,1.158371749301896,0.5819365421736955
10.3,1.5296988738255934,3.745236513914694,0.45022034909258835
10.31,1.4469180498517173,2.443100250668447,-0.08480915770260329
10.32,0.26560944563476097,-0.47949959213156235,-0.5459335769289184
10.33,-0.6596335210333466,-3.0045663301385206,-0.33047771690348177
10.34,-0.5175842887137293,-2.872081013971201,0.23215017127598894
10.35,0.4562628521266831,1.3500645266618736,0.4588394717558636
10.36,1.371943211593996,3.813823674656869,0.38194405858468194
10.37,1.11776305912716,2.9479585528669627,-0.17727653337565183
10.38,-0.03795741962657108,0.27432833528753,-0.5579386853428387
10.39,-0.6876228002783041,-2.581744236341283,-0.5048981506184012
10.4,-0.33703973682163413,-2.9151335522709956,-0.036167795852391486
10.41,0.5839938433019155,-0.4660517704101344,0.7555049682934775
10.42,1.3388541859790937,2.2227943949914692,1.1811081263290686
10.43,1.1382569198094001,3.1902336954821933,0.8776485436610392
10.44,0.07623700403373333,1.7357356667579418,0.07588811891821413
10.45,-0.9538985370641722,-0.8960604682746686,-0.7923379911393079
10.46,-1.2373766270365225,-2.055744333125751,-1.0750147893437654
10.47,-0.4640118385411528,-0.9046040515093524,-0.8797696405090589
10.48,0.7882681470375528,1.712418596428903,-0.4658120033858572
10.49,1.4184558716846603,3.5743276416040177,-0.37304089031523946
10.5,0.8089672995561972,0.8626785830747614,-0.6881316618324054
10.51,-0.5673254470050257,-1.4594284467629581,-0.46947142617733056
10.52,-1.0674774842810038,-2.149760263005231,0.28881187498725064
10.53,-0.3956241040778319,-1.404840441927946,1.1541244934431125
10.54,0.26812821723842234,0.8271400852630334,1.8477349729732249
10.55,0.48723445579988145,2.313872561448918,1.716275033709832
10.56,0.22135609375782167,1.3770610373523775,0.9206082243832936
10.57,-0.5127095421881422,-0.028064817777959616,-0.33677480800019255
10.58,-1.0187251265579185,-0.7843929159343872,-1.4981562672439293
10.59,-0.8904283483262133,-0.7672763787018725,-1.6986784752102524
10.6,-0.30696766828438954,0.20338966571075365,-1.3128978869797778
10.61,0.2240253816251309,0.9929937651769309,-0.5043741683767838
10.62,0.26310531424761946,0.8742014108407693,0.22285782570941282
10.63,-0.14544233062501755,0.09732085320065205,0.4168272924005241
10.64,-0.6784559592185971,-0.9171539602565733,0.4860636331083403
10.65,-0.9528159366365914,-0.7998767943666878,0.25192775986342814
10.66,-0.8571562117234602,-0.030449054813015332,0.3316213720488596
10.67,-0.5524162826909575,0.054231935478009474,0.8058364056842816
10.68,-0.415766850551308,0.11742423153477675,0.9332328478563496
10.69,-0.4814392864967295,0.43895296724538563,0.2828832197930166
10.7,-0.5469237277837954,0.8148497544216212,-0.8458543522448976
10.71,-0.746014587577504,-0.22560690858307053,-1.3367436078905537
10.72,-1.123295366999476,-1.402219830033414,-0.6511724068725943
10.73,-1.1643327702142592,-1.850049817048096,0.6795066061347378
10.74,-0.646057271224558,-0.9516988720574228,1.3692770786158683
10.75,-0.15009010282986499,0.9133843298588729,1.2715867294712095
10.76,-0.18485434891409955,1.1133406033054989,0.7750424277612369
10.77,-0.8195026659804011,0.0012529523442597467,-0.005671605641305601
10.78,-1.4369830513989625,-1.0907597806060352,-0.7539437654783855
10.79,-1.293144964458498,-1.3006263782377234,-1.6598587987627857
10.8,-0.6926771876035042,-0.7008156789771942,-1.5265252479034959
10.81,-0.08259060220255043,0.17508487416563606,-0.8828876920339136
10.82,0.10399775046735565,0.3064057986809791,0.06799081782342029
10.83,-0.12265499908549549,-0.056527845323225634,0.48994441992907206
10.84,-0.4919896536305226,1.563816170796519,-0.1278466945524512
10.85,-0.8188760281778661,-0.6683952028211579,-0.4806961291993379
10.86,-1.191988759935767,-1.1958312663720476,-0.477273209297536
10.87,-1.0860501723876432,-1.5336071538860943,0.49231214323734385
10.88,-0.3880714004400042,-1.5931166170449051,1.377660343387302
10.89,0.19562513933015407,-0.1744879872142123,1.6794366242884138
10.9,0.5397031118087461,0.6681315426282023,1.3615437982128054
10.91,0.49294736187949617,0.44411024719049724,-0.14566884565078048
10.92,-0.23453618635047555,-0.29624998099185357,-1.3631627490004432
10.93,-0.9203375026901276,-1.7076167675051344,-1.214705172657868
10.94,-1.0292935017577134,-1.7220718872027436,-0.46979658328132556
10.95,-0.32162926361073724,0.2935932931818716,-0.5237955951412759
10.96,0.5259327195771916,2.085482986219654,-0.7059105553160636
10.97,0.5787665701934969,1.6084546047695212,-0.952632166661809
10.98,-0.13681460137250895,-0.12007360943237266,-0.6434146630484905
10.99,-0.5834987263947703,-1.6275989208548434,-0.1907920128568114
11.0,-0.25231503742922984,-1.6602042855696053,-0.2593795348500103
11.01,0.06013172677173548,-1.3061225645083634,0.6461628856748882
11.02,0.24560933528082557,-0.1115073015722367,1.29158332126608
11.03,0.3537965114617177,-0.018665632081064667,1.9168771056387737
11.04,0.40434027488412877,3.6155203928691755,0.4810253461475867
11.05,0.22300794764384826,-1.2663619042087653,-3.0735574412949394
11.06,-1.1438602246068885,-3.0549027163236344,-1.7012460701837644
11.07,-1.6933330914639526,-1.0236077413903644,-0.5868555881434614
11.08,-0.3038182964364449,-1.8248827760567117,1.7503698024974326
11.09,1.1286545511085935,-0.7978284943710108,3.352609928160234
11.1,1.6570932401214047,2.693394818982675,1.8877726063724016
11.11,1.2948605843460597,3.83250402523655,-0.3608150218238745
11.12,-0.4839224492985642,-1.5913720798656534,-2.5812383297918764
11.13,-2.299258251389117,-0.8996912835245175,-2.336846290991393
11.14,-1.908621286921903,-1.8632282739341892,-0.8357774193075754
11.15,-0.18685933346667552,-2.5300660836428657,1.572680940014239
11.16,1.016760782353321,0.5161583781443686,2.906761137681514
11.17,1.7060051315551081,1.3630097568954576,3.600535097421415
11.18,2.0191819809724265,3.0017842500440532,0.8132897209832919
11.19,0.6772884380113795,-0.7440095934821965,-2.717790177104542
11.2,-1.6682616800931966,-3.012938499240217,-0.6094754872981829
11.21,-2.7090666279420668,-2.7309723319241597,0.8349133180401286
11.22,-1.3283308355239503,-2.9185969149145605,2.816724856604021
11.23,0.97869351882005,3.2173306226961524,1.5330772560535577
11.24,2.468007980199977,7.362342980430367,-1.4141430467712686
11.25,1.2465124635439926,-2.468275732909881,-4.577733340901803
11.26,-1.045762916552213,-2.347125379600027,-4.523172177817016
11.27,-1.5692281731324011,-2.9731806205151132,-0.9435187505756154
11.28,-1.1361033650798822,-5.701576480656662,6.2470489497627995
11.29,-0.11743159792537515,0.41052768023154873,7.9955505365914
11.3,2.064532864538067,11.46983251304963,2.887225158621124
11.31,1.2028173116494614,-3.4500132355182793,-2.877640609884408
11.32,-1.8580484753617283,-2.5835082923857446,-3.6281136297137078
11.33,-2.833967495585678,-2.8890692212115594,-1.5428315280622469
11.34,-0.6869454044174348,-5.394509217739916,1.5941329456067257
11.35,1.8459310295862235,8.494177968730735,0.24885947280550588
11.36,2.895703948290639,7.87604458535237,-1.960158817591808
11.37,0.384890789770981,-4.194806342314926,-3.1109903359912976
11.38,-2.91099598503051,-1.2876020320435004,-1.1729491181149263
11.39,-2.0545189185090833,-1.7551286352734603,-0.8963781350756772
11.4,0.4063037563849482,0.3097242788860958,0.7335354042230224
11.41,1.6305174220581489,2.3587109585543184,1.5951521747783812
11.42,1.2330655501779029,1.3434189752494576,2.9067252544755653
11.43,0.39141571525703067,-1.1263265597200618,2.2292867190397923
11.44,-0.30692300108152537,-2.140265628774393,-0.13613254424150315
11.45,-0.30947729489955256,-1.7005805009900967,-2.152793684346858
11.46,-0.147158748941113,-0.4375290079210983,-2.4535921507543454
11.47,-0.08758851079294233,1.1025830284651246,-1.6719658601155198
11.48,0.12990331470983935,1.749056674765354,-1.121677464833007
11.49,0.14321712854052523,2.417136752975681,-0.7438121027272411
11.5,0.021006773655509074,-1.2297154496384117,-0.5235622949548904
11.51,-0.46074973210026426,-2.7744359445834235,0.9846348958730186
11.52,-0.4288479677847437,-1.9109649028935847,2.01263836698827
11.53,0.2632927424972904,0.08582265816987755,1.9094567193496816
11.54,0.6697470950022202,1.916825208545865,1.2787039959581812
11.55,0.39987637133330517,1.2573785302576626,0.17586967877261847
11.56,-0.37950243118263466,-0.4234187336379878,-0.7630602656039075
11.57,-0.922458008758983,-1.3479379823565658,-1.2316629071630878
11.58,-0.5439654053005126,-0.9179437997260396,-1.4436763677675157
11.59,0.3084667218347753,1.2883417497843352,-1.2795519686010999
11.6,0.7406142852943712,0.8473195787246508,-0.587682574503193
11.61,0.35328596765556847,0.07009155146996437,-0.00502141650143345
11.62,-0.23968685205828044,-1.1965755246914582,0.9352885767633452
11.63,-0.3936632131828081,-2.1381016992395505,1.8372756128889296
11.64,-0.2251009221038915,-0.39214259108900984,1.9055748433137436
11.65,0.22990549774031543,2.6198346311822815,0.7538812785594192
11.66,0.259358776038409,1.5162338176959471,-0.3546845009326255
11.67,-0.30619181564146053,-0.46314264306958397,-1.205864043145142
11.68,-0.6524721574175861,-2.3775219896541135,-0.8122149343210147
11.69,-0.19522698981160333,-2.3896862033204083,-0.3037760201984195
11.7,0.6154585034012461,0.5619094360456004,-0.1877019534002137
11.71,1.0602694840945674,2.914389331678295,-0.020164459025797297
11.72,0.6348279110336393,0.8307891203007388,-0.20110361889203188
11.73,-0.648245767615113,-1.0183921731067442,0.24257718533892134
11.74,-1.0458459869793948,-2.27258566584729,0.15572905375805152
11.75,-0.3317233783462318,-1.198208486311266,-0.22025116495860614
11.76,0.5807222321289425,2.149399456193009,-0.35139987845913007
11.77,1.0435113253109802,1.34109925179813,-0.19423166552338522
11.78,0.48851342894641203,-0.1829286682330686,0.11032935374215584
11.79,-0.22849058248172496,-1.5328553589806047,0.35910362356432535
11.8,-0.2175299933936441,-1.7817834723318895,0.12434522090841642
11.81,0.1352274442287378,0.2688942648216008,-0.14688634576416687
11.82,0.4304327523174798,1.2775470245637237,0.12449452606444286
11.83,0.3667383345845235,0.562967117645055,0.5323704451805754
11.84,-0.0023107055364526867,-0.2345536154101624,0.7280357175155033
11.85,-0.04144186408893182,-0.038747730674817786,0.040715889875328586
11.86,0.3021418373749922,0.8065902138183305,-0.9853828082694539
11.87,0.35189734916175097,-0.3616308385209924,-0.7578961912030315
11.88,0.08357478806254728,-0.9896747517097031,0.2614058877625419
11.89,0.15365055509164233,-1.0005576572995944,1.0402892447921128
11.9,0.5418139501717162,0.3013978674827793,0.7262275069340295
11.91,0.6858451390193068,1.6920628854585584,-0.06047270097898251
11.92,0.3401407756432838,0.7905927818190289,-0.6440403207624057
11.93,-0.3440253408109888,-0.539500017506487,-0.5780498529636556
11.94,-0.5864550758497344,-1.3167201904458208,-0.15930558951711177
11.95,-0.10222559221060598,-0.9345810498517424,0.11396899363570355
11.96,0.5766312739582338,0.39137148970285707,0.22652150882920763
11.97,0.9090546320968416,1.2296291690062187,0.029211389563851293
11.98,0.5997089064304391,0.8160742810204815,-0.27558182525166164
11.99,-0.08632017539677588,-0.41375980655642103,-0.3691774383304226
12.0,-0.5862403933484692,-1.2433215339867556,-0.18114237732663255
12.01,-0.5422495040916381,-0.9748749477684998,0.32415286232503
12.02,0.020764845836812994,0.11686358116373324,0.5713627964009846
12.03,0.5475574077850346,1.4034496981335283,0.24136602314857988
12.04,0.6178266638315892,1.5141663381108434,-0.5300537617543861
12.05,0.18912364416180255,0.02728592455569958,-1.0996244385333074
12.06,-0.3630281091942744,-1.1985079556777107,-1.132249086577799
12.07,-0.44678428500881195,-1.0955080198387641,-0.6232292457932119
12.08,-0.0616248975300029,-0.38970833347375206,0.2546853224941983
12.09,0.1960746259049084,0.32181590288720807,1.1504983984774098
12.1,0.20849480421418012,0.6970852570770152,1.4074742293346316
12.11,0.1032584829591309,0.09534138724350684,1.0074517754786034
12.12,-0.15924977330054937,-0.6399867079621275,0.48507839663195745
12.13,-0.2608724035087442,-0.8227265076805028,-0.14023607108778594
12.14,-0.10385233916119684,-0.2641200742160474,-0.7277584584882404
12.15,0.07187614048354718,0.4061139834174017,-0.8821559381900113
12.16,0.11402722333040023,0.6503474454438293,-0.880499172254547
12.17,-0.09484926066827233,0.8418778821263357,-0.8722687787492748
12.18,-0.3740814912370823,0.023582462135696057,-0.5801917887976626
12.19,-0.5497177080178484,-1.416086152857057,0.06694470569288957
12.2,-0.47750581978190504,-1.4259369589182076,0.8048789192066296
12.21,-0.012020190294213853,0.05395987937084502,1.1227571401444054
12.22,0.4360318132910624,1.484542783698735,0.791688276191498
12.23,0.22220796423437783,0.9574547165520075,0.19529865156070061
12.24,-0.5301851918109536,-0.673740646053613,-0.30810389444893177
12.25,-0.978119911399083,-2.058286057097414,-0.3848213288632027
12.26,-0.6997305681450234,-2.085015381382427,-0.027001754862884485
12.27,0.03945698252141524,-0.48018004345478965,0.36268127255309435
12.28,0.6483864638814221,1.2913387283615376,0.43745787448634904
12.29,0.5513922713057428,1.8201373489508694,0.0538408817344206
12.3,-0.2181068674416846,0.7261894180202808,-0.5553096750001421
12.31,-1.008223802714322,-1.1023226036127867,-0.7169975867649726
12.32,-1.1119186293121193,-2.0734424840498793,-0.3476480125642132
12.33,-0.4135833837025968,-1.2815375590444216,0.14369940637148929
12.34,0.5529180236877215,1.1233645092669042,0.2703718213641591
12.35,1.0580352294971567,2.0167424886170484,0.014491613438807746
12.36,0.5713819432694419,0.31523349956466584,-0.09617715668734227
12.37,-0.46172728298391397,-1.609954050830417,0.16606402634298514
12.38,-0.9425047738915159,-2.1993272409771163,0.36740454904965286
12.39,-0.5461715233553219,-0.6340368105664752,0.2957781811860589
12.4,0.20876291535361133,1.4544510087977578,0.19288982014622094
12.41,0.6340143560591573,2.0268016770139576,-0.22716803888219553
12.42,0.422443244783406,0.8059475876172529,-0.8444060046571902
12.43,-0.033898079247295064,-1.2106114106190344,-1.1432880402342238
12.44,-0.18647976045539794,-2.1396009031319623,-1.0064503191191783
12.45,0.05427047878988087,-0.9912599913975709,-0.16111454496572997
12.46,0.4410064835572089,0.3539867466595431,1.01143822967244
12.47,0.5181915715460658,1.214562729432434,1.5567320048546238
12.48,0.23637815996005027,1.3351703683559142,1.1445664564280407
12.49,-0.06956500468701368,0.26781139586828234,-0.0033447872102397133
12.5,-0.3132252904611877,-0.6713214194452926,-0.8789785512396261
12.51,-0.2571161942217492,-0.7069498549830627,-0.9347921108617706
12.52,0.25432382652023855,0.030063088172133046,-0.6465399472693064
12.53,0.7763197024327243,1.3023050250102557,-0.24113032347019475
12.54,0.9733399347900366,1.1578480887802176,-0.11639891166935867
12.55,0.5826397468705672,-0.14758888729274966,0.03431480568785293
12.56,-0.04123465866948337,-1.064975185169801,0.39296272245911457
12.57,-0.24710729978401064,-1.1491193531399984,0.8225260923394074
12.58,-0.004633659099335162,-0.07889156743896815,1.0928633837021984
12.59,0.44016112858156586,1.7248627215883185,0.5544431704621877
12.6,0.6896856286245623,1.8896375868150062,-0.4156632456849723
12.61,0.4236361953797938,0.32357143096771634,-1.1600465632102124
12.62,-0.016044438281367153,-1.4211820654756828,-1.1405540505187681
12.63,-0.001671758391681719,-1.500205654451853,-0.7648588844401077
12.64,0.43068451773775107,0.24504813081658625,-0.15018417770295087
12.65,0.710686375717712,0.866511522698811,0.5212449280119837
12.66,0.2998549783377851,0.9262522152309927,0.9955687718276203
12.67,-0.26239322143698846,0.43169632019519943,0.9987402453046955
12.68,-0.4923613388270368,-0.526624853698426,0.7528133519784729
12.69,-0.40957563464375135,-0.7932996983078554,0.6027789186501757
12.7,-0.01986787654307757,-0.22718457137067719,0.3102595093936502
12.71,0.4192747202880228,1.083483445055048,-0.5100129045194024
12.72,0.5350203671102701,1.6187440166350133,-1.4970064158442715
12.73,0.11029800184277115,0.3779985341314316,-1.727311035790976
12.74,-0.46175195289911564,-1.1012968578703133,-1.1466506240758503
12.75,-0.6205056888835585,-1.752346888437395,0.3287845783486783
12.76,-0.19926690893798382,0.6184211630134968,1.323417789657484
12.77,0.4749491361269259,2.2961971431125967,1.5033710586359583
12.78,0.49141121415792316,1.1291833552078316,1.3555335269317834
12.79,-0.22852568337473675,-0.5217134893008206,0.7908581980270316
12.8,-0.714678910817541,-2.127070486694805,0.6204369946722357
12.81,-0.4225403626149795,-2.0618941693622452,0.3118760639170949
12.82,0.27138474559721,0.6975897351658278,-0.3861028588520912
12.83,0.678082588612669,2.3640882222086894,-0.874902820112534
12.84,0.37483792392357157,1.94980390687787,-1.6125814745025122
12.85,-0.4248535652790862,0.041747887094513686,-1.7504153114574275
12.86,-0.9254626794594607,-1.6386990294214272,-1.087708703651665
12.87,-0.5983497941896958,0.010740287029480329,-0.3406660027676312
12.88,0.22945121873386387,-0.14035483930102477,0.7711374945282214
12.89,0.3863168822529281,-0.05219041487990955,1.5010353241234502
12.9,0.0204538108193669,0.37525693920644426,1.6042499443275307
12.91,-0.1347454792768318,-0.6578967302891826,1.3376196394368833
12.92,-0.2165586362877001,-1.13478562464678,0.5063918251744534
12.93,-0.3424605857688547,-0.4681271530080818,-0.22120909611913148
12.94,-0.3096643939183367,0.6561887596422002,-1.0326514652788312
12.95,-0.20873638450017903,1.0614749553836176,-1.7103217275984357
12.96,-0.34072354425471124,0.6653066418867671,-1.6039381795602774
12.97,-0.40482044196216865,0.6278594692450779,-1.3951985127058826
12.98,-0.23621565006513046,-0.544905190683785,-0.7279322847116252
12.99,-0.23404995951205299,-1.6353824487520778,0.48025767374509626
13.0,-0.27814805768345136,-1.7450575079953372,1.7723814713053836
13.01,-0.06995028052718434,-1.0120403055323048,2.5190627617020414
13.02,0.2940481441297549,1.4989700726097783,1.6335757030459768
13.03,0.25751044966307435,1.389311492833549,0.21738033319972336
13.04,-0.5382151706423889,0.05092888296617858,-1.1033676606367413
13.05,-1.291716143357004,-1.3983417906233382,-1.2885428557006176
13.06,-1.007808646996869,-2.445932084118308,-0.7703256433169515
13.07,-0.00900650771132435,-0.7609130220701972,-0.48142972819479424
13.08,0.9150127335742742,3.0558426591458216,-0.5465574599006899
13.09,1.0246884722870955,1.233801738799682,-0.5803673072677461
13.1,-0.2464029451475774,-1.2123331029424955,0.0460644354798502
13.11,-1.3258083180982416,-2.545279750922096,0.8041169538929355
13.12,-0.9196720048806031,-1.2545177933340235,0.6713305981304116
13.13,-0.006464958103709909,-0.32520950931597575,0.896460703115328
13.14,0.3736182544694855,0.5035348147066683,1.4140687206333786
13.15,0.39151395595563,0.5495003261162581,1.0445728156961902
13.16,0.23311771654857122,0.13379505835884847,-0.1684746513186807
13.17,0.13018759389163798,0.3029244789933472,-1.7309683906356887
13.18,-0.09739121990049054,-1.1599606227827484,-1.8957788449095683
13.19,-0.42860011314237956,-1.3079473635151462,-0.9686833747259092
13.2,-0.24755318856505656,0.47736711374226465,0.16015181048671392
13.21,0.4559807878635897,1.806807879848484,0.6521376707847181
13.22,0.6763194011184742,0.6592780254871164,0.30954723208501783
13.23,0.1147152032535355,-0.4488732213538551,0.16703068776611157
13.24,-0.054298052105770656,-2.0610636308631403,0.1029551029534186
13.25,0.08860713667543278,-2.43562805714297,0.8041817624812396
13.26,0.324928002304335,-0.3419999597956086,1.2937404055452617
13.27,0.7233669828476034,2.0409995044962166,0.7254295218305804
13.28,0.5504498171405053,2.343040927276882,-0.2219190184834236
13.29,-0.20838539725058391,0.9062166762984316,-1.066578434320853
13.3,-0.7070046059739382,-1.007175139898683,-1.5038164923251456
13.31,-0.4566506693472794,-1.6330507116379112,-1.0892793637154072
13.32,0.5058235112797921,-0.40280905566528735,-0.5159158001212897
13.33,1.3207328223642754,0.616260460960961,0.04902942145260253
13.34,1.1802716721560205,0.8332370917387045,0.7148272646870734
13.35,0.5197948122170715,-0.2370699735538571,1.041162154567819
13.36,-0.19493255087226927,-1.5038430584009197,1.342884090450715
13.37,-0.49455815407417364,-0.5677146522032959,0.6399249231344953
13.38,-0.1570313183676753,1.9832413394822948,-0.6112040395918432
13.39,0.23386279614415958,1.2925302104758272,-0.9660953952496143
13.4,0.17583299615073847,-0.024094282452107218,-0.5332452086770206
13.41,0.0575525499208093,-1.2178197381511071,0.634863682325532
13.42,0.4989269781857407,-1.1732365073227997,0.5813542280176658
13.43,0.9707659754451031,0.7572644485014379,0.11822521109598053
13.44,0.9216446381239599,1.2346917203088625,-0.23078587235121537
13.45,0.10132481586601959,0.6926274152270506,-0.3348192334108257
13.46,-0.7144045557467456,-0.06800643498700822,-0.13265780863831086
13.47,-0.6454957973742299,-0.5563529743662805,-0.28869418503364963
13.48,-0.007843222308146998,0.4756071904304731,-0.7244420432427852
13.49,0.6075645217935086,1.6569138832091024,-0.7618417510009594
13.5,0.7942759912678563,0.5151145246719775,-0.4741263004385175
13.51,0.35673836565539613,0.3797714745826733,-0.22994859043206686
13.52,-0.014295427096818018,-0.7053381319937024,0.18501804965786195
13.53,-0.23990267428469653,-1.7742251606750794,1.0048039997450133
13.54,-0.33632048303528783,-0.7363832961765029,1.7189448391114308
13.55,-0.05946357428792018,0.8292421376568492,1.8713674367955573
13.56,0.2575692573579553,2.4317697319291756,0.7708826260215285
13.57,0.03348677111831873,1.9821689896773953,-0.6580365931142445
13.58,-0.5080732611007909,-0.09702228142995034,-1.712785586265642
13.59,-0.6977408858451141,-1.9250528938704745,-1.8763795043875746
13.6,-0.23617625989528798,-2.5514338005751616,-0.8654986031502256
13.61,0.5389864333227368,-1.2749107337069234,0.4110379314372033
13.62,0.9908839655508435,1.4388806188392804,1.1881228014383283
13.63,0.8250019209609011,3.576631366927487,0.852833054609527
13.64,-0.1394452059948012,1.1270563981714787,0.14360275445433726
13.65,-1.4171673053382943,-1.257287457149975,-0.19210669134681568
13.66,-1.5075996660640874,-2.539077612229978,-0.23560743900468442
13.67,-0.4398839651448413,-1.920060104477171,0.32686461938539313
13.68,0.8511922590482328,0.6340431179670944,0.771359711850395
13.69,1.5779915310851962,2.7394640784110615,0.2596773489805228
13.7,1.0510697265787134,2.1203506878264475,-0.5416999241932636
13.71,-0.4163132990124526,-0.24882645520035646,-0.8779834107137354
13.72,-1.5048316005195728,-2.3858680294101635,-0.33250318948010416
13.73,-1.3403560204036382,-1.5367818934595086,0.05812854761510237
13.74,-0.15354282947614278,1.557255249842483,0.2624191054911489
13.75,0.8223161564962194,1.706213111839896,0.8004459085504999
13.76,0.7944549908649218,1.3675812097063669,0.3822538182215711
13.77,0.25695109788857756,0.1650391971094733,-0.6604907110071736
13.78,-0.20112292390535766,-0.7506266336806197,-1.684550798594123
13.79,-0.40474471546986396,-1.212593070123093,-1.653991698801007
13.8,-0.4277545381942326,-1.2430091838930144,-0.07521157546327736
13.81,-0.054102698442629694,0.7300221854208845,1.1035172691889872
13.82,0.508648236279824,1.6011932048366724,1.278230128557431
13.83,0.48966659123613887,0.39607058133524775,0.9690060186835672
13.84,-0.06418168990928393,-0.8575093789336172,0.4619265845488307
13.85,-0.40427328550584174,-2.0133848226793156,0.6039057764699246
13.86,-0.18680534178765903,-0.944218096189755,0.2842348813426047
13.87,0.3751602754792893,1.8898521720955204,-0.7430840157027458
13.88,0.5688628572980374,1.7701944152212925,-1.3420269760059245
13.89,0.10046533362701113,0.584122201223368,-1.8903072413287223
13.9,-0.503792561574767,-0.840377820109616,-1.4388551005434778
13.91,-0.44228885888956243,-1.1789014542830658,-0.7448653642676427
13.92,0.13690348071741004,-0.3630209207003132,0.34325900430879286
13.93,0.5353431079421586,0.45079175447545033,1.3887480957739928
13.94,0.4606043868914448,1.5621842365397418,1.427578284016944
13.95,0.03199397589654819,0.14726427391955033,1.1318184041928308
13.96,-0.5570192631690561,-1.1866984254095991,0.7666138532334811
13.97,-0.659450349343651,-1.3626519236665005,0.12625485437254463
13.98,-0.22529728807914146,-0.00024220289205252872,-0.667965146819673
13.99,0.2764250272421179,1.5598290514755742,-1.342895985728469
14.0,0.26301944535796085,0.9312578789761253,-1.2334030735314954
14.01,-0.2286487427085768,-0.6942821226232708,-0.4097673988955077
14.02,-0.5818102948159344,-1.6604308500192162,0.6031342244369918
14.03,-0.385383755189414,-0.5816159993422815,1.081549432424047
14.04,0.10652150518106021,0.7587172935624743,0.9298269876640514
14.05,0.04398791777869307,-0.03387484478205497,0.951351270621839
14.06,-0.38884529892834496,-0.43241249713193464,0.5254988483940276
14.07,-0.4769233650137449,-0.32359140998979413,-0.6492301043832079
14.08,-0.27062596442212494,0.5480924207694058,-1.9658925463190497
14.09,-0.23181777515702526,0.17587775076619794,-2.0503830499209945
14.1,-0.48244944851139426,-0.6414979324597987,-1.0716905783620427
14.11,-0.5643771674619243,-1.4605454216901794,0.5537731301585583
14.12,-0.19988515852857625,-1.2470922632168755,1.5900301045248855
14.13,0.21429059619396582,0.34105053449955297,1.770228043103581
14.14,0.3452736106512502,0.5197403044435637,1.6000438229057785
14.15,0.013276701470304441,-0.29317545741489864,1.0597963836090867
14.16,-0.4031742713825435,-1.045999055289578,0.43707766325574143
14.17,-0.2926953320416221,-0.6847006589148553,-0.7250632567408738
14.18,0.1525061670896776,0.6853749332560888,-1.8954150806401335
14.19,0.31876417210852204,0.763603501438502,-2.0600909203530744
14.2,0.14317868231648934,0.6940519232735497,-1.7915387344337743
14.21,-0.0032698236123173473,0.9130424233275082,-1.1755802813838145
14.22,0.0977868400312217,-0.18792776484329274,-0.43997162756579294
14.23,-0.054548521132617635,-2.065975051592562,0.9249765290136664
14.24,-0.1896521105755237,-1.597953140979657,2.3203832535010958
14.25,0.28857582066829324,-0.7493415314114344,2.8578851220887245
14.26,0.713040346903545,0.36422794666128633,2.4898060947533964
14.27,0.6092959547329768,1.3107244338296968,1.2457894054576533
14.28,0.16417492778191958,1.5022111729778538,-0.8252379022835507
14.29,-0.4327013368269742,0.5894658887555835,-2.586635681104629
14.3,-0.8046936158318135,-1.2666710309944038,-2.7481081710273765
14.31,-0.5556856595628573,-2.0061819509995305,-1.5684103498930189
14.32,0.23961663204888514,0.16686378518702819,-0.1977530631448806
14.33,1.1233400502780737,2.7077674969845784,0.4322693254448227
14.34,1.1443758493780536,1.4828401616530265,0.5807626056811422
14.35,0.01157405198918818,-0.49083190187241266,0.6408308650410262
14.36,-0.8965453651403089,-2.22174245254273,0.8644559354421995
14.37,-0.7282927631462393,-2.5037888738935794,1.0916245049570688
14.38,0.10720105185003817,-0.08457220626353236,1.0472589976702658
14.39,0.9923371419374627,2.30981532289236,0.5861657158883242
14.4,1.1242184197570082,2.0954421621261625,-0.11020508268587904
14.41,0.33218600415910216,0.5744538838686776,-1.016630975909866
14.42,-0.5070858649388028,-0.7974012346883977,-1.8257253122655768
14.43,-0.6379613310515139,-0.941533239877134,-1.8746836399435611
14.44,-0.16023469257769174,-0.24132634580074033,-0.840679033759467
14.45,0.42729523278608583,0.5525541034374972,0.5440226755455367
14.46,0.7715129315597458,2.018934642726464,0.9379985642125834
14.47,0.7026940973966117,1.6202378400930642,0.37512986565875267
14.48,0.14823895875250903,-0.6925398303681884,-0.343308824234559
14.49,-0.5151124589112467,-1.8620809412634152,-0.3783232294523444
14.5,-0.5377843170065668,-1.7698421957727732,0.4065944106863723
14.51,0.07536992009727461,0.7608973853660986,0.9354765698547265
14.52,0.74369743611433,3.2986944294782004,0.6686922089800921
14.53,0.7454534530989917,2.1114282034706124,-0.02445977695061568
14.54,-0.11599411518952035,-0.5589159129863648,-0.5203041439666882
14.55,-0.8133099997759572,-2.7006709670202085,-0.2046916054482965
14.56,-0.5522824317451435,-2.607759616832881,0.18816652633300818
14.57,0.26653534957236563,0.42266344761687735,0.32325463342888555
14.58,0.9276689959235648,2.5608866167688022,0.306962447131523
14.59,0.6961997834479886,2.023487201295629,-0.04716825482808265
14.6,-0.28566243212682224,0.27047421084470763,-0.48869943081779355
14.61,-0.8754624884211786,-1.3143783554243864,-0.9668028930024607
14.62,-0.5617920603797897,-1.328436312429858,-1.0803639842000512
14.63,0.16527991329507874,-0.5579599347401615,-0.3591425094315868
14.64,0.6472535540490514,0.28337613022658414,0.7121682449595813
14.65,0.6798359160915387,0.9153131262348427,1.2555832891494656
14.66,0.35145816105407995,0.661362235259414,0.8917568380811537
14.67,-0.2555384554055829,-0.27418249591196603,0.4159692597381781
14.68,-0.7914305008489354,-1.0529032645628995,0.5754095853203749
14.69,-0.7293132009549166,-0.965256912060024,0.9632408642429151
14.7,-0.05049913652758798,0.8182859386773933,0.56874016556485
14.71,0.5909201973252202,2.412326027324021,-0.4187847781295679
14.72,0.6157221076048551,1.554066024052363,-1.4897717985809151
14.73,0.007864561130610284,-0.5945130994092117,-1.8591718317563095
14.74,-0.5466987141538759,-2.257071568875342,-0.9938811086685223
14.75,-0.3864915014638148,-2.1135054740084525,0.20212444212231367
14.76,0.31578822230339004,0.9504649261211033,0.8937017523464487
14.77,0.9047502163479182,2.9027666609628384,0.9319286993571224
14.78,0.5885918669779144,1.990597332281049,0.34407560785646324
14.79,-0.3884016505807388,-0.2295145122984786,-0.28652840135912777
14.8,-0.8598030707554944,-2.4330608042137567,-0.4817843479589995
14.81,-0.46015162731339077,-2.629473911891556,-0.11532364712845923
14.82,0.43125205895428215,-0.4213933473095707,0.5264051906396875
14.83,1.2678111912465835,2.5537401699829188,0.5549112746903845
14.84,1.247263008593624,2.872459543825699,-0.10579853672547741
14.85,0.13135347273801617,0.8098318980125142,-0.8774279741723456
14.86,-0.9596059461239616,-1.6981971845583494,-1.1134129818313232
14.87,-1.0525779112215938,-2.6059588936031846,-0.6121640030453411
14.88,-0.25717060345704307,-1.0259939260338975,0.5167180617165653
14.89,0.8843247155190573,1.2754276309705577,1.2735992000243785
14.9,1.4485449926592788,2.405599973083741,1.0305011451915718
14.91,0.9391406285239605,1.5665333003112756,-0.06249274590915934
14.92,-0.14429504725089035,-0.8260885853295497,-1.0413563255178895
14.93,-0.9171637218691585,-2.625622140690523,-1.0105708679230203
14.94,-0.8606431603797223,-2.299648963297192,0.08218893720094698
14.95,0.014129397328304545,0.478280992595828,0.9386358740313965
14.96,0.9857288923639183,2.6312085808230132,0.9481862281162668
14.97,1.0100594142652013,2.105250296462763,0.4446329987906652
14.98,0.07128948922384791,-0.051974499814376705,-0.1407274413444578
14.99,-0.7042089651149139,-2.4320930050010796,-0.24339858296032305
15.0,-0.5759268156893318,-2.4789712086176854,-0.2817840100632738
15.01,0.165108983339418,0.2518804039659414,-0.060565214422416185
15.02,0.8272864684069964,1.8250644015891322,0.216907054249663
15.03,0.7541525565625382,1.8588833513097702,-0.17056547514921433
15.04,0.04256733595569909,0.3096809942348163,-0.39391305871275134
15.05,-0.5728956214875697,-1.5293010750900935,-0.36400689741978887
15.06,-0.6340939017728502,-1.8457206496542902,0.03267833373002888
15.07,-0.101216417193838,-0.5476895713175242,0.6588048707395252
15.08,0.6207973009374209,1.606092952516553,0.6015179910982683
15.09,0.7785253060906049,2.1169037328459823,0.12584083005300595
15.1,0.21370334083788256,0.9565582152879796,-0.7866486978221989
15.11,-0.5407392220028107,-0.7614011840656227,-1.321797518987432
15.12,-0.7391880683654053,-1.919233014933687,-0.931183450516625
15.13,-0.27637046518237374,-1.5447729699942598,0.056676401089434635
15.14,0.38724327948308795,0.39510514085517145,1.1573631352673963
15.15,0.8476945599791311,2.098288001062465,1.376655724099134
15.16,0.6645877969972792,1.3836308913910684,0.9060604427622105
15.17,-0.1868736819989811,-0.5041850244274955,0.425299633932391
15.18,-0.7564261729728226,-1.7944904483595705,-0.14374067427016174
15.19,-0.4614189475378747,-1.2116410718195303,-0.7181279969578718
15.2,0.3227077931725318,0.8225317273751465,-0.9754301990413649
15.21,0.8437216420978086,1.3746935114900285,-0.862938228315324
15.22,0.5668498687886978,0.5525400792272374,-0.20168866694222257
15.23,-0.03727724020828812,-0.9045981832321875,0.640758237461953
15.24,-0.3335837030540711,-1.2948347690679711,0.7823536499606836
15.25,-0.21199182096525335,-0.3243043250199971,0.7934661035928867
15.26,0.19135955479449027,0.6874224368013357,0.6070657745363747
15.27,0.28886093194393103,1.0570574309263523,0.468899657705298
15.28,0.09337697664704393,0.8444174123571704,-0.05446612133552349
15.29,-0.012035445056374494,0.46598521025539796,-1.1143790771214013
15.3,-0.0018472417354060298,-0.5838459647510372,-1.478202811867218
15.31,-0.05433641237314348,-1.3865779291508704,-0.5754330201006265
15.32,-0.04669681498629619,-1.07490886972476,0.8668877716538966
15.33,0.19032061341698633,0.17076479871471292,1.7151330726150669
15.34,0.3896737584787701,1.9586419994132056,1.4185860368455132
15.35,0.21543018870990932,1.9360649770957592,0.2759942233617103
15.36,-0.4236672085661583,0.5611965400672069,-0.910379536982034
15.37,-0.8817499053309068,-0.9289778376924855,-1.2836053444510391
15.38,-0.4979794185867302,-1.3662373689111387,-1.3101228130938152
15.39,0.342902458641753,-0.017040419818140987,-0.8221031030661565
15.4,0.9586960763199335,0.4277936515133849,0.10603118556740897
15.41,0.8280192265480029,0.5922435096856346,0.6821600102467626
15.42,0.18185779127113982,0.04305455802512304,1.1251170119721619
15.43,-0.4045276685717559,-0.552606793323679,1.0050655798125228
15.44,-0.6877859460958374,-0.04396266916494672,0.48327570154604127
15.45,-0.4453248510168174,0.6530353449615316,-0.0639247981639601
15.46,0.1247958353022184,0.8296215874497229,-0.7492854596784069
15.47,0.48330620238306005,0.4118625069822256,-1.055480487079021
15.48,0.5255554012205182,-0.22387176501363187,-1.0747241835725125
15.49,0.41487032528306805,-0.42339472729979666,-1.0283404091718675
15.5,0.2537351121164111,-0.41641769634853054,-0.3712981967028238
15.51,0.04755235387515701,-0.6034633652331747,0.7990797969998781
15.52,-0.08810700631977729,-0.024262051596366466,1.587490605197158
15.53,0.0756208465049231,1.7203394527895197,0.8910197307932226
15.54,0.26309410579933573,3.2384419548564707,-0.716344588504953
15.55,-0.07442585379889607,-0.5191850610778174,-1.9503815571413294
15.56,-0.693413976720728,-1.8340263618162438,-1.0031689516715916
15.57,-0.2763763525428278,-2.788092582350997,0.6832539752865373
15.58,0.6908819064926004,-1.8580981363219546,1.9134038223259706
15.59,1.3532908244562956,2.6551578361123784,1.4459052936222396
15.6,1.4078996898392682,5.971268466215468,0.23187192589938216
15.61,-0.002729544057687375,-1.5454622628609316,-1.9264115003936753
15.62,-2.0224900592769406,-1.011082263476003,-1.617623469093799
15.63,-1.7408129813362048,-2.1004744979054917,-0.22991829708663805
15.64,0.0517532312298575,-2.0192922517552883,0.9027164276828428
15.65,1.186827946775873,1.5699403821203552,1.808889587595423
15.66,1.6901706142708008,3.0979330738196107,1.826172335533909
15.67,1.4173425552404881,1.4490151722125528,0.28910767866957854
15.68,-0.19988875740182926,0.3520715072965163,-1.2406236488054514
15.69,-1.5732450878023987,-1.4417264769275646,-1.7214292772468023
15.7,-1.7372912082141276,-2.136232006201318,-1.0372843638485751
15.71,-0.9137188077642957,-0.43279903493941774,0.24030676484543173
15.72,0.4966828560149192,1.5124485629702547,1.0573315656469264
15.73,1.4969745900831353,1.9666064845833915,0.9477693317365475
15.74,1.255406414836954,1.5848163580502326,-0.1558405771415488
15.75,0.15995805943278485,0.22766581170674646,-1.6216825554928251
15.76,-0.904971274513726,-1.634275663506852,-1.9819703172707799
15.77,-1.281328611178398,-1.9244639129371726,-1.1342110972473216
15.78,-0.7743031001399869,-0.1688653547642188,0.45695298186763034
15.79,0.31599002535995496,1.4826250489796116,1.1178523097128763
15.8,0.9600926904428946,2.942232760636972,-0.08469032702675817
15.81,0.3921993156694181,1.3162848618901222,-0.6812629074977488
15.82,-0.6756356421332,-2.0245107741514605,-0.10582698506258556
15.83,-1.3027690075832106,-3.386340949957728,0.7775221040084597
15.84,-0.8744774289503782,-0.3685095623451457,0.7814924651798927
15.85,0.3361167193409286,3.3453795043728376,0.23690023319633652
15.86,0.8080392480795004,1.6472051834438735,-0.8061249341678356
15.87,-0.10021677378054154,0.34786919807213096,-2.2175936373732723
15.88,-1.0483105362794756,-1.3417829248585473,-2.5424967248322465
15.89,-1.0281893418693453,-2.3787745829421256,-1.998352311121116
15.9,-0.4094123591973055,-1.1392733620426743,-0.6031530038934265
15.91,0.37513946808388293,2.8208168375682097,1.1976049758210583
15.92,0.9954862204511877,2.5472973089003896,1.1367982656364086
15.93,-0.19529819264859732,-1.4825419180881465,0.33858236570500605
15.94,-1.4634219332148797,-0.6205812848215092,1.0434650870852444
15.95,-0.7535766637436145,-2.056524326527942,0.7527602976337703
15.96,0.28944457284117164,-2.018931733781777,1.0031357667714043
15.97,0.6322913875949004,-1.680260953656294,3.0970585172215945
15.98,1.0283933618619236,-1.8184506410459385,3.9553924031684646
15.99,1.207210788735368,1.518159120682883,2.1256566937121963
16.0,0.7431484988313433,7.392765726109334,-1.1338304652249858
16.01,-0.9248604952812897,-2.0529180609225532,-3.6418156841505476
16.02,-2.660946110568082,-1.5519102498462258,-3.8374849346703663
16.03,-2.0849559427529334,-1.1527470898973164,-2.0994537549479526
16.04,0.3224255981491498,-1.5802123943940816,0.5110034221983136
16.05,2.0929095285134736,1.2621739702701227,1.3710257839515536
16.06,2.269381853869303,3.2650421924349633,1.8960461284571177
16.07,1.1961391543103177,1.4902850713258573,1.8388419008419152
16.08,-0.7117134482132503,-1.7730128504443503,0.5885363892699993
16.09,-1.834944587001832,-2.5084003398906387,0.955410892440129
16.1,-1.3877804184525697,-2.4242261213631746,2.59219381088865
16.11,-0.1595905549057589,0.7080002451940252,3.3961614827641995
16.12,1.1096517203855791,3.8481324846720257,2.4203887259152337
16.13,1.5305862321274233,2.434973316133901,1.2973543221024497
16.14,0.7461931265924795,-0.745306961780104,0.409705468807487
16.15,-0.15063867073565732,-2.289982690411917,-0.8741838265504152
16.16,-0.05585209523865779,0.7138444495518715,-3.96225627900462
16.17,0.2431553277078908,2.936613185445941,-5.579326148708686
16.18,-0.04129720989393941,0.5493030772955694,-5.810808301559388
16.19,-0.7731540830360989,-0.30720426577141596,-3.2501078521809315
16.2,-0.4522106968305578,-2.164351106125758,1.5042140081691904
16.21,0.731104119926429,-0.8496132029284191,4.421365922195003
16.22,1.4403084158999537,1.1044200206724157,5.586505645130041
16.23,1.226802869285183,0.9051617582386328,4.696612436108601
16.24,0.1913657072178521,0.1265625251974655,2.757665329063431
16.25,-0.7049276824440199,-1.0660817628006787,0.3632908104608496
16.26,-0.819152719614674,-0.9083592083484734,-2.05277439062591
16.27,-0.060613047480258614,1.123939288281455,-4.231497032534837
16.28,0.7949340969909736,2.2993884116074943,-5.348345361604488
16.29,0.8973152803333622,1.1113122307422334,-4.809502533880133
16.3,0.38893442687848373,-0.19933605685738945,-2.7230175391599554
16.31,-0.10446097775345758,-0.6164948858788274,0.3422361071163346
16.32,-0.19635669087581387,0.12764335838913302,2.903674155313429
16.33,-0.09348743547916884,-0.30167691161172855,4.247770754044038
16.34,-0.06382384465817263,-0.4941846760641919,3.906203777133175
16.35,0.08091332699420217,-0.299121736186541,2.4886681584484958
16.36,0.3048010313478978,-0.5913030614217436,1.0369354172654293
16.37,0.3509991690046574,-0.5646349473245661,-0.17831083564747363
16.38,0.2437358557979295,0.4360876719675091,-1.4945880138383096
16.39,0.11523155129941587,1.4766442736555039,-2.730387419798243
16.4,-0.11316073649215166,1.1859575429921676,-3.0020862059533844
16.41,-0.3875128438148263,0.5502875184115978,-2.0354842756407465
16.42,-0.3870487162147606,0.6861577288928634,-0.42605369314817537
16.43,0.010318889428969856,1.0252937293981792,0.9117967345447033
16.44,0.27812844927391817,0.9714352504743325,1.645599214038886
16.45,0.12108846158380512,0.5983245276762212,1.7126063439245025
16.46,-0.17086197660431768,-0.39622386799265447,1.5709395364255914
16.47,-0.2556726484409174,-1.1230765993697471,1.3041131650382147
16.48,-0.16228725634375804,-0.696805477567232,0.9044432255581629
16.49,-0.03682524668536041,0.6475533888570583,0.26235218170285757
16.5,0.017136015839498177,1.3455840000893855,-0.5700216923548204
16.51,-0.15625999945960423,0.7150301544094879,-1.237268964695164
16.52,-0.48445477970545303,-0.14751745270095423,-1.5921428446684556
16.53,-0.5604993967722433,-0.33538494839847227,-1.7139384477704667
16.54,-0.3664912617179631,0.22127842255365449,-1.2651667932306463
16.55,-0.20618557111211877,0.363736558806306,-0.2447397443204577
16.56,-0.2830045624532227,0.09494963685075282,0.7628937039639636
16.57,-0.4569755058514413,-0.019175261337176983,1.203352827459294
16.58,-0.5512605474226352,-0.48339877626313066,1.0367605677037846
16.59,-0.6392811646804646,-0.457054036464726,0.6516156128220034
16.6,-0.6661289981842698,-0.09681984076623174,0.3084013598160572
16.61,-0.6313304235213223,0.4958637757864936,-0.13112235544715112
16.62,-0.5892380575107476,0.7381889300357467,-0.45357826602087337
16.63,-0.5435216240201152,0.18423202009743933,-0.4662492649995992
16.64,-0.46078173218935464,-0.5035601836595215,-0.3263683293074117
16.65,-0.319624712138171,-0.581961993279369,-0.12585899012773286
16.66,-0.19675929778164541,0.08397548136571692,0.04090002150392508
16.67,-0.146481845758113,0.47435906801895805,0.2920230932918662
16.68,-0.21480929169995475,0.3419024200157511,0.3870099770732316
16.69,-0.39566517664105816,0.16768889704632042,0.26737642553444185
16.7,-0.5158389821436644,-0.06792797493212911,0.20382242256803038
16.71,-0.46576002917354936,-0.13404965057173304,0.08147357875692945
16.72,-0.3179843156791274,-0.004381015939217747,-0.002597583662190883
16.73,-0.23540120438296505,0.4309793723538222,-0.2044424345127671
16.74,-0.2929127931199782,0.656243461545985,-0.4566453417833807
16.75,-0.4109714740599411,0.03067217817965934,-0.4283177634280166
16.76,-0.5161268755863966,-0.6564907324091173,-0.21461078578557868
16.77,-0.49934899207856803,-0.7185842034890806,0.04400599819924817
16.78,-0.3488484106971285,-0.23804527712067022,0.16865033085875153
16.79,-0.2769928421004734,0.1537108799439716,0.24053577362477999
16.8,-0.4469436554361613,0.02511041545358789,0.3453956002876431
16.81,-0.709469939518256,-0.3836800220794268,0.2303383150895475
16.82,-0.8055451438320559,-0.7488938174509726,-0.11092580540646625
16.83,-0.772152191063588,-0.6922539981269897,-0.32428774108702235
16.84,-0.661168283444672,-0.525068491262492,-0.21979731329923458
16.85,-0.4792042723468101,-0.49104988574982,-0.14630019395830499
16.86,-0.4173818974163292,-0.21104099595949577,-0.3568804076283292
16.87,-0.5159170512004105,-0.4391661911445832,-0.5492440869338362
16.88,-0.7239418416712292,-1.1379478841454502,-0.36627466763000543
16.89,-0.9179009773597891,-1.2829710661247202,0.25506183239357694
16.9,-0.8000722037718081,-0.6039137269134313,0.7087436878721555
16.91,-0.44116810499360537,0.1716938630543786,0.6930295743663616
16.92,-0.22959030868205926,0.2143946126209538,0.44094144497478194
16.93,-0.27533355099949913,-0.44873919767326576,0.1932007147540793
16.94,-0.3551523441919246,-1.2068538396824862,0.1736974692309082
16.95,-0.23199218376995204,-1.1309572175217377,0.09783671446121037
16.96,0.030291606055815035,-0.14063148249325233,-0.09404184355162243
16.97,0.1974903339772932,0.8399862529394759,-0.3762835392900231
16.98,0.10029599202338595,0.8722850900716624,-0.4903037397865858
16.99,-0.12094484016584058,0.09557701588924043,-0.41780141953897726
17.0,-0.18991707865128177,-0.3938011332062945,-0.5256943910771436
17.01,-0.038989878517507306,-0.3528913527087027,-0.46018249266420796
17.02,0.20164718842831267,-0.21822946794770823,-0.0672758194547199
17.03,0.3062311030130602,0.015645191638073656,0.3517035613014711
17.04,0.2629801500721916,0.18833392736900023,0.5306482040426153
17.05,0.14888424227696498,-0.15194545590750946,0.4852993873260603
17.06,-0.04695647645194994,-0.7004038490338286,0.5045682096519754
17.07,-0.1572020223233324,-0.880232453061213,0.5241803477910624
17.08,0.0010864013858061029,-0.58831771464755,0.3153652639814942
17.09,0.20299399155699338,0.06515983849417888,-0.06041112828185181
17.1,0.1626281114431702,0.45272320215806183,-0.4002801686974259
17.11,-0.04638669259593051,0.020979692652626152,-0.5470759765753546
17.12,-0.20768177832474677,-0.6757242951533874,-0.43169117863888795
17.13,-0.1325047460745038,-0.6277802058548988,-0.30084306435408226
17.14,0.16847814129764335,-0.19732822697411623,-0.1921944146735327
17.15,0.33125419869008754,-0.21628138659367088,0.1218422792124147
17.16,0.14832472449973877,-0.26834680558200774,0.46745502454384413
17.17,-0.10824004786614101,-0.3951068731283682,0.6913112829181748
17.18,-0.22528203293378132,-0.28471345007974647,0.578321655176732
17.19,-0.1951310496994322,0.0942349075681213,0.19234530978152695
17.2,-0.06973580406831233,0.11228070275792013,-0.07511347335879227
17.21,0.09018784523212285,0.0023585642098527954,-0.41628976336367207
17.22,0.16934789601550423,-0.24007844151280014,-0.4530630471849125
17.23,0.16370458865296084,-0.4169624052042396,-0.27919217085332676
17.24,0.16063493088823066,-0.21374105170280214,-0.35864090422176736
17.25,0.11033755185841146,0.09586176078213497,-0.2990271221478615
17.26,0.025770628183656014,0.32443834937944244,-0.173406954015357
17.27,-0.11400045447040054,0.048141368155447055,0.33343215365138107
17.28,-0.11429430425030707,-0.32138542734722264,0.70056363777199
17.29,0.07099416175910393,-0.18303711089071514,0.49529141908607394
17.3,0.22873889155538146,0.33527130622574064,-0.0002797333480094753
17.31,0.2122960398270369,0.40528297283567416,-0.45292539888256084
17.32,-0.009694682380588694,-0.21912013097134447,-0.2863335151970791
17.33,-0.15729841782786272,-0.6902590632715864,0.012250831457160851
17.34,-0.07255570773467339,-0.3085102882749487,0.09183339554765575
17.35,0.17263609404557317,0.31736917837999545,-0.010376027354847866
17.36,0.23914978101274065,0.13803102594277422,0.06564932489341065
17.37,0.02648789977207025,-0.35481966209673316,0.29247568604257684
17.38,-0.09595472275061018,-0.784225577944929,0.35982681034972375
17.39,-0.05891698029157943,-0.4917095803654053,0.1808208960569267
17.4,0.03430162201618342,0.11784326725623323,0.017698066856228743
17.41,0.07105994549601471,0.4753756745873824,-0.15576640431406272
17.42,0.006680705968768352,0.5122467367375658,-0.508406568444858
17.43,-0.09610979025104491,-0.07891946221998403,-0.5954723416035655
17.44,-0.15964874088775868,-0.7423179870851352,-0.23007399908398882
17.45,-0.01619668871919115,-1.0312401310488815,0.3309583928641139
17.46,0.18376149632222116,0.07177801868171911,0.5945069700734965
17.47,0.2911304966442795,1.2444950741522924,0.48380930168804553
17.48,0.14840111023489846,0.24493741342253686,0.3804053691714241
17.49,-0.23456550151671968,-0.8111904592044403,0.17056710937511693
17.5,-0.2962044919107707,-1.2368859818768327,-0.043069377512543916
17.51,0.06525126614501536,-0.8170905502104876,-0.1458587058613003
17.52,0.36687007850514186,0.14903201097920965,0.06331988128524656
17.53,0.4015890201428322,0.6804497662205627,0.13492153739855486
17.54,0.13965960440042688,0.7650556388262314,-0.30874839483159633
17.55,-0.23397785814574065,0.20992669850158835,-0.6955157152565348
17.56,-0.42432439910756947,-0.5946755211808185,-0.7825864290166084
17.57,-0.3374327388827695,-0.8881245658008406,-0.25546178115490675
17.58,0.09234168341507903,-0.28535827692145294,0.2465534694514088
17.59,0.5522935171313684,0.29199607572481684,0.4748155426210023
17.6,0.5439600265284147,0.15400629103180818,0.6396270619552561
17.61,0.025817630415417188,-0.21971602899199283,0.7225506695989652
17.62,-0.34683440742758065,-0.6945832689439706,0.3676954947377235
17.63,-0.43316154845208504,-0.3849205941543946,-0.07423074229837444
17.64,-0.19673999221088248,0.3382342842561876,-0.6076841609529406
17.65,0.0975589409954946,0.2747002824196166,-0.4973821253063079
17.66,0.2855852055144052,-0.0006972137532117919,-0.5143388527347386
17.67,0.3562155094436949,-0.5040720114014597,-0.5149225293303652
17.68,0.2714104448714429,-0.7143512464083698,-0.26516910778980457
17.69,0.17258647540089944,-0.5485307144708029,0.1364284353683673
17.7,0.11949500834342139,-0.42751388019093034,0.9345476485357176
17.71,0.1992386059732873,0.12472503302119911,0.9560027092078109
17.72,0.3297426970076725,0.5732251880899817,0.28448691737883075
17.73,0.2738757655512242,0.47279567830933733,-0.41258611952182356
17.74,0.16881537827298065,-0.307460677306642,-0.7539035067589365
17.75,0.14031864979384534,-0.865617263950156,-0.421880291870665
17.76,0.41928886179502806,-0.563847746763565,-0.09846402229839339
17.77,0.8859618368877467,0.09378706861888898,-0.012454860461430265
17.78,0.9514369659771693,1.1399082897071429,-0.06658496966081133
17.79,0.5948940123675166,0.7578862042771219,-0.14067456040614829
17.8,0.11649108585800355,-0.4407062918090764,0.00510718261234728
17.81,-0.04209521687262562,-1.1987387313576923,0.23805910912902203
17.82,0.18405800218738816,-0.6990647547615761,0.5478130781516035
17.83,0.6686723418995135,0.35698042986562734,0.7059538077438335
17.84,1.0045929287272883,1.0526909105210873,0.42650715927106997
17.85,0.8370130260000996,1.026191254849088,-0.2537389674206906
17.86,0.4059013717434387,0.09565956725832798,-1.0392188459754272
17.87,0.0189770225677681,-0.7495071237707593,-1.212581448111036
17.88,0.02112994580647277,-0.7290770426458724,-0.805614776522958
17.89,0.4034692775814807,0.6938401555448097,-0.07299991901251075
17.9,0.8541460339281648,0.6349177040017155,0.6518740314148396
17.91,0.7531500480202777,0.26366301455938507,1.0997733341664722
17.92,0.40168736966002766,-0.23847899191134442,1.0638147910919873
17.93,0.23901394083957664,-0.7737877888743231,0.6616988661400636
17.94,0.1704760332576418,-0.2165340415015321,0.1969440376934447
17.95,0.29255715247456937,0.5460526327015686,-0.3231299752328116
17.96,0.3800042158485218,0.8168928920667526,-0.6711909108327981
17.97,0.2745330667575275,0.5713023837874653,-0.6560911082837979
17.98,0.2665249758020658,-0.06151524783770972,-0.6214594301960409
17.99,0.3394571814102746,0.532572724922112,-0.7699242381125518
18.0,0.4844920398938992,0.2144085416787555,-0.3709528625902819
18.01,0.3852652467563472,-0.8086455687434473,0.44269746319693926
18.02,0.13478757318916035,-0.7099326543395064,1.2575119660313128
18.03,0.2764811455852696,-0.08651656923615846,1.1512601194851082
18.04,0.4405199761415689,1.031419070104698,0.3608780963351748
18.05,0.32471936072545554,0.8243922699288377,-0.30929738985158906
18.06,-0.020203323324388713,-0.03983309232615739,-0.6186728877921653
18.07,-0.164117541500922,-0.7438680056996401,-0.5180506478862026
18.08,0.08497727390213233,-0.416089260850469,-0.34930519375399904
18.09,0.4560415147353572,0.7653086494763554,-0.23563018550562329
18.1,0.5032122946358766,0.570581513008812,0.07890989357129051
18.11,0.14825563106892004,0.10811610844838464,0.3764308116378372
18.12,-0.16257074824110362,-0.3893712922503621,0.5018982292084145
18.13,-0.1970132835500197,-0.30066968591675436,0.37836868367933263
18.14,0.021624912963706527,0.1864710939376853,0.0720571743418495
18.15,0.13311711746224425,0.6706275844164971,-0.14155617444299265
18.16,0.10925003362593351,0.4854940580143407,-0.1906596864988082
18.17,0.03936715709332335,-0.06362899294321192,-0.2186865610193503
18.18,-0.07172752861083365,-0.22852062065776105,-0.12877983202705415
18.19,-0.06510885663559171,0.15205143152502704,-0.19577096318783097
18.2,-0.01929963919280426,0.5074667959268037,-0.051217814395427004
18.21,0.028057081814500163,0.4240216882182638,0.10689494103785598
18.22,-0.025805680041508957,0.04333535276200065,0.3610244044952152
18.23,-0.05700285259859962,-0.2393896731425435,0.42991422196712625
18.24,0.0025749972768311763,-0.0417519427216922,0.08777699635532904
18.25,0.05044384755428613,0.22002458474969053,-0.12387628323291812
18.26,0.06699297686397744,0.2769024238070847,-0.2948100223530761
18.27,-0.05484670699299549,0.4878615479392747,-0.3693134958242437
18.28,-0.1318785660022668,0.8658301945850443,-0.5769677630767541
18.29,-0.10481179454497236,0.29542185620742367,-0.6122805953346395
18.3,-0.11644294170709617,-0.6821392657345382,-0.004500852235201864
18.31,-0.09217933234263738,-0.7427163667057101,0.653678537867976
18.32,-0.014083695792141488,0.3864833671932189,0.957452167266963
18.33,0.15648033967901134,1.3990155634155557,0.535957688030243
18.34,0.021612643435069922,0.5957229677999609,0.038850878108549994
18.35,-0.3840212107935542,-0.2777144986838379,-0.23332531365042972
18.36,-0.3910350325213519,-1.0105494961847168,-0.305967561804571
18.37,-0.0543249003034166,-0.7654626150708974,-0.06925602517058128
18.38,0.3426368200955007,0.36929811752934777,-0.016927898341339
18.39,0.45604235754612954,1.4109718085652612,-0.20678704853249127
18.4,0.13621888573585608,1.43482008583288,-0.46622545857797754
18.41,-0.3402578252211177,-0.23004690353717777,-0.3486723184053101
18.42,-0.5480488194240652,-1.4114256341262985,0.11776591529321437
18.43,-0.16746911607886272,-1.0664092831146124,0.4880834821687486
18.44,0.4715235025249626,0.40276882511374806,0.6364190121227157
18.45,0.7571543640445988,1.1578865530580267,0.5881789588205779
18.46,0.3864566888740893,0.7388207279573614,0.4161422377494806
18.47,-0.24998924532808647,-0.3199382020602176,0.22464765423654615
18.48,-0.6079354204928101,-0.6997146921305331,-0.05736732420238657
18.49,-0.4523440691846399,0.21916970547144102,-0.4967563073850955
18.5,0.0638964607727898,0.9888712938781241,-0.6386579836406657
