seconds_elapsed,z,y,x
0.0,-2.671112060546875,-0.404876708984375,-0.3578338623046875
0.01,-2.034875888835688,-1.1349620613276974,-0.7353597023171733
0.02,-2.028783465809527,-0.5887867800360735,0.2735289726495192
0.03,-0.38996833914290846,-0.17538608134484934,-0.014514288747315026
0.04,-0.4505006521852212,-0.35145121067923796,-0.608466308725547
0.05,-0.5639172053135463,0.12491797764726124,-0.37676729303678247
0.06,-1.1241457042775787,-0.38430613991947815,-0.7522073714151476
0.07,-1.1905622963159967,-1.2999339853053853,-1.331439647483782
0.08,-0.8075820570349196,-1.9173313183531113,-0.42080010969277126
0.09,0.949195778359142,-0.8734295992019501,0.21619785263550487
0.1,2.348263198038812,0.6245546832338997,0.4459440776513817
0.11,-0.06177325414264125,0.540313829972686,0.4248346392727453
0.12,-3.3575086183869507,-1.3266727386887167,-1.3517084284485315
0.13,-1.4018410440958053,-1.933799245005482,-1.419745381237011
0.14,-0.4032476533285546,-0.6165209636386584,0.5111124931718855
0.15,0.03084530323452873,0.9032310163076613,-0.01412000589462547
0.16,-2.316976163170836,-0.11424736743101285,-0.9308296194445331
0.17,-1.9413810957319635,-0.027473482450812492,-0.8799665747387662
0.18,-1.5997863696187449,-1.2206233422942794,0.017619461364843592
0.19,-0.7317192185412409,-1.543642113670698,0.3764903323193099
0.2,1.434964423533695,0.08723836827882851,-0.10571164026652285
0.21,1.92355463211568,0.14771873226208151,-0.45439230352291254
0.22,1.328898144909651,-0.2705917493113642,-0.5967545265165975
0.23,1.167080809421262,-0.8784741361819026,-1.0922116883390005
0.24,-0.6309093365324768,-0.6818637859127167,-0.6670479687471336
0.25,-3.7979213263197362,-2.585062523052031,-0.8215413629754337
0.26,-3.8380620854066803,-1.1960035541349439,0.48022798358383345
0.27,-2.2988075905975034,0.48503568318873874,0.4145316261858803
0.28,-3.3312149979641017,-0.3192397101340674,0.41171843252020224
0.29,-0.2653194226716596,1.4186056036700347,0.24510514108770615
0.3,-0.31806425823163176,-0.05987905346777092,-0.6561387771802141
0.31,-0.1647986537722823,-0.6726110987593574,-1.4063809476022475
0.32,0.4639185779040127,-0.25801755604592996,-1.359477914404496
0.33,0.7875522705581075,-1.282476419557735,-0.5501119783164694
0.34,0.6219986629896413,-1.7203093737726343,-0.15372594144582882
0.35,-0.016472700774727952,-1.3252991178409865,0.30922536598094785
0.36,0.15127691157010556,-1.389125042624371,0.7926550512105455
0.37,1.0645669536501643,0.011109677612873941,1.0095845427093177
0.38,1.1832965170223424,0.36039406444882927,0.6431199832171725
0.39,-0.9213910723092497,0.4819516804445801,-0.14300266443222995
0.4,-3.7847719826792035,-0.5236261220733129,-1.533871862311556
0.41,-3.00431618920284,-0.5722783855015685,-1.3139698537974958
0.42,-2.631436604482644,-0.36694362581249146,0.5114544080195983
0.43,-1.102572778469214,-0.46609999059852325,0.3515861933952514
0.44,-1.605520114820373,1.0705369859905465,0.36982940462773406
0.45,-0.4969894250137354,0.2496595353459149,0.3478418908040546
0.46,-0.1324204655752648,-1.8417018720488432,0.2074037184780008
0.47,-0.03827986961403749,-1.9281353223600497,0.059893066424280834
0.48,0.16494793486835818,-0.9861344286380563,-0.32429014029667375
0.49,-0.060615106349571596,-2.142708724605393,-0.6262223771718626
0.5,0.4844215034572833,-2.250561108887839,-0.04318567956703106
0.51,0.5205114284919008,-0.496787643208231,0.9201223396988247
0.52,-0.4397016962718143,-0.03915182768136033,0.8272583493537924
0.53,-1.447710667089177,-0.24551159024312835,0.4605105645082024
0.54,-1.3277450331010066,-0.14075216405972182,0.544034064646349
0.55,-1.1184419766497693,0.023919466958505532,0.4736172603015272
0.56,-2.6583478395109355,0.4970251588183798,-0.155133420073238
0.57,-3.092656415405005,-0.01985782625624161,-0.9664402302286733
0.58,-1.2666596846624574,-0.9990742251597234,-0.4324833671641134
0.59,-0.6733291396223375,-1.1166064584990751,0.011568820741425784
0.6,-0.028240866197092037,-0.41552545712601147,-0.20896779171913984
0.61,1.1098817287609648,0.2503516257433748,-0.24061143006235045
0.62,1.4468605847011105,-0.8319917204743286,-0.051347790220524776
0.63,1.0693689663402441,-1.3108492323002567,0.1369371209075889
0.64,0.4226935540439638,-0.8706979072616212,-0.01855707277336975
0.65,-0.32344697320216276,0.3570954321130919,-0.10186666990458797
0.66,-1.4618327217130564,-0.7039361076894113,-0.32284179950976993
0.67,-2.2432715408494377,-2.7622116455211065,-0.124013570945579
0.68,-1.692265245915973,-1.021451595266836,0.1335576397155424
0.69,-1.6027547736388656,0.1692218948912239,-0.17645041054313795
0.7,-1.7949486070693796,0.2625217280575194,-0.13050477954255563
0.71,-1.1216131382089622,0.15091561064321374,0.1094973767905512
0.72,-0.8413327181314167,-0.7610643938414359,0.0061244535130580355
0.73,0.11009931087195528,-0.738079597932625,-0.11324174726431352
0.74,0.8676411118114016,-0.33185100723854705,-0.06977474631020048
0.75,-0.9661344414753624,0.3128881308291855,-0.32088116354013047
0.76,-3.889174002022039,-1.8136084745364938,-1.1238143872999915
0.77,-2.1292766525672775,-2.4419776221393636,-0.12368138278809289
0.78,0.5082428009948363,-0.5566747004547183,1.0366719488956753
0.79,1.7546523013134216,-0.31445042426013403,0.3167666193753544
0.8,1.176587614284704,0.6899969581064167,0.36779174894493644
0.81,-0.765503831555775,-0.8015398840603725,0.048429792955205685
0.82,-0.9154711956572023,-2.09989309971632,-0.9734477435992351
0.83,-1.4372031315110256,-1.2027420202985903,-0.7055748003617628
0.84,-1.8646635483872296,-1.505319650538624,-0.0766517469251471
0.85,-0.4920898952438682,-0.021578739686858223,-0.18035694671871103
0.86,-0.28080736415010726,0.3028749865115075,0.1844630182691445
0.87,0.2579821931224683,-0.04172313598717121,0.7309974456725237
0.88,0.35543110147539425,0.8975962039558967,0.5106424410625076
0.89,-3.092437187315193,-0.35648233235172083,-0.8526540826948742
0.9,-4.491924018302522,-1.4554725870772194,-1.262978761011201
0.91,-0.8836167644827054,-1.5455487101710803,0.07521867912274859
0.92,-0.5249091259329163,-2.0911244633197734,0.34598302813130427
0.93,-0.48503924342318677,-1.1810237621831814,0.31789930095511765
0.94,0.2046959034668869,0.7965972630953432,0.7709070759767229
0.95,0.6978037761282533,0.14354109560617592,0.38345487361270403
0.96,0.3539767281226761,-0.5292516202815742,0.03329041772715326
0.97,-1.0883251187934557,-1.5125895719651024,-0.14277260495735916
0.98,-1.9513142598034239,-1.6828359710305183,-0.5446686183944848
0.99,-2.0168489093566517,-0.24069802686710756,-0.8019612970739434
1.0,-2.5555908917117027,0.039331880718782006,-0.5282516344777565
1.01,-1.9738731260791753,-0.5810573473847965,0.2243539328570584
1.02,-0.5966640413466461,-1.223648586652146,0.738105036249211
1.03,0.5460403012787317,-0.5391795001407265,0.5642631823394725
1.04,1.2283669016713947,0.11352806778939273,0.34452074641466846
1.05,-0.025490447199265225,-0.41460336994401714,0.13479861230395052
1.06,-1.3224202565018126,-1.241718065178707,-0.8317032094236543
1.07,-1.381803163754151,-1.8582054062403341,-0.8025118387998109
1.08,-0.7775861458867768,-1.570346213645666,0.2861784331804463
1.09,0.2963547051166389,-0.3815490126181929,0.30476962624022075
1.1,0.4372068740780506,0.08375438921740357,0.33163905889241724
1.11,-1.0060702849571745,0.21907087614892032,0.570253023466853
1.12,-2.2370604690411944,-0.4068321424294159,-0.16366212639354338
1.13,-2.69873231266369,-2.2149828305760937,-0.30053320448445175
1.14,-1.4613604188912979,-2.072251823830982,0.1685257216225522
1.15,0.5561861076797204,-0.526906158990113,-0.3568794247679759
1.16,0.640271772710365,0.015671241498879253,-0.35867859720450634
1.17,-0.003722330604338277,0.20926060679490724,0.16427910370299337
1.18,-0.25093354181561695,-0.593770584546026,-0.21961480466786112
1.19,-0.7339270227466547,-1.4722612389448926,-0.38401848214180084
1.2,-1.0119272158104624,-0.8335011948565643,0.06357252444319517
1.21,-0.9189070201431735,-0.661529100933658,0.27807680318283046
1.22,-1.4151741190238014,-0.5894592192353065,0.2846801238408975
1.23,-1.4280982733195073,-0.309224038351408,0.1494164727869831
1.24,-1.0654861515683833,-0.949556863809175,0.14598990640924067
1.25,-0.5778144185986132,-0.7014633473619399,0.24036338384749953
1.26,0.22384429506532064,-0.47119859108294815,-0.012615120782756
1.27,-0.09067024828190508,-0.18839002118668147,-0.10345969107518246
1.28,-1.152928645299323,-0.9304811665937749,-0.2958158622848699
1.29,-0.7270359247468389,-1.5771244706295249,-0.3684495693186078
1.3,-0.2688387760276501,-0.45876481122319485,0.11439687236536615
1.31,-0.9475734508717165,-0.23271942980613608,0.19864065604973333
1.32,-1.2391341882768385,-0.4024255855530855,-0.04496734110899448
1.33,-0.6747161748482216,-1.0457261511920533,-0.03731108731516722
1.34,0.19785446269890555,-0.920685493661159,0.2735938835962092
1.35,-0.06039776568060185,0.425992863962219,0.32905216012635635
1.36,-2.3714061700944886,-0.611171075558085,-0.6924490333391548
1.37,-2.6085346873799917,-1.6875863036899683,-0.7678361480696101
1.38,-1.2217402200308032,-0.774542632141547,0.4495016459503719
1.39,-0.2130990492742444,-0.9408634372047838,0.3770593602542295
1.4,0.559964376200328,-0.4452857672754907,0.20348819023981687
1.41,0.3977388430980604,0.878596304537233,0.5571536415343459
1.42,-1.9553632910208412,-0.16630721545916258,-0.24866713265074689
1.43,-2.39780034985033,-1.6232975027151095,-0.6840084223276863
1.44,-0.9561869132477387,-1.963510543292922,0.35999453617739596
1.45,0.49861922927364033,-0.6713831906979558,0.508030317193228
1.46,1.0155196344241975,0.008089363048748074,0.16134177887700624
1.47,0.508042359670881,-0.0946848804653773,0.5649612196612105
1.48,0.3071506863976155,-0.2502821573725339,0.3913618472831684
1.49,-0.3633996754170352,-0.7438383194801264,-0.42229223011593403
1.5,-2.772564577359306,-0.6587529780630329,-0.2711028918010123
1.51,-1.8831208820918905,-0.6147383844596487,-0.18303856845575533
1.52,-1.725514001604797,-0.981737097548695,-0.15881961285894272
1.53,-2.036809430429353,-0.8626555520812192,0.1743722771807984
1.54,-1.2726201992633657,0.25181827310804067,0.12415239722483566
1.55,-1.4822722251044538,0.5289236500715159,-0.3152645845956405
1.56,-0.68371637234003,-0.5059631352147193,-0.48992300154032936
1.57,0.2610496493864369,-1.1610812256308032,-0.31753925559715107
1.58,1.1316485287210019,-1.2421277988698742,-0.33486622987802533
1.59,0.6386690159652116,-0.8307628530085478,-0.08829520276399867
1.6,-0.6882792759668939,-1.6678522400744242,-0.27093157507231186
1.61,-0.13948746543338694,-1.1643837518452682,-0.3710558021070935
1.62,0.10870466940563209,-0.14245840158905637,0.39821998927763147
1.63,-0.3157756685200595,-0.8628147872275779,0.5041808501992057
1.64,-1.5585746024198557,-0.7757911906655814,0.10246597478647916
1.65,-2.8599626063269117,-0.6167659508800779,-0.1839020466930371
1.66,-1.4739449225638215,-0.050820264225805045,-0.05420365137679589
1.67,-1.5162544156934372,-0.16953104291208673,0.34771802721470263
1.68,-0.5034426120071864,0.2915911460587242,0.3641393305535106
1.69,-0.1076130130647268,-0.5789332027907493,0.12514830179384068
1.7,-0.29348099737205396,-1.127427742757476,0.07896198059867625
1.71,-0.7644936268016229,-0.5938499470143181,0.07989220098114211
1.72,-0.8015193212270482,-1.4799554897520693,-0.2829529473222624
1.73,-0.9743686062990236,-1.5582684620444085,-0.1104507504290998
1.74,-0.8959278332085278,-1.5935540923581857,0.14178416496873772
1.75,0.027912875589341,-0.4621573783663048,0.18174988984453716
1.76,0.007191827471192248,-0.6248806326729394,0.47099024170966436
1.77,-2.023895609432896,-0.7194034976717467,0.5041518354145887
1.78,-1.6443381603623992,-0.2808408810857927,-0.2071371147486426
1.79,-1.2039454475931484,-0.7036603636422817,0.25738453727640836
1.8,-0.2504683548553906,-0.4354459181929795,0.72003355712049
1.81,0.5855724053035991,-0.3968583199211672,0.11064019224129669
1.82,-0.2083636149038291,-0.7473952751229704,-0.2719651741107264
1.83,-0.45681730512457663,-0.8681889551888831,-0.3229239896380189
1.84,1.1258833236162777,0.5938672393790186,-0.39773249657147214
1.85,-1.8225808074029852,0.27636835132188575,-0.3925602672583948
1.86,-3.019161778170274,-3.23939395782887,-0.6843574424559834
1.87,-0.33262734568160396,-1.7846919367436511,-0.28151010930804354
1.88,-0.3735865265459154,0.5981280173906596,0.3906990610885341
1.89,-1.7511284027004341,0.6632776167055432,0.03634698639764095
1.9,-0.47032612895495957,0.8194953936418631,-0.2746986065842112
1.91,-1.7320471530287753,-1.5265402008973752,0.09550714483434125
1.92,-1.1219061294267614,-1.466188448795533,-0.06653572199457779
1.93,-0.8329337340955582,-0.5342433887903433,-0.7295237305141523
1.94,-1.0510238728290047,-0.9622677808090789,-0.7505978768962285
1.95,-0.14631593706864673,-0.6456574276660656,-0.2887149292136926
1.96,-0.056030378218880864,-0.983338004836669,-0.22709202582232457
1.97,0.2244383490316539,-0.3785830986648521,0.047896536186568466
1.98,0.30724325829088905,-0.4470976263872673,0.11063706707325047
1.99,-0.8099677554701076,-0.462191630543084,-0.20602923659880257
2.0,-3.73472802901363,-0.5146127913731072,-0.568742608752676
2.01,-1.1552532264156847,-1.7702342406284062,-0.611931820862521
2.02,-0.6111898382714372,-0.09355429456985466,0.33342216299909494
2.03,-0.8277133483534346,0.48171630952166145,0.012248241244020738
2.04,-0.4070261815748107,-0.625382498455098,-0.5562156492942539
2.05,-0.08671138392555752,-0.1378586143271188,-0.12013901357138781
2.06,-0.46353896991813487,-0.18177264393069686,-0.030969313125099523
2.07,-1.2789540321586144,-0.7876242316218346,-0.4916838203839518
2.08,-1.4168453887808354,-1.492560553536008,-0.383778655463261
2.09,-0.6955909575578636,-1.3323572820042873,-0.08259888211725802
2.1,0.07586848719421585,-0.8800484191584157,-0.00499389974750017
2.11,0.2850089060550015,0.06245482878966547,0.1378896603415161
2.12,-1.1078527805833294,-0.3433791000954774,-0.48440471600041934
2.13,-0.9818648221752055,-0.7357976725223223,-1.2728620218203663
2.14,-1.1911873947481644,-0.524837451984979,-0.35290877604366877
2.15,0.0033434508924356297,-1.5215254443220592,0.08752461839111718
2.16,1.2869505812099087,-1.4087476904354321,-0.2842349119225781
2.17,0.8444539638274189,0.6802911594915857,0.16000807720665242
2.18,-1.432428470888653,0.08647027485672272,-0.4956495110701937
2.19,-0.7954759615788224,-0.3223058427147233,-1.1868664105459743
2.2,-2.316708061258377,-1.4773532492470907,0.24817156440836827
2.21,-0.6740898377238547,-2.1061390665044186,-0.15802202412530575
2.22,-0.8810421833093345,0.15190787244141443,-0.5449556860304676
2.23,-2.824266436336129,0.31470165361207614,-0.12281255289835907
2.24,-0.1977208357481274,0.2530253162303145,-0.0359191097444429
2.25,-2.7538457686612796,-1.2638708929866926,0.17787178679994703
2.26,-0.794200097417139,-1.6182873856987172,0.23988314854893333
2.27,1.2231907600482486,-0.38837498817462224,-0.09219147944733935
2.28,1.1271765101391333,-0.6386811797512035,0.19908742134390306
2.29,0.22091953472079656,-0.8832254067161943,0.4430510024207445
2.3,0.09853960908463258,-1.389595742942089,-0.4347618038474448
2.31,-0.1262634958421436,-0.3199814765222236,-0.4605050515106181
2.32,-0.9569598734283421,-1.27275132224348,0.10263694521636416
2.33,-1.1953050739933635,-0.3334739893687323,0.10605097038047508
2.34,-2.259506262262169,0.27221442864154505,-0.2202985440387725
2.35,-1.8699236683951015,-0.21098628905862027,-0.19621621232540165
2.36,-1.906720141791978,0.7018971868840818,0.10819306653321288
2.37,-1.6579176951607295,0.04244482748796354,-0.20246019638447027
2.38,-0.7040241758613769,-0.5250183836675174,-0.2559498406541355
2.39,-0.47130351709194285,-0.5842027682193227,-0.48298988440517954
2.4,-0.4415267821583027,-1.0898037460150074,-0.4124145103627698
2.41,-0.4174521133575645,-0.7476689617657852,0.0902223413028501
2.42,-0.34910734759200107,-0.6419906941787272,0.02336704551477054
2.43,-1.0735847378843446,-1.7336716647238626,-0.04872358867366296
2.44,-0.5859479659068618,-1.0805628362861779,0.28132953610117223
2.45,0.539866990240368,-0.4422349665992929,0.49701068287669875
2.46,0.5029194613306555,0.17487905552424698,0.45673545082716527
2.47,-1.2682770378618453,-0.6624616346381732,-0.08672338713604492
2.48,-0.4892040871630401,-1.4370245608907746,-0.3818505582610206
2.49,0.3243765345456728,-0.13218343419274003,0.2393918668893912
2.5,-0.8020255947982067,-0.7525468503766335,0.3120352638754886
2.51,-4.0507722420157695,0.2731461280791902,0.08403900218338456
2.52,-3.029685295782325,-0.33418246679920105,-0.2233089912878086
2.53,-2.313078396679119,-1.4678159871330743,0.39349979634790433
2.54,-0.9169375608482097,-1.1003721902125057,0.38755173169201407
2.55,0.5754302475576832,0.46532092057925833,0.2768839240565017
2.56,0.7719167039889372,0.6950157817403514,0.37612174402533016
2.57,0.15780907028091712,-1.4155469737936843,-0.10804568722805752
2.58,-0.3558785516500181,-2.101910222693941,-0.5514472197382294
2.59,0.19934908324461567,-1.6624000460254076,-0.43512055245671877
2.6,0.4218849640910442,-1.6451144679661411,0.09788164831444218
2.61,0.2717200530315006,-0.4666276560584518,0.6263019113172226
2.62,-0.684632201603229,-0.23598835799000462,0.613769629293074
2.63,-1.796402415365238,-0.37747240880410243,0.3366910003789983
2.64,-0.8999836847870282,-0.8292903003827473,-0.17481699722457172
2.65,-1.6313644680485926,-0.2761512255828776,-0.19303595603128967
2.66,-2.278523665726408,-0.44263357252664487,-0.3576688944229375
2.67,-0.615898521876777,-0.12851588455200733,-0.1873462052820228
2.68,-0.8773356814326447,-0.40039447487304797,0.06635922526808127
2.69,-0.21048879654991093,-0.13230185765420274,0.11758103230917022
2.7,0.05386150328576014,-0.26486501716884125,0.29365060128917814
2.71,-0.20625807141141186,-1.0677950969275212,0.1193462781212595
2.72,-0.5224886406442526,-1.0775864133184154,-0.30004931908854077
2.73,-0.8785052763415515,-2.0579968579804655,-0.5926241524683006
2.74,-0.2304612439107844,-1.9677573703974878,-0.47995810241514586
2.75,0.39713482330887745,-0.8664522877092564,-0.10809001066163246
2.76,-0.2409185265271134,0.06712870942615547,0.2829788239444889
2.77,-1.4176588459585036,0.012265733149366447,0.13884247031995153
2.78,-2.0836918889929015,-0.3005545816706656,0.1594963050341279
2.79,-1.2274157880091465,-1.0544154641966148,0.39869946044485843
2.8,-0.8826136747037555,-0.4406474628837943,0.15351457119873377
2.81,-2.101421659311317,0.6631012591564195,-0.36179488767510604
2.82,-1.9964302502552587,-0.19547624670548458,-0.8060236850359853
2.83,-1.5842375971061495,-1.4041800247896121,-0.24265061287351816
2.84,-0.5522583468104385,-1.577622279126901,0.19524587138898225
2.85,1.0660858367595583,-0.6372714455232029,-0.04984480244333313
2.86,1.422002381231968,0.32064188402332344,0.08664947116833716
2.87,0.3636413717917557,-0.4288885892313986,-0.006090740093718451
2.88,-0.38842963858922314,-0.6396930783746508,-0.5434190745864509
2.89,-0.8898472002913848,-0.9431945942231698,-0.7354132637501917
2.9,-1.5965038544294632,-1.175687719939944,-0.3312767100657568
2.91,-1.5623059441280693,-0.23282678058008943,-0.09575009213278599
2.92,-1.9595639350626286,0.06936113530806522,0.016017757398531906
2.93,-1.7878246782163794,-0.1595892663297242,0.1789842200732363
2.94,-1.7813128741596058,-0.3269338425580917,0.24545142357821867
2.95,-1.6412900811250013,-0.5143304914875135,0.1528136196639729
2.96,-0.33112955682769785,-0.7064579747952047,-0.10089467201881383
2.97,0.007348920587056718,-0.4419521767286033,-0.19736879574458613
2.98,0.11033950612202165,-0.4750650266818832,-0.11396028388781769
2.99,0.182466043898461,-1.3775077424974382,-0.11989143676608481
3.0,0.3061610800578657,-1.3175073918909637,-0.14131614388682073
3.01,-0.14374973879482686,-0.7305856587067955,-0.14069077015217998
3.02,-1.083257740515683,-0.2634642208312377,-0.07584027876598436
3.03,-1.208074412670494,-0.8526486754284031,-0.1866045094764277
3.04,-0.895673779148402,-1.384443876203998,-0.11966173794310933
3.05,-0.8019513406225295,-0.8666313436923495,0.015906929621835954
3.06,-0.7372362854511343,0.23209774781539094,-0.029996343623366784
3.07,-0.7762418296715538,0.6857966382689491,-0.3357278230948333
3.08,-1.4368175864334924,-0.4232119832850908,-0.6005528816550975
3.09,-1.9119063136577787,-1.7806841203084878,-0.30601564107617696
3.1,-1.021878138951009,-1.291675635828539,0.04976202052041155
3.11,-1.0095052345803621,-0.48292781470941903,-0.0028863893948983103
3.12,-1.1150596802766544,-0.210451154912708,0.018371472761937586
3.13,-0.3877576835861432,-0.9017280210388084,-0.04920035098986253
3.14,-0.346525877379404,-1.3183775378015616,-0.0484331538609788
3.15,-0.3457270744432927,-0.921224922298464,-0.1209385845505122
3.16,-0.4508430162130019,-0.9198088890107002,-0.3421244599759713
3.17,-0.48578441930125943,-1.3406152118003571,-0.3772380031337921
3.18,-0.20387039455886125,-1.2120849246383625,-0.09322540414185493
3.19,0.13446339462603973,-0.359621677395062,0.15025499556048152
3.2,-0.5170104902630168,0.11562752606752554,0.02793271059338445
3.21,-1.6659385294966798,-0.32162951468845324,-0.35753911688014317
3.22,-1.2973918225766552,-1.116957107815148,-0.3225379226283401
3.23,-0.37416848207292336,-0.9502540475358534,0.22607654132530425
3.24,-1.0245059950667517,0.300758376223724,0.30260950964411265
3.25,-2.018029955342791,0.21617058023530664,-0.39559573099534046
3.26,-1.6779468798799901,-1.1141663473327827,-0.39114631807219896
3.27,-0.9767532518903744,-1.3122304472698898,0.4158562263193021
3.28,-0.17131687098924428,-0.590793905375098,0.2845550849240217
3.29,0.18155916521165114,0.08832929357542621,-0.19262313814706916
3.3,-0.3897008603747983,-0.46048222226625735,-0.35251551325811303
3.31,-0.4711884409369272,-1.326042593108671,-0.48318605873204495
3.32,-0.14965794193280405,-1.2934687583313134,-0.37979999548511123
3.33,-0.06158864782020548,-1.167398380019896,-0.21130568644081607
3.34,-0.22472336906726273,-0.7632390646055225,-0.030337474115349254
3.35,-0.8592778231247323,-0.6875095178917788,0.23006752299499797
3.36,-0.9723995438417787,-0.8951401080535846,0.4071678785631522
3.37,-0.6618976679086046,-0.1671578757362821,0.39024674099570533
3.38,-1.2781147319754083,-0.13628181785316792,-0.05108922786603654
3.39,-1.6477566736012388,-0.20019184348781704,-0.4662530334210518
3.4,-1.3280607978900174,-0.0013896067034220537,-0.4105428331855745
3.41,-1.0949067738282512,-0.773062761563612,-0.2734556035338814
3.42,-0.6900138114046022,-0.7659818437117557,-0.10980217274864923
3.43,-0.3793039271613937,-0.9238431450369551,-0.08439211042577112
3.44,0.05045941105366939,-0.43628181038262287,-0.031497044798033065
3.45,0.2654190506970161,0.17396231633979126,-0.10941169916347512
3.46,-0.8942722906565629,-1.1441599992010933,-0.4717082225131905
3.47,-2.0618685383564648,-1.2611216562765946,-0.6009141734185924
3.48,-1.8480357297264258,-0.981831770698347,-0.39201316475203135
3.49,-1.431084556181993,-0.10380964118977941,0.09101253656865245
3.5,-1.055090043134082,0.0076685217713378185,0.2309313968586211
3.51,-0.820934792279755,-0.2710597362834993,0.1524160874085233
3.52,-0.547317829323,-0.18236471957871064,-0.03227269174721575
3.53,-0.11491990084747572,-0.6473082276167481,-0.3427468921615083
3.54,0.405220487174177,-0.5006886296669186,-0.34640258072043423
3.55,0.3540778393041423,-0.9652519832293303,-0.36688930810092657
3.56,-0.726085599600099,-1.3021498667579017,-0.351585562939705
3.57,-0.9976194500163745,-1.3403362662263483,-0.2626812363307225
3.58,-0.4989908609676906,-0.4014621299121944,0.21639167490944958
3.59,-0.3857720180284608,-0.4342843606374411,0.624640475447685
3.6,-0.26258069046438515,-1.0055835028594464,0.47960270220613266
3.61,-0.14125243350293526,-0.08857370054398975,0.16864968506243783
3.62,-1.0446373016339894,-0.18692609684942316,-0.4370265714712647
3.63,-1.0451647706283052,-0.5807713457526243,-0.8775451586062197
3.64,-1.5207382334617474,-1.233289482127064,-0.5293549153532838
3.65,-1.3205721108428217,-1.9957062390263096,-0.07169821029884603
3.66,-0.3243048346430736,-0.5542014217787787,0.21157516544978783
3.67,-0.6111046213107413,0.09103588443288309,0.4561629898762372
3.68,-1.3433929171648933,-0.6573995484622023,0.4026398534429499
3.69,-1.5020138940929137,-0.8134716857946457,0.05228492664974706
3.7,-2.3244184614467875,-0.9591854635737336,-0.14062813633134183
3.71,-1.1966453044819014,-1.12716255390061,-0.15338166199269487
3.72,-0.35786810701493993,-1.0693168946989053,-0.2869251169642764
3.73,-0.4109858338198599,-0.305252777282333,-0.07251462484501893
3.74,-0.2093291712421449,-0.2512940500938581,-0.08117660064041099
3.75,-0.13514233140680657,-0.2787765168386144,-0.23979383022941
3.76,-0.5398277719042567,-0.720945802837761,-0.2184503827348757
3.77,-0.4987517760445195,-1.2912911109759528,-0.3469287318937321
3.78,0.10860889480737222,-0.5558269349276375,-0.23155270889943985
3.79,-0.39887516275919915,0.24272574554105616,0.01582097201376925
3.8,-1.5236936834525745,-0.2019024617486843,-0.3937607006110941
3.81,-2.529499829543403,-0.290842448559352,-0.535505881122164
3.82,-2.4375498887340634,-0.991283187929574,0.14774582011686127
3.83,-0.8104842246742088,-0.7546280160954318,0.28408738256654587
3.84,-0.5235407934884274,-0.11181976187389786,0.04104393431048643
3.85,-0.31531783113025563,0.2790779851783584,0.12880170903164082
3.86,0.3097568130931923,-0.9789119673400868,-0.06121649511637809
3.87,0.7327398307421056,-0.6650447618589611,-0.16883708418255783
3.88,0.1729348423701289,-1.2972857493871366,-0.21269662788057625
3.89,-0.16339777945905792,-2.0981854556094617,-0.2792991180150282
3.9,-0.20828414059218492,-0.8189372486802828,0.13534419103620132
3.91,-1.1035984077474126,-1.3178880072957087,0.28327448386314846
3.92,-1.3362868617167216,-1.1172796514852663,0.19218993990939864
3.93,-0.4589784284282404,-0.39213743877815344,0.03218338053112586
3.94,-0.5651743467681015,0.8769999746014392,0.09011097452043564
3.95,-1.3424367659555039,-0.06851897521269695,-0.3608489924373084
3.96,-2.027411213159645,-0.27188045229433333,-0.5879459350226458
3.97,-1.9617778298339135,-1.011683876990986,-0.19830241960153266
3.98,-1.0249591795211346,-1.8074562468667574,0.29087189316441914
3.99,-0.1094923417944167,-0.6076862151096191,0.5485555896904674
4.0,0.5373600880371867,-0.199586383344815,0.5183540468666363
4.01,0.4906618927969379,0.009035656686740284,0.27038966504213574
4.02,-0.42237228773718927,-1.5746815819721998,-0.19649280714977688
4.03,-1.2272522776458858,-1.1532841525827902,-0.414750674530071
4.04,-1.2291395850447762,-1.538025688204072,-0.47271396021839696
4.05,-0.8811331350990885,-1.23932588430217,-0.1181719882689897
4.06,-0.936829129691089,0.6564625651545668,0.2791463912924062
4.07,-0.9166733172811657,-0.001300296055425706,0.1195681469136398
4.08,-0.3797926679525738,-0.4242094940615944,0.0661434174987304
4.09,-0.5577458803701427,-0.16508699324734785,0.067949680910747
4.1,-1.5047786077235952,-0.9047595501786381,-0.4730637142276821
4.11,-0.8181780264906596,-0.369821017304599,-0.5963193854841204
4.12,-0.5277705762301226,-0.8070207872364722,-0.17109837493700478
4.13,-0.19424619013210387,-1.1011829366863919,0.0061707962112154575
4.14,0.1376672557271014,-0.7204435077957916,0.03623381328975334
4.15,-1.4607330662801785,-0.4250245180954943,-0.15946472878981258
4.16,-0.8127236926653107,-0.7559255181233875,-0.6624616383803709
4.17,-0.3969407791668041,-0.3463955049027116,-0.1870650223524558
4.18,-0.5747573000752829,-1.091733445038484,0.02336661541737403
4.19,-0.4161562012018257,-0.470798349199282,-0.04476923097648454
4.2,-2.004632468968848,-0.7297154636692944,-0.2609259620562789
4.21,-0.7472643254433593,-0.944749245017746,-0.34494286638768323
4.22,0.006634055667611106,-0.6096766477289366,0.17911913630204626
4.23,0.5577940820521456,0.02144999959576985,0.3096644028149569
4.24,0.37272425664629605,-0.5746532390689135,-0.0944041874125543
4.25,-1.6359200727378989,-0.8044300592012914,-0.08688402914969486
4.26,-1.2744858067995684,-1.4646518273939364,-0.30444743901295523
4.27,-1.2107519269296583,-0.6639729227690735,0.10258338427697519
4.28,-1.8742308819646838,-0.5970906655601789,0.15043204144587588
4.29,-0.27355270924686087,-0.6137692262388843,-0.12278073353043599
4.3,0.2698304962774594,0.13839488503668015,0.10449031004207043
4.31,-1.1788575110866268,-0.09859857078343257,0.08083846593852817
4.32,-1.9706311898533087,-0.7028968875398799,-0.7316716766506438
4.33,-2.1146761404197942,-1.2954300582373477,-0.32894706164761806
4.34,-1.2882775957493258,-1.6731295549964138,0.5861477719135745
4.35,0.17332955757733345,-0.4528513747182506,0.24059835692386675
4.36,-0.4935385511350119,0.3527249542684243,0.1578307779165623
4.37,-1.0031965022603466,-0.6205939086528917,-0.023337707160254153
4.38,0.17661488344415227,-0.7761282239507339,-0.2539018453315735
4.39,-0.3308947216838346,-0.31655399486428226,-0.18474625783364598
4.4,-0.8878237120736763,-1.3615993513601155,-0.23052033991641163
4.41,-0.08313148334793523,-0.060167236328000556,-0.06350472249699571
4.42,-1.4934681381035912,-0.9064201667819719,0.026376851474625384
4.43,-1.999931606003378,-1.0692943889581372,-0.18628746737728225
4.44,-0.36892757825071176,-0.15767421476831742,-0.09078189702506118
4.45,-0.7766178430127268,-0.00036434718859012453,0.12929681691695827
4.46,-0.29388817221744645,-0.22532893683115374,-0.34559568216871467
4.47,-0.8448126702373673,-0.7857104310176555,-0.463949133375312
4.48,-1.4371873596676912,-0.5331362849551298,-0.5454871716899914
4.49,0.001550684542150744,-1.3794276140381856,-0.5919860471622475
4.5,-0.04460200369859902,-0.46568863480170763,0.25488404757490457
4.51,-0.734073630964167,-1.0577066705293359,0.24867540823467144
4.52,-1.0262184200134996,-0.9786526554751537,-0.019216942521235143
4.53,-0.9813105182973217,0.5044571145134775,0.3019668679390096
4.54,-0.9805101671943642,-1.6164345392320496,0.08014366527108802
4.55,-0.24975333121210463,-2.0493763502103595,-0.1733308907745843
4.56,0.5001105870176809,0.4047358180890509,0.07773460239796842
4.57,-0.8294819739605347,0.04281467574703227,-0.24001514478971947
4.58,-0.6158830995580791,-1.513333340637974,-0.8128800522189816
4.59,-0.2566136073336251,-1.149114356172762,-0.08742251067815814
4.6,-0.35130607113836126,-1.795153119656611,0.38255802793053567
4.61,0.27022860345626615,-0.051422981405175476,0.33906829086988216
4.62,-0.45188527764906544,0.01631451869264932,0.25237255796212626
4.63,-0.6762116540525356,-0.3194971528033423,0.0006405458231780326
4.64,0.30914101151808676,-0.46344373982456694,-0.2541823927671888
4.65,-0.055745072240015944,-0.5551471493163165,-0.4616137230094064
4.66,-2.039767874720828,-0.6755241785465735,-0.7407827876889561
4.67,-2.383054477799969,-1.0887492246466612,-0.6926778743888126
4.68,-1.9562240250324794,0.04449007551858363,0.5771680700561236
4.69,-2.1044973815355887,-1.2692137192997257,0.6720298660814324
4.7,-0.9963426296210925,-0.6257667563957309,0.4730625493118945
4.71,-1.0472474888392802,-0.05811410086497144,0.43355154854911737
4.72,-1.4040386540889152,0.651100735031675,-0.22700775522213026
4.73,-1.7377274610352131,-0.5979824316881611,-0.7634117731937106
4.74,-1.6020054535607378,-1.8495842771060975,-0.28097280652380147
4.75,-0.6999880571676517,-1.2918244882627616,-0.015388451908918984
4.76,-0.06295307182629632,-0.7638799574929885,-0.02617260126691672
4.77,0.3045046302835828,0.17979784556333658,0.34677870123438476
4.78,0.227466930655156,-0.26967338716783,0.28095486999687697
4.79,-0.38515279221413734,-0.08553159375753794,-0.10255794186003535
4.8,-1.4122438077157822,-1.5643675401675303,-0.5217045093017709
4.81,-0.7170885208426634,-1.065302584810809,-0.47543607236172564
4.82,-0.1359561166580828,0.5736974745891233,-0.1174481276015745
4.83,-1.3424094967433795,-0.4589880044451364,-0.1402938271672585
4.84,-1.346756055538866,-0.30541934708837415,-0.29045321535828306
4.85,-1.9682835078782752,-0.23518038609924266,0.006104897582610612
4.86,-3.201942189191577,-0.2559782476092431,0.48621574434594017
4.87,-2.4455089759939805,-0.3172678446938847,0.6286494161702564
4.88,-1.8062494243156442,-1.7446353733482443,-0.1368921005611671
4.89,-0.4088220760048481,-1.1428991688441958,0.1439170683960071
4.9,1.07914882605068,-0.6685691717857843,0.6831244413817967
4.91,2.904107830069355,-1.2608035310052774,0.5648665552586511
4.92,4.100617407068685,0.6934282775483708,0.6114212943218683
4.93,2.4677173479042214,-0.22764482324082932,-0.12715726406705954
4.94,0.18915454959657382,-2.8275259861470508,-1.0831558052761547
4.95,-2.2744000588111097,-1.905691727624313,-0.7128840624783986
4.96,-3.770313578398585,-2.7415371906626422,-0.2931016828819174
4.97,-2.684513689654916,-0.9250083513208418,0.10980237257664487
4.98,-0.16759238649498448,0.7237071620020494,0.7471526991085078
4.99,0.5584827020032406,1.9877980959305044,1.125282664838393
5.0,-1.0150748371296263,2.2729181039335367,0.6185992119104731
5.01,-4.187910173882816,-1.2946368998251134,-0.8883687311792329
5.02,-3.1257949539086693,-2.278494455418573,-0.6998266017782814
5.03,-0.3445222388010293,-0.9611095248372773,0.17476225103949228
5.04,0.6618831181831517,-1.9342823522042158,-0.4676844660032659
5.05,1.6912319788425325,-0.9551486569012225,-0.021495246012640433
5.06,2.4729324076995796,0.19809651181283242,0.6583027470236874
5.07,1.6618769725098708,-0.20497670185917988,0.20418888992514284
5.08,-1.2039241609743567,-1.4339970105653814,-0.5937836365421599
5.09,-2.9781769940199982,-2.8176522129233224,-1.1524685895348872
5.1,-1.8569683013948541,-0.5786773882244712,-0.41193499621764007
5.11,-2.1878441649341154,1.3700551688956435,0.23198825557873312
5.12,-2.4336841621702363,1.349957172635033,-0.22497436304906754
5.13,-1.6060322627870962,1.1916642221420761,-0.1247961201249706
5.14,-0.7509305885499883,0.08955467273539536,-0.2594979473111191
5.15,-0.3246375628960476,-0.5929652291326256,-0.3345748679835673
5.16,-0.16665739083589481,-0.6021929227904609,-0.0765875549974691
5.17,0.17800875515133893,-1.7379106927738794,-0.37266710464460645
5.18,0.3634009792545467,-1.3888363852227856,-0.47619424624984646
5.19,-0.06113906352921834,-1.9713848994154795,-0.24942519128245483
5.2,0.23723480018772405,-1.501293823691744,0.25601315328190427
5.21,1.0421371093198033,0.4462120133246981,0.43411334522534434
5.22,1.0363353828789101,0.31219331016495544,0.16104644482009375
5.23,-0.33899476693239694,-0.05472091770599897,0.1963772974880519
5.24,-2.153814775851415,0.12315700098297505,-0.14228754825906892
5.25,-3.1634145478113354,-0.29620100017208373,-0.6898286466578107
5.26,-3.0067683692246776,-1.892944204960703,-0.09979479089841602
5.27,-1.0587816015500076,-1.4944542742688962,0.5704718630879185
5.28,-0.25952404328598483,-0.128689222306654,0.2499775685510075
5.29,-0.3554480756431535,-0.5977248561737603,0.2178177379827192
5.3,0.6362511159215549,-1.3303135998304059,0.3298970695041841
5.31,1.5126849748266789,-0.17770535796773212,0.27363216341119806
5.32,-0.146231648732685,0.00833138116665519,-0.11492520580981415
5.33,-2.1013713138395307,-1.4100341594799903,-0.689717659324296
5.34,-1.2967043133708969,-1.264252260583878,-0.3743820016421296
5.35,-1.3894924758138796,-0.8557064708346082,0.4054456840335492
5.36,-2.0200988754563602,-0.6798311036355681,0.26276586517396067
5.37,-1.2829304858582367,-0.013819511605891618,0.1286256079653315
5.38,-1.0355226499181711,0.36412284472147893,0.3919695453654968
5.39,-1.5392057431170734,-0.1204700211761362,0.04915080483079223
5.4,-1.784109255180949,-1.6439756573427657,-0.5604653256487224
5.41,-0.8148574320177263,-1.1065473191664854,-0.3843674684988594
5.42,0.18038230797758734,-0.6084741499085998,-0.12760330396660885
5.43,0.3446134157273756,-0.05550284111107889,0.09955760245107283
5.44,-0.05274803478940408,0.12564733549054294,0.16437094338348046
5.45,-0.5202626300230805,-0.3378387453417987,-0.03452292904634009
5.46,-1.2667158039638813,-0.6819852099642749,-0.0016404216093613394
5.47,-1.7386026912200852,-1.6429951107508658,-0.12157372769948863
5.48,-1.429138172740876,-0.9270930028842214,-0.12233805441834056
5.49,-1.086231111658656,0.04762106852763111,0.06863224967427906
5.5,-0.44935020849431756,-0.3332459657641417,-0.10705589457587127
5.51,0.07778517151810276,-0.7828594607709994,-0.29738937368574037
5.52,0.48408996520650105,-0.8960079233622635,-0.2928449957835687
5.53,0.3340114786155642,-0.7534871787788578,-0.2543114209812035
5.54,-0.8114325729376365,-0.9046243058013423,-0.3510239518621477
5.55,-1.0617567860168335,-0.8794914390616478,-0.44241701726019883
5.56,-0.6343548194216778,-0.508854442876847,-0.04710148171165229
5.57,-0.9258396035011653,-0.6893877788381445,0.28155543623783624
5.58,-1.7516341491002028,-0.6087558747087949,-0.0639339751626858
5.59,-1.7688244854963395,-0.25886225229039306,-0.49936328220808895
5.6,-1.541411520918633,-0.2185302961889129,-0.3322893206268303
5.61,-1.424253550143029,-0.9702556950177832,-0.11133276456999722
5.62,-0.4393100674910032,-1.383509202777168,-0.18883102473871843
5.63,0.8359182087234241,-1.1350936171165136,-0.20869701311404448
5.64,1.2949090922275353,-0.4760997723191106,0.024279790245983687
5.65,0.2508289655713379,-0.22437114778723324,-0.20172462860982665
5.66,-0.9957427028021508,-0.9080500143378702,-0.9282728348241823
5.67,-1.499028780096871,-1.3996572747098364,-0.6667633472015252
5.68,-1.3945863537815577,-1.167247206678116,-0.05066377697080426
5.69,-1.711485752048249,0.19841152293281883,-0.0008259483867723686
5.7,-1.9688363122968526,0.40291053752544315,0.019428654326963682
5.71,-1.283700575893273,0.19209514301332237,0.2904427984729927
5.72,-1.187476519412808,-0.11191182925451838,0.3501129749156155
5.73,-1.0790008191667808,-0.6954235086633579,0.11765824127647449
5.74,-0.4672136369679162,-0.7539559324675271,-0.172311482198502
5.75,-0.065842593557978,-1.0005949011637527,-0.35754199628314726
5.76,0.0024619216965797936,-1.2334929506826893,-0.20953737222663998
5.77,0.31914733151757035,-0.6940652777314946,-0.0021007643369370128
5.78,0.6250265066963997,-0.21097874232704972,-0.014619576590382858
5.79,0.06302365221359875,-0.11035935972362668,0.01345209522612144
5.8,-1.158866016857045,-0.6956536492623031,-0.023625141076498647
5.81,-1.119658260035107,-0.5621392128632046,-0.08800580161492136
5.82,-0.9051167814721207,-0.3907512956217969,-0.059191307755505844
5.83,-1.6326631474498996,-1.332221287165441,-0.24606143775440728
5.84,-1.7984574286708952,-0.7762856556085143,-0.4155853888945906
5.85,-1.2338917089635775,-0.20665357335954582,-0.1775110518165836
5.86,-0.6855034055465328,-0.339499413948089,0.27170006880492314
5.87,-0.3655816599798962,-0.34767020245382096,0.3000174738337436
5.88,-0.5525212709951463,-1.1228566017359891,0.0732887994987554
5.89,-0.8798961223552311,-0.4480777566939149,0.03146685293302363
5.9,-0.48809247202034506,-0.29509778196640957,-0.21793142323815662
5.91,-0.4661780411345491,-0.7612566140031195,-0.3324936678046351
5.92,-0.9161301720090337,-1.0542440943714646,-0.33242810425328445
5.93,-0.9683698306852938,-1.9758348307089306,-0.5080311862329868
5.94,-0.38042558151360717,-0.6384128288317529,-0.07432334812532088
5.95,-0.2304367224472604,-0.09312839753631875,0.35640964341990716
5.96,-0.7584418333582001,-0.49511269167351485,0.13500192178718085
5.97,-1.0455917124511254,-0.7874338249426067,-0.2525547011215273
5.98,-1.0135067596125023,-1.1885340812905996,-0.2661598011543341
5.99,-0.9117217608172447,-0.30451222788053084,-0.0296121976103269
6.0,-1.1039553098357997,0.11322803845329278,-0.04078968333241174
6.01,-1.5057208023678903,-0.8486142265276218,-0.19115051419217136
6.02,-1.1583691135901497,-0.4834279019736741,-0.06340429011180514
6.03,-0.714493200137312,-1.0810693662490096,0.14612287922474332
6.04,-0.05382556477476671,0.3159226703245048,0.4097655634797954
6.05,-0.11842618099092588,-0.3149952350663011,0.0478126283572865
6.06,-0.7275414716642397,-1.9785041910117016,-0.2902951524003402
6.07,-0.7263310227627477,-0.9341315354891507,-0.20156447370257854
6.08,-0.6967700994176043,-0.7935426722138874,-0.2823095484436284
6.09,-0.7231238182156702,-0.7984593113677885,-0.22956258562138399
6.1,-0.7128317093694851,-0.8611906971069657,-0.2347680911939172
6.11,-0.5413825723828883,-0.6561511666348714,-0.14736532832867008
6.12,-0.37170264458414287,-0.42899437836738474,0.10484020810157849
6.13,-0.13033870694686478,-0.5921060500621114,-0.03975369414250204
6.14,-0.08954564604030231,-0.19681684985362013,-0.24680217827489534
6.15,-0.8546915696091705,-0.495730893481412,-0.42124826626986583
6.16,-0.9806956016966357,-1.0978802108529755,-0.38627075719220866
6.17,-0.8468584956459443,-1.3000151534140711,0.03511431817246431
6.18,-0.7214441727259999,-0.7568029868841029,0.3118692795577523
6.19,-1.3521079261185331,-0.1453302543210694,0.3261241512437051
6.2,-0.9233783520314739,-0.6386983105946172,0.043239932829217266
6.21,-0.6146177611859305,-0.16915620687432872,-0.0440179669675973
6.22,-0.8616540246678551,-1.0128494515290638,-0.23525142817021513
6.23,-1.2044900575867916,-0.35299238461135674,-0.3141573622733551
6.24,-1.5629440081213615,-0.5138040600839331,-0.42455123630055036
6.25,-1.2362163298693418,-1.6524185381609189,-8.961362575254755e-06
6.26,-0.9269856045828525,-1.0138742449988103,0.5651853462885004
6.27,-0.5673137151646988,-0.36711901825534043,0.5418045809223702
6.28,-0.8123836036426164,0.3439519020123231,0.22302291976410438
6.29,-0.7532635016226235,-0.6471664155914529,-0.10379474929046416
6.3,-0.8468592498610618,-1.711097578636714,-0.2597001497325708
6.31,-0.6864817857771736,-1.2947029530089018,-0.2314943393354155
6.32,-0.9014014561596926,0.2235031921255619,-0.03295341912310482
6.33,-0.6277875337274886,-0.4427428515112449,-0.20087921559478805
6.34,-0.4307944210200206,-0.8743924330027099,0.08297157123869185
6.35,0.2391438657384246,-0.8868352552983501,0.2520812378303716
6.36,0.6884170410234061,0.6815109391387296,0.14832240271760166
6.37,-1.7492558042362059,0.08860702164740313,-0.4232964056192169
6.38,-1.9281257518064678,-1.5407063099794116,-0.8732330277358206
6.39,-1.7472354342890435,-1.1593552829590879,0.1532699957707819
6.4,-1.032916746624872,-1.370087037405146,0.2827434576749066
6.41,-0.16649053123433968,-0.15789125609777185,0.13740011914608594
6.42,-0.074659341921033,-0.16343805044797455,0.29368783353186567
6.43,0.10457098310081593,0.5828417676857195,0.19685404933649134
6.44,-0.5072512076972497,-0.9716464450310525,-0.41388349964395504
6.45,-0.5906197669717954,-1.9439040482078878,-0.6068604678669768
6.46,0.058957729897158716,-0.552637727770014,-0.13754468696689556
6.47,-0.5979902432812383,-1.473748973142174,0.0763610446913105
6.48,-1.6795062030438273,-1.2968143390446842,0.3984534630350336
6.49,-0.21162963597717976,0.08296943572854631,0.3764595482727758
6.5,-0.1076181298357568,-0.26721870522637636,0.36293799198443627
6.51,-1.4461653785538908,-0.7968483907673916,0.10745734087904596
6.52,-1.9416490000944295,-0.9838849644962545,-0.6714364055161126
6.53,-0.35430522944439496,-0.5044472883027179,-0.3224773118366097
6.54,-0.38396039940500737,-0.999234487226118,0.21616137779741795
6.55,-0.7511932466600777,0.22271217145017766,0.15458990848994625
6.56,-1.4540162817462614,-0.8948594728127449,-0.41811733917989613
6.57,-1.2478083368111015,-1.1500518795085684,-0.13403092787212006
6.58,-0.5695821853018536,-1.0994102035711106,0.2819577464641676
6.59,0.0932299000434925,-0.5058486797025464,0.12333248371187225
6.6,-1.2031482399750828,-0.04209540026671968,-0.03591655176187543
6.61,-1.4312701554476408,-1.69586259927263,-0.6292506057859995
6.62,-0.16955149658733712,-0.18313524952658977,-0.1066368599404901
6.63,-0.9778808417866971,-0.6547401417931337,0.23531761482846025
6.64,-0.9690491599912394,-0.9347411869107155,-0.15445879346559932
6.65,-0.9029003262593044,0.3714003833653487,0.004896589380915334
6.66,-0.7656608413339505,-1.6081999273037964,0.015369129674392154
6.67,0.016582863139414525,0.7794581713463326,0.3167553164577665
6.68,-1.2696681012354025,0.17373807434520383,-0.15253758706446172
6.69,-0.9873191513695264,-1.3140572917046252,-0.6489417365294287
6.7,-0.4310309129468112,-1.0899182631233622,-0.29493160721635614
6.71,0.20771450208781264,-0.5886423199138519,0.09979911574988043
6.72,0.38757500546603224,0.4856386295088699,0.25856290191970077
6.73,-1.879011943356349,-0.8366563657832605,-0.1919008128938667
6.74,-2.010037299325381,-1.5407385517045649,-0.6608326858112313
6.75,-1.6285384312197173,-0.18615015444865424,0.1733168002463787
6.76,-0.5176761395937005,-0.6862132592786906,0.1441937065462836
6.77,-0.06958345545327548,-0.9031405656491289,-0.3620461394347389
6.78,-1.0612093648747924,0.23429089254881966,-0.18402796089121276
6.79,-0.5385873797175346,-0.09901093791128361,-0.6224462749772341
6.8,-0.07772556006633403,-1.2886785460234047,-0.5478688410990955
6.81,-0.6869290499802206,-1.3500817844897612,0.11631825908427623
6.82,-0.395583652902706,-1.4361273646005268,0.024482596825680235
6.83,-0.7797729061096936,-0.03748819082876619,0.04222388788605489
6.84,-1.6088432587999288,-1.7722913944846335,-0.07652012229186873
6.85,-0.1431969352877246,-0.2316703860010281,0.24171095924522937
6.86,-0.730998218304985,0.09735351706221547,0.1748479166194569
6.87,-1.5408739370998572,-1.4994522736124125,-0.46748891399729026
6.88,-0.7704994617977816,-0.11175579583256158,-0.3652851209985983
6.89,-1.7180548010089,-0.3526467548919842,0.05548135630360909
6.9,-0.8044438395572989,-1.136620389008924,-0.006315987806640884
6.91,-0.3188273482447074,-0.6055247857099673,0.05993004211940639
6.92,-0.352125936446218,-0.5201559218097249,0.03488325894355425
6.93,-0.03179913828667463,-0.46958253595159816,-0.1747447349068929
6.94,-0.08804160561876416,0.47913557715736216,-0.19621173758062094
6.95,-1.142994190097434,-1.658770655247747,-0.558554202595947
6.96,-1.0232903974148817,-1.6552651099995737,-0.5162089204584136
6.97,-0.5885940541655306,-0.8838491464379271,0.004816060302682785
6.98,-0.4416880846051279,-0.0029363867727613914,0.2509831165756314
6.99,-0.9090961009492187,0.21908964726293595,0.017164495287448962
7.0,-0.7509089223744033,-0.7004491248209221,-0.23850140878572654
7.01,-0.40661602531565844,-0.8783287995348268,-0.0954272651199905
7.02,-0.669474178199444,-0.06122239309897743,-0.1104812414378167
7.03,-1.7674850241208566,-0.844330180511102,-0.5375147419922636
7.04,-0.9157476754250163,-1.7969617518760828,-0.5657529964483207
7.05,-0.8142464233421705,-0.5322393515027677,0.12794482055448342
7.06,-0.8588603493231867,-0.45106687483085134,0.033350184517563344
7.07,-0.41498284417548775,-0.6761999581171522,-0.3431384449779814
7.08,-0.6350161075182859,-0.9793724889889849,-0.2784834316681799
7.09,-0.44219139320656975,-0.6569260897907607,-0.21120620714066463
7.1,-0.24046456582246575,-0.13776276685500105,-0.3296716879787777
7.11,-0.7517986081942744,-1.1862935627631035,-0.30573220365390236
7.12,-0.5398704262371294,-0.9740751676987827,-0.048815472209741924
7.13,-0.3645543896826661,-0.9142399444191195,0.08079799063091667
7.14,-0.7330356079245117,-0.37364430284416855,0.29820017059668075
7.15,-0.6689579177006713,-0.51373654083101,0.16280392364379467
7.16,-0.045215848178143635,-0.8014491138477092,-0.011111722204575058
7.17,-0.18012645288085785,0.04096694326605055,0.20487379733083466
7.18,-1.7408434617321868,-0.49739333361038596,-0.22143354559943165
7.19,-2.2358326269323645,-0.27089303078042337,-0.5876422354899582
7.2,-1.47686704862057,-1.0067555337064398,-0.0596767992171549
7.21,-1.2021267620929545,-1.0016062526157268,0.31951349612147284
7.22,-0.5811506207370931,-0.11674747463303603,-0.021064316732923742
7.23,-1.384160832464277,0.03144582705156995,-0.08711247353514587
7.24,-0.818800419002679,-0.707008966711945,-0.3711737114880523
7.25,-0.6977851195015272,-1.462448422860571,-0.371097835351408
7.26,-1.0719228959450213,-0.8607315005475086,-0.007619229614335354
7.27,-0.5844190233204201,-0.038270266006827994,-0.10497922699912551
7.28,-1.080199426310661,-1.0339089839485889,-0.2523453925576629
7.29,-1.4395464496191475,-1.3418652020133803,0.06820069609233329
7.3,-0.4413629678652269,-0.7368767865066982,0.22835598140698818
7.31,-0.008622983962888964,-0.17603248789277012,0.18739025055349212
7.32,0.30345418363627247,-0.3146383861301276,0.06483914668995562
7.33,0.27332370908495757,-0.30635118288034585,0.06622956597573093
7.34,-0.4842635489064269,-0.8050756630115318,-0.009051362861477655
7.35,-0.8040156597389025,-1.2951225339140318,-0.22762216856508086
7.36,-0.18733657573475793,-0.6763027850521417,-0.10684433267805948
7.37,-0.13342630136910688,-0.43945818032520606,0.20171434643292255
7.38,-0.549072481549463,-0.4725163350436378,0.21259350541032268
7.39,-1.8513583699133698,0.3124324625698317,-0.01859098662337441
7.4,-3.491140639896719,-0.03442079440366631,-0.31141359300407406
7.41,-2.45754324606392,-1.6766059004325014,-0.08678068954726069
7.42,-0.8656501382658789,-1.8867587608132823,0.28080853482577883
7.43,0.5656274268266839,-0.42373384390062135,0.0935398623455202
7.44,1.0576757708321032,0.6438874058894414,0.2304608579099722
7.45,0.19161283303336973,-0.46222701586248316,-0.01378491599801141
7.46,-1.0481445080483018,-2.674498350890636,-0.6318845025488831
7.47,-1.321694209322492,-2.520463603478471,-0.27281281852902844
7.48,-0.129030772885456,-0.8260519885777879,0.2999414710032942
7.49,0.27553158019713225,-0.009299830031833971,0.3133764867575014
7.5,-1.016587118011726,-0.4286664649126327,0.2704661794881193
7.51,-1.4812336607917578,-0.3239843380879188,0.00574386309289348
7.52,-0.6528188345605463,-0.49020829673693317,-0.38729978119976105
7.53,-1.2108943382382487,-0.44779789651275587,-0.370580624944712
7.54,-1.3003283579142046,-0.6846366791573634,-0.3474528255497474
7.55,-0.6148406910573908,-0.8814665023688274,-0.19107505165181685
7.56,-0.3916448960239707,-0.27535472029394115,0.22584233425259467
7.57,-0.5566338230244681,-0.17910632478103364,0.3247826478418972
7.58,-1.0148109818514894,-0.2378528968842226,0.10573426909718253
7.59,-1.8925856788040467,-0.6724617284303891,-0.05798132905592219
7.6,-1.8548732313758138,-0.2138632283577111,0.087141971389784
7.61,-0.6585820466679667,-1.1630888317109882,-0.0702457041128363
7.62,-0.14407508981824546,-1.697368362873057,-0.13024936247186614
7.63,-0.0075876611518407465,-0.6903302542515223,0.07336679445707418
7.64,0.3145654707158397,-0.10884558932330167,-0.13978775627638496
7.65,0.5637908763406316,0.5820772673643606,-0.29335367713802507
7.66,-0.6383907055416129,-1.567793596344327,-0.213452724421624
7.67,-1.237704164214392,-2.884282696450934,-0.17631589138486795
7.68,-0.6843268148467316,-0.2561031301420747,-0.005910533541992155
7.69,-1.273040747159862,0.8595992504989126,0.03657766298899722
7.7,-1.4994205275026469,0.5300157152953745,-0.3457846571375525
7.71,-1.965778352326735,-0.02969628360789009,-0.3958239915536452
7.72,-1.984414241002937,-1.321996602163969,-0.07063941193100061
7.73,-0.43106685194224514,-0.8327385307263622,-0.06466415863346418
7.74,-0.09889426408187836,0.27550840911057234,-0.30006615592139846
7.75,-0.40661672884420996,-0.5557811041775969,-0.4132343121596538
7.76,-0.11988403020940931,-1.1248060608845964,-0.2860837430036142
7.77,0.1041393343645156,-1.101204559104584,-0.18868031238886718
7.78,0.0684405102014505,-0.8389902488181034,-0.17374378624626263
7.79,-0.1652912740873087,-1.1212331327660996,-0.18629728290690326
7.8,-0.8370637172602124,-0.9324963300321737,0.06417725956558336
7.81,-1.4379949990688308,-0.5931765171085985,0.11741055875333921
7.82,-1.8095969861924315,-0.44435439952718986,-0.07989320835459242
7.83,-1.8115380349788668,-0.1447277815264497,0.09598537011953599
7.84,-0.8963912370730535,-0.7877379106232101,0.07668187593407073
7.85,0.025922573569234497,-0.2850792499206575,-0.031211278614927836
7.86,0.03225284327201398,0.13491842843575824,-0.02033544723393198
7.87,-0.8205222278942076,-0.2586612473147446,-0.29725599335707387
7.88,-1.5656226344029889,-1.0588767451283823,-0.7558380169617803
7.89,-1.8818599408295391,-1.6710559425106972,-0.23094290407217533
7.9,-0.5826872117807269,-1.4606748808827135,0.3603644951993662
7.91,0.9877441523001119,-0.5500662438610988,0.2600705373374374
7.92,0.8367454423093181,0.028902794085397598,0.37420605723213024
7.93,-0.2897142372151542,-0.45729030513214075,0.16533798208433262
7.94,-0.6255911172475899,-0.5335443297563276,-0.4555312159413395
7.95,-1.3356951451051626,-0.7900032026990683,-0.28139904337312194
7.96,-1.3851137378776301,-1.6881659222354048,0.017839786999004303
7.97,-0.6749029297775967,-0.9396573645004991,-0.07773515898920674
7.98,-1.1395050354919969,0.04986394407931533,0.2908101105116031
7.99,-1.1255114422596635,0.7893497197955348,0.4946947942640639
8.0,-1.4773648106838373,-0.4801185436700934,-0.07826876492373203
8.01,-1.538438263033131,-1.729515200485581,-0.22401863439626413
8.02,-0.08082133321552913,-1.0193977920067057,0.07837087242659625
8.03,0.9350234205103531,-0.04340458367676984,0.041871274273404945
8.04,-0.5065114180256168,-0.15677838553308146,-0.21348428740223696
8.05,-1.8444626630997194,-2.060221620486056,-0.686617304780315
8.06,-1.686668632678139,-1.6672718296845483,-0.1322240665053117
8.07,-0.91724345325926,-0.9204039165185942,0.5956469674170969
8.08,-0.12319129463379334,0.6539281718230325,0.3963346767595193
8.09,-0.9749072002137414,-0.12901926608995368,-0.21755764371522024
8.1,-0.9989030331299035,-0.8403803989582538,-0.37218948350413555
8.11,-0.29550204952417675,-0.8918334175076629,-0.30907984393863086
8.12,-0.8920966947871759,-0.38892943330090596,-0.3629613812352462
8.13,-1.5090986225261926,-0.7258118690638397,-0.5421652716235562
8.14,-0.95322115147863,-1.3182776215428849,-0.1387817972625532
8.15,-0.4967309682578665,-0.6744687015013795,0.29840613481526534
8.16,-0.23515149745756334,-0.7819196900502354,0.3797520855863829
8.17,-0.6666670884012544,0.8497775487387736,0.2838482032553092
8.18,-1.5002771400247428,0.07180418163120564,-0.7187160867561112
8.19,-2.211073966088276,-1.2608593200003086,-1.087500478736472
8.2,-1.2238470297930113,-0.7839076794528334,-0.35509192496895337
8.21,0.21002162389228032,-0.5376211461633471,-0.3784799925691441
8.22,0.36868255820311074,-1.0448615441416227,-0.41247635160881874
8.23,-0.2631685864301631,-0.6842528147301028,0.03435065958209164
8.24,-0.376506422977235,-0.012989166181851659,-0.23264048851219118
8.25,-1.852322690984684,-0.3305849389496877,-0.3424426946768245
8.26,-2.003452156296148,-2.526553878737158,0.003761275599548871
8.27,-0.5374436886469847,-1.2452716760035787,-0.2981173889716766
8.28,-0.8274370211488715,-0.2787711467545017,-0.31009661217838547
8.29,-0.1793206387017486,-0.2784499195922716,-0.03578318988736811
8.3,1.7759348346837993,1.228234818520143,0.0932044444917203
8.31,2.312162629431165,0.28676541010213713,-0.348350527147444
8.32,0.9699601231993932,-1.1425035625667335,-0.5299625384098469
8.33,-3.341660017390155,-0.8549018207071901,-0.43006412569628105
8.34,-3.756804456307531,-2.6574409377270376,-0.5802716150523096
8.35,-2.453860916677079,-1.0441845290397103,0.1781104880011882
8.36,-0.8947998024425253,-2.188924637261353,0.005360828916653203
8.37,1.375423090218761,0.5389185479170344,0.5914508761485124
8.38,2.5563808592253263,3.793916783522908,0.9275308573691883
8.39,-2.432342745964444,-0.2539605740731394,-0.777013391379103
8.4,-4.663280939150682,-4.165725646257219,-2.126368672810598
8.41,-1.4853689475515137,-1.5577803112755224,-0.0006451418716381496
8.42,-0.5653269070661324,-1.1313975351825265,0.4586474261351265
8.43,0.08644145990263476,-1.5638726443805933,0.24514648141129045
8.44,1.2368826743598351,1.6225584560414181,0.9979373886232886
8.45,1.519308347878857,0.9512375111459844,0.8218766972839286
8.46,0.39393647231926376,-1.4744454800751616,-0.12668312582619073
8.47,-4.004568526574569,-0.529167028228573,-0.6035608187221021
8.48,-2.7963819288615004,-2.5270826385747696,-1.0887001135640344
8.49,-1.730140656471267,-2.0054130866681943,-0.13000111059038308
8.5,-0.9333777317739652,-0.9886610341193028,0.08684426884672425
8.51,0.9434561771527017,1.5050553873233206,0.6009740154017835
8.52,0.8986331175560747,1.9814476247438961,1.1081560631463905
8.53,-0.620600261488907,-0.7614040791532732,0.22352368455987232
8.54,-2.237383427969994,-0.19488938471014727,-0.40398231089278624
8.55,-0.6742968738325289,-0.5557487307962401,-0.17704699145950228
8.56,-0.17903462919461943,-2.429047972028072,-0.25300178056326544
8.57,-0.24845832530006282,-2.4241900268031507,-0.16450831110973205
8.58,-1.5917927842359858,0.01533002044408354,0.09649690983120618
8.59,-0.18499321540575542,0.25797396811293954,-0.8782383367838915
8.6,-0.4885185914357587,0.43345001276833395,0.36579118926252546
8.61,-1.1565246211515727,-0.4415614430859359,0.8676392897983853
8.62,-1.3876433969931912,-2.826404967717384,-0.29078451105532727
8.63,-1.1998068224207263,-2.0725443434818787,-0.044471524611095596
8.64,-1.5673930118452284,0.9729524987826302,0.39373377759657197
8.65,-1.8660492054125755,1.9313881290130233,-0.9386675862535466
8.66,-1.5399034152221442,-1.4475790882725867,-0.33996506659800085
8.67,-0.8018185067427,-2.3201151236808073,0.5338294205467775
8.68,1.337318175483401,-0.5839639452498612,-0.3592407570842962
8.69,1.4767533493715566,-0.11421883328422229,0.10254139757067281
8.7,-0.9346596936932906,0.2797606866547043,0.771758837491227
8.71,-1.2056633503832315,-2.0626429989396002,-0.7726361942653229
8.72,-1.7753706600298698,-2.0472558762148756,-0.31615254058935605
8.73,-1.1709028651533584,-1.6332808882436773,0.6496280687379256
8.74,0.2598825551632086,0.9063361102233438,-0.10387138499916695
8.75,-1.0354845160382875,-0.09791628706800318,-0.29677810354609063
8.76,-1.5310800035415595,-0.18392846652741743,-0.027710236396562497
8.77,-0.551436390763294,-0.03095825012693673,-0.23786542853918496
8.78,-1.9556237681603124,-0.8684272855923271,-0.1559900662139882
8.79,-0.8798962309244512,-0.2458505261898709,0.0028525628083124165
8.8,-0.8338134934023682,-0.913792255338404,-0.1768942206480244
8.81,-0.8503472253243114,-2.08586598294034,-0.019143678179956127
8.82,0.14395939342550138,-0.4759295375435576,0.3866277585807052
8.83,0.42416726417002737,-0.15853204199758095,0.09575866100467371
8.84,-0.22446592082786587,-0.528143736247925,-0.3806356303195087
8.85,-0.9931741147681576,-1.0639168802846317,-0.6229414466926366
8.86,-0.5981280510393362,-1.5124616976555092,-0.4359159508897204
8.87,-0.6221263225168658,-0.29824354205709974,0.008340188249723816
8.88,-3.2871887217510785,-0.648414820625587,-0.17046142078179366
8.89,-1.2098894416760362,-0.943722281662839,-0.25434644825212865
8.9,-0.17337774371987746,0.46036115923518445,0.8663871673072289
8.91,0.049546208665240433,-0.2163727798321536,0.7579867851215124
8.92,-0.11796086344773125,0.060727978071147645,-0.06976738110776438
8.93,-2.650446448159066,-1.6319145638966712,-0.6704680626360136
8.94,-0.4845969849756626,-1.0825894077097493,-0.6055790825522863
8.95,0.189634564321879,-1.119165561810319,0.09025132867766164
8.96,0.8740749602363108,-1.1548972576075334,0.40960883907142187
8.97,1.4145198490486168,0.265249923278083,0.2204208179436191
8.98,-1.6003964519674805,-0.14213140004671815,-0.25099720892319055
8.99,-2.670655225664375,-2.0297531171338257,-1.1437599477006648
9.0,-1.330608849493873,-1.078288831661772,-0.019049381251516943
9.01,-0.9466983397755756,-1.4174397936144778,0.46970162439385865
9.02,-0.6145161861789976,-0.13783801538976934,-0.12039787250380127
9.03,-1.2944515221541044,0.2657873020093562,-0.1421207991539374
9.04,-0.02544866423065596,0.14661576838211884,-0.030392286612341925
9.05,0.13306061100897335,-0.9055312426227534,-0.13565904783285232
9.06,-0.22015704259629737,-1.4517341319071984,-0.295948200050418
9.07,-0.5003025173930428,-1.2742965545564686,-0.25456191091554575
9.08,-0.5450951432348832,-0.5693598719749616,-0.12725212781232648
9.09,-0.7448416461395236,-0.47888939703705663,0.14914153734647845
9.1,-1.3413684875656997,-1.2859089480724395,0.06058349818938309
9.11,-0.7299172217954221,-1.0963085975075972,-0.22043806323241646
9.12,-0.5427278403044681,0.13939119802614175,-0.1021142693531375
9.13,-1.235465517295309,1.1846244996510298,-0.17358969285501663
9.14,-1.0488648436128933,-0.5574332696212014,-0.5196707390419908
9.15,-0.9120228819597322,-1.4366635563374968,-0.09892770162114187
9.16,-0.7986380592899458,-1.14538688476291,0.32483230099807753
9.17,-0.5133328290102719,0.22672197726665752,0.5644434050298177
9.18,-1.4680689975796997,0.06662292360728785,0.22279418831563613
9.19,-1.7699928620480772,-0.5540097008176215,-0.32398379698020785
9.2,-1.3902057470330575,-1.761046447215019,-0.13324862534988482
9.21,-0.38170905500452745,-1.5664300369591158,0.09572497518472899
9.22,0.3592954698861779,0.1647448974753383,-0.021946951387329227
9.23,0.12842064846823145,-0.16005682313767353,-0.14559942473377863
9.24,-0.35802681062042474,-0.6588181141476499,-0.11807461507136796
9.25,-0.45600612806435936,-1.044242274917559,-0.16597034709284642
9.26,-0.7990324425472308,-1.349712591046831,0.08115504086282369
9.27,-0.39001788984495905,-0.5057669754283137,0.227548844724982
9.28,-0.787255148525424,-0.08972957851335747,0.09505867392075228
9.29,-1.8258891254288598,0.4812281126658193,0.043008270170191196
9.3,-0.9621963486007677,-0.2543870650109276,-0.41480287009649347
9.31,-1.2099566246803113,-1.1425603512726261,-0.41420843078919134
9.32,-1.0827386462035842,-1.3766925490695878,-0.3332249695866119
9.33,-1.2854450432118083,-0.6416438503955247,-0.18398394913851918
9.34,-1.237598846641716,-0.6998638960922223,-0.12450142397905402
9.35,-0.09696867797084106,-0.6125875912193927,0.1406482019509435
9.36,0.11398719830811004,-0.6991420597370214,0.47138796967660535
9.37,0.23381009250641352,-0.6292212690027287,0.2035418670038507
9.38,-1.004720749610778,0.0013673994526105957,-0.2189695595151045
9.39,-1.9031639196416117,-0.8390468801730602,-0.6295215680783071
9.4,-0.34464307793221544,-1.4553584481338382,-0.2767479753991869
9.41,-0.14523909673275873,-1.2293739360951224,0.4359258330949217
9.42,-0.1345115827771441,-1.1072540253263503,0.44339382178363407
9.43,-0.5860206629451327,-0.37841227701513425,0.2126250174410803
9.44,-0.7867179514162452,-0.52232905852726,-0.16836032888481084
9.45,-0.4297690811589652,-0.6373221565982249,-0.06380959634865938
9.46,-1.123046655317102,-0.6561683880081312,0.11251724356937827
9.47,-1.7368283491637952,-0.9447415044828431,-0.2599000038295149
9.48,-1.486382624417569,-0.32518476176312056,-0.13764934640376478
9.49,-0.9862877103142149,-0.06356630555458348,0.38850773000591576
9.5,-1.3478365578742597,-0.2646149741400348,0.452146996043175
9.51,-1.4674458295213333,-0.9701101458166747,-0.0742735626388808
9.52,-0.8206463397153523,-1.4079588474006968,-0.14001818731493904
9.53,0.5276600386966399,-1.0425659379519066,0.06629295379053925
9.54,1.5620835423819732,-0.36536092797473946,0.20944936279685306
9.55,1.1804763064949282,-0.5860324234095853,0.26156425653834225
9.56,-0.4152608755080166,-1.24434040339759,-0.17704170396191554
9.57,-1.6509350713330389,-1.3100738532876288,-0.666061413343107
9.58,-1.5583098518024423,-0.7472767596951184,-0.1538881010372671
9.59,-0.7704785579118576,-0.3428063126591734,0.4675855513806774
9.6,-0.6312070101505083,-0.4340660988828876,0.09968281297419612
9.61,-1.3559302887028681,0.3793626994461698,0.1290116993988504
9.62,-1.663812259152781,0.5383002356880714,-0.06958000327553696
9.63,-1.8141333808639657,-0.06206468835878653,-0.2409514542609299
9.64,-1.6502099541418374,-1.2046524887578958,0.014815039557056726
9.65,-0.676598536353122,-1.5588406335846687,-0.09120181889916393
9.66,-0.5362692434974611,-1.2064635987980994,-0.2931674880936758
9.67,0.062238467274533124,-0.6051932384725478,0.055040263591548316
9.68,0.7400364930989425,-0.12986878299095508,0.2507415061982184
9.69,0.13409439657233782,-0.6273548649364621,-0.06640307744710912
9.7,-1.15457139661618,-1.4212162391283145,-0.4412721619316309
9.71,-1.053017125694086,-1.0374509248904256,-0.47243616231596236
9.72,-0.12494612642982629,-0.3959077849865754,-0.18965460748185042
9.73,-0.4807560355471466,-0.44212492190085473,0.10369186895324999
9.74,-1.4616602822241274,-0.34713261637801923,-0.09669178196891079
9.75,-1.663360804517467,-0.3605312315135734,-0.42207859247466356
9.76,-1.2581349961440498,-0.5014594815626096,0.02389144439033872
9.77,-0.6152280743360897,-0.5111723425425383,0.4528664123072659
9.78,0.4268021009714336,-0.48656353097381444,0.20877023927285593
9.79,0.792083868214172,-0.5661738408604012,0.11839985749233506
9.8,0.11632824400180622,-0.18717020882628715,0.12233052247293331
9.81,-1.616571538044044,-0.6241978618827428,-0.670164830156814
9.82,-2.814228992588513,-1.0157071549371521,-0.7602658303367043
9.83,-2.3504613974014164,-0.9721622104057749,0.23005749914060192
9.84,-1.3090155616821448,-1.3289794285701293,0.12700209233463344
9.85,-1.0102680611464918,-1.1211639324967286,0.2071985604497662
9.86,-0.4352557462861617,0.7133191393223117,0.8283322987419021
9.87,-0.18318102692598903,0.4971174410215451,0.01406201041090888
9.88,-0.826884001094967,-1.269178458563867,-1.1519956999215597
9.89,-0.6320511767206729,-1.6612171543835406,-0.9560757602482484
9.9,0.29580022366322895,-1.3817990888810365,-0.22135755172914748
9.91,0.6162717907901902,-0.9835374976973484,0.034406919069595844
9.92,0.09068303129755667,-0.3943859277719437,0.2889804611818651
9.93,-0.755990382325073,-0.2615740549735097,0.32445167894052124
9.94,-1.3041205192644616,-0.16328975800803927,-0.015405875047064895
9.95,-1.5658396450893455,-0.5257523005114811,-0.17544463758073503
9.96,-1.3916649566764658,-0.8191526075052971,-0.12210027325358136
9.97,-1.4650841648983397,-0.3694241645480918,-0.24031278440660458
9.98,-1.5546427977210728,-0.73004175689695,-0.332451428443629
9.99,-0.9444270475441042,-0.677862158377579,0.05489229992211737
10.0,-0.1713735031479897,-0.483091694152758,0.29382289005586154
10.01,0.47353790563869536,-0.33426618228725585,0.1483596571612919
10.02,0.2769955961942672,-0.12150058218702413,-0.045679052366764845
10.03,-1.3419216473735804,-1.391746860811605,-0.3638596880438411
10.04,-1.496189451227573,-2.080525353162287,-0.5315180481567878
10.05,-0.5774310197953477,-1.2652803740277434,-0.19967096025857992
10.06,-0.4486839420916544,-0.8750022879202509,0.0706906366376314
10.07,-0.13858128775133985,-0.09707470284023442,-0.09070205884936419
10.08,-0.2472748638051575,-0.24655135648791307,-0.4252827563042202
10.09,-0.6165434769396896,-0.871291663697846,-0.559937356449507
10.1,-0.6950992485437043,-1.1362607966035971,-0.3630254643324321
10.11,-1.1794113610112162,-0.34223493415871253,0.10834566285889033
10.12,-1.3644861756936113,-0.44798737354300316,0.15692610464348625
10.13,-1.089244244374768,-0.5520006222709449,0.269544778603792
10.14,-0.7493368062360535,-0.37736144354937484,0.4318020569709836
10.15,-0.539302110701236,-0.0528618722397784,0.15619235639263584
10.16,-1.7618227722299422,-0.08577843057598591,-0.5097419814918729
10.17,-2.6446846967237403,-0.7345338766446798,-0.9854543081314827
10.18,-2.084860662196472,-1.4749957862807046,-0.1562037090437807
10.19,-0.8052100979952731,-1.1950675566552889,0.4180125148894991
10.2,0.07653101521107794,-0.8682410198871912,0.3498547860058348
10.21,0.4090721181640348,-0.034879960909500914,0.5736948691501021
10.22,0.09617153820268881,0.1782253626034606,0.2501176212200802
10.23,0.08256734426802995,-1.0493008106386044,-0.5322973849575054
10.24,0.8812962257075241,-1.7057137560767763,-0.6327711287255278
10.25,1.3560701768080885,-0.33227637557027184,-0.20220655187522904
10.26,-2.7537983015977634,0.17459756314430142,-0.36988053612436544
10.27,-4.248714891291603,-1.5073129792522353,-0.774982649128645
10.28,-1.828252130628017,-0.8936873297950036,0.48597928739703816
10.29,-0.5090955959154613,-0.8167326143024641,0.5663809193477146
10.3,-0.29651889634966455,0.1037103361295597,0.05929958659255677
10.31,-1.4330082030907305,1.5071235419306843,-0.1902691994804928
10.32,-0.6239582110884268,-0.4677317839059864,-0.8557616435319169
10.33,0.08793955071895643,-2.071106968895073,-0.7375924819728946
10.34,0.717063767201908,-1.5339196166541975,-0.17810495885114222
10.35,0.8777067906328526,-0.26886200782648245,0.18438052230682236
10.36,0.08270251659470781,-0.6271479678545339,-0.023586835925396645
10.37,-0.41948622448462924,-0.8239211074366207,-0.01546968548124471
10.38,-0.7523508732629691,-0.8745555865990975,0.20704712625075444
10.39,-0.8856974017639893,-1.9777721714528604,-0.1584353668232719
10.4,-2.252404070397845,-0.30748648993689653,-0.21286896444255896
10.41,-2.983617059122157,0.75857086372483,-0.5760757031300281
10.42,-1.874303847826943,-0.8414821865658788,-0.3014947434921956
10.43,-0.9259065968958771,-0.7705587567082277,0.41195116946790045
10.44,-0.060368751000177384,-0.3836266127234129,0.1404742123247141
10.45,-1.2341670666771545,-0.3625086071439915,-0.0163060953604428
10.46,-0.997407708182799,-0.4587336982619281,-0.31849146727760813
10.47,-0.056501504181139105,-1.0575391197986925,-0.32635835883715425
10.48,0.29364377787181895,-1.3560409787269572,0.026479294599669384
10.49,1.1582877648175898,-1.0258720154133925,0.022539351875484826
10.5,1.0319223349902866,-0.11926245918018787,-0.10554708119479264
10.51,-0.7346638781845577,-0.6783908842494741,-0.689080593654552
10.52,-1.0070021735401902,-1.2186399050769587,-1.066875315840967
10.53,-1.727435334467207,-0.3250421079114356,-0.04666335353086614
10.54,-1.5809150171106143,-1.358632236938657,0.2278593136893923
10.55,-1.467498012166267,-0.2726039037015048,0.034412097388268635
10.56,-1.6883686354290106,0.3287890127288138,0.3409422151622374
10.57,-1.1541929669724522,1.3304977330922285,0.5522905106120503
10.58,-1.634529314720245,0.9837265890300738,0.08096937434409142
10.59,-1.4190756490036454,-1.8002686117980566,-0.368868551034052
10.6,-0.3423672790342891,-1.8110460860711888,-0.30975594731655576
10.61,0.8494906927851027,-0.136204787462906,-0.2351345670721494
10.62,0.5553769049328237,-0.8772263144284795,-0.16235391341029604
10.63,-0.48453317311244165,-1.7483006165934192,-0.28455351941207274
10.64,-0.31458388607092425,-1.1278610768408974,-0.37138223213008315
10.65,-0.42635257669303406,-0.9891235975744841,0.04850987955842287
10.66,-0.062322039919507154,-0.6349000083200795,0.17203227823940678
10.67,-0.2654603360547571,0.11629413391875291,0.06756738490816673
10.68,-3.3870621436635653,0.3383874645981589,-0.3440717719640591
10.69,-2.6862977282321028,-0.6706772615935991,-1.0730957153255287
10.7,-2.453294590498532,-1.0700241251273745,0.20989799424631544
10.71,-0.13447924858323598,-0.0018763539136909437,0.6471641365762268
10.72,0.9473007909011837,-0.2094342523883316,0.01865353864842429
10.73,0.3109738741091911,-0.511351478150943,0.312551451401725
10.74,-0.1645331255866324,-1.0106079887421058,0.3057093411556389
10.75,0.4867615296982328,-1.4023348511603222,-0.18899408065551515
10.76,-0.06626415994065848,-0.23667350230390446,-0.08417469431322368
10.77,-1.4999224924613548,-2.1906759611740205,-0.4984948359990504
10.78,-1.397829013546187,-1.1606114674844785,-0.46422583658955596
10.79,-0.7307000376324483,0.29516268927166867,0.0727853499979285
10.8,-0.5058125428827291,-0.9055077829641096,0.2517819130933809
10.81,-0.2615289805987096,0.2608949482753355,0.25058564920857984
10.82,-0.5303359953542554,-0.42272094576864305,-0.15658788890353945
10.83,0.34267090544263223,-0.27042274407741906,-0.3257287279727275
10.84,1.3938640948484564,0.19999803794183138,-0.18083481005601637
10.85,0.11187649042226884,-0.7694450902934936,-0.2014353339682697
10.86,-3.827366913046982,-2.2753280955861324,-0.7424505910866672
10.87,-2.930700538251143,-1.6449179511834422,-0.5900066024724333
10.88,-2.634017449630235,0.3453444641246315,0.7832331433820083
10.89,-1.5495526323326634,-0.5452115652206548,0.09221785232715139
10.9,-0.5974939598984037,-0.6308052830400066,-0.08476780796005098
10.91,-0.04954747235004783,-0.5619993323972988,0.2040395023823954
10.92,1.6865677963594268,0.0009975844980386727,-0.11352599796789706
10.93,1.3124321875255158,1.0386388743884774,-0.2888377393393569
10.94,-7.549942431982647,-1.4722610131215699,-1.5696721985496198
10.95,-5.770219652971068,-6.411615974053224,-0.752443731071084
10.96,0.28186861711410294,-1.2412713454802176,1.0245736241691412
10.97,1.0934336607845083,1.3399196847037245,0.5090607120542963
10.98,1.3425465218600852,-0.6858484230108336,0.5344293390125155
10.99,2.0934055665905933,1.05336758555755,1.046102321356027
11.0,0.2985777838553338,1.912538648762383,-0.1951485133009387
11.01,-4.644851513930453,-4.655602582183371,-2.579618915380449
11.02,-2.4331409854010504,-3.421801954947664,-0.09140514443409438
11.03,0.9446340141425822,1.7991078077218616,0.9831096378992904
11.04,-0.06516303668018546,0.11698013623042545,-0.19146902764926285
11.05,-2.323431096360473,-0.7034970349112485,0.2187656509708273
11.06,0.13873014399557496,2.67986601615626,0.596791582292675
11.07,0.28054701199106424,-0.21906248036089346,-0.11473244256719725
11.08,-1.0588441326018851,-3.252767560761557,-0.7844438877725534
11.09,-0.05813665774333252,-1.0790752493131424,-0.7613460674287396
11.1,1.1816769585504912,-1.0761344143284466,-0.4717758115844711
11.11,2.1594093873592595,-1.5370231038665916,-0.030384006840887077
11.12,1.437558511422028,-0.23319709632814306,0.43765336738939253
11.13,0.15251860563425,-0.6010790819838294,-0.06863584961886145
11.14,-1.027415614046584,-0.6096101337632459,0.5041305604859123
11.15,-1.6308454788433846,-0.9136301023989039,0.5947948569209246
11.16,-1.715224130000205,-3.808987591789052,-0.3017574902973643
11.17,-1.5042052573027318,0.27849122770191465,0.5212082603713507
11.18,-2.0642911384497067,3.7538470200348133,0.49023987139772013
11.19,-2.100844236709522,-0.9306562300914722,-0.678522959697295
11.2,-1.9085965983177846,-1.066249730272999,0.4011259652515101
11.21,0.37612858720448406,-0.6569256706754638,-0.7320150787371531
11.22,-0.19682113979760213,-2.1580877478084384,-0.7975449418937136
11.23,-0.47526846749475227,0.1784316580635657,0.6068591308594974
11.24,0.4483409450774647,0.15870071570203395,0.12474386340350176
11.25,-1.5008125301432382,-1.5896218003368443,-0.5034712218190448
11.26,-3.4816031030330903,-2.1014546717479092,-0.3524047996756001
11.27,0.1624648028105492,-0.35661753193129064,-0.3566767835587602
11.28,-0.41486933578869273,-0.492456646837677,-0.3714501686089539
11.29,-1.6297987469606345,0.34476709992649057,-0.0353511535632067
11.3,-0.09957965980693965,0.1664325523619576,-0.23936930210797303
11.31,-0.1492915270329952,-0.1687671972446687,0.15729729629603229
11.32,-0.07805551480659226,-0.2013416660750791,0.5653622252861428
11.33,-0.13373975957715578,-0.3083760027842333,0.39685900977997696
11.34,-1.04748599258431,0.22976928517848993,0.3432253331840634
11.35,-0.9361389246238342,0.027258919815679128,0.3105529695332447
11.36,-0.0009921595748409078,0.4652141142952736,0.43967652465871926
11.37,-0.41813882734586716,-1.3156037793712763,0.2431796086824149
11.38,-0.1432098926037624,-0.9532305717654942,0.05916896997443522
11.39,-0.6001503953401142,-0.6148976914564402,-0.07480174838216397
11.4,-1.4643048211876122,-2.659254521883992,-0.24621509128005573
11.41,-0.1295006242902086,-0.5105144462564553,0.2400130552007641
11.42,0.19651398669051168,0.3862782957883606,0.32857639012630296
11.43,-0.6081954456471466,-0.39452480295114156,0.05581015656436693
11.44,-0.9938206376107147,-0.2184331297804928,-0.12810982473458943
11.45,-0.8663392577335752,-0.376098274657897,-0.25261813193411053
11.46,-0.43201301975862166,-1.512356815558967,-0.41443930183037886
11.47,-0.2410372979065946,-0.26680147976775503,-0.48880400993864065
11.48,-0.6263032689848053,0.7337772091065347,-0.8390834656321985
11.49,0.25510045221895117,-1.303305946254886,-0.9623851323809408
11.5,1.017214313042947,-1.1775598942594705,-0.00966617658806527
11.51,1.51377359452254,-1.240215421170183,0.30004183284497604
11.52,-0.530453591872455,-1.1781370899016024,0.15649765641477545
11.53,-5.781942880442473,0.013574140093123868,-0.29184526501038366
11.54,-6.1940673322936535,-0.5830999546296506,-0.5628131279404563
11.55,-2.8231767650489954,-1.050310982369457,1.2530806818479259
11.56,-0.45955990770864474,-1.3603868895445996,0.42026412243494876
11.57,-0.5596359256295141,1.9842991000881007,0.5807426241773629
11.58,-1.4104105682657004,1.5225776927778063,0.7886073719543988
11.59,-0.4790781121032091,-1.0446309386601822,0.04238315243249176
11.6,-1.014585046401876,-0.7170589256422947,-0.24065959711740828
11.61,-1.8630247697275526,-2.877049958082455,-0.5852188146649606
11.62,0.25060349511713403,-2.7383230087509918,-0.2854513282239655
11.63,1.9389542836575768,0.37650086197657234,0.10555390395977833
11.64,2.169083401996366,-0.6089344769336223,0.04833594298442362
11.65,1.4247499841330098,-0.0765233735084229,-0.09039576490113427
11.66,-0.8101231767652832,0.17605031583413236,-0.8149307720280684
11.67,-2.611495700003215,-2.1318052432948082,-1.2497822617652847
11.68,-2.0279975776605403,-0.8534044011659012,0.042015343243748414
11.69,-1.6083973706008865,-0.01719375731966838,0.4126332740620622
11.7,-1.807818466106088,-0.13293071669765766,0.058638005577425496
11.71,-0.3643933714144055,0.823724424664739,0.6052146521655715
11.72,0.2573761748220183,1.0933160967094913,0.9944956605285584
11.73,-0.5569680020849402,0.6112623013345955,0.3650150376258462
11.74,-1.5766800058480714,-0.13236474045932978,-0.5067781089496411
11.75,-0.9221398475383766,-1.33144651012177,-0.5339094210260968
11.76,-0.5810982946796368,-2.9602873182483163,-0.539950377314591
11.77,-0.9315140434747736,-5.367399186462418,-0.8900380820456444
11.78,-0.170564020571257,-2.550322537707339,-0.4485703075965398
11.79,0.4436638349172901,0.575769446891978,-0.58913640431437
11.8,0.610212055495942,-2.120149148406295,-0.9194378720935367
11.81,0.8991454507757618,-0.12128619839447531,1.12703416787889
11.82,2.0691601425988666,2.3683366264720886,1.2003817970859156
11.83,-0.3919674897852373,-0.0920976770137769,-0.28211240448474884
11.84,-5.158883349063313,-0.11569834307455622,-0.6799095629803763
11.85,-5.295118460968005,1.3368972521979903,-0.654761322975739
11.86,-3.101900773790905,-1.0147851984942915,-0.054126544893909306
11.87,-1.2964639138163336,-1.588381239133126,-0.005290410212826945
11.88,1.65267408218341,0.05511559253607073,-0.41748049606669213
11.89,2.006414952093967,0.4414236919840857,0.2612940478485515
11.9,1.3839091149729408,-1.6374785466829203,0.13035279697474672
11.91,0.4903234681848809,-2.9018026483105626,-0.7068660073292244
11.92,0.004719710687298209,-1.8310123796008342,-0.7106871899253129
11.93,0.43489839873077424,-0.601585501385428,-0.0395982831422616
11.94,0.2871510854755931,1.010460039298855,0.35588792193978863
11.95,-2.027943456294985,0.5665618797699858,-0.34391068933927504
11.96,-3.4973751769081343,-0.5176122368440264,-1.0622551445636597
11.97,-2.5652244903732773,-0.04850171714238243,-0.47335465048226816
11.98,-2.7599490406964926,0.5228355077466618,0.3851519255225983
11.99,-1.6947272554456938,-0.2970097519798587,0.13118945759154316
12.0,-0.3213262000163098,-1.2621386670100403,-0.11699863529729827
12.01,0.38331908985041785,-1.0244837336124166,-0.06911574551285796
12.02,1.6561569215735095,-0.262802809218913,0.09810522026839943
12.03,1.5491411391673613,-0.3761144420509156,0.05036383715689262
12.04,-0.2878676221180554,-1.0285071246101556,-0.3988199928418848
12.05,-1.5147657800427528,-1.4745508687552915,-0.5404904623555546
12.06,-1.1171498738043737,-0.8720141658747256,0.039709319810202974
12.07,-1.2366754533868856,-0.31313835301388604,0.43493471455045474
12.08,-2.233461429448476,-0.0045927461945180145,0.225944609417012
12.09,-2.2855155945573298,0.4411552976294399,-0.06527158225636963
12.1,-1.337019524622108,0.1883511501175677,0.23265993995054585
12.11,-0.296931134007278,-0.11550504103232923,0.3187295938256241
12.12,0.09689871766409928,-0.8939740504592698,-0.1431997743236147
12.13,0.30363616135063143,-1.3373048755031642,-0.09449951878387175
12.14,0.45915876885875156,-0.6119964761268517,0.2529760206917366
12.15,-0.10785248981509049,-0.6610224305507492,0.039325206015258116
12.16,-1.1030703932483095,-1.3262579975722286,-0.26889398450216023
12.17,-1.2923280788407574,-1.3344004435657413,-0.09764956953140409
12.18,-0.9875963782477947,-0.7358345269733516,0.036821928542551625
12.19,-1.0510702074940779,-0.20746004910355678,-0.047181955942119914
12.2,-0.685263072974522,-0.48449432585577384,-0.049899157950168
12.21,-0.5250872649304341,-0.15128673972128556,-0.058902769012729284
12.22,-1.4437031376701843,-0.2530432951779821,-0.6200763679096263
12.23,-1.5984274316317642,-1.5337480723965478,-0.7384208150615442
12.24,-0.5897690801268347,-1.2163116098837417,-0.08449021268909414
12.25,0.21877873030692502,-0.6970473548986191,0.008654163578238507
12.26,-0.1759345058390238,-0.4285105435767577,-0.010962490032527049
12.27,-0.8274162224926971,-0.4101445870619865,-0.012821358907620371
12.28,-0.48386306435267734,-0.6979465887372439,-0.2169185497627415
12.29,-1.1636223875003584,-0.6089913781386952,-0.15432768634027055
12.3,-1.9072774059212303,-0.718346249230759,-0.08046507751777615
12.31,-0.9616360984444892,-0.9292657234944808,-0.1201073197131455
12.32,-0.9746872314252725,-0.2631271506018414,0.29049085768430677
12.33,-1.0579202665310083,-0.6653613337380567,0.2998878973909566
12.34,-0.31551437327424353,-0.4075260732544192,0.17020609253865213
12.35,-0.0027331494320234893,-0.4495087942266249,0.27100774506568504
12.36,0.11504862611139453,-0.8331127320174235,0.06972106550412613
12.37,-0.6414649128300622,-0.5666522972255215,-0.16982251627854156
12.38,-1.0481107014638624,-1.121641476761977,-0.30923122430704036
12.39,-0.2534840033525813,-1.2371612033915285,-0.029836198501052586
12.4,0.14153938675152225,-0.3052795841247912,0.3691305123475212
12.41,-1.3949753819878845,-0.43176798752078616,0.1183970102278936
12.42,-1.5455060378969336,-1.1052609131822295,-0.2533688342665471
12.43,-0.28817719498304395,-0.6747983925388105,0.1215072476162352
12.44,-0.08093799795371853,-0.2378112889515313,0.4735101292313959
12.45,-0.35670478675791717,-0.28220322319513186,0.15366263103658026
12.46,-0.5023802966241235,-1.206699377418955,-0.15906818962915795
12.47,-0.4384303164646797,-1.0322956115801252,-0.16277867085338127
12.48,-1.2493214881469097,-0.06558782880414625,-0.279907396832212
12.49,-1.8000890347497613,-1.1358077487265938,-0.3384041205232768
12.5,-1.3710853728972534,-0.9188345625970729,0.260400277083929
12.51,-0.7802349191331267,-1.1074665564551616,0.21633487050975395
12.52,-0.7928197224061065,-0.48600191865481757,0.08826622190229186
12.53,-1.3447315986187722,0.55833272838523,0.041911095433419386
12.54,-1.4073151420626666,-0.7589611939891578,-0.36563120979371905
12.55,-1.6032142552158468,-1.528394353007646,-0.22114538552963964
12.56,-0.3890657826512152,-1.137879187363528,-0.0687617489869153
12.57,0.5360329791816686,-0.6073688127968657,-0.15664315820148153
12.58,0.33516986596665216,0.17781384943453074,0.10954589918593416
12.59,-0.10994767851524184,-0.4893217914945009,-0.06848956958767828
12.6,-0.4874494242711252,-0.5541691521061358,-0.33084487213373864
12.61,-1.3662717077152564,-1.1197125987019978,-0.3549152895916501
12.62,-0.9225395825791594,-0.8031521211224032,-0.25623917962107085
12.63,-0.3253861175259367,-0.24374236787379322,-0.08548929267005619
12.64,-0.7146352021142561,0.18570309693352627,0.14537953912954138
12.65,-0.5756186507182325,-0.4565635162496015,-0.10371577873022914
12.66,-0.9268006397177148,-0.1392983067426962,-0.17937319536454624
12.67,-1.7792029235201257,-0.5428702816940645,-0.3567978644355759
12.68,-1.4092389374994114,-1.3165639471072317,-0.07313797549471553
12.69,-1.1129529525281177,-0.40922064778418576,0.05095865924334122
12.7,-1.0336637154546184,-0.411163061395206,-0.20681342158048882
12.71,-0.6900228423417151,-0.8028754055039765,0.03764894411801511
12.72,-0.20068043504304198,-0.9912107148449963,0.23181647685593101
12.73,-0.18712779325506634,-0.20915895662467282,0.021867101073013866
12.74,-1.743774039852099,-1.0148586252983642,-0.3814126393222173
12.75,-1.1494383886210817,-1.8972259933124942,-0.20992420264363046
12.76,-0.1132427602509654,-0.8916134025060758,0.14290852553239503
12.77,0.08793212618186705,-1.2829187817655845,0.17746014865646334
12.78,0.5266506518876316,-0.5173834713080849,0.18421020388056045
12.79,0.26518459224179974,0.8663967148938813,-0.07308815661999066
12.8,-1.7171240019424547,-0.6835320719504757,-0.8084870020921221
12.81,-3.0295034376525285,-1.783560007026222,-0.39008929432142964
12.82,-1.5756677702921726,-0.5713187055709743,0.3468176351554782
12.83,-1.3145274739371664,-1.1937834043638373,-0.13921558430365427
12.84,-0.7820045129912001,-0.2419816410633083,0.11810219772005433
12.85,0.11973083982530348,0.5829479213315725,0.4922121490719955
12.86,-0.023719615278020405,0.5625578615586938,0.13350142326872028
12.87,-0.6836948587964499,-2.3290351049063736,-0.5499524082951756
12.88,0.3331907353363531,-0.5712645717917137,-0.25614963629920173
12.89,0.8583914184719648,-0.3275672140564258,0.00023590685157129273
12.9,0.14030490108802887,-1.62183913456724,0.02984340585494016
12.91,-0.36970255184579426,-0.5415356392922991,0.23931659223693763
12.92,-0.6660263478777159,-0.774587984628734,-0.14002882722974075
12.93,-2.343708262503406,-0.5295350250571412,-0.3344115129363971
12.94,-2.435353736585598,-1.1858801109217842,-0.3230319716356525
12.95,-1.5478231689383233,-0.6936335388717814,-0.04711280973940911
12.96,-2.024458594588312,0.08326162669214067,-0.36999614629041666
12.97,-0.8030291764361371,-0.8185280026369633,-0.46748280391314023
12.98,-0.018179412458138353,-0.7251771519550239,0.24251480441202714
12.99,1.0385795489977656,-0.42550874574998987,0.14907599664893656
13.0,1.0042114317687645,-0.22677893455595013,-0.20234697352442346
13.01,-0.8404221414398222,-1.0855045473428258,-0.3952977447356188
13.02,-0.6351829381928902,-1.4278549746308447,-0.5568870352645744
13.03,-0.776940075294028,-1.1371959622562922,0.30642191020082266
13.04,-1.4881086047070795,-0.9785688921135055,0.543359632088597
13.05,-1.6124418179008788,-0.7645905213081013,0.20797110900732396
13.06,-0.6337466784303373,0.2982874422053549,0.10660445558887512
13.07,-0.7954047923230781,0.3982287951958294,0.06966016693445101
13.08,-0.6537727179495411,-0.5989900199622378,-0.32311995925147813
13.09,-0.8117915056515073,-0.49337288342706764,-0.340235531580064
13.1,-0.8271318607108131,-1.1425163788272314,-0.2714237230442388
13.11,-0.9487989551768039,-1.5168895665304238,0.1466570504862173
13.12,-0.7692520054785331,0.12245838029774507,0.7193503287203304
13.13,-0.1498401619016959,-1.0319144631535533,0.26794941072364414
13.14,-0.33531623845011316,1.4975141840316255,0.4010195606636426
13.15,-3.271137504359856,-0.9710417948254777,-0.8077143264417183
13.16,-1.1908083714704019,-1.5568618972754886,-0.8270485757723077
13.17,-0.5814120895328933,-1.1814625253391147,0.10775295622047751
13.18,-0.45196018314430825,-1.0163920393264751,-0.16318001976815893
13.19,-0.2987088051314241,0.35032868081228535,-0.16741834613934048
13.2,0.46727037758407425,-1.764808750772014,-0.2735856552638388
13.21,1.1049171299566933,-0.23387487125971684,0.4464090058025906
13.22,0.22443638018169193,-0.4017412905532363,0.2729756226076661
13.23,-2.0195702623545775,-0.020657200816362745,-0.20890193450388236
13.24,-1.5855480199331058,-1.3798795606147658,-0.4955546835813562
13.25,-1.3467614404214827,-0.4985924017810614,0.1530348512268984
13.26,-1.9468391333322421,-0.4517172471356276,0.12436821615385721
13.27,-1.6103223675424214,0.1742168174922429,-0.3845271491129562
13.28,-1.4530608364478395,-0.5671051381638456,-0.37950649676852516
13.29,-0.7438631972683158,-0.6550196501140482,-0.09858424190637766
13.3,-0.48364730451380766,-0.9047776101192841,0.03797228337795536
13.31,0.5017895924819759,-1.4496441554000143,-0.026792585789908716
13.32,1.6381374476183412,0.5277324922683115,0.3918484561517674
13.33,-0.1560994103907895,-0.6225226426417807,0.14452592424263203
13.34,-2.6709138089292037,-2.06551213585478,-0.7066856922217641
13.35,-0.8651921367022386,-1.6335598075863977,-0.45385511904319564
13.36,-0.4632931866019802,0.18536172559267847,0.6659940693074513
13.37,-1.5590325255139912,-0.3866838013398492,0.14911566283082592
13.38,-0.9945041057011184,-1.1383828763195278,-0.22562025069078898
13.39,0.03411365651712669,0.5492237215025525,0.5421299001762965
13.4,-0.9448659446676277,-0.3863005118906156,0.21098937449416588
13.41,-2.7398387451650166,-0.7643361068226463,-0.8589759932935666
13.42,-1.2027340543453584,-2.2000271888776854,-0.4896233093746662
13.43,0.19404530088396968,-0.1800849728373581,0.24858146737663453
13.44,0.638944442865767,-0.6316884418598291,0.005945944379078664
13.45,0.6322339267293594,-0.1170368733442124,0.3107800718520466
13.46,-0.19120940540928022,-0.6293642168679872,0.20297446278041317
13.47,-1.0257416287919445,-1.1850224526416964,-0.3005454340859059
13.48,-1.0424427555293407,-0.8324318396194936,-0.2644099259205741
13.49,-0.7592789405042931,-1.1776602264008997,0.19595166386542046
13.5,-1.2306491521750753,0.025478130653359875,0.151080901093936
13.51,-1.8505166770054615,-1.7859990964857453,-0.3725392297762011
13.52,-0.554580338215922,0.4954369305302262,0.4199941589103596
13.53,-0.8589832804030025,-0.20143816354842364,0.569044418731747
13.54,-1.3818284652736963,-0.8751049075426737,-0.19818279587428442
13.55,-1.2039937211251817,-1.0892170970735733,-0.313817744906971
13.56,-0.6793193491576193,-0.5055471917612614,0.04812274616282614
13.57,-0.34354594438153724,-1.1372709923546447,-0.23009501220153109
13.58,0.08719581118230438,-0.9640870930273264,-0.07150091985064816
13.59,0.38395206741256405,-0.22073043918296026,0.06329499249040663
13.6,-0.19850323979972964,-0.3957355877967922,-0.2535101875782243
13.61,-1.100850050089649,-0.5846626621520818,-0.5069567433567532
13.62,-1.2923866647126918,-0.6324959763949233,-0.27128980420256643
13.63,-1.654236483548185,-0.4204120723932334,0.020968737808597235
13.64,-1.5508003975799578,-1.5066284574854298,-0.3425741422075943
13.65,-0.9880888985493351,-0.3988305702381825,-0.13935711347803054
13.66,-0.5487303991451535,0.10702617932938588,0.011655891273461828
13.67,-1.4792848650275194,0.5038297453747425,-0.3007451394782467
13.68,-2.0842435270310786,-0.7374042695210109,-0.7367636821957133
13.69,-1.3049332025398757,-1.6626782142144858,-0.04034261013333113
13.7,-0.2165480929341295,-1.1906156003614587,0.07325643664564178
13.71,0.72362582001087,-0.5364231590857678,-0.020229118815796122
13.72,0.7624791500640002,0.7995801726955851,0.28709181257395766
13.73,-0.5790139068926728,-0.3795395273586673,-0.36879555840038364
13.74,-1.1067540658170794,-1.3820039787736897,-0.9811383947282343
13.75,-0.9738597813741416,-1.514741759499475,-0.12452951019267929
13.76,-0.47092052008419083,-0.6264406667869055,0.22201631189412704
13.77,-0.6024649689096971,-0.9305000447375403,-0.20170635173249113
13.78,-0.8232314673128833,-0.5676005067034248,0.07133413189762045
13.79,-0.750652406410251,0.5646613863654759,0.1115910775388726
13.8,-1.8517010273220171,-0.2399156015478456,-0.5724850067653771
13.81,-1.8612058649633016,-1.301619123519113,-0.2957454840062686
13.82,-0.2745684683476972,-1.3691731255657897,0.11031107983807717
13.83,0.0802288079746196,-0.9098393610437668,-0.08088442393477456
13.84,-0.37960071200705264,0.9275172328817165,0.2992414691904413
13.85,-1.3862484384494154,0.26951512524709115,-0.2836291660780065
13.86,-2.30335657704636,-2.2025693549532717,-0.7929235963184181
13.87,-1.79173821613628,-2.4120874382690656,-0.007688322833231719
13.88,0.816572074299729,-0.2599479984602675,-0.09163043470514509
13.89,0.38674536185230407,0.587343854781576,-0.08360367017757282
13.9,-0.8787925152164261,-0.7822678827738744,-0.05539153392626584
13.91,0.19319912085417024,-1.3524435707340101,-0.3856688465186282
13.92,0.7390751635564284,-1.1061595165823217,-0.13473269008439948
13.93,-0.1745385659854059,-0.46784910500225574,0.20117987692987027
13.94,-1.4887397936021305,-0.7875494405423795,-0.2675097673315274
13.95,-1.1653793430386639,-0.9163844966362072,-0.45836870353692394
13.96,-0.8030836926389269,-0.509911724995875,0.3018229361749433
13.97,-1.360609285411915,-0.046827107423058706,0.3950992062660346
13.98,-1.7825621312472304,0.22093082433234956,-0.5108300703562902
13.99,-2.3383280829178164,-0.3213514648468873,-0.8203927353314244
14.0,-1.257763907023058,-0.2518429411778992,-0.3208410695872187
14.01,-0.6457185795057526,-1.3283043778709156,-0.17387383176241375
14.02,-0.0944666556573295,-1.0147420150852227,-0.07503887885271855
14.03,0.8094168478351912,-0.4393987784740623,-0.04583828024047932
14.04,0.6147437584502926,-1.0879086704304681,-0.3522951535337229
14.05,-0.04769932824654865,-1.2367419852719324,-0.5918611007493989
14.06,-0.10053938726645929,-1.0008494904961132,-0.6171550597306781
14.07,-0.19096490816196252,-0.29149582331286544,-0.27551437476723933
14.08,-1.745756964294179,-0.567164754580976,-0.17652305766745
14.09,-3.071995132912208,-0.6585308353017567,-0.3011831753061815
14.1,-1.8784325674328413,-0.5363508512254253,-0.045098150012856816
14.11,-1.3419743819120666,-0.3617110148538859,0.25996344253698755
14.12,-1.4904985929791048,0.21575216026782496,-0.23480911393324477
14.13,-1.0096981706446553,-0.16718576186892425,-0.694841261024181
14.14,-0.11931549122410048,-0.9732100705765284,-0.46666213687230806
14.15,1.0833173480958735,-0.8902244684808478,-0.11817841385190496
14.16,1.7930063358309642,-0.14357061501908053,0.18488410916955497
14.17,0.5002429049842189,0.2128173471880269,0.192682565977762
14.18,-1.5334746398383714,-1.4060114972230027,-0.3653500785025204
14.19,-1.7848178598186635,-1.611702253502632,-0.03076644249301623
14.2,-0.9208621719146406,-0.4536391379275456,0.6271380491742697
14.21,-0.756107303379106,-0.7599580254722185,0.18336679122954544
14.22,-1.5228811067337302,-0.06436597383249022,0.011052626300452758
14.23,-1.9203986185144768,0.806720730929618,-0.18735417840949128
14.24,-1.9576535728355822,-0.3614573283048907,-0.4298489969278403
14.25,-1.1535598550168453,-1.8545734133900877,-0.09703445705913263
14.26,0.859137349084467,-1.246306125026102,0.0013431472825748698
14.27,1.7404761476818924,0.446106574836551,0.029817928388321275
14.28,0.16980191603344733,0.34552304509444765,-0.08275277723036609
14.29,-2.2231454203942396,-1.4060549610537276,-0.8604218629497741
14.3,-2.5751581527904417,-1.8387213899427295,-0.4485508370399626
14.31,-1.2789643964005792,-1.2320193508613364,0.42843229480597284
14.32,-0.7731860115803625,-0.8773738110306635,0.12743931062238212
14.33,-1.0020299147857907,-0.19554264482583447,0.11086920124851543
14.34,-0.3616373436474697,0.3428623865446824,0.3236221443324249
14.35,-0.05907167820778827,-0.13048596936616977,-0.011500744041704314
14.36,-0.7556942405945763,-1.4910620587789898,-0.42762124082348
14.37,-0.5967447925649776,-1.9869932564236903,-0.35671903068754096
14.38,0.5511701216014115,-0.3229214894857513,0.0833470428927953
14.39,0.3355210548865816,-0.07792336648276549,0.40671637242214126
14.4,-1.217051677166685,0.09663835643574079,0.3053117226445869
14.41,-1.9482711281569838,-0.5400432768529766,-0.20450317969558382
14.42,-2.111191399873398,-1.3897405043991067,-0.011864712127611988
14.43,-1.1559504116863235,-0.6030333933781686,0.188168427767357
14.44,0.06874758050736657,-0.480365280546427,-0.19258045378391062
14.45,-0.01802715760283515,0.4834858690586684,0.13062412036671472
14.46,-0.4954310667640026,-0.11092255789861098,0.028524773237578543
14.47,-1.5097940854951915,-1.9361799944347395,-0.2877314063188442
14.48,-1.9749453916768671,-2.0437831238763082,0.24439254320669146
14.49,-0.7099143678077948,-0.9401980035794074,0.4703860104213001
14.5,0.15367658417477362,0.19354092745888818,0.31823533629436146
14.51,-0.2871712234143014,0.005589123660745911,0.34482510745814726
14.52,-0.647262796271367,-0.8902263600192523,0.2463668963945691
14.53,-0.8274591852688676,-0.7063319921167753,-0.06883518831943392
14.54,-1.438762730189465,-1.3416386352758332,-0.40064561573722735
14.55,-0.748903513656725,-1.5365821422259007,-0.37424434753926306
14.56,0.5917378012708444,-0.4991764146074737,0.006911460122649077
14.57,0.8762474595179306,-0.1836957166258639,0.36375558406712744
14.58,-0.20763844202945742,-0.10051487289421032,0.13911164172074497
14.59,-1.5249489897811028,-0.8435899069522841,-0.5612366758467958
14.6,-2.253615259773121,-1.2980473761421565,-0.43183471428255743
14.61,-2.0950662632939463,-0.03833014099925922,0.24198562979822683
14.62,-1.687742442043982,0.14107194649099983,-0.08187194000919568
14.63,-1.5352156913956378,-1.0474000776986505,-0.2649880963632801
14.64,-0.8959768507466647,-0.4102811785291403,0.29192851079488363
14.65,-0.35096705135288214,-0.47548619293312056,0.22681572494833832
14.66,0.09292227675110894,-0.3013409926841178,-0.10997860356231189
14.67,0.3153217769216255,-0.652164703961673,-0.24569201904438842
14.68,0.23404682077851063,-0.5894547107527026,-0.2450732402715575
14.69,-0.6248209984925356,-1.3385799902660553,-0.41376961327676404
14.7,-1.3824354550414952,-1.6165500987490276,-0.36553624567706067
14.71,-0.9342171897202847,-0.17573674906568343,-0.14438636859872814
14.72,-1.2579891959988423,-0.659878198459865,-0.23219813031961284
14.73,-1.348085639569068,-1.5018761559795288,-0.2475290446275312
14.74,-0.762645217643098,0.03703157182789585,0.14703219303231724
14.75,-0.5855990681043052,0.7584228160116747,0.10635896403245176
14.76,-0.6293594734214901,-0.5360385558990233,-0.1051424705870768
14.77,-0.5592193801847265,-0.797706179275609,0.09815891326481273
14.78,-0.4466964254642877,-1.241882783396832,0.06443685130354124
14.79,-0.30167591537022265,-0.6694733975786564,-0.08776947713785682
14.8,-0.5239542609301607,-0.4657323345065792,-0.04177289044526424
14.81,-0.32575210692924994,-0.17964213452568709,0.16637580277500524
14.82,-0.6541200344219448,-0.23561734506681387,0.1969513894530978
14.83,-1.5655619227293958,-1.857480020809538,0.022096524311680785
14.84,-1.1053318777977432,-0.9301419710784566,0.1189968626369938
14.85,-1.1449168829153913,-0.6544666301976744,0.21514455677173894
14.86,-0.8727590917536638,-1.045375441531828,0.10525024725409768
14.87,-1.4345176079068922,-0.6813888480566654,-0.21185001308642326
14.88,-1.727206017360222,-0.3739943321559569,-0.7111313031234027
14.89,-0.7864687910146676,-0.7356836337913548,-0.1838809733623421
14.9,0.28477354912214153,-1.4248070719662835,0.20917012763060058
14.91,1.7937365145172015,0.2517168936781721,0.35429859741400255
14.92,1.040945974472058,0.8919155621136154,0.4121492605786373
14.93,-1.6422300446083822,-1.7630963516451628,-0.4914146209093335
14.94,-1.7341418357046954,-1.436706637270554,-0.9191275557886592
14.95,-1.6347174821284212,-1.5798507385072493,0.3578006055084571
14.96,-1.678060937784408,-0.7995909383411959,0.38332293465411943
14.97,-1.8598011098805354,-0.09299009493974228,-0.29821137830866384
14.98,-1.5623523239906059,-0.2239873884985078,0.1638522407271097
14.99,-0.3715318653991717,-0.4211698569150967,0.4663346499958548
15.0,0.14969394143547113,-0.22613290418381735,0.1139301846878489
15.01,-0.04520943895925803,-0.35315623291797055,-0.253703743236781
15.02,0.02393880952829333,-1.0770826277032373,-0.3868276662872079
15.03,0.30032894904635954,-0.5073454050265649,-0.22508538814773976
15.04,-1.137304418061758,-1.3825977164990213,-0.20635587784645593
15.05,-1.76229246026083,-1.35218432287881,-0.0986627002671917
15.06,-0.4267723853454747,-0.30974055755090985,0.2510951978541365
15.07,0.03565051942549514,-0.7628768072498175,0.4053790364936105
15.08,-0.5859325546927842,0.02843941151167632,0.35217620643789915
15.09,-2.0087895190362057,-0.664239391710806,-0.6864703434552092
15.1,-1.1185328641575296,-0.41035080246085726,-1.2154871990078944
15.11,-0.9956334705756192,-1.6832806677279613,-0.3419030036071957
15.12,0.10690246394891861,-1.3493866842471354,0.24886993838543547
15.13,1.2682739156013925,-0.3376724376399153,0.10483885078059671
15.14,0.3635292375989637,0.7336652127748106,0.47602394800976133
15.15,-1.1066694674300657,-0.5830564312965623,0.0669446809029596
15.16,-0.8427461864816186,-0.6132196149703623,-0.21183707437797325
15.17,-2.3244730843566903,-0.5018791549561057,0.034688806773528424
15.18,-2.149795611943179,-0.9555391705221161,-0.164312733511693
15.19,-1.4020410521769446,-1.1654921703645928,-0.43265063020636046
15.2,-1.429763178354658,-0.13997383608860037,0.025215234060555616
15.21,-0.2943090573326804,-0.3278140331762079,0.22502506333287506
15.22,-0.00419689481288301,-1.0762721671958242,0.058704349933085716
15.23,-0.5883719628496167,-0.719974132722467,0.029844375935200753
15.24,-1.2009909052002843,-0.8485784799843284,-0.27354187086556847
15.25,-0.19995562695498104,-1.8073977262588796,-0.33852813627148104
15.26,1.06362074658767,0.6878404640469519,0.4076618258476702
15.27,0.32045396609541277,0.23065870854570691,0.3644147357204265
15.28,-2.111394686657451,-1.1429640295502896,-0.5467655257105456
15.29,-1.1974760918821084,-0.7252326075626809,-0.7909903760543644
15.3,-2.4147180670024926,-0.039813788708937856,0.16157090630284002
15.31,-1.1218063663222333,-1.662430006035495,0.23932988712350664
15.32,-0.11789435334634302,-0.9709826667642014,-0.11103245438710452
15.33,-0.8349019323076794,-0.28507694815993256,0.18791173767584612
15.34,-0.974257195846882,0.08446232306700847,-0.01732018384671944
15.35,-0.6201198369722645,0.05122935806734425,-0.3708852522595667
15.36,-2.376982641191456,-1.387848293310715,-0.3722838524722468
15.37,-0.23533185633439316,-0.35660063243162604,-0.07305626542138297
15.38,0.49746046475137995,-1.4562325467774337,-0.2077894062052116
15.39,0.9465188069114006,0.3917740075861746,0.4737728483294658
15.4,-0.8433306789273579,0.017388599583463307,0.1989142208536183
15.41,-0.6633758163227577,-1.6624970169471918,-0.9053088362740631
15.42,-0.6959175189384795,-1.3012675853100883,-0.09394609087617131
15.43,-0.8684183212602484,-1.492722859622009,0.31108719152015263
15.44,-2.2690801579086233,0.2511987416955521,-0.1367501017127661
15.45,-1.6699730240330368,-1.3106179534523204,-0.2679907252761018
15.46,-0.6744853575977391,-0.2445590034381692,0.5730194958467224
15.47,-0.9314734028922378,-0.12645668689339962,0.7233056838961708
15.48,-0.32925296926797265,-1.3135265686043476,-0.22478696032897677
15.49,0.13241691881241885,-0.5058152975464753,-0.23697072972685587
15.5,0.022878506521837528,-0.38764304957578116,-0.20071453568225392
15.51,-0.07789972488897483,-0.40238751007386725,-0.5180330663104713
15.52,-0.19106122070296597,-1.0711541181805253,-0.38425080467560424
15.53,-0.6695713023470304,-2.0562467595427973,-0.000623850225995398
15.54,-0.8178476644584707,-1.0746895721062926,0.26319492221091056
15.55,-1.3839454917509901,0.21467409920936564,0.1921109078019991
15.56,-1.6284768443929722,0.4420278612668445,-0.08498289560731731
15.57,-2.9747862066835062,-0.8444440247368658,-0.18148473911535246
15.58,-1.6533875000500802,-0.3320998144364094,0.19117674091123085
15.59,-0.41443918907612526,-2.8540568769823245,-0.18371284526966103
15.6,0.8473789155121554,-0.24109069702983724,0.02238091838495717
15.61,1.73554491296873,0.7210120729110006,0.36236949478611463
15.62,0.5509935928438069,0.9326775475658641,0.006370656512726376
15.63,-1.9730730486210146,-1.9616426800788,-1.112612872599549
15.64,-2.889937946613284,-1.7831329634586524,0.08598881154652026
15.65,-0.40075967588717,-0.20429818588990026,0.24053664871116034
15.66,-1.2211204482966753,-0.9263132587668937,-0.12194846709324529
15.67,-1.1623836477764662,-0.08502251674451161,0.4160167988681743
15.68,-0.2873916990871935,0.7494820297745564,0.18852003719332358
15.69,-1.8049987619335315,0.23696838941758197,-0.5216181895207319
15.7,-1.6003756136509153,-2.6760574994224564,-0.6122347329839961
15.71,-0.21683722620296803,-1.3056686520738185,0.10630689671912481
15.72,0.5739936676119572,-0.11313157690283575,-0.2744186859785754
15.73,0.1339912103927729,-0.5562932790938189,-0.16466637335123602
15.74,-0.3692447937872419,0.30161343909562977,0.3636521888232282
15.75,-0.5235726860529203,-1.6194843902470535,-0.225878409535825
15.76,-1.9721851865760562,0.8097885927055197,0.061927068489299825
15.77,-3.805298100786863,-0.5926177634989354,0.023545157612407008
15.78,-0.8637512121699162,-1.4917828619593323,-0.24867069303986267
15.79,-1.420364975237061,-1.1274565224689124,-0.14458023364307754
15.8,-0.30312854310793075,-0.5072052593220743,0.11561642626324081
15.81,1.01116898304479,-0.12145076884171926,0.049808306859656926
15.82,1.450015341117371,-0.708638375643144,-0.3284512574215168
15.83,0.27310823507814996,-0.3661543124670932,-0.38731476566585327
15.84,-1.9630518408894084,-1.8583498724511112,-0.6291700060743906
15.85,-0.8985862574767381,-1.4864569647727222,-0.235868223840471
15.86,-0.18460922231826865,0.027290940931113842,0.47498194504478186
15.87,-0.8634492617060779,-0.5555228693053165,0.5178135764677627
15.88,-1.1966053841277857,-0.5483324819158449,0.1007657124993094
15.89,-0.2738145218037572,0.4585140793010726,-0.04459724549769722
15.9,-0.5601537442279647,-0.2286038868505033,-0.1854521616099996
15.91,-0.9462384812759232,-0.6264927478445648,-0.37345835038528014
15.92,-0.043536555376457065,-2.284071307287988,-0.48673566668926654
15.93,0.4234787876078801,-0.39505004209245675,-0.016287110946831468
15.94,-1.1836531482007564,0.0709216659489985,0.17368123202247948
15.95,-2.175530054767167,-1.1805284824565656,-0.4529634647470933
15.96,-1.845685458169277,-0.014349709357391556,-0.0764700747575656
15.97,-1.3798162713214155,-1.6819587913720926,0.20850066869230727
15.98,-0.0751619536843204,-0.45804505130943074,0.006815879702411652
15.99,-0.01250923162331653,0.45587442270367473,-0.0742443422490961
16.0,-0.7592313892590096,-0.5401393421865641,-0.31534842890971443
16.01,-0.2992682565844703,-1.6223085748893245,-0.8020409972882985
16.02,-0.4214156725424986,-1.7339790415897587,-0.47272103502341634
16.03,-0.636978955108162,-1.4909722537399432,0.006854790290538342
16.04,-0.16409964174582453,-0.27876930831906094,0.04512677959422834
16.05,-0.7075132275271308,0.33943177017964143,0.1407984356438718
16.06,-1.4148681986387952,-0.8854260420201918,0.09873864024934391
16.07,-0.4704337028723782,-0.2932353224482659,0.06071344970853078
16.08,-1.3441351206090875,-0.24279018493330548,-0.09521096945820982
16.09,-2.1208838085090576,-0.1943457845476626,-0.6082148803042419
16.1,-1.4170911247143239,-1.2217530364843203,-0.4997637142253149
16.11,-0.8546940974849739,-0.6036011060273428,0.17754358868156764
16.12,-0.36177767455980636,-0.37344106630940604,-0.014436468502147966
16.13,-0.3367501884342947,-0.6030336125174768,-0.01292876568611656
16.14,-0.02455441401837181,0.17950279125790478,0.19918375942449412
16.15,0.4481522872771545,-0.7718098539219286,-0.17855650101170398
16.16,-0.371343635638136,0.06635384246796011,-0.2385128928254163
16.17,-2.5664869300613273,0.13562249267290233,-0.4701248323868303
16.18,-2.0134711356314483,-1.4071117642109436,-0.6263900814466993
16.19,-0.9187211016379565,-2.5722464721733225,0.19015869130153282
16.2,-0.5927851674019444,-1.3144945652895283,0.2965868287405854
16.21,-1.80436601278138e-05,0.4569654294458118,-0.11752694893135289
16.22,-0.33275580747658945,0.010575604153368856,-0.4614540954792819
16.23,-0.41030923530162616,-0.26960718919396276,-0.5848136888383946
16.24,-0.8035276748398886,-1.2578335905881928,-0.36776807053815186
16.25,-0.7816586733003555,-1.3320980090730683,0.023274272569210944
16.26,-0.44349180943409233,-0.22940896019081447,0.20890196496561111
16.27,-1.0429231322976094,0.6328308722167885,0.2728521516563661
16.28,-1.9527952028387867,-0.3377910213130819,-0.11511178040634473
16.29,-2.176217700318662,-1.260770136997048,-0.18321196440953466
16.3,-1.359183388362957,-1.224348016596221,0.17191184696695994
16.31,0.09724134572781189,-1.1931396792726343,-0.10353601346031342
16.32,0.56182429366861,-0.4428396095637534,-0.19530553016698177
16.33,0.8274985102547368,-0.1814416799680674,0.18322107196430007
16.34,0.5327948045655543,-0.34072161165241777,0.07795767651753288
16.35,-0.9887257202337519,-1.00815837336945,-0.39404364457330837
16.36,-2.0651554177460376,-1.969003053248718,-0.3384787159600309
16.37,-1.4490540472019473,-0.79197783011704,0.08790098910748283
16.38,-1.71553683154607,0.2585843250712254,-0.07085151964233556
16.39,-1.8839576318146853,-0.11249259469339964,-0.21744862932228623
16.4,-1.0514719538397317,0.1993376148890803,0.032263581118615874
16.41,-1.4214333842401445,-0.895827864253186,-0.06830145626498635
16.42,-1.5122708662458297,-1.3549867715698662,-0.36224558064814627
16.43,-0.47426587729885994,-1.011164450116163,-0.22153974298031553
16.44,0.8078610018135993,-0.6075934757551895,0.048714392087414383
16.45,1.4440055270079692,-0.23605101622894611,0.1500407686460887
16.46,0.9739760155067502,-1.1496579950641443,0.0648896949114078
16.47,0.2055459540467532,-0.7393848266234135,-0.03507680550299067
16.48,-0.717447100888434,-0.9327568868473394,-0.30574592319388394
16.49,-1.428605583898799,-0.9527165950092747,-0.3156543710736208
16.5,-1.4380472100938502,-0.04994929288546518,0.08884622841862248
16.51,-1.4777907810643685,-0.11047879292148587,0.21612026193549724
16.52,-2.3108321663813047,0.25058550139560537,0.09038801606748169
16.53,-2.8083255087508787,-0.41279345754300156,-0.09710879940505296
16.54,-1.6297247280774465,-1.0624408452953764,-0.010274600947597818
16.55,0.002959523949276007,-1.661464719979357,0.03123265890190323
16.56,2.1407110144252672,-0.36224467318919334,0.1420639065028605
16.57,3.239518891368709,1.1579908760523887,0.34090308177604667
16.58,1.1307066928068275,-0.04366620108766756,-0.09432096947910677
16.59,-0.6079356051529553,-1.8649277027525752,-0.8625048535791402
16.6,-0.5025524894258948,-2.8049054343696582,-0.5994049419563517
16.61,-0.17289551122531047,-0.9576431889617272,0.22099946231401227
16.62,-2.994389537668828,0.6585699388046744,0.12538802978962008
16.63,-4.357744143948517,0.6682080767868733,-0.3371268794983463
16.64,-2.5250852299316953,-0.7729830331186224,0.15516397207885282
16.65,-1.5032810367340674,-1.2450419148993492,0.44041429435311225
16.66,-1.9848855929488753,0.22433839499768193,-0.1442902677852951
16.67,-1.9490175267773444,-0.3116493202646095,-0.40200835750550123
16.68,-1.617834296627831,-0.7288816203925597,-0.11847721494273136
16.69,-1.6151613052484766,-1.3357152865873538,0.05967737998311292
16.7,-1.1714626874671223,-0.2625707058560449,0.37291291944132476
16.71,-0.5270545170638065,-0.2861439875346988,0.0858783965160635
16.72,0.15482763432961916,-1.1601013256939212,-0.19772002751722512
16.73,1.0142786901906624,-0.4113591215788905,0.1173411169934483
16.74,1.975476353828064,-0.45888561797331207,-0.13689284074827945
16.75,2.6148479240488474,0.8244437239501937,-0.4313020716468511
16.76,1.3419494314568636,-0.6494037986669129,-0.7807051112471082
16.77,-0.29862873685319097,-2.4308127965864763,-0.9068681160534964
16.78,-0.21394335571086046,-1.7569939409586692,-0.3329427717994781
16.79,0.6699010000662966,-0.612813319789672,0.26614621772180314
16.8,-0.6736547215047436,1.3500683123100814,0.7104271950764934
16.81,-4.534039112793291,2.332687007078398,0.15677345411577884
16.82,-4.239663226805715,1.3046745482162192,-0.14423671899791202
16.83,-2.768538276892631,-2.35516150296403,0.016871164002634956
16.84,-0.9300996953658086,-1.1313548306057029,-0.26410248299678596
16.85,-1.2964546035386129,2.320082239031039,-0.4299377320147312
16.86,-1.1462692902892102,-0.5368042194235962,-0.7053902498617223
16.87,-0.4099195224761687,-2.918140923296248,0.07574694900841747
16.88,0.32845613473219615,-1.5389197523377665,0.9608932287054149
16.89,0.3351814143721529,-1.9707114364086633,0.45338073842758486
16.9,-0.7219543108972842,-2.788249852995251,-0.057957554193331935
16.91,-0.7337587688491112,-0.8151415128295321,0.11018122507824236
16.92,-0.20136076425933616,-0.43962912646507535,-0.04079800538975012
16.93,-0.41419603713797537,-1.6446815648826782,-0.410317945263908
16.94,0.33030864138508204,1.091047621529843,-0.5666545499697057
16.95,-1.1994591316890464,0.6001007467812121,-0.5794288255767741
16.96,-2.6581656527280155,-0.6200337266837479,-0.28047647751243193
16.97,-1.8461369554811402,0.1578333743227639,0.41879889997506214
16.98,-1.745310226000331,-1.8785102130243596,0.697805107166092
16.99,-1.0532108544140584,-1.5012818902116278,0.4425055751013103
17.0,-0.15617973067944352,0.32337519105667334,0.2030786802265923
17.01,0.0947818290668279,0.4169793199719057,-0.17632036331889478
17.02,7.394759077960316e-05,-0.8233654833801397,-0.3333312015311161
17.03,0.5242685773161274,-0.3380988157728546,-0.1392114958616072
17.04,1.304600632979226,1.2609655730427,0.15349475046451116
17.05,0.4346320692042823,1.1645096182228123,0.42671564012910085
17.06,-2.9375653416700827,-2.9318332966335268,-0.13961298733799388
17.07,-3.025563763254384,-1.1792973862336595,-0.4624426358291554
17.08,-1.2067325051766125,-1.8839915749774874,-0.03912246488938077
17.09,-0.3380482662232843,-3.116327911819802,0.10270993354532701
17.1,1.8353438151765764,0.8374837126041894,0.0005807744896013058
17.11,1.0615807411252163,0.8617966712701548,-0.2816930171637943
17.12,-1.2721851888216102,-2.6386138242413955,-0.6714457174051348
17.13,-1.3264774418308796,-1.530622858007196,-0.4462793880476152
17.14,-1.2904195005294241,-0.40001314173324454,0.08849191132389676
17.15,-1.2477977042434993,-1.2257738938534826,0.31820213792367663
17.16,-0.5746918057707395,-0.8737867125643419,0.13084101055901554
17.17,-1.1772332822948053,1.5995620651204092,0.052547351552006676
17.18,-0.4313245728038732,0.6715319189862252,-0.6043110503759344
17.19,-0.20338328760873287,-0.11663397325319473,-0.5268126640577159
17.2,-1.3344884501588212,-0.6122813457736074,-0.16330025208721613
17.21,-1.9740253284939182,-1.8420742539766983,-0.43529300545600086
17.22,-1.3193689577950793,-1.052469695482294,0.016747357729676036
17.23,-0.9166326642342822,-0.22245642404173027,0.4645203467486261
17.24,-0.602347428784246,-0.029000533195454564,0.10279041826912126
17.25,-1.2049718381319205,-0.5575584983240957,-0.38681355956432434
17.26,-0.7993720984163359,-1.4918352462531035,-0.570350664374687
17.27,-0.4059405831923243,-0.9421882701434134,-0.27370528454443344
17.28,-1.0134216302608268,1.0996338992304795,0.05217291622607214
17.29,-1.111250763033019,-1.7801974470450281,-0.35917013592819186
17.3,-0.8176519362721024,-0.8228758309978944,0.34382441657976287
17.31,-0.13478162857683043,-0.540967236262259,0.4367196572186697
17.32,0.1882875055944867,-1.9573662563090477,-0.09459035378308345
17.33,0.44240475259904366,0.6243920483037066,-0.011362863771129833
17.34,-1.1772645919952915,-0.6507147929716718,-0.7404756630913943
17.35,-1.2679691047598494,1.0869519574357445,-1.0066512015580489
17.36,-1.7892922807765186,-1.135494286817088,-0.12481003421406177
17.37,-1.72341640151996,-2.4199883363344554,0.2556454338666126
17.38,-0.0646309390090006,-0.6038162951819086,0.2689664783395941
17.39,-0.010333265050741109,-0.16107628481443967,0.6125511538973769
17.4,-0.49815103568410685,0.6999513077093205,0.46665325633027105
17.41,-0.7732253511833813,-0.08639575994717798,-1.038707969502301
17.42,-2.6712782337598187,-1.3673146348717218,-0.6840792995164572
17.43,-1.1276289757806734,-1.8200255879880798,0.009197050149294297
17.44,-0.1771672282965547,-1.5058878348476383,-0.3448454150590323
17.45,0.36331030063854525,0.4492362222949734,0.7153577026886364
17.46,0.7790930332664824,1.3093531266238077,1.3704609556074554
17.47,0.21500221986861137,-0.37240734257003705,0.21837193080386344
17.48,-2.0897340230773005,-0.4716187964110901,-0.7991711923617075
17.49,-1.789875542917341,-2.5019448453991875,-0.4068086015338434
17.5,-0.70833773090884,-1.3240203820007508,-0.006807232265814794
17.51,-1.770475005280555,-1.3351678263506337,-0.5353332477617483
17.52,-0.86186032732913,-1.4915253276036045,-0.2731576362884722
17.53,0.3541270565588623,1.5366889105062536,0.8278165542908176
17.54,-0.3100375049993012,-0.3080939577657762,0.3729824351973926
17.55,-2.095897383525378,-1.1984267448679407,-0.32926049870829194
17.56,-0.9439320378661687,-1.5511566317051544,-0.34972187296823914
17.57,0.535518350513011,-1.6211104761026394,-0.16535001398089139
17.58,0.6809037199785923,1.8471140242982964,0.24145672543788319
17.59,-1.1741503527403716,-2.163040533461514,-0.6752610621379638
17.6,-0.6213204815722385,-0.6857204303940017,-0.3984175982729587
17.61,-0.6806255761187946,-0.6764191445449214,0.15385401611420843
17.62,-1.317234701459086,-2.005877055225261,-0.03704966920089641
17.63,-0.4398103194993868,0.07021175344765532,0.11276185167266228
17.64,-0.6114477135517683,-0.7149167703549585,0.24559867683760558
17.65,-1.9965338939335828,2.6715736315263694,0.4038901447273774
17.66,-2.4108938453353663,-1.710564738033566,-0.8232219330133855
17.67,-1.9106388407332202,-1.5226238525978484,0.22425288651649944
17.68,-0.04947718185639787,-0.9831960168053687,0.26467296771763754
17.69,-0.3911218239266319,-0.6827401312401291,-0.3854430613468006
17.7,-1.6602034543527768,0.197247833931554,-0.28485122951592207
17.71,-0.013616455416492743,-1.4984407652285041,-0.21952020246020337
17.72,0.29637226151878054,0.47916779453635505,0.5517363410757855
17.73,0.6185721916040036,-1.3477962865779949,0.1516539404687033
17.74,1.5305259050473754,-0.5905866759518628,-0.04250449902283227
17.75,0.677693127322492,0.7442960464090119,0.21062358342026632
17.76,-3.3305417279888614,-0.6550340700417008,-0.9393425638004765
17.77,-3.5157486470141865,-1.4316065457152412,-1.707250574322436
17.78,-2.843539585429935,-2.5118080922755053,0.633860094677755
17.79,-0.09199932338630026,-0.9194615775522385,0.24617050310119076
17.8,-0.12260095386983821,-0.11543975025518077,-0.02188485843124299
17.81,0.09044955876402502,-0.6361026080529995,0.8020462061204522
17.82,1.872317252253858,1.3466894928717728,1.0045120980300901
17.83,1.535733236621741,0.08471821999643425,-0.21709011684813476
17.84,-2.045788576838327,-1.3073493831220973,-1.0124066719696163
17.85,-2.807583302488789,-2.265962582699741,-1.2555549027165893
17.86,-0.8237793975400562,-1.5489501941896948,-0.4593841354397374
17.87,-1.5451998677421028,-0.1266357772167993,0.3696194363098815
17.88,-0.43510596242014055,-0.5335801437639498,0.42725781205076885
17.89,-0.28900133948631734,1.3796523361942816,0.7454007516840013
17.9,-1.4744558047839287,-0.08885930270027377,0.1499387290858126
17.91,-1.2229848294518637,-1.6554797033968276,-0.2832106056423958
17.92,0.08461321734693618,-1.7569524779421444,-0.0385352641529168
17.93,0.7565971030430861,-0.8836449899242033,-0.3362264526765386
17.94,-1.5773378550793777,0.5958303443203916,-0.5039641663369099
17.95,-1.7723251969591276,-2.3624036748477972,-1.0898164533268644
17.96,-0.8004075017235281,-1.9582370490866114,0.21379046021958628
17.97,-0.4624307465111854,0.4019131780566916,0.7995773366701833
17.98,-1.9196597886920284,0.7684696143714964,0.1468333961771574
17.99,-2.6859336788490302,0.3655188291391303,-0.21598289840611468
18.0,-0.436652892473488,0.9558351571739105,0.34182227562984435
18.01,-0.9081368991758376,-1.7305616221990394,0.39687878341318616
18.02,0.45605208000381986,-1.456476457404397,-0.04136765375072685
18.03,1.7626707762808158,0.16002403136333798,-0.13520099169919567
18.04,-0.18742221520149357,-0.37768440628244276,-0.45884305831595934
18.05,-2.564932589861314,-2.982000283968397,-1.5734965814804984
18.06,-1.4351839301679166,-3.4219436810161836,-0.5629034074167589
18.07,0.08432317624987874,-0.5363379781926969,1.2073241951742306
18.08,1.1287134015263947,2.0652322409177835,0.8068325752595136
18.09,-0.6242116801259087,1.304482807100698,0.2972096553005922
18.1,-2.991190750363757,-0.8120905902541298,0.015568390251717001
18.11,-0.819279390728962,-0.6191194819878785,-0.22280792891217457
18.12,-2.377714909266782,-0.34063797266505397,-0.034726889993686214
18.13,-2.988726748858553,-1.3557397353448795,-0.4773894341525871
18.14,0.21166404266090932,-1.8667420908731422,-0.6655571529485662
18.15,0.14738932204338975,-0.3622976944652034,0.03175852501340927
18.16,1.1654103701780762,-0.882804632607828,0.03787794107547688
18.17,2.0338582156194205,-0.4154177346319613,0.06828898309565293
18.18,1.2706782190284507,0.7060846826304826,0.17997060869519826
18.19,-1.5246377052665794,-1.4511519758924685,-0.26584622156829474
18.2,-2.56915669584513,-1.6875571863115295,-0.5259278185743423
18.21,-0.5102367225244416,-1.2351381692180634,-0.2006910712151984
18.22,-1.1257183920212792,-0.3558515710327755,0.3874766397388962
18.23,-2.1209168772211187,0.5272168150762455,0.008481929648253712
18.24,-0.9238430211353847,-0.7469507833850835,-0.5329111641963401
18.25,-0.1232604396702282,-1.236423037392255,0.052776858692841246
18.26,0.2659282204857934,-0.33239957527544467,0.358064699436088
18.27,-0.39099191145887513,0.7189627219488675,0.03623465451388511
18.28,-1.7472122488755786,-1.2807213489695697,-0.6002512949224151
18.29,-0.8270159691154005,-0.8534792631844054,-0.164994046602224
18.3,-0.47045600072509475,-1.1395110271925581,0.33648995198921483
18.31,-0.880893388822348,-1.1884146000518179,0.15555606749988485
18.32,-1.8198285498571294,0.31781428754137625,-0.2597010827472757
18.33,-1.6234608568444482,-0.42161045819156223,-0.7563558656703201
18.34,-1.264390200927702,-0.8299368878212928,-0.2074956576265235
18.35,-0.6409028880102855,-1.9848707456179937,0.06460465537305132
18.36,0.752676599512394,-0.4613586610652524,0.036157950434246015
18.37,0.3906458987853913,0.7749355946924165,0.23570625057062455
