time,seconds_elapsed,z,y,x
1789222361887878000,0.0418779296875,-0.4756317138671875,-0.8872833251953125,-0.0020751953125
1789222361897872000,0.051871826171875,-0.30755615234375,-0.512969970703125,0.10040283203125
1789222361907866000,0.0618662109375,-0.358367919921875,-0.7502288818359375,0.1107025146484375
1789222361917859800,0.07185986328125,-0.620147705078125,-0.91033935546875,0.1263580322265625
1789222361927854800,0.081854736328125,-0.8795623779296875,-0.5082550048828125,0.311187744140625
1789222361937848800,0.091848876953125,-1.1254425048828125,-0.7262725830078125,0.2868499755859375
1789222361947842800,0.1018427734375,-0.76019287109375,-0.8192291259765625,0.0976104736328125
1789222361957836800,0.1118369140625,-0.485870361328125,-0.7501983642578125,0.013641357421875
1789222361967830800,0.121830810546875,-0.57904052734375,-0.66009521484375,0.0117340087890625
1789222361977825000,0.131824951171875,-0.5914306640625,-0.489715576171875,0.0449066162109375
1789222361987820000,0.141820068359375,-0.752532958984375,-0.8089447021484375,0.1934051513671875
1789222361997814000,0.15181396484375,-0.7906951904296875,-0.7386932373046875,0.31024169921875
1789222362007808000,0.16180810546875,-0.761749267578125,-0.635162353515625,0.225738525390625
1789222362017802000,0.171802001953125,-0.7490234375,-0.7983245849609375,0.1312103271484375
1789222362027795700,0.181795654296875,-0.716094970703125,-0.840789794921875,0.08831787109375
1789222362037789700,0.191789794921875,-0.5816802978515625,-0.80126953125,-0.0106658935546875
1789222362047784700,0.20178466796875,-0.4111175537109375,-0.62176513671875,-0.03570556640625
1789222362057779000,0.211779052734375,-0.7289886474609375,-0.7149810791015625,0.0960540771484375
1789222362067773000,0.22177294921875,-0.8184051513671875,-0.72344970703125,0.2115936279296875
1789222362077767000,0.231766845703125,-0.3744659423828125,-0.578277587890625,0.1911163330078125
1789222362087761000,0.241760986328125,-0.479248046875,-0.7685699462890625,0.199615478515625
1789222362097755000,0.2517548828125,-0.842559814453125,-0.8242034912109375,0.2011260986328125
1789222362107750000,0.26175,-0.666290283203125,-0.96051025390625,0.0949554443359375
1789222362117743900,0.271743896484375,-0.269439697265625,-0.8660125732421875,-0.063232421875
1789222362127738000,0.281738037109375,-0.470489501953125,-0.7957305908203125,-0.0864105224609375
1789222362137731800,0.29173193359375,-1.07379150390625,-0.8187103271484375,0.059112548828125
1789222362147725800,0.301725830078125,-1.047698974609375,-0.8130645751953125,0.143951416015625
1789222362157719800,0.3117197265625,-0.42840576171875,-0.7479248046875,0.0175018310546875
1789222362167713800,0.3217138671875,-0.4408416748046875,-0.6326446533203125,-0.03125
1789222362177708800,0.331708740234375,-1.200927734375,-0.754730224609375,0.0776824951171875
1789222362187703000,0.341703125,-1.4027862548828125,-0.89971923828125,0.075469970703125
1789222362197697000,0.351697021484375,-0.4205780029296875,-0.70947265625,-0.131500244140625
1789222362207691000,0.36169091796875,-0.0335235595703125,-0.5502166748046875,-0.1109619140625
1789222362217685000,0.37168505859375,-0.9014892578125,-0.686187744140625,0.21026611328125
1789222362227679000,0.381678955078125,-1.0799560546875,-0.5531158447265625,0.4255218505859375
1789222362237674000,0.391674072265625,-0.275787353515625,-0.5352020263671875,0.27154541015625
1789222362247668000,0.40166796875,-0.2034149169921875,-0.7617950439453125,0.0838165283203125
1789222362257662000,0.411661865234375,-0.9351348876953125,-0.7175445556640625,0.2239990234375
1789222362267656200,0.42165625,-1.077850341796875,-0.805419921875,0.3437957763671875
1789222362277650200,0.431650146484375,-0.4618377685546875,-0.8964080810546875,0.1518707275390625
1789222362287644000,0.441643798828125,-0.266693115234375,-0.73504638671875,0.1377105712890625
1789222362297639200,0.45163916015625,-0.877471923828125,-0.5690460205078125,0.365142822265625
1789222362307633000,0.4616328125,-0.9620819091796875,-0.7521209716796875,0.2247467041015625
1789222362317627000,0.471626953125,-0.451171875,-0.7208251953125,-0.1134490966796875
1789222362327620900,0.481620849609375,-0.5788421630859375,-0.9267120361328125,-0.11322021484375
1789222362337615000,0.491614990234375,-0.9144134521484375,-0.4828338623046875,-0.01031494140625
1789222362347609000,0.501609130859375,-1.2615203857421875,-0.924774169921875,-0.0319061279296875
1789222362357604000,0.51160400390625,-0.854339599609375,-0.803131103515625,0.075347900390625
1789222362367598000,0.52159814453125,0.1378326416015625,-0.2901611328125,-0.118499755859375
1789222362377592000,0.531592041015625,-0.2287750244140625,-1.1846160888671875,-0.614776611328125
1789222362387586000,0.5415859375,-1.257720947265625,-1.2214508056640625,-0.5217437744140625
1789222362397580000,0.551580078125,-1.3046112060546875,-0.8498687744140625,0.097869873046875
1789222362407574000,0.561573974609375,-0.3384552001953125,-0.831207275390625,0.213714599609375
1789222362417569000,0.571569091796875,0.3452911376953125,-0.9420166015625,-0.08477783203125
1789222362427563000,0.58156298828125,-0.077789306640625,-0.8669586181640625,-0.0221099853515625
1789222362437557000,0.591556884765625,-1.1049652099609375,-0.6176605224609375,0.2255706787109375
1789222362447551000,0.601551025390625,-1.393646240234375,-0.6941070556640625,-0.1070556640625
1789222362457545000,0.611544921875,-0.7032928466796875,-1.0972747802734375,-0.54248046875
1789222362467539200,0.621539306640625,0.019134521484375,-0.836669921875,-0.250518798828125
1789222362477534000,0.631533935546875,-0.4235076904296875,-0.5980072021484375,0.3295745849609375
1789222362487528200,0.641528076171875,-1.2628173828125,-1.08636474609375,0.43328857421875
1789222362497522200,0.651522216796875,-0.5187530517578125,-0.6160888671875,0.206024169921875
1789222362507516000,0.661515869140625,0.1841583251953125,-0.460906982421875,0.0445709228515625
1789222362517510000,0.671510009765625,-0.4281158447265625,-1.0029296875,-0.0303497314453125
1789222362527504000,0.68150390625,-1.151214599609375,-0.7537384033203125,0.0395660400390625
1789222362537499000,0.691498779296875,-0.915740966796875,-0.59515380859375,0.0914459228515625
1789222362547492900,0.701492919921875,-0.3501129150390625,-0.989105224609375,-0.028778076171875
1789222362557487000,0.711487060546875,-0.36260986328125,-0.8825531005859375,-0.0293731689453125
1789222362567481000,0.721481201171875,-0.672637939453125,-0.56365966796875,0.0111236572265625
1789222362577475000,0.73147509765625,-0.8051910400390625,-0.990692138671875,-0.0609893798828125
1789222362587469000,0.741468994140625,-0.707427978515625,-0.8603668212890625,-0.0393524169921875
1789222362597464000,0.751464111328125,-0.729827880859375,-0.3052978515625,0.1712799072265625
1789222362607458000,0.7614580078125,-0.708465576171875,-0.5998077392578125,0.2430267333984375
1789222362617452000,0.7714521484375,-0.4005584716796875,-1.2058258056640625,0.0796051025390625
1789222362627446000,0.781446044921875,-0.2273712158203125,-0.707916259765625,0.0063323974609375
1789222362637440000,0.79143994140625,-0.93011474609375,-0.453369140625,0.054473876953125
1789222362647434000,0.80143408203125,-1.2541656494140625,-1.2322235107421875,-0.0523681640625
1789222362657429000,0.811428955078125,-0.3729248046875,-0.975067138671875,-0.1845245361328125
1789222362667423000,0.821423095703125,-0.2764739990234375,-0.3898162841796875,-0.05462646484375
1789222362677417000,0.8314169921875,-1.0942230224609375,-0.747955322265625,0.1189117431640625
1789222362687411000,0.841410888671875,-1.007720947265625,-0.971832275390625,0.2010345458984375
1789222362697405200,0.8514052734375,-0.176361083984375,-0.528228759765625,0.10186767578125
1789222362707399200,0.861399169921875,-0.3858642578125,-0.704345703125,0.07598876953125
1789222362717394200,0.871394287109375,-1.0806732177734375,-1.0121002197265625,0.1942138671875
1789222362727388000,0.881387939453125,-0.7878570556640625,-0.8432464599609375,0.18402099609375
1789222362737382000,0.8913818359375,-0.4883270263671875,-0.7000885009765625,0.082366943359375
1789222362747375900,0.9013759765625,-0.621429443359375,-0.74371337890625,0.099761962890625
1789222362757370000,0.9113701171875,-0.44903564453125,-0.72064208984375,0.1611175537109375
1789222362767364000,0.921364013671875,-0.597198486328125,-0.602386474609375,0.124176025390625
1789222362777359000,0.931359130859375,-0.85357666015625,-0.7170562744140625,0.0782623291015625
1789222362787353000,0.94135302734375,-0.6641845703125,-0.89569091796875,0.103240966796875
1789222362797347000,0.95134716796875,-0.30718994140625,-0.7489776611328125,0.1427001953125
1789222362807341000,0.961341064453125,-0.331390380859375,-0.63720703125,0.12677001953125
1789222362817335000,0.9713349609375,-0.81512451171875,-0.8091583251953125,0.2248992919921875
1789222362827329000,0.9813291015625,-0.912506103515625,-0.8398590087890625,0.27264404296875
1789222362837324000,0.991323974609375,-0.6517181396484375,-0.757659912109375,0.134246826171875
1789222362847318000,1.001318115234375,-0.652099609375,-0.6604461669921875,0.005828857421875
1789222362857312000,1.01131201171875,-0.657379150390625,-0.6693267822265625,0.0500335693359375
1789222362867306000,1.021305908203125,-0.58856201171875,-0.840911865234375,0.09881591796875
1789222362877300000,1.031300048828125,-0.5358123779296875,-0.76806640625,0.0987091064453125
1789222362887294000,1.0412939453125,-0.424072265625,-0.4450836181640625,0.12481689453125
1789222362897289000,1.0512890625,-0.4591827392578125,-0.8068084716796875,0.2165069580078125
1789222362907283000,1.061282958984375,-0.6780853271484375,-0.8787841796875,0.25775146484375
1789222362917277200,1.071277099609375,-0.8795166015625,-0.709197998046875,0.21832275390625
1789222362927271200,1.081271240234375,-0.7174530029296875,-0.833251953125,0.1427154541015625
1789222362937265000,1.091264892578125,-0.4471435546875,-0.9948577880859375,0.076385498046875
1789222362947259000,1.1012587890625,-0.43463134765625,-0.75811767578125,0.047271728515625
1789222362957254000,1.11125390625,-0.7388153076171875,-0.7493438720703125,0.0559539794921875
1789222362967248000,1.121247802734375,-0.8739776611328125,-0.8643798828125,0.0457000732421875
1789222362977242000,1.1312421875,-0.6627655029296875,-0.7218475341796875,-0.00604248046875
1789222362987236000,1.141236083984375,-0.5722503662109375,-0.631103515625,0.005584716796875
1789222362997230000,1.15122998046875,-0.63861083984375,-0.7745361328125,0.0672149658203125
1789222363007224000,1.16122412109375,-0.7296600341796875,-0.8688507080078125,0.196044921875
1789222363017219000,1.171218994140625,-0.683837890625,-0.728668212890625,0.237762451171875
1789222363027213000,1.181213134765625,-0.6522369384765625,-0.9207611083984375,0.154052734375
1789222363037207000,1.19120703125,-0.509979248046875,-0.692474365234375,0.0753021240234375
1789222363047201000,1.201200927734375,-0.40020751953125,-0.781036376953125,0.010772705078125
1789222363057195000,1.211195068359375,-0.440521240234375,-0.9686126708984375,-0.0494537353515625
1789222363067189000,1.22118896484375,-0.568328857421875,-0.56011962890625,0.0222015380859375
1789222363077184000,1.23118408203125,-0.6995849609375,-0.6606597900390625,0.16961669921875
1789222363087178000,1.241177978515625,-0.6742095947265625,-0.9163055419921875,0.1937713623046875
1789222363097172000,1.251171875,-0.5890350341796875,-0.6858673095703125,0.0976104736328125
1789222363107166000,1.261166015625,-0.803558349609375,-0.7447509765625,-0.040374755859375
1789222363117160200,1.27116015625,-0.9673919677734375,-0.8647918701171875,-0.1161346435546875
1789222363127154200,1.281154296875,-0.71966552734375,-0.6476593017578125,-0.1488037109375
1789222363137149200,1.291149169921875,-0.56451416015625,-0.7280426025390625,-0.1189727783203125
1789222363147143200,1.30114306640625,-0.743133544921875,-0.951263427734375,0.0444183349609375
1789222363157137000,1.311136962890625,-0.821929931640625,-0.69525146484375,0.1536865234375
1789222363167131000,1.321130859375,-0.6005096435546875,-0.6102294921875,0.0382537841796875
1789222363177124900,1.331124755859375,-0.3184967041015625,-0.9049072265625,-0.1285552978515625
1789222363187119000,1.341119140625,-0.3445892333984375,-0.7826080322265625,-0.0275421142578125
1789222363197113900,1.35111376953125,-0.760772705078125,-0.59295654296875,0.163177490234375
1789222363207107600,1.361107666015625,-0.83148193359375,-0.8960418701171875,0.1820220947265625
1789222363217101600,1.3711015625,-0.472198486328125,-0.9843292236328125,0.0632171630859375
1789222363227095600,1.381095458984375,-0.4863128662109375,-0.591949462890625,-0.013336181640625
1789222363237089500,1.391089599609375,-0.8206634521484375,-0.764739990234375,-0.0556793212890625
1789222363247083800,1.401083740234375,-0.600860595703125,-0.9414215087890625,-0.137969970703125
1789222363257078500,1.41107861328125,-0.4181976318359375,-0.6590423583984375,-0.1237640380859375
1789222363267072800,1.42107275390625,-0.7402191162109375,-0.668121337890625,0.0414581298828125
1789222363277066800,1.431066650390625,-0.6717987060546875,-0.8640594482421875,0.124267578125
1789222363287060700,1.441060791015625,-0.4501800537109375,-0.629425048828125,0.02923583984375
1789222363297054500,1.451054443359375,-0.64361572265625,-0.8240203857421875,0.0225982666015625
1789222363307048400,1.46104833984375,-0.7936248779296875,-0.9561004638671875,0.0817108154296875
1789222363317043500,1.47104345703125,-0.623931884765625,-0.673828125,0.0810089111328125
1789222363327037700,1.48103759765625,-0.5413818359375,-0.5396270751953125,0.067626953125
1789222363337031700,1.49103173828125,-0.62286376953125,-0.8607330322265625,0.15179443359375
1789222363347025700,1.501025634765625,-0.638153076171875,-0.624359130859375,0.1596527099609375
1789222363357019600,1.51101953125,-0.732025146484375,-0.5613250732421875,0.03533935546875
1789222363367013600,1.521013671875,-0.763824462890625,-0.6986236572265625,-0.0016937255859375
1789222363377008600,1.531008544921875,-0.7156829833984375,-0.7134246826171875,0.038421630859375
1789222363387002600,1.541002685546875,-0.67889404296875,-0.6339569091796875,0.0923004150390625
1789222363396996900,1.550996826171875,-0.8254852294921875,-0.7208099365234375,0.1935577392578125
1789222363406990600,1.560990478515625,-0.7472381591796875,-0.794647216796875,0.2482452392578125
1789222363416984600,1.570984619140625,-0.5102081298828125,-0.6638641357421875,0.16058349609375
1789222363426978600,1.580978515625,-0.6306610107421875,-0.6960601806640625,0.121826171875
1789222363436973600,1.5909736328125,-0.8584747314453125,-0.744110107421875,0.1711578369140625
1789222363446967600,1.600967529296875,-0.74249267578125,-0.877166748046875,0.17242431640625
1789222363456961500,1.61096142578125,-0.6561279296875,-0.6805572509765625,0.1312713623046875
1789222363466955800,1.620955810546875,-0.7546234130859375,-0.7242279052734375,0.1072998046875
1789222363476949800,1.63094970703125,-0.69183349609375,-0.844207763671875,0.054656982421875
1789222363486943700,1.64094384765625,-0.60565185546875,-0.79180908203125,0.003662109375
1789222363496937700,1.650937744140625,-0.72015380859375,-0.8972625732421875,-0.000457763671875
1789222363506932700,1.6609326171875,-0.7856597900390625,-0.6970367431640625,0.11065673828125
1789222363516926500,1.670926513671875,-0.545318603515625,-0.7000732421875,0.1117706298828125
1789222363526920400,1.68092041015625,-0.432037353515625,-0.97509765625,0.0772857666015625
1789222363536914700,1.690914794921875,-0.586029052734375,-0.7174530029296875,0.13543701171875
1789222363546908700,1.70090869140625,-0.7870635986328125,-0.8101043701171875,0.153106689453125
1789222363556902700,1.710902587890625,-0.7728271484375,-0.76080322265625,0.1104583740234375
1789222363566897700,1.720897705078125,-0.543670654296875,-0.89654541015625,0.0817718505859375
1789222363576891600,1.7308916015625,-0.48291015625,-0.6523895263671875,0.0757293701171875
1789222363586885600,1.7408857421875,-0.650360107421875,-0.6567840576171875,-0.000244140625
1789222363596879600,1.750879638671875,-0.5860443115234375,-0.8380584716796875,-0.07177734375
1789222363606873900,1.760873779296875,-0.4071044921875,-0.5327911376953125,-0.108123779296875
1789222363616867600,1.77086767578125,-0.66363525390625,-0.713409423828125,-0.113800048828125
1789222363626862600,1.780862548828125,-0.9875640869140625,-0.7400970458984375,-0.02374267578125
1789222363636856600,1.790856689453125,-0.7929229736328125,-0.732513427734375,0.035980224609375
1789222363646850600,1.8008505859375,-0.28802490234375,-0.72283935546875,-0.0255584716796875
1789222363656844500,1.810844482421875,-0.1400299072265625,-0.6940460205078125,0.0081939697265625
1789222363666838500,1.820838623046875,-0.6544036865234375,-0.8080902099609375,0.2280731201171875
1789222363676832800,1.830832763671875,-1.14703369140625,-0.8730010986328125,0.37615966796875
1789222363686827800,1.840827880859375,-0.982666015625,-0.8491668701171875,0.27166748046875
1789222363696821800,1.85082177734375,-0.74774169921875,-0.77520751953125,0.0759735107421875
1789222363706815700,1.860815673828125,-0.6354522705078125,-0.8737030029296875,-0.08123779296875
1789222363716809700,1.870809814453125,-0.4923858642578125,-0.870635986328125,-0.19573974609375
1789222363726803500,1.880803466796875,-0.535247802734375,-0.7566070556640625,-0.1877593994140625
1789222363736797700,1.890797607421875,-0.496551513671875,-0.842132568359375,-0.0702972412109375
1789222363746792400,1.90079248046875,-0.3622894287109375,-0.7489166259765625,-0.001251220703125
1789222363756786700,1.91078662109375,-0.507720947265625,-0.675384521484375,0.010223388671875
1789222363766780700,1.92078076171875,-0.637603759765625,-0.793243408203125,-0.0542144775390625
1789222363776774700,1.930774658203125,-0.6559600830078125,-0.6808013916015625,-0.080902099609375
1789222363786768600,1.9407685546875,-0.800323486328125,-0.623077392578125,0.0551300048828125
1789222363796762600,1.9507626953125,-0.7772369384765625,-0.97430419921875,0.1621246337890625
1789222363806757600,1.960757568359375,-0.6175689697265625,-0.910675048828125,0.0805511474609375
1789222363816751600,1.970751708984375,-0.5632476806640625,-0.76104736328125,-0.0729217529296875
1789222363826745900,1.980745849609375,-0.520263671875,-0.9180755615234375,-0.1813812255859375
1789222363836739600,1.990739501953125,-0.4682159423828125,-0.7403411865234375,-0.121551513671875
1789222363846733600,2.000733642578125,-0.4315643310546875,-0.855804443359375,-0.0068817138671875
1789222363856727600,2.0107275390625,-0.5512542724609375,-0.608978271484375,0.0633697509765625
1789222363866722600,2.02072265625,-0.9142913818359375,-0.480316162109375,0.0858001708984375
1789222363876716500,2.030716552734375,-0.7622528076171875,-0.9394989013671875,0.0184783935546875
1789222363886710500,2.04071044921875,-0.5252838134765625,-0.597625732421875,-0.149932861328125
1789222363896704800,2.050704833984375,-0.9391326904296875,-0.683685302734375,-0.2107696533203125
1789222363906698800,2.06069873046875,-0.877288818359375,-1.008575439453125,-0.0108184814453125
1789222363916692700,2.070692626953125,-0.36773681640625,-0.7154998779296875,0.09197998046875
1789222363926687700,2.080687744140625,-0.398284912109375,-0.6828155517578125,0.1123504638671875
1789222363936681700,2.090681640625,-0.8318328857421875,-0.7861175537109375,0.165557861328125
1789222363946675500,2.100675537109375,-0.8254241943359375,-0.8156890869140625,0.240264892578125
1789222363956669700,2.110669677734375,-0.620849609375,-0.592376708984375,0.1880950927734375
1789222363966663700,2.12066357421875,-0.510589599609375,-0.680938720703125,0.0198516845703125
1789222363976657700,2.13065771484375,-0.883697509765625,-0.83538818359375,-0.017669677734375
1789222363986652700,2.140652587890625,-0.8093109130859375,-0.9163970947265625,0.0616607666015625
1789222363996646700,2.150646728515625,-0.5587615966796875,-0.7655029296875,0.0848846435546875
1789222364006640600,2.160640625,-0.832275390625,-0.69189453125,0.135528564453125
1789222364016634600,2.170634521484375,-0.717193603515625,-1.067047119140625,0.2887420654296875
1789222364026628600,2.180628662109375,-0.3441619873046875,-0.7856597900390625,0.293243408203125
1789222364036622800,2.190622802734375,-0.2716064453125,-0.5824127197265625,0.18780517578125
1789222364046617900,2.200617919921875,-0.4853515625,-1.022308349609375,0.1277008056640625
1789222364056611600,2.210611572265625,-0.4523468017578125,-0.8224945068359375,0.1058807373046875
1789222364066605600,2.22060546875,-0.6143951416015625,-0.4497528076171875,0.09466552734375
1789222364076599600,2.230599609375,-0.67462158203125,-0.8472137451171875,0.0870361328125
1789222364086593500,2.240593505859375,-0.6144256591796875,-0.6339111328125,0.0470123291015625
1789222364096587800,2.250587890625,-0.8853759765625,-0.4627532958984375,0.0876617431640625
1789222364106582500,2.26058251953125,-1.1142120361328125,-0.7872314453125,0.1578369140625
1789222364116576800,2.27057666015625,-0.8660736083984375,-0.6585693359375,0.1750640869140625
1789222364126570800,2.28057080078125,-0.5259246826171875,-0.780792236328125,0.1512603759765625
1789222364136564700,2.290564697265625,-0.381439208984375,-0.722900390625,0.1206817626953125
1789222364146558700,2.300558837890625,-0.4923248291015625,-0.6453704833984375,0.130340576171875
1789222364156552400,2.310552490234375,-0.702850341796875,-0.8865814208984375,0.1670684814453125
1789222364166547500,2.32054736328125,-0.6741180419921875,-0.624176025390625,0.1477813720703125
1789222364176541400,2.33054150390625,-0.7350921630859375,-0.6414337158203125,0.087982177734375
1789222364186535700,2.34053564453125,-0.9505767822265625,-0.8355560302734375,0.140625
1789222364196529700,2.35052978515625,-0.7875518798828125,-0.6388397216796875,0.1326141357421875
1789222364206523600,2.360523681640625,-0.7410736083984375,-0.720672607421875,0.0280914306640625
1789222364216517600,2.370517578125,-0.802764892578125,-0.9651641845703125,0.0727996826171875
1789222364226512600,2.3805126953125,-0.5884246826171875,-0.8186798095703125,0.11468505859375
1789222364236506600,2.390506591796875,-0.3580474853515625,-0.6981201171875,0.0443115234375
1789222364246500600,2.40050048828125,-0.3760833740234375,-0.891876220703125,0.0411224365234375
1789222364256494800,2.410494873046875,-0.737335205078125,-0.8647003173828125,0.11224365234375
1789222364266488800,2.42048876953125,-0.80255126953125,-0.8480072021484375,0.029052734375
1789222364276482600,2.430482666015625,-0.4032745361328125,-0.7686920166015625,-0.1191253662109375
1789222364286477800,2.440477783203125,-0.36865234375,-0.7574615478515625,-0.0727691650390625
1789222364296471600,2.450471435546875,-0.7945098876953125,-0.919342041015625,0.1156005859375
1789222364306465500,2.460465576171875,-0.81243896484375,-0.6190338134765625,0.16314697265625
1789222364316459800,2.470459716796875,-0.3751983642578125,-0.6113128662109375,0.0693206787109375
1789222364326453800,2.480453857421875,-0.390625,-0.8968963623046875,0.0154876708984375
1789222364336447700,2.49044775390625,-0.8407745361328125,-0.5781707763671875,0.1238250732421875
1789222364346442800,2.50044287109375,-1.2652740478515625,-0.6223602294921875,0.1628875732421875
1789222364356436700,2.510436767578125,-0.96453857421875,-1.00262451171875,0.0158843994140625
1789222364366430700,2.5204306640625,-0.4652557373046875,-0.56890869140625,-0.0361175537109375
1789222364376424700,2.5304248046875,-0.7489166259765625,-0.6361083984375,0.0118408203125
1789222364386418700,2.540418701171875,-0.81060791015625,-0.9350128173828125,-0.00054931640625
1789222364396412700,2.55041259765625,-0.4189910888671875,-0.6235504150390625,-0.034637451171875
1789222364406407700,2.56040771484375,-0.608062744140625,-0.6241912841796875,0.0357818603515625
1789222364416401700,2.570401611328125,-0.7595367431640625,-0.8191375732421875,0.0922088623046875
1789222364426395600,2.580395751953125,-0.398223876953125,-0.6902618408203125,-0.0060577392578125
1789222364436389600,2.5903896484375,-0.4682464599609375,-0.6785888671875,-0.0756683349609375
1789222364446383600,2.600383544921875,-0.802215576171875,-0.8234100341796875,-0.039520263671875
1789222364456377900,2.6103779296875,-0.69464111328125,-0.798583984375,-0.111083984375
1789222364466372600,2.62037255859375,-0.830810546875,-0.8172454833984375,-0.064544677734375
1789222364476366800,2.630366943359375,-1.0537261962890625,-0.936004638671875,0.1321258544921875
1789222364486360800,2.64036083984375,-0.5406646728515625,-0.84222412109375,0.052703857421875
1789222364496354600,2.6503544921875,-0.49908447265625,-0.8420867919921875,-0.0664825439453125
1789222364506348500,2.6603486328125,-0.776153564453125,-0.890380859375,0.015899658203125
1789222364516342500,2.670342529296875,-0.4622955322265625,-0.9056854248046875,-0.0826568603515625
1789222364526337500,2.680337646484375,-0.309295654296875,-0.7348785400390625,-0.1695098876953125
1789222364536331800,2.690331787109375,-0.5887298583984375,-0.6546478271484375,-0.1069793701171875
1789222364546325800,2.70032568359375,-0.829833984375,-0.90350341796875,0.0030364990234375
1789222364556319700,2.71031982421875,-0.5190277099609375,-0.636962890625,-0.038726806640625
1789222364566313700,2.720313720703125,-0.3714752197265625,-0.6794586181640625,-0.0865631103515625
1789222364576307700,2.7303076171875,-0.580780029296875,-0.8168182373046875,-0.0045318603515625
1789222364586302700,2.740302734375,-0.6151123046875,-0.60589599609375,0.0292510986328125
1789222364596296700,2.750296630859375,-0.9290313720703125,-0.763458251953125,0.0820159912109375
1789222364606290700,2.760290771484375,-0.8245391845703125,-0.822998046875,0.038543701171875
1789222364616284700,2.77028466796875,-0.6626129150390625,-0.6611785888671875,-0.1124114990234375
1789222364626278700,2.780278564453125,-1.145904541015625,-0.86151123046875,-0.0972442626953125
1789222364636273700,2.790273681640625,-0.9210968017578125,-0.9421234130859375,-0.1455230712890625
1789222364646267600,2.800267578125,-0.3132781982421875,-0.5396270751953125,-0.2561798095703125
1789222364656261600,2.81026171875,-0.572509765625,-0.8297119140625,-0.19305419921875
1789222364666255600,2.820255615234375,-0.798065185546875,-0.9946136474609375,0.012542724609375
1789222364676249900,2.830249755859375,-0.4381256103515625,-0.528778076171875,0.0403900146484375
1789222364686243800,2.840243896484375,-0.272613525390625,-0.72149658203125,-0.0556182861328125
1789222364696238800,2.85023876953125,-0.4618682861328125,-0.83966064453125,-0.025604248046875
1789222364706232800,2.86023291015625,-0.8332672119140625,-0.8406982421875,0.064727783203125
1789222364716226600,2.8702265625,-1.0264434814453125,-0.964324951171875,0.0405731201171875
1789222364726220500,2.880220458984375,-0.5472869873046875,-0.8946990966796875,-0.0641937255859375
1789222364736214500,2.890214599609375,-0.1456146240234375,-0.7064971923828125,-0.093994140625
1789222364746208800,2.900208740234375,-0.4097900390625,-0.8101959228515625,-0.104766845703125
1789222364756203800,2.910203857421875,-0.95458984375,-0.7910919189453125,-0.0758514404296875
1789222364766197800,2.92019775390625,-0.8741607666015625,-0.6113128662109375,-0.072723388671875
1789222364776191700,2.930191650390625,-0.536285400390625,-0.751373291015625,-0.198455810546875
1789222364786185700,2.940185791015625,-0.538177490234375,-0.8031158447265625,-0.15704345703125
1789222364796179700,2.9501796875,-0.770294189453125,-0.7239837646484375,0.031341552734375
1789222364806173700,2.960173583984375,-0.6303558349609375,-0.6208343505859375,0.080841064453125
1789222364816168700,2.970168701171875,-0.24853515625,-0.7442169189453125,-0.0252227783203125
1789222364826162700,2.98016259765625,-0.5643463134765625,-0.86358642578125,0.031494140625
1789222364836156700,2.99015673828125,-1.18450927734375,-0.5760040283203125,0.2523956298828125
1789222364846150700,3.000150634765625,-0.985015869140625,-0.6371002197265625,0.303131103515625
1789222364856144600,3.01014453125,-0.362579345703125,-0.575927734375,0.162567138671875
1789222364866138600,3.020138671875,-0.536773681640625,-0.7138824462890625,0.1062774658203125
1789222364876133600,3.030133544921875,-0.987213134765625,-0.7432403564453125,0.180206298828125
1789222364886127600,3.040127685546875,-1.0375823974609375,-0.5955810546875,0.136322021484375
1789222364896121900,3.050121826171875,-0.815521240234375,-0.891754150390625,0.021759033203125
1789222364906115800,3.06011572265625,-0.372406005859375,-0.744659423828125,0.064422607421875
1789222364916109800,3.07010986328125,-0.410064697265625,-0.4245147705078125,0.2261199951171875
1789222364926103600,3.080103515625,-0.8071136474609375,-0.81634521484375,0.354034423828125
1789222364936098600,3.0900986328125,-0.4598846435546875,-0.805694580078125,0.2924957275390625
1789222364946092500,3.100092529296875,-0.327789306640625,-0.539642333984375,0.2136993408203125
1789222364956086500,3.11008642578125,-0.7018890380859375,-0.719757080078125,0.21136474609375
1789222364966080800,3.120080810546875,-0.71270751953125,-0.8380126953125,0.173095703125
1789222364976074800,3.13007470703125,-0.713836669921875,-0.690460205078125,0.118408203125
1789222364986068700,3.14006884765625,-0.82373046875,-0.6078948974609375,0.11529541015625
1789222364996063700,3.150063720703125,-0.6164093017578125,-0.709014892578125,0.090545654296875
1789222365006057700,3.1600576171875,-0.4486846923828125,-0.83746337890625,0.053314208984375
1789222365016051700,3.1700517578125,-0.61553955078125,-0.666839599609375,0.112945556640625
1789222365026045700,3.180045654296875,-0.8594207763671875,-0.7036590576171875,0.1614837646484375
1789222365036039700,3.190039794921875,-0.7983245849609375,-0.92816162109375,0.1463623046875
1789222365046033700,3.20003369140625,-0.54486083984375,-0.851837158203125,0.063873291015625
1789222365056028700,3.210028564453125,-0.57806396484375,-0.628265380859375,0.0396881103515625
1789222365066022700,3.220022705078125,-1.0466766357421875,-0.822479248046875,0.0924530029296875
1789222365076016600,3.2300166015625,-1.0367279052734375,-0.9772796630859375,0.068115234375
1789222365086010600,3.2400107421875,-0.577362060546875,-0.77496337890625,-0.0376739501953125
1789222365096004600,3.250004638671875,-0.608642578125,-0.9044952392578125,-0.0693511962890625
1789222365105998800,3.259998779296875,-0.6590576171875,-1.109893798828125,0.0174407958984375
1789222365115993900,3.269993896484375,-0.3121490478515625,-0.8354644775390625,0.0502166748046875
1789222365125987800,3.27998779296875,-0.339691162109375,-0.9405670166015625,0.0232696533203125
1789222365135981800,3.28998193359375,-0.5927276611328125,-0.9998016357421875,0.059600830078125
1789222365145975600,3.2999755859375,-0.4316864013671875,-0.7705535888671875,0.029449462890625
1789222365155969500,3.309969482421875,-0.2278900146484375,-0.8738250732421875,-0.13250732421875
1789222365165963800,3.3199638671875,-0.340667724609375,-0.9890594482421875,-0.25140380859375
1789222365175958500,3.32995849609375,-0.6476287841796875,-0.8383331298828125,-0.1756439208984375
1789222365185952800,3.339952880859375,-0.76715087890625,-0.5946502685546875,-0.114501953125
1789222365195947300,3.349947265625,-0.8779296875,-0.7730865478515625,-0.1270294189453125
1789222365205941200,3.359941162109375,-0.71990966796875,-0.7845611572265625,-0.1581878662109375
1789222365215935200,3.369935302734375,-0.526336669921875,-0.6136474609375,-0.1964263916015625
1789222365225929200,3.37992919921875,-0.8695831298828125,-0.7732696533203125,-0.165008544921875
1789222365235924200,3.38992431640625,-1.04119873046875,-0.945343017578125,-0.0827484130859375
1789222365245918200,3.399918212890625,-0.7107391357421875,-0.6363372802734375,-0.02972412109375
1789222365255912200,3.409912109375,-0.4424896240234375,-0.7848358154296875,-0.018310546875
1789222365265906400,3.419906494140625,-0.4192657470703125,-0.7451019287109375,0.0374908447265625
1789222365275900400,3.429900390625,-0.81103515625,-0.6358642578125,0.1596221923828125
1789222365285894100,3.43989404296875,-0.9605255126953125,-0.76470947265625,0.2137603759765625
1789222365295889400,3.449889404296875,-0.6083221435546875,-0.540283203125,0.1767730712890625
1789222365305883100,3.459883056640625,-0.531768798828125,-0.7898406982421875,0.164703369140625
1789222365315877000,3.469877197265625,-0.751007080078125,-0.7429656982421875,0.15411376953125
1789222365325871000,3.47987109375,-1.097137451171875,-0.6555328369140625,0.15142822265625
1789222365335865300,3.489865234375,-0.747772216796875,-0.8681640625,0.032806396484375
1789222365345859300,3.499859375,-0.040130615234375,-0.7174530029296875,-0.12548828125
1789222365355854300,3.509854248046875,-0.2867584228515625,-0.68182373046875,-0.0063934326171875
1789222365365848300,3.519848388671875,-0.863006591796875,-0.9222869873046875,0.197265625
1789222365375842300,3.52984228515625,-0.7000885009765625,-0.709747314453125,0.2377777099609375
1789222365385836300,3.539836181640625,-0.2304534912109375,-0.5920257568359375,0.1719818115234375
1789222365395830300,3.549830322265625,-0.182769775390625,-0.8179779052734375,0.0725555419921875
1789222365405824300,3.55982421875,-0.58489990234375,-0.72613525390625,0.0950927734375
1789222365415819300,3.5698193359375,-1.1287994384765625,-0.6432647705078125,0.094573974609375
1789222365425813200,3.579813232421875,-1.154296875,-0.9800872802734375,-0.0058135986328125
1789222365435807200,3.58980712890625,-0.669708251953125,-0.7124176025390625,-0.1263275146484375
1789222365445801200,3.59980126953125,-0.727325439453125,-0.6394805908203125,-0.11065673828125
1789222365455795200,3.609795166015625,-0.9017333984375,-0.8962860107421875,-0.0113983154296875
1789222365465790200,3.619790283203125,-0.67486572265625,-0.6903839111328125,-0.034149169921875
1789222365475784200,3.6297841796875,-0.6753692626953125,-0.6768798828125,-0.0718841552734375
1789222365485778400,3.6397783203125,-0.803253173828125,-0.7718963623046875,0.0446624755859375
1789222365495772400,3.6497724609375,-0.65692138671875,-0.7252960205078125,0.1536865234375
1789222365505766100,3.65976611328125,-0.599090576171875,-0.7027740478515625,0.1592559814453125
1789222365515760000,3.669760009765625,-0.6880950927734375,-0.7674102783203125,0.18927001953125
1789222365525755100,3.679755126953125,-0.6682281494140625,-0.757904052734375,0.2281494140625
1789222365535749000,3.6897490234375,-0.670135498046875,-0.7770233154296875,0.193695068359375
1789222365545743000,3.6997431640625,-0.8195343017578125,-0.8419036865234375,0.133087158203125
1789222365555737300,3.7097373046875,-0.800567626953125,-0.6824951171875,0.17022705078125
1789222365565731300,3.7197314453125,-0.6753082275390625,-0.8131561279296875,0.1801605224609375
1789222365575725300,3.729725341796875,-0.4876251220703125,-0.924835205078125,0.095428466796875
1789222365585720300,3.73972021484375,-0.309844970703125,-0.66534423828125,0.029327392578125
1789222365595714300,3.74971435546875,-0.576080322265625,-0.7877655029296875,0.073516845703125
1789222365605708300,3.759708251953125,-0.9168548583984375,-0.860809326171875,0.1593780517578125
1789222365615702300,3.769702392578125,-0.767181396484375,-0.7587127685546875,0.1442413330078125
1789222365625696300,3.7796962890625,-0.53802490234375,-0.6454925537109375,0.121185302734375
1789222365635690200,3.789690185546875,-0.6766815185546875,-0.813507080078125,0.1945953369140625
1789222365645685200,3.799685302734375,-0.7826080322265625,-0.721527099609375,0.2041778564453125
1789222365655679200,3.80967919921875,-0.843963623046875,-0.529083251953125,0.1097412109375
1789222365665673200,3.819673095703125,-0.7232818603515625,-0.83978271484375,0.1011962890625
1789222365675667200,3.829667236328125,-0.564117431640625,-0.6483001708984375,0.168548583984375
1789222365685661400,3.839661376953125,-0.5218658447265625,-0.625274658203125,0.1814727783203125
1789222365695655400,3.849655517578125,-0.526397705078125,-0.6277923583984375,0.2176666259765625
1789222365705650400,3.859650390625,-0.69732666015625,-0.6314697265625,0.3257293701171875
1789222365715644400,3.86964453125,-0.75048828125,-0.8543853759765625,0.224609375
1789222365725638100,3.87963818359375,-0.7037353515625,-0.6150970458984375,0.075042724609375
1789222365735632100,3.889632080078125,-0.7669525146484375,-0.628814697265625,0.165283203125
1789222365745626000,3.899626220703125,-0.6816558837890625,-0.912384033203125,0.1917877197265625
1789222365755620400,3.909620361328125,-0.34869384765625,-0.5460662841796875,0.0698394775390625
1789222365765615000,3.919614990234375,-0.392791748046875,-0.720703125,0.0825958251953125
1789222365775609300,3.929609375,-0.9736175537109375,-0.9192047119140625,0.234344482421875
1789222365785603300,3.939603271484375,-1.0863494873046875,-0.6217193603515625,0.2444305419921875
1789222365795597300,3.949597412109375,-0.6767578125,-0.8954315185546875,0.07647705078125
1789222365805591300,3.95959130859375,-0.3191986083984375,-0.770172119140625,0.0986785888671875
1789222365815585300,3.969585205078125,-0.5128631591796875,-0.66619873046875,0.2260589599609375
1789222365825580300,3.979580322265625,-0.4901885986328125,-0.8719482421875,0.2044219970703125
1789222365835574300,3.98957421875,-0.3506317138671875,-0.6760406494140625,0.1753387451171875
1789222365845568300,3.999568359375,-0.540771484375,-0.8226470947265625,0.2276458740234375
1789222365855562200,4.009562255859375,-0.4841766357421875,-0.6471710205078125,0.1624908447265625
1789222365865556200,4.01955615234375,-0.6030426025390625,-0.5802001953125,0.0567626953125
1789222365875550200,4.02955029296875,-0.7940673828125,-0.8276519775390625,0.092010498046875
1789222365885545200,4.039545166015625,-0.7298736572265625,-0.4341583251953125,0.1051483154296875
1789222365895539200,4.049539306640625,-1.0627593994140625,-0.720123291015625,0.094268798828125
1789222365905533400,4.059533447265625,-1.084747314453125,-0.949127197265625,0.2236328125
1789222365915527400,4.06952734375,-0.4324798583984375,-0.6163787841796875,0.183868408203125
1789222365925521400,4.079521484375,-0.311798095703125,-0.757659912109375,0.021270751953125
1789222365935516400,4.089516357421875,-0.65362548828125,-0.993438720703125,0.119781494140625
1789222365945510400,4.099510498046875,-0.927032470703125,-0.851654052734375,0.263885498046875
1789222365955504000,4.109504150390625,-0.62933349609375,-0.7711639404296875,0.2014007568359375
1789222365965498000,4.119498046875,-0.1829681396484375,-0.856170654296875,0.1016082763671875
1789222365975492400,4.129492431640625,-0.1175689697265625,-0.620391845703125,0.1583251953125
1789222365985486300,4.139486328125,-0.3699798583984375,-0.659912109375,0.1639862060546875
1789222365995481300,4.1494814453125,-0.49517822265625,-0.72308349609375,0.052337646484375
1789222366005475300,4.159475341796875,-0.9538726806640625,-0.625823974609375,0.0349884033203125
1789222366015469300,4.16946923828125,-1.541961669921875,-0.8778076171875,0.044525146484375
1789222366025463300,4.17946337890625,-1.0513763427734375,-0.915863037109375,-0.03765869140625
1789222366035457300,4.189457275390625,-0.147125244140625,-0.6771240234375,-0.1090850830078125
1789222366045451300,4.199451171875,0.0355987548828125,-0.7525787353515625,-0.0184783935546875
1789222366055446300,4.2094462890625,-0.436920166015625,-0.9194793701171875,0.1784210205078125
1789222366065440300,4.219440185546875,-1.1209869384765625,-0.843475341796875,0.3385467529296875
1789222366075434200,4.229434326171875,-1.027069091796875,-0.7091522216796875,0.2800140380859375
1789222366085428200,4.23942822265625,-0.1913909912109375,-0.845672607421875,-0.0331573486328125
1789222366095422200,4.249422119140625,-0.0726318359375,-0.9059295654296875,-0.1702423095703125
1789222366105416200,4.259416259765625,-0.8723297119140625,-0.6492156982421875,-0.0101165771484375
1789222366115411200,4.2694111328125,-0.9394683837890625,-0.6118621826171875,0.0545196533203125
1789222366125405200,4.2794052734375,-0.5610198974609375,-0.9360504150390625,-0.0138397216796875
1789222366135399400,4.2893994140625,-0.4645233154296875,-0.8518524169921875,0.0726318359375
1789222366145393400,4.299393310546875,-0.6337432861328125,-0.5717315673828125,0.0341339111328125
1789222366155387100,4.30938720703125,-0.732879638671875,-0.732025146484375,-0.090362548828125
1789222366165381000,4.319381103515625,-0.5460968017578125,-0.7891387939453125,-0.1117095947265625
1789222366175376100,4.329376220703125,-0.6280670166015625,-0.7431182861328125,-0.0691070556640625
1789222366185370000,4.3393701171875,-0.9697113037109375,-0.741424560546875,0.037109375
1789222366195363600,4.349363525390625,-0.8697662353515625,-0.6986846923828125,0.13958740234375
1789222366205357600,4.359357666015625,-0.4447021484375,-0.955718994140625,0.0762481689453125
1789222366215351600,4.3693515625,-0.35009765625,-0.692840576171875,-0.0121917724609375
1789222366225345500,4.379345458984375,-0.675048828125,-0.7997589111328125,0.0767364501953125
1789222366235340500,4.389340576171875,-0.7789764404296875,-1.0446624755859375,0.1898956298828125
1789222366245334500,4.39933447265625,-0.342987060546875,-0.4910736083984375,0.139617919921875
1789222366255328800,4.409328857421875,-0.182586669921875,-0.697662353515625,0.0957489013671875
1789222366265322500,4.419322509765625,-0.5791168212890625,-0.959564208984375,0.135986328125
1789222366275316500,4.42931640625,-1.1473388671875,-0.684722900390625,0.11114501953125
1789222366285311500,4.4393115234375,-0.8486175537109375,-0.8624267578125,-0.002532958984375
1789222366295305500,4.449305419921875,-0.3696746826171875,-0.7993011474609375,-0.07623291015625
1789222366305299500,4.459299560546875,-0.8680419921875,-0.8454437255859375,0.1341094970703125
1789222366315293400,4.46929345703125,-0.9560699462890625,-0.7009124755859375,0.277557373046875
1789222366325287700,4.47928759765625,-0.5423736572265625,-0.6658782958984375,0.1343231201171875
1789222366335281700,4.48928173828125,-0.4772796630859375,-1.0829620361328125,0.0664520263671875
1789222366345276700,4.499276611328125,-0.5144500732421875,-0.7249908447265625,0.0582733154296875
1789222366355270700,4.509270751953125,-0.70440673828125,-0.5285186767578125,0.045654296875
1789222366365264600,4.5192646484375,-0.803131103515625,-0.975311279296875,0.035247802734375
1789222366375258400,4.52925830078125,-0.6353912353515625,-0.8040771484375,0.0788726806640625
1789222366385252400,4.53925244140625,-0.447357177734375,-0.43511962890625,0.077850341796875
1789222366395246600,4.54924658203125,-0.79656982421875,-0.8579559326171875,0.079132080078125
1789222366405241600,4.55924169921875,-0.8785552978515625,-0.9541473388671875,0.2087249755859375
1789222366415235600,4.569235595703125,-0.3901214599609375,-0.4896087646484375,0.140533447265625
1789222366425229600,4.5792294921875,-0.653717041015625,-0.703826904296875,0.0350799560546875
1789222366435223600,4.5892236328125,-0.837310791015625,-0.9835052490234375,0.154632568359375
1789222366445217500,4.599217529296875,-0.3793487548828125,-0.62933349609375,0.0990447998046875
1789222366455211500,4.60921142578125,-0.5719451904296875,-0.575225830078125,-0.0326385498046875
1789222366465206500,4.61920654296875,-1.02984619140625,-0.7898712158203125,0.059967041015625
1789222366475200800,4.62920068359375,-0.700653076171875,-0.93182373046875,0.061492919921875
1789222366485194500,4.639194580078125,-0.4787139892578125,-0.5531768798828125,-0.04498291015625
1789222366495188500,4.6491884765625,-0.8331756591796875,-0.6464691162109375,0.0318756103515625
1789222366505182500,4.659182373046875,-0.6361846923828125,-1.14263916015625,0.1971282958984375
1789222366515176400,4.669176513671875,0.104949951171875,-0.4404144287109375,0.179290771484375
1789222366525171500,4.67917138671875,0.042205810546875,-0.56658935546875,0.0573272705078125
1789222366535165400,4.68916552734375,-0.751220703125,-1.148101806640625,0.1225738525390625
1789222366545159700,4.69915966796875,-1.1194000244140625,-0.39190673828125,0.244781494140625
1789222366555153700,4.709153564453125,-1.12908935546875,-0.754058837890625,0.1428680419921875
1789222366565147600,4.719147705078125,-0.596435546875,-1.0773162841796875,-0.062957763671875
1789222366575142700,4.729142578125,-0.43389892578125,-0.2577667236328125,-0.0097808837890625
1789222366585136600,4.73913671875,-1.1754302978515625,-0.8820648193359375,0.165435791015625
1789222366595130400,4.74913037109375,-0.968414306640625,-1.003265380859375,0.06976318359375
1789222366605124400,4.759124267578125,-0.29681396484375,-0.42578125,-0.039215087890625
1789222366615118600,4.76911865234375,-0.5787506103515625,-1.001007080078125,-0.0181121826171875
1789222366625112600,4.779112548828125,-0.721527099609375,-0.7951507568359375,0.051361083984375
1789222366635107600,4.789107666015625,-0.4774932861328125,-0.498687744140625,0.0679473876953125
1789222366645101600,4.7991015625,-0.348846435546875,-0.88507080078125,0.0488433837890625
1789222366655095600,4.809095458984375,-0.5943145751953125,-0.545989990234375,0.0707855224609375
1789222366665089500,4.819089599609375,-0.9532318115234375,-0.5518798828125,0.17254638671875
1789222366675083500,4.82908349609375,-0.9421844482421875,-0.892486572265625,0.10626220703125
1789222366685077800,4.839077880859375,-0.59912109375,-0.7281036376953125,-0.053009033203125
1789222366695072800,4.84907275390625,-0.366180419921875,-0.642486572265625,-0.1014404296875
1789222366705066500,4.85906640625,-0.753997802734375,-0.92864990234375,-0.0117950439453125
1789222366715060500,4.869060546875,-1.0531463623046875,-0.868927001953125,0.0976104736328125
1789222366725054500,4.879054443359375,-0.6832733154296875,-0.719696044921875,0.09796142578125
1789222366735048400,4.88904833984375,-0.5103607177734375,-0.8462371826171875,0.028411865234375
1789222366745042700,4.899042724609375,-0.4809417724609375,-0.8763275146484375,-0.0424346923828125
1789222366755037400,4.909037353515625,-0.8588409423828125,-0.720794677734375,0.0493927001953125
1789222366765031700,4.91903173828125,-1.06512451171875,-0.743682861328125,0.0742645263671875
1789222366775025700,4.929025634765625,-0.3308868408203125,-1.0344696044921875,-0.1448974609375
1789222366785019600,4.93901953125,-0.5087890625,-0.7896270751953125,-0.0521240234375
1789222366795013600,4.949013671875,-1.0393524169921875,-0.6851959228515625,0.2714385986328125
1789222366805007400,4.95900732421875,-0.6219329833984375,-0.8278350830078125,0.193328857421875
1789222366815002600,4.969002685546875,-0.0098114013671875,-0.850738525390625,-0.0306243896484375
1789222366824996400,4.978996337890625,-0.0608367919921875,-0.4522857666015625,-0.0362396240234375
1789222366834990600,4.988990478515625,-0.7595672607421875,-0.4485321044921875,0.0972900390625
1789222366844984600,4.998984619140625,-1.1855621337890625,-1.0956573486328125,-0.0108489990234375
1789222366854978600,5.008978515625,-0.869110107421875,-1.0556488037109375,-0.1981658935546875
1789222366864972500,5.01897265625,-0.6953582763671875,-0.6504058837890625,-0.0908050537109375
1789222366874967600,5.028967529296875,-0.7188873291015625,-0.878570556640625,0.0569915771484375
1789222366884961500,5.03896142578125,-0.1750946044921875,-1.0527801513671875,-0.06610107421875
1789222366894955500,5.04895556640625,-0.1659698486328125,-0.5977783203125,0.01409912109375
1789222366904949800,5.05894970703125,-0.8764495849609375,-0.5501708984375,0.3000335693359375
1789222366914943500,5.068943603515625,-1.0435791015625,-0.8801116943359375,0.24951171875
1789222366924938800,5.078938720703125,-0.3379669189453125,-0.65435791015625,-0.0399627685546875
1789222366934932500,5.088932373046875,-0.279571533203125,-0.450469970703125,-0.1230010986328125
1789222366944926500,5.098926513671875,-1.271514892578125,-1.0271148681640625,0.0506134033203125
1789222366954920400,5.10892041015625,-1.2761993408203125,-0.895782470703125,0.010101318359375
1789222366964914700,5.118914794921875,-0.489990234375,-0.8206787109375,-0.13812255859375
1789222366974908700,5.12890869140625,-0.048919677734375,-0.8202667236328125,-0.0594329833984375
1789222366984903700,5.138903564453125,-0.281982421875,-0.58270263671875,0.176788330078125
1789222366994897700,5.148897705078125,-1.0294189453125,-0.8134307861328125,0.368804931640625
1789222367004891600,5.1588916015625,-0.915435791015625,-0.78179931640625,0.2852325439453125
1789222367014885600,5.1688857421875,-0.236236572265625,-0.729736328125,-0.0165863037109375
1789222367024879400,5.17887939453125,-0.3540802001953125,-0.76104736328125,-0.1679840087890625
1789222367034873600,5.18887353515625,-0.69580078125,-0.7746429443359375,-0.09918212890625
1789222367044868400,5.198868408203125,-0.772064208984375,-0.9575347900390625,-0.05450439453125
1789222367054862600,5.208862548828125,-0.5314788818359375,-0.6395721435546875,-0.0419158935546875
1789222367064856600,5.218856689453125,-0.6878662109375,-0.7308807373046875,0.080902099609375
1789222367074850600,5.2288505859375,-0.672332763671875,-0.9273529052734375,0.1338653564453125
1789222367084844500,5.238844482421875,-0.17474365234375,-0.499725341796875,0.0496673583984375
1789222367094838500,5.248838623046875,-0.297119140625,-0.6256103515625,0.0528717041015625
1789222367104833500,5.25883349609375,-1.2569122314453125,-0.970428466796875,0.23614501953125
1789222367114827500,5.26882763671875,-1.7961273193359375,-1.001495361328125,0.2547607421875
1789222367124821800,5.27882177734375,-0.7501220703125,-0.6395721435546875,-0.0603790283203125
1789222367134815500,5.2888154296875,0.3803558349609375,-0.537353515625,-0.27484130859375
1789222367144809500,5.2988095703125,0.19561767578125,-0.579437255859375,-0.135711669921875
1789222367154804500,5.308804443359375,-1.3388824462890625,-0.8211822509765625,0.2444305419921875
1789222367164798500,5.318798583984375,-2.06512451171875,-0.83251953125,0.46563720703125
1789222367174792400,5.32879248046875,-0.494720458984375,-0.925994873046875,0.241455078125
1789222367184786400,5.338786376953125,0.74517822265625,-0.81829833984375,-0.06463623046875
1789222367194781400,5.348781494140625,0.1650543212890625,-0.606842041015625,-0.108551025390625
1789222367204775700,5.358775634765625,-1.1068115234375,-1.105255126953125,0.0299835205078125
1789222367214770400,5.3687705078125,-1.3527984619140625,-1.0328521728515625,0.0896148681640625
1789222367224764700,5.3787646484375,-0.317230224609375,-0.5688629150390625,-0.02886962890625
1789222367234758700,5.388758544921875,0.033599853515625,-0.6635284423828125,-0.0119781494140625
1789222367244752400,5.39875244140625,-0.678436279296875,-0.7048492431640625,0.1475372314453125
1789222367254746400,5.408746337890625,-0.9318084716796875,-0.751922607421875,0.2130889892578125
1789222367264740400,5.418740234375,-0.6120452880859375,-0.64794921875,0.086639404296875
1789222367274735400,5.4287353515625,-0.902587890625,-1.068084716796875,-0.0438385009765625
1789222367284729600,5.4387294921875,-1.103057861328125,-0.97991943359375,0.0651092529296875
1789222367294723600,5.4487236328125,-0.756805419921875,-0.6366424560546875,0.122039794921875
1789222367304717600,5.458717529296875,-0.1679229736328125,-0.977874755859375,-0.0569305419921875
1789222367314711600,5.468711669921875,-0.177947998046875,-0.720550537109375,-0.000335693359375
1789222367324705500,5.47870556640625,-0.9694366455078125,-0.5027618408203125,0.27294921875
1789222367334700500,5.488700439453125,-1.1946258544921875,-0.795501708984375,0.3765411376953125
1789222367344694500,5.498694580078125,-0.5277252197265625,-0.746185302734375,0.1137847900390625
1789222367354688500,5.5086884765625,-0.0957489013671875,-0.759552001953125,-0.168609619140625
1789222367364682500,5.5186826171875,-0.59808349609375,-0.542877197265625,-0.0612030029296875
1789222367374676500,5.528676513671875,-1.0909423828125,-0.775360107421875,0.033721923828125
1789222367384670500,5.53867041015625,-0.7097015380859375,-0.88836669921875,-0.137725830078125
1789222367394665500,5.54866552734375,-0.3541717529296875,-0.5305023193359375,-0.12664794921875
1789222367404659500,5.558659423828125,-0.6890869140625,-0.9380950927734375,0.130157470703125
1789222367414653400,5.5686533203125,-0.8174591064453125,-0.8999176025390625,0.259552001953125
1789222367424647700,5.578647705078125,-0.622039794921875,-0.6886444091796875,0.0761260986328125
1789222367434641700,5.5886416015625,-0.56634521484375,-1.004302978515625,-0.0213470458984375
1789222367444636700,5.59863671875,-0.7553558349609375,-0.6860198974609375,0.0747528076171875
1789222367454630700,5.608630615234375,-0.6849517822265625,-0.7647552490234375,-0.0035858154296875
1789222367464624400,5.618624267578125,-0.541656494140625,-0.9562225341796875,0.0299224853515625
1789222367474618400,5.628618408203125,-0.480712890625,-0.71490478515625,0.1461944580078125
1789222367484612400,5.6386123046875,-0.7332763671875,-0.752716064453125,0.167449951171875
1789222367494606600,5.648606689453125,-0.5797119140625,-0.5039215087890625,-0.058349609375
1789222367504601600,5.6586015625,-0.3767852783203125,-0.9356536865234375,-0.19427490234375
1789222367514595600,5.668595703125,-0.500213623046875,-0.8429107666015625,-0.081878662109375
1789222367524589600,5.678589599609375,-0.75946044921875,-0.3777008056640625,-0.0592498779296875
1789222367534583600,5.68858349609375,-0.8224029541015625,-0.9035491943359375,0.022796630859375
1789222367544577500,5.69857763671875,-0.5986175537109375,-0.9890899658203125,0.3778076171875
1789222367554571500,5.708571533203125,-0.2310638427734375,-0.4503173828125,0.409271240234375
1789222367564566500,5.71856640625,-0.5652923583984375,-1.134063720703125,0.0620574951171875
1789222367574560500,5.728560546875,-0.9680938720703125,-1.2329864501953125,-0.1225128173828125
1789222367584554500,5.738554443359375,-0.672088623046875,-0.0010833740234375,-0.07086181640625
1789222367594548500,5.748548583984375,-0.5187225341796875,-0.33294677734375,-0.1846160888671875
1789222367604542500,5.75854248046875,-0.6848602294921875,-1.250640869140625,-0.24200439453125
1789222367614536400,5.768536376953125,-1.2201995849609375,-0.435333251953125,0.0159149169921875
1789222367624531500,5.778531494140625,-1.4189453125,-0.5743865966796875,0.110137939453125
1789222367634525400,5.788525390625,-0.805511474609375,-1.1642913818359375,-0.06756591796875
1789222367644519700,5.798519775390625,-0.35406494140625,-1.0305938720703125,-0.12298583984375
1789222367654513700,5.808513671875,-0.4756927490234375,-0.4903717041015625,0.13232421875
1789222367664507600,5.818507568359375,-0.7763671875,-0.7574615478515625,0.31634521484375
1789222367674502700,5.828502685546875,-0.332000732421875,-1.10650634765625,0.270111083984375
1789222367684496400,5.838496337890625,-0.1097564697265625,-0.3066558837890625,0.149810791015625
1789222367694490400,5.848490478515625,-0.583251953125,-0.451568603515625,0.045074462890625
1789222367704484400,5.858484375,-0.7717437744140625,-0.9832916259765625,0.004364013671875
1789222367714478600,5.868478515625,-0.97918701171875,-0.759246826171875,-0.0495758056640625
1789222367724472600,5.87847265625,-1.126617431640625,-0.7169189453125,-0.0984649658203125
1789222367734467600,5.888467529296875,-0.7391357421875,-0.91864013671875,-0.01470947265625
1789222367744461600,5.898461669921875,-0.094329833984375,-0.937469482421875,0.0633087158203125
1789222367754455600,5.90845556640625,-0.4699249267578125,-0.7830810546875,0.18109130859375
1789222367764449500,5.918449462890625,-0.544158935546875,-0.3500823974609375,0.3658599853515625
1789222367774443500,5.928443603515625,-0.41522216796875,-0.8913726806640625,0.27227783203125
1789222367784437500,5.9384375,-0.7325592041015625,-0.620941162109375,0.048858642578125
1789222367794432500,5.9484326171875,-0.9877166748046875,-0.3550262451171875,0.1174468994140625
1789222367804426500,5.958426513671875,-1.0531158447265625,-1.11376953125,0.1833648681640625
1789222367814420500,5.96842041015625,-0.59112548828125,-0.8142242431640625,-0.0816802978515625
1789222367824414500,5.97841455078125,-0.8347625732421875,-0.4185791015625,-0.1100616455078125
1789222367834408400,5.988408447265625,-0.95538330078125,-0.7985687255859375,0.3225860595703125
1789222367844403500,5.998403564453125,-0.314056396484375,-1.09954833984375,0.3478851318359375
1789222367854397400,6.0083974609375,0.1217193603515625,-0.4655609130859375,0.1707305908203125
1789222367864391700,6.0183916015625,-0.602813720703125,-0.113677978515625,0.4035186767578125
1789222367874385700,6.0283857421875,-1.2738494873046875,-1.2852935791015625,0.62908935546875
1789222367884379600,6.038379638671875,-0.59100341796875,-0.7549591064453125,0.3099365234375
1789222367894373400,6.048373291015625,-0.4924468994140625,-0.0354156494140625,-0.104217529296875
1789222367904368400,6.058368408203125,-1.3778076171875,-1.2631378173828125,0.0518035888671875
1789222367914362400,6.0683623046875,-1.20208740234375,-0.8113555908203125,0.25579833984375
1789222367924356400,6.0783564453125,-0.666900634765625,-0.3243865966796875,-0.0235443115234375
1789222367934350600,6.0883505859375,-0.3701934814453125,-1.0667724609375,-0.0197296142578125
1789222367944344600,6.098344482421875,-0.34375,-0.839752197265625,0.4239349365234375
1789222367954338600,6.108338623046875,-0.6900634765625,-0.4753875732421875,0.422576904296875
1789222367964333600,6.11833349609375,-0.7312164306640625,-0.7772216796875,0.116363525390625
1789222367974327600,6.12832763671875,-0.4637908935546875,-0.8600616455078125,0.19854736328125
1789222367984321500,6.138321533203125,-0.194854736328125,-0.5905609130859375,0.3496246337890625
1789222367994315500,6.1483154296875,-0.4617767333984375,-0.4755859375,0.14581298828125
1789222368004309500,6.1583095703125,-1.0066986083984375,-0.85455322265625,0.07489013671875
1789222368014304500,6.168304443359375,-1.0517578125,-0.737701416015625,0.17376708984375
1789222368024298500,6.178298583984375,-1.22784423828125,-0.9560546875,0.08331298828125
1789222368034292500,6.18829248046875,-0.4674530029296875,-0.92230224609375,-0.0299835205078125
1789222368044286500,6.198286376953125,-0.0918121337890625,-0.766815185546875,0.046051025390625
1789222368054280400,6.208280517578125,-0.4385223388671875,-0.7949066162109375,0.2740631103515625
1789222368064274400,6.2182744140625,-0.447021484375,-0.4713592529296875,0.3136444091796875
1789222368074269400,6.22826953125,-0.619049072265625,-0.9873809814453125,0.1876068115234375
1789222368084263700,6.238263671875,-0.4630126953125,-0.864288330078125,0.0571136474609375
1789222368094257700,6.248257568359375,-0.3634185791015625,-0.269927978515625,-0.1475067138671875
1789222368104251600,6.258251708984375,-1.069000244140625,-1.0085601806640625,-0.143218994140625
1789222368114245400,6.268245361328125,-1.437042236328125,-0.8530120849609375,0.0388946533203125
1789222368124239400,6.2782392578125,-1.162139892578125,-0.7718353271484375,0.100250244140625
1789222368134234400,6.288234375,-0.3892974853515625,-0.93328857421875,0.0042877197265625
1789222368144228400,6.298228271484375,0.0051116943359375,-0.80816650390625,0.0835723876953125
1789222368154222600,6.30822265625,-0.3544158935546875,-1.070556640625,0.18310546875
1789222368164216600,6.318216552734375,-0.557159423828125,-0.66900634765625,0.03131103515625
1789222368174210600,6.32821044921875,-0.301605224609375,-0.805419921875,-0.16668701171875
1789222368184204500,6.33820458984375,-0.2381591796875,-0.9541473388671875,-0.12139892578125
1789222368194199600,6.348199462890625,-0.5442352294921875,-0.448211669921875,-0.0196075439453125
1789222368204193500,6.358193603515625,-1.2318878173828125,-0.7516632080078125,0.05902099609375
1789222368214187500,6.3681875,-0.85003662109375,-0.8486328125,0.083343505859375
1789222368224181800,6.378181640625,-0.4207000732421875,-0.5380401611328125,-0.035247802734375
1789222368234175700,6.38817578125,-0.81842041015625,-0.8992767333984375,-0.1638946533203125
1789222368244170800,6.398170654296875,-0.9046173095703125,-0.677459716796875,-0.0531005859375
1789222368254164700,6.408164794921875,-0.8571624755859375,-0.8802947998046875,0.0406646728515625
1789222368264158700,6.41815869140625,-0.4808197021484375,-0.852203369140625,0.0403594970703125
1789222368274152700,6.428152587890625,-0.3571319580078125,-0.443023681640625,0.150421142578125
1789222368284146400,6.438146484375,-0.56146240234375,-1.0666046142578125,0.2156982421875
1789222368294140700,6.448140625,-0.8503875732421875,-0.4697723388671875,0.1532440185546875
1789222368304135700,6.4581357421875,-1.025726318359375,-0.5621337890625,0.0272369384765625
1789222368314129700,6.468129638671875,-0.48834228515625,-1.10784912109375,-0.1063995361328125
1789222368324123600,6.47812353515625,-0.4658203125,-0.5208282470703125,-0.0919952392578125
1789222368334117600,6.48811767578125,-1.097442626953125,-0.7795562744140625,0.125457763671875
1789222368344111600,6.498111572265625,-0.7065887451171875,-0.8411407470703125,0.2886199951171875
1789222368354105600,6.508105712890625,-0.0855560302734375,-0.7521820068359375,0.2318572998046875
1789222368364100600,6.5181005859375,-0.178314208984375,-0.6215362548828125,0.2622833251953125
1789222368374094800,6.5280947265625,-0.70062255859375,-0.553985595703125,0.3216094970703125
1789222368384088800,6.5380888671875,-1.324554443359375,-1.0556182861328125,0.3018646240234375
1789222368394082600,6.54808251953125,-0.396820068359375,-0.6547698974609375,0.149505615234375
1789222368404076500,6.55807666015625,0.1962127685546875,-0.3909759521484375,-0.1630859375
1789222368414070500,6.568070556640625,-0.987640380859375,-0.9903411865234375,-0.026153564453125
1789222368424065500,6.5780654296875,-1.3267059326171875,-0.87420654296875,0.4066619873046875
1789222368434059500,6.5880595703125,-0.72100830078125,-0.334197998046875,0.2545623779296875
1789222368444053800,6.5980537109375,-0.4526519775390625,-0.74249267578125,-0.043243408203125
1789222368454047700,6.6080478515625,-0.5385284423828125,-0.9490203857421875,0.2006683349609375
1789222368464041700,6.618041748046875,-0.864013671875,-0.2906036376953125,0.3484954833984375
1789222368474036700,6.62803662109375,-1.065185546875,-0.712677001953125,0.0840606689453125
1789222368484030700,6.63803076171875,-0.44061279296875,-1.129974365234375,0.0112762451171875
1789222368494024700,6.648024658203125,0.0351715087890625,-0.4506072998046875,0.133148193359375
1789222368504018400,6.658018310546875,-0.7535247802734375,-0.4802398681640625,0.08380126953125
1789222368514012700,6.6680126953125,-1.0827484130859375,-1.07122802734375,0.055755615234375
1789222368524006700,6.678006591796875,-0.63446044921875,-0.35589599609375,0.0406646728515625
1789222368534001700,6.688001708984375,-0.8242340087890625,-0.6098480224609375,-0.0395050048828125
1789222368543995600,6.69799560546875,-1.0256500244140625,-1.0697784423828125,0.045562744140625
1789222368553989600,6.70798974609375,-0.9662933349609375,-0.4345245361328125,0.10101318359375
1789222368563983600,6.717983642578125,-0.4808197021484375,-1.0034332275390625,0.01263427734375
1789222368573977600,6.7279775390625,-0.49139404296875,-0.913177490234375,-0.0622406005859375
1789222368583972600,6.73797265625,-0.9902801513671875,-0.920166015625,0.0677947998046875
1789222368593966800,6.747966796875,-0.675262451171875,-0.993133544921875,0.080596923828125
1789222368603960800,6.7579609375,-0.285797119140625,-0.5962982177734375,-0.078643798828125
1789222368613954600,6.76795458984375,-0.412353515625,-1.0234832763671875,-0.0069732666015625
1789222368623948500,6.777948486328125,-0.673126220703125,-0.5507659912109375,0.1691436767578125
1789222368633942500,6.787942626953125,-0.8241119384765625,-0.6583709716796875,0.0208282470703125
1789222368643937500,6.7979375,-0.7916412353515625,-1.0420989990234375,-0.2541046142578125
1789222368653931500,6.807931640625,-0.388458251953125,-0.6367034912109375,-0.2840118408203125
1789222368663925800,6.81792578125,-0.4977264404296875,-0.7651824951171875,-0.2241363525390625
1789222368673919700,6.827919677734375,-0.7672882080078125,-0.956268310546875,-0.14190673828125
1789222368683913700,6.837913818359375,-1.209136962890625,-0.819549560546875,0.2318572998046875
1789222368693907700,6.84790771484375,-0.9277496337890625,-0.88006591796875,0.3115692138671875
1789222368703902700,6.85790283203125,-0.1409759521484375,-1.007598876953125,0.0062713623046875
1789222368713896700,6.867896728515625,0.18316650390625,-0.75274658203125,-0.071258544921875
1789222368723890400,6.877890380859375,-0.443756103515625,-0.50836181640625,0.039398193359375
1789222368733884700,6.887884765625,-0.9972076416015625,-0.7963409423828125,-0.030242919921875
1789222368743878700,6.897878662109375,-0.661773681640625,-0.87786865234375,-0.2272186279296875
1789222368753872600,6.90787255859375,-0.3594512939453125,-0.5681304931640625,-0.15814208984375
1789222368763867600,6.91786767578125,-0.940673828125,-0.7165985107421875,-0.0093231201171875
1789222368773861600,6.927861572265625,-0.848297119140625,-0.95703125,-0.1325836181640625
1789222368783855600,6.937855712890625,0.015228271484375,-0.570037841796875,-0.3062896728515625
1789222368793849600,6.947849609375,-0.209075927734375,-0.6422576904296875,-0.147186279296875
1789222368803843800,6.95784375,-1.3392791748046875,-1.134368896484375,0.09637451171875
1789222368813838800,6.9678388671875,-1.381561279296875,-0.947509765625,0.194793701171875
1789222368823832800,6.977832763671875,-0.33465576171875,-0.44781494140625,-0.0304718017578125
1789222368833826600,6.98782666015625,-0.0701904296875,-0.9382781982421875,-0.1567840576171875
1789222368843820500,6.997820556640625,-0.704742431640625,-0.82037353515625,-0.0194854736328125
1789222368853814500,7.007814453125,-1.476959228515625,-0.35797119140625,0.02862548828125
1789222368863808500,7.01780859375,-1.1217193603515625,-1.0142669677734375,-0.0481109619140625
1789222368873803500,7.027803466796875,0.105194091796875,-0.904754638671875,-0.1385040283203125
1789222368883797800,7.0377978515625,-0.0671539306640625,-0.12982177734375,0.02349853515625
1789222368893791700,7.047791748046875,-1.2803955078125,-0.902252197265625,0.27850341796875
1789222368903785700,7.05778564453125,-0.88702392578125,-1.1792449951171875,0.237274169921875
1789222368913779700,7.06777978515625,-0.1389923095703125,-0.417816162109375,-0.0319671630859375
1789222368923773400,7.0777734375,-0.5988922119140625,-0.574859619140625,0.0177459716796875
1789222368933768700,7.087768798828125,-1.260589599609375,-1.034423828125,0.2715606689453125
1789222368943762400,7.097762451171875,-0.779632568359375,-0.723419189453125,0.2040863037109375
1789222368953756700,7.107756591796875,-0.122833251953125,-0.37188720703125,-0.0181732177734375
1789222368963750700,7.117750732421875,-0.8514251708984375,-0.8717041015625,0.100677490234375
1789222368973744600,7.12774462890625,-1.1166229248046875,-0.9274139404296875,0.2768096923828125
1789222368983739600,7.13773974609375,-0.324859619140625,-0.5762786865234375,0.16485595703125
1789222368993733600,7.147733642578125,-0.0154266357421875,-0.6318511962890625,0.1313629150390625
1789222369003727600,7.1577275390625,-0.4927215576171875,-0.8132171630859375,0.4591827392578125
1789222369013721600,7.1677216796875,-0.64544677734375,-0.5584564208984375,0.530059814453125
1789222369023715800,7.1777158203125,-0.5439605712890625,-0.5294189453125,0.1859130859375
1789222369033709600,7.18770947265625,-0.8815460205078125,-0.892059326171875,0.0359039306640625
1789222369043704800,7.197704833984375,-0.7939300537109375,-0.5283203125,0.0974273681640625
1789222369053698600,7.207698486328125,-0.40252685546875,-0.5597381591796875,-0.0192413330078125
1789222369063692500,7.217692626953125,-0.5435638427734375,-0.849700927734375,-0.0831298828125
1789222369073686500,7.2276865234375,-1.0510406494140625,-0.802581787109375,0.1200408935546875
1789222369083680500,7.237680419921875,-1.63092041015625,-0.73809814453125,0.1820831298828125
1789222369093674800,7.2476748046875,-1.0337982177734375,-0.9712677001953125,-0.0103759765625
1789222369103669800,7.257669677734375,0.30401611328125,-1.0818634033203125,-0.1585693359375
1789222369113663700,7.267663818359375,0.464447021484375,-0.8675537109375,-0.0602569580078125
1789222369123657700,7.27765771484375,-0.5873870849609375,-0.7659912109375,0.2147979736328125
1789222369133651700,7.287651611328125,-0.9951934814453125,-1.1282501220703125,0.2735748291015625
1789222369143645700,7.297645751953125,-0.2039794921875,-0.745941162109375,-0.008697509765625
1789222369153640700,7.307640625,-0.168060302734375,-0.4954833984375,-0.1459197998046875
1789222369163634400,7.317634521484375,-0.943359375,-0.7242584228515625,-0.0206451416015625
1789222369173628700,7.327628662109375,-0.96490478515625,-0.7096710205078125,-0.1367645263671875
1789222369183622700,7.33762255859375,-0.9395751953125,-0.5617218017578125,-0.338409423828125
1789222369193616600,7.34761669921875,-1.393310546875,-0.746612548828125,-0.13568115234375
1789222369203610600,7.357610595703125,-0.9325103759765625,-1.039764404296875,0.0272064208984375
1789222369213605600,7.367605712890625,-0.247955322265625,-1.0843353271484375,-0.135284423828125
1789222369223599600,7.377599609375,-0.325927734375,-0.5634613037109375,-0.083099365234375
1789222369233593600,7.387593505859375,-0.7353363037109375,-0.907806396484375,0.2186126708984375
1789222369243587800,7.397587890625,-0.2865447998046875,-0.9264984130859375,0.2470550537109375
1789222369253581800,7.407581787109375,-0.1961822509765625,-0.080078125,0.1593475341796875
1789222369263575600,7.417575439453125,-0.974273681640625,-0.849884033203125,0.177398681640625
1789222369273570600,7.427570556640625,-0.8668365478515625,-0.693389892578125,0.0831756591796875
1789222369283564500,7.437564453125,-0.5904693603515625,-0.338409423828125,-0.2246246337890625
1789222369293558500,7.44755859375,-1.083892822265625,-1.0343780517578125,-0.3521575927734375
1789222369303552500,7.457552490234375,-1.1800689697265625,-0.916473388671875,-0.103729248046875
1789222369313546800,7.467546630859375,-0.7925567626953125,-0.69049072265625,0.079681396484375
1789222369323540700,7.477540771484375,-0.650054931640625,-1.0399932861328125,0.27374267578125
1789222369333535700,7.48753564453125,-0.2576141357421875,-1.0397796630859375,0.4203033447265625
1789222369343529700,7.49752978515625,-0.2274932861328125,-0.526092529296875,0.3441925048828125
1789222369353523700,7.507523681640625,-0.5525360107421875,-0.5712127685546875,0.1775665283203125
1789222369363517700,7.517517578125,-0.7413330078125,-1.04010009765625,0.10723876953125
1789222369373511700,7.52751171875,-0.8270263671875,-0.8294830322265625,0.011077880859375
1789222369383506400,7.53750634765625,-0.5895843505859375,-0.6097564697265625,-0.113983154296875
1789222369393500700,7.547500732421875,-0.290069580078125,-0.79998779296875,-0.089324951171875
1789222369403494700,7.55749462890625,-0.7130584716796875,-0.6642303466796875,0.0459136962890625
1789222369413488600,7.567488525390625,-1.27294921875,-0.685546875,0.156219482421875
1789222369423482600,7.577482666015625,-0.813568115234375,-0.7335662841796875,0.1414337158203125
1789222369433476600,7.5874765625,-0.404693603515625,-0.8124847412109375,0.0534210205078125
1789222369443471600,7.5974716796875,-0.530242919921875,-0.7412567138671875,0.0832061767578125
1789222369453465600,7.607465576171875,-0.6391448974609375,-0.5909576416015625,0.2650146484375
1789222369463459800,7.6174599609375,-0.798248291015625,-0.753326416015625,0.259796142578125
1789222369473453800,7.627453857421875,-0.527862548828125,-0.863128662109375,0.116058349609375
1789222369483447600,7.637447509765625,-0.2266387939453125,-0.4335479736328125,0.0462799072265625
1789222369493441500,7.647441650390625,-0.6385650634765625,-0.621185302734375,0.09027099609375
1789222369503436500,7.6574365234375,-1.0273590087890625,-0.7289276123046875,0.11962890625
1789222369513430500,7.667430419921875,-0.75799560546875,-0.6427001953125,0.064544677734375
1789222369523424500,7.677424560546875,-0.4887237548828125,-0.600067138671875,0.0316009521484375
1789222369533418800,7.687418701171875,-0.7642822265625,-0.7487335205078125,0.059051513671875
1789222369543412700,7.697412841796875,-0.8483123779296875,-0.9261322021484375,0.056976318359375
1789222369553407700,7.70740771484375,-0.5761260986328125,-0.746185302734375,0.060028076171875
1789222369563401700,7.717401611328125,-0.62139892578125,-0.8002777099609375,0.08917236328125
1789222369573395700,7.727395751953125,-0.8419647216796875,-0.7196502685546875,0.14642333984375
1789222369583389700,7.7373896484375,-0.5968017578125,-0.7605438232421875,0.1312408447265625
1789222369593383400,7.747383544921875,-0.5785980224609375,-0.9498138427734375,0.03472900390625
1789222369603377700,7.757377685546875,-0.7207794189453125,-0.629974365234375,-0.010711669921875
1789222369613372700,7.76737255859375,-0.802459716796875,-0.7086944580078125,-0.041900634765625
1789222369623366700,7.77736669921875,-0.4030303955078125,-1.0877685546875,-0.0906982421875
1789222369633360600,7.787360595703125,-0.3134765625,-0.634674072265625,-0.0009613037109375
1789222369643354600,7.797354736328125,-0.921112060546875,-0.577789306640625,0.1899871826171875
1789222369653348600,7.8073486328125,-0.609161376953125,-0.792572021484375,0.255645751953125
1789222369663342600,7.817342529296875,-0.0997161865234375,-0.659820556640625,0.0758819580078125
1789222369673337600,7.827337646484375,-0.4968414306640625,-0.7748565673828125,-0.0075225830078125
1789222369683331800,7.837331787109375,-1.25018310546875,-0.44744873046875,0.046417236328125
1789222369693325800,7.847325927734375,-1.3591156005859375,-0.870330810546875,-0.020416259765625
1789222369703319600,7.857319580078125,-0.5432281494140625,-1.17376708984375,-0.0523529052734375
1789222369713313500,7.8673134765625,-0.1238250732421875,-0.3220062255859375,0.000244140625
1789222369723308500,7.87730859375,-0.7996826171875,-0.6925048828125,0.108062744140625
1789222369733302500,7.887302490234375,-0.758453369140625,-1.037078857421875,0.2151947021484375
1789222369743296500,7.897296630859375,-0.3205108642578125,-0.4315948486328125,0.111968994140625
1789222369753290800,7.907290771484375,-0.6641387939453125,-0.8506011962890625,-0.1149444580078125
1789222369763284700,7.91728466796875,-0.9871368408203125,-0.898651123046875,-0.037567138671875
1789222369773278700,7.92727880859375,-0.8348846435546875,-0.7418670654296875,0.148040771484375
1789222369783273700,7.937273681640625,-0.509063720703125,-0.8225555419921875,0.1038818359375
1789222369793267700,7.947267822265625,-0.63330078125,-0.530120849609375,0.0020904541015625
1789222369803261700,7.95726171875,-0.7738037109375,-0.974822998046875,0.1163787841796875
1789222369813255400,7.96725537109375,-0.8206787109375,-0.8088531494140625,0.140869140625
1789222369823249700,7.977249755859375,-0.8233184814453125,-0.6122283935546875,0.0069732666015625
1789222369833243600,7.98724365234375,-0.75079345703125,-1.081787109375,-0.003570556640625
1789222369843238700,7.99723876953125,-0.5452423095703125,-0.768951416015625,0.0916595458984375
1789222369853232600,8.007232666015625,-0.312835693359375,-0.699188232421875,0.0531463623046875
1789222369863226600,8.0172265625,-0.3396453857421875,-1.061859130859375,-0.0028839111328125
1789222369873220600,8.027220703125,-0.583099365234375,-0.628692626953125,0.09893798828125
1789222369883214600,8.037214599609374,-0.5567779541015625,-0.735870361328125,0.1883544921875
1789222369893209600,8.047209716796875,-0.45159912109375,-0.61480712890625,0.11181640625
1789222369903203800,8.057203857421875,-0.829071044921875,-0.689117431640625,0.07159423828125
1789222369913197800,8.06719775390625,-1.0229034423828125,-0.7484130859375,0.09149169921875
1789222369923191600,8.077191650390626,-0.65771484375,-0.5771331787109375,-0.0404815673828125
1789222369933185500,8.087185546875,-0.4154815673828125,-0.759918212890625,-0.1512451171875
1789222369943179500,8.097179443359375,-0.74853515625,-0.84930419921875,0.038421630859375
1789222369953174500,8.107174560546875,-0.9695281982421875,-0.655426025390625,0.1953277587890625
1789222369963168500,8.11716845703125,-0.725616455078125,-0.5531463623046875,0.146484375
1789222369973162800,8.127162841796874,-0.206024169921875,-1.0095977783203125,0.133819580078125
1789222369983156700,8.13715673828125,-0.1946563720703125,-0.591033935546875,0.177001953125
1789222369993150700,8.147150634765625,-1.1022491455078125,-0.42376708984375,0.279205322265625
1789222370003144700,8.157144775390625,-1.4993133544921875,-1.24468994140625,0.3472900390625
1789222370013139700,8.1671396484375,-0.6511993408203125,-0.5777130126953125,0.16180419921875
1789222370023133700,8.1771337890625,-0.148651123046875,-0.5280609130859375,-0.0849456787109375
1789222370033127400,8.18712744140625,-0.5023193359375,-1.1468505859375,-0.0194549560546875
1789222370043121700,8.19712158203125,-0.8816986083984375,-0.468475341796875,0.1478424072265625
1789222370053115600,8.20711572265625,-0.8937225341796875,-0.86968994140625,0.1653594970703125
1789222370063110700,8.217110595703126,-0.329376220703125,-1.0171356201171875,0.0735321044921875
1789222370073104600,8.227104736328124,-0.3078460693359375,-0.2865447998046875,0.1009521484375
1789222370083098600,8.2370986328125,-0.9291839599609375,-0.9388427734375,0.2419586181640625
1789222370093092600,8.247092529296875,-0.7864990234375,-0.802398681640625,0.207611083984375
1789222370103086600,8.257086669921875,-0.2594451904296875,-0.3996734619140625,-0.017181396484375
1789222370113080800,8.267080810546876,-0.4931640625,-1.0360870361328125,-0.037933349609375
1789222370123075800,8.277075927734375,-0.7854461669921875,-0.588165283203125,0.1116943359375
1789222370133069800,8.28706982421875,-0.778167724609375,-0.7053680419921875,0.033233642578125
1789222370143063600,8.2970634765625,-0.837188720703125,-0.8897552490234375,-0.07696533203125
1789222370153057500,8.3070576171875,-0.866912841796875,-0.65478515625,0.0280609130859375
1789222370163051500,8.317051513671874,-0.928375244140625,-0.93310546875,0.0462493896484375
1789222370173045800,8.327045654296874,-0.9199371337890625,-0.7135162353515625,-0.0063629150390625
1789222370183040500,8.33704052734375,-0.7142333984375,-0.9910888671875,-0.0905914306640625
1789222370193034000,8.347033935546875,-0.4099273681640625,-1.073394775390625,-0.07232666015625
1789222370203028000,8.357028076171876,-0.4163818359375,-0.7167816162109375,0.0310821533203125
1789222370213022000,8.36702197265625,-0.738861083984375,-1.0658416748046875,0.0614013671875
1789222370223015700,8.377015625,-0.5244903564453125,-0.819122314453125,0.0483856201171875
1789222370233011000,8.387010986328125,-0.34979248046875,-0.596923828125,0.03106689453125
1789222370243004700,8.397004638671875,-0.583953857421875,-0.8167877197265625,0.0036468505859375
1789222370252999000,8.4069990234375,-0.8643798828125,-0.862762451171875,0.0077362060546875
1789222370262993000,8.416992919921874,-0.672576904296875,-0.6330718994140625,-0.0486907958984375
1789222370272987000,8.42698681640625,-0.39642333984375,-0.8004302978515625,-0.156951904296875
1789222370282980900,8.43698095703125,-0.466796875,-0.9482574462890625,-0.14215087890625
1789222370292975900,8.446975830078125,-0.5058135986328125,-0.5750885009765625,-0.077178955078125
1789222370302969900,8.456969970703126,-0.54217529296875,-0.874298095703125,-0.0725250244140625
1789222370312963800,8.4669638671875,-0.65093994140625,-0.5863494873046875,-0.035247802734375
1789222370322958000,8.4769580078125,-0.873016357421875,-0.4594879150390625,0.096710205078125
1789222370332951800,8.486951904296875,-0.9459991455078125,-0.90728759765625,0.1226348876953125
1789222370342945800,8.49694580078125,-0.6629791259765625,-0.7615966796875,-0.057373046875
1789222370352940800,8.50694091796875,-0.7272186279296875,-0.723419189453125,-0.119049072265625
1789222370362934800,8.516934814453125,-0.9450225830078125,-0.8307342529296875,-0.0286102294921875
1789222370372928800,8.5269287109375,-0.6571807861328125,-1.05035400390625,-0.0222930908203125
1789222370382923000,8.536923095703125,-0.3492889404296875,-0.6294403076171875,-0.030975341796875
1789222370392917000,8.5469169921875,-0.53656005859375,-0.47125244140625,0.1281280517578125
1789222370402912000,8.556912109375,-0.8533935546875,-0.73126220703125,0.2958221435546875
1789222370412906000,8.566906005859375,-0.9361419677734375,-0.6980133056640625,0.2752685546875
1789222370422900000,8.57689990234375,-0.832183837890625,-0.6213836669921875,0.0906982421875
1789222370432894000,8.58689404296875,-0.7999725341796875,-0.5924530029296875,-0.080657958984375
1789222370442887700,8.5968876953125,-0.633514404296875,-0.902069091796875,-0.1027069091796875
1789222370452882000,8.6068818359375,-0.4889678955078125,-0.7424774169921875,-0.026702880859375
1789222370462876700,8.616876708984375,-0.40728759765625,-0.637420654296875,0.0491943359375
1789222370472871000,8.626870849609375,-0.3803253173828125,-0.6626434326171875,0.2109832763671875
1789222370482865000,8.636864990234375,-0.5132293701171875,-0.6552734375,0.4150390625
1789222370492859000,8.64685888671875,-0.6430511474609375,-0.7058258056640625,0.39666748046875
1789222370502852900,8.656852783203124,-0.52667236328125,-0.473114013671875,0.2039337158203125
1789222370512846800,8.666846923828125,-0.7084503173828125,-0.7796478271484375,0.1431884765625
1789222370522841900,8.676841796875,-0.96734619140625,-0.7335662841796875,0.073974609375
1789222370532835800,8.6868359375,-0.8796844482421875,-0.726318359375,-0.1083831787109375
1789222370542830000,8.696830078125,-0.57952880859375,-0.792022705078125,-0.1723480224609375
1789222370552823800,8.70682373046875,-0.7566375732421875,-0.7324371337890625,-0.0419769287109375
1789222370562817800,8.71681787109375,-1.062591552734375,-0.9257659912109375,0.0948333740234375
1789222370572812800,8.726812744140625,-0.912567138671875,-0.7818756103515625,0.10498046875
1789222370582806800,8.736806884765626,-0.613067626953125,-0.826995849609375,0.08135986328125
1789222370592800800,8.74680078125,-0.275238037109375,-0.840057373046875,0.0909576416015625
1789222370602795000,8.756794921875,-0.300018310546875,-0.7067413330078125,0.1473388671875
1789222370612789000,8.7667890625,-0.3091583251953125,-0.7115325927734375,0.136505126953125
1789222370622783000,8.776782958984375,-0.17193603515625,-0.5619964599609375,0.053497314453125
1789222370632778000,8.786778076171874,-0.5497283935546875,-0.669677734375,-0.0027313232421875
1789222370642772000,8.79677197265625,-1.232452392578125,-0.882293701171875,0.0132904052734375
1789222370652766000,8.806765869140625,-1.083251953125,-0.7450714111328125,0.0269622802734375
1789222370662759700,8.816759765625,-0.4621734619140625,-0.6866912841796875,-0.0814361572265625
1789222370672754000,8.82675390625,-0.3477020263671875,-0.847564697265625,-0.0956878662109375
1789222370682748000,8.836747802734376,-0.6877288818359375,-0.973052978515625,0.0786590576171875
1789222370692743000,8.846742919921875,-0.8648223876953125,-0.7776947021484375,0.1620025634765625
1789222370702737000,8.85673681640625,-0.7677459716796875,-0.734283447265625,0.1163787841796875
1789222370712731000,8.86673095703125,-0.6996002197265625,-0.9810333251953125,0.0549163818359375
1789222370722724900,8.876724853515626,-0.640533447265625,-0.7826995849609375,0.0948944091796875
1789222370732718800,8.88671875,-0.728912353515625,-0.426177978515625,0.105712890625
1789222370742713900,8.8967138671875,-0.8235626220703125,-0.71331787109375,-0.004302978515625
1789222370752707800,8.906707763671875,-0.648834228515625,-0.9134674072265625,-0.0940093994140625
1789222370762702000,8.9167021484375,-0.5760955810546875,-0.711273193359375,-0.067840576171875
1789222370772695800,8.92669580078125,-0.716827392578125,-0.6311798095703125,-0.0428924560546875
1789222370782689800,8.936689697265624,-0.761993408203125,-0.8656005859375,0.02587890625
1789222370792683800,8.946683837890625,-0.5390625,-0.8360595703125,0.111846923828125
1789222370802678800,8.9566787109375,-0.3924407958984375,-0.6263885498046875,0.168121337890625
1789222370812672800,8.9666728515625,-0.596832275390625,-0.6631011962890625,0.1962890625
1789222370822667000,8.9766669921875,-0.5425567626953125,-0.9359893798828125,0.1522979736328125
1789222370832661000,8.986660888671874,-0.2617034912109375,-0.684478759765625,0.029693603515625
1789222370842655000,8.996655029296875,-0.6151275634765625,-0.7343902587890625,-0.03924560546875
1789222370852649000,9.00664892578125,-0.9556732177734375,-1.000335693359375,0.062103271484375
1789222370862644000,9.01664404296875,-0.798583984375,-0.70037841796875,0.100738525390625
1789222370872638000,9.026637939453124,-0.3899688720703125,-0.76824951171875,-0.009613037109375
1789222370882631700,9.036631591796874,-0.339019775390625,-0.8378143310546875,0.0258331298828125
1789222370892626000,9.0466259765625,-0.5359649658203125,-0.4993133544921875,0.1280517578125
1789222370902620000,9.056619873046875,-0.7703094482421875,-0.6299896240234375,0.07672119140625
1789222370912615000,9.066614990234376,-0.7615966796875,-0.87530517578125,-0.0063934326171875
1789222370922609000,9.07660888671875,-0.8518829345703125,-0.662994384765625,0.0261688232421875
1789222370932603000,9.086602783203125,-0.80255126953125,-0.7132415771484375,0.0106964111328125
1789222370942596900,9.096596923828125,-0.6025848388671875,-0.8230133056640625,-0.0907135009765625
1789222370952590800,9.1065908203125,-0.5757904052734375,-0.73016357421875,-0.0998077392578125
1789222370962585000,9.116585205078126,-0.7697601318359375,-0.940216064453125,0.0660858154296875
1789222370972579800,9.126579833984374,-0.3777618408203125,-0.684661865234375,0.1188507080078125
1789222370982574000,9.136573974609375,-0.16278076171875,-0.626312255859375,0.040252685546875
1789222370992567800,9.14656787109375,-0.722869873046875,-0.897369384765625,0.1094970703125
1789222371002561800,9.156561767578125,-1.11126708984375,-1.0625457763671875,0.217254638671875
1789222371012555800,9.1665556640625,-0.9027862548828125,-0.9126739501953125,0.0167388916015625
1789222371022549800,9.1765498046875,-0.543914794921875,-0.74407958984375,-0.2350616455078125
1789222371032544800,9.186544677734375,-0.4477996826171875,-0.9373931884765625,-0.171783447265625
1789222371042539000,9.1965390625,-0.6497650146484375,-0.71038818359375,-0.008941650390625
1789222371052533000,9.206532958984376,-0.87762451171875,-0.6256561279296875,0.0084686279296875
1789222371062527000,9.21652685546875,-0.9655303955078125,-0.952728271484375,0.07421875
1789222371072521000,9.22652099609375,-0.4993438720703125,-0.65380859375,0.1090087890625
1789222371082516000,9.236515869140625,-0.4765167236328125,-0.696746826171875,0.04986572265625
1789222371092510000,9.246510009765625,-0.7689666748046875,-0.8356170654296875,0.0513763427734375
1789222371102503700,9.256503662109376,-0.7777099609375,-0.780181884765625,0.0722503662109375
1789222371112498000,9.266497802734374,-0.421722412109375,-0.8120574951171875,-0.0042877197265625
1789222371122492000,9.276491943359375,-0.238677978515625,-0.5768890380859375,0.005615234375
1789222371132486000,9.28648583984375,-0.61065673828125,-0.5736541748046875,0.1526336669921875
1789222371142481000,9.29648095703125,-0.928558349609375,-0.7763519287109375,0.1959075927734375
1789222371152475000,9.306474853515626,-0.7118988037109375,-0.725982666015625,0.0618896484375
1789222371162468900,9.31646875,-0.5871429443359375,-0.5968780517578125,-0.0745086669921875
1789222371172462800,9.326462890625,-0.6714630126953125,-0.722442626953125,-0.0852813720703125
1789222371182457000,9.33645703125,-0.652099609375,-0.8707733154296875,-0.042083740234375
1789222371192451000,9.346451171875,-0.8334808349609375,-0.755889892578125,0.0671234130859375
1789222371202446300,9.3564462890625,-0.76025390625,-0.768218994140625,0.2273712158203125
1789222371212440300,9.3664404296875,-0.5640869140625,-0.8267974853515625,0.2964324951171875
1789222371222434000,9.37643408203125,-0.5668487548828125,-0.85498046875,0.179473876953125
1789222371232428000,9.386427978515625,-0.5099334716796875,-0.697052001953125,0.0958404541015625
1789222371242422000,9.396422119140626,-0.77374267578125,-0.6827850341796875,0.1180877685546875
1789222371252417000,9.4064169921875,-0.8798828125,-0.9015960693359375,0.0469970703125
1789222371262411000,9.416410888671875,-0.687713623046875,-0.7533721923828125,-0.039764404296875
1789222371272405200,9.4264052734375,-0.7178192138671875,-0.6114349365234375,0.024139404296875
1789222371282399200,9.436399169921875,-0.68035888671875,-0.8021697998046875,0.04925537109375
1789222371292393200,9.446393310546876,-0.45867919921875,-0.6958465576171875,-0.0384674072265625
1789222371302387200,9.45638720703125,-0.68695068359375,-0.825836181640625,0.0079345703125
1789222371312382200,9.46638232421875,-0.9731292724609375,-0.8329315185546875,0.2108154296875
1789222371322376200,9.476376220703125,-0.6974945068359375,-0.6803436279296875,0.2313690185546875
1789222371332370000,9.486369873046876,-0.363372802734375,-0.8262786865234375,0.1190185546875
1789222371342364200,9.4963642578125,-0.6077728271484375,-0.670562744140625,0.148284912109375
1789222371352358100,9.506358154296874,-1.1201324462890625,-0.8804931640625,0.145416259765625
1789222371362352000,9.51635205078125,-0.973388671875,-0.7496795654296875,0.0018157958984375
1789222371372347100,9.52634716796875,-0.40869140625,-0.6492156982421875,-0.1589813232421875
1789222371382341000,9.536341064453126,-0.1256866455078125,-0.789794921875,-0.16925048828125
1789222371392335000,9.546335205078124,-0.24639892578125,-0.327056884765625,0.00732421875
1789222371402329000,9.5563291015625,-0.55609130859375,-0.7644500732421875,0.150543212890625
1789222371412323300,9.5663232421875,-0.76434326171875,-0.7045440673828125,0.1785888671875
1789222371422318300,9.576318359375,-0.9058837890625,-0.4724884033203125,0.1184539794921875
1789222371432312300,9.586312255859376,-0.974884033203125,-1.084930419921875,0.0476226806640625
1789222371442306000,9.59630615234375,-0.767547607421875,-0.8563232421875,-0.0362701416015625
1789222371452300000,9.606300048828125,-0.3325347900390625,-0.64764404296875,-0.19427490234375
1789222371462294000,9.6162939453125,-0.715972900390625,-1.0362548828125,-0.1204071044921875
1789222371472288300,9.626288330078125,-0.9213714599609375,-0.904296875,0.1588287353515625
1789222371482283000,9.636282958984374,-0.32373046875,-0.64642333984375,0.147064208984375
1789222371492277200,9.64627734375,-0.290374755859375,-0.8055572509765625,0.0162811279296875
1789222371502271200,9.656271240234375,-0.8913116455078125,-0.8367767333984375,0.1339569091796875
1789222371512265200,9.66626513671875,-0.894378662109375,-0.799102783203125,0.14910888671875
1789222371522259200,9.67625927734375,-0.36700439453125,-0.6080322265625,-0.142913818359375
1789222371532253000,9.6862529296875,-0.4167633056640625,-0.9004364013671875,-0.25494384765625
1789222371542248200,9.696248291015625,-0.6414642333984375,-0.864654541015625,-0.001739501953125
1789222371552242000,9.706241943359375,-0.9247283935546875,-0.5596771240234375,0.080535888671875
1789222371562236200,9.716236083984375,-0.931854248046875,-1.069854736328125,-0.0721435546875
1789222371572230100,9.726230224609376,-0.4376373291015625,-0.7144927978515625,-0.0149078369140625
1789222371582224100,9.73622412109375,-0.57720947265625,-0.5548248291015625,0.0947113037109375
1789222371592219100,9.74621923828125,-0.7964935302734375,-1.0329132080078125,0.150299072265625
1789222371602213000,9.756213134765625,-0.4019012451171875,-0.589630126953125,0.2037506103515625
1789222371612207000,9.76620703125,-0.425537109375,-0.62249755859375,0.218963623046875
1789222371622201000,9.776201171875,-0.7736053466796875,-1.0775146484375,0.126953125
1789222371632195300,9.7861953125,-0.7752685546875,-0.7164459228515625,-0.0714874267578125
1789222371642189000,9.79618896484375,-0.7435760498046875,-0.7231292724609375,-0.1582794189453125
1789222371652184300,9.806184326171875,-0.714324951171875,-0.70635986328125,-0.1004180908203125
1789222371662178000,9.816177978515626,-0.748626708984375,-0.655029296875,-0.0063018798828125
1789222371672172000,9.826172119140624,-0.724609375,-0.6143798828125,0.11376953125
1789222371682166000,9.836166015625,-0.66009521484375,-0.433441162109375,0.1754150390625
1789222371692160300,9.84616015625,-0.6546630859375,-0.7413177490234375,0.1353912353515625
1789222371702154200,9.856154296875,-0.34869384765625,-1.0052642822265625,-0.0204620361328125
1789222371712149200,9.866149169921876,-0.33489990234375,-0.618896484375,-0.061065673828125
1789222371722143200,9.876143310546874,-1.0327606201171875,-0.8149566650390625,0.1172943115234375
1789222371732137200,9.88613720703125,-0.891143798828125,-1.246734619140625,0.2537078857421875
1789222371742131200,9.896131103515625,0.135467529296875,-0.4461517333984375,0.11749267578125
1789222371752125200,9.906125244140625,-0.217254638671875,-0.2086639404296875,0.15106201171875
1789222371762119200,9.916119140625,-1.0350341796875,-1.1252288818359375,0.3786468505859375
1789222371772114000,9.926114013671874,-0.875335693359375,-0.5462188720703125,0.226409912109375
1789222371782108200,9.936108154296875,-1.0799560546875,-0.3596343994140625,-0.082855224609375
1789222371792102100,9.94610205078125,-1.153564453125,-1.12103271484375,-0.0620269775390625
1789222371802096000,9.95609619140625,-0.486541748046875,-0.6614227294921875,0.053955078125
1789222371812090000,9.966090087890626,-0.31658935546875,-0.661468505859375,0.0344390869140625
1789222371822085000,9.976085205078125,-0.7253875732421875,-0.895172119140625,0.17584228515625
1789222371832079000,9.9860791015625,-0.84893798828125,-0.618804931640625,0.3701171875
1789222371842073000,9.996072998046875,-0.7034912109375,-1.00006103515625,0.2683258056640625
1789222371852067300,10.0060673828125,-0.4427490234375,-0.7743072509765625,0.014984130859375
1789222371862061300,10.016061279296874,-0.545440673828125,-0.58489990234375,-0.0541534423828125
1789222371872055000,10.026054931640624,-0.822967529296875,-1.07012939453125,0.1161041259765625
1789222371882050000,10.036050048828125,-0.5233001708984375,-0.586212158203125,0.115203857421875
1789222371892044000,10.0460439453125,-0.500885009765625,-0.76263427734375,0.0062713623046875
1789222371902038000,10.0560380859375,-0.6605682373046875,-0.9088897705078125,0.08001708984375
1789222371912032000,10.066031982421874,-0.6116485595703125,-0.5516510009765625,0.0699005126953125
1789222371922026200,10.076026123046875,-0.6166534423828125,-0.88336181640625,-0.03509521484375
1789222371932020200,10.086020263671875,-0.6243438720703125,-0.97088623046875,0.020904541015625
1789222371942015200,10.09601513671875,-0.6940765380859375,-0.6124725341796875,0.1868896484375
1789222371952009200,10.10600927734375,-0.5608978271484375,-0.911895751953125,0.202484130859375
1789222371962003200,10.116003173828124,-0.175201416015625,-0.834136962890625,0.0643768310546875
1789222371971997200,10.1259970703125,-0.3333282470703125,-0.61712646484375,-0.020538330078125
1789222371981991200,10.1359912109375,-0.86724853515625,-0.7010345458984375,0.02081298828125
1789222371991986000,10.14598583984375,-0.9323577880859375,-0.669830322265625,0.083953857421875
1789222372001980200,10.155980224609374,-0.5177154541015625,-0.6704559326171875,-0.0100860595703125
1789222372011974100,10.16597412109375,-0.40985107421875,-0.662872314453125,-0.110992431640625
1789222372021968100,10.175968017578125,-0.6510467529296875,-0.7010955810546875,-0.0125732421875
1789222372031962000,10.185962158203125,-0.7077484130859375,-0.80645751953125,0.02874755859375
1789222372041956000,10.1959560546875,-0.6355438232421875,-0.700225830078125,-0.003875732421875
1789222372051951000,10.205951171875,-0.6595001220703125,-0.7118377685546875,0.0955810546875
1789222372061945000,10.215945068359375,-0.6954345703125,-0.882232666015625,0.2397613525390625
1789222372071939300,10.225939208984375,-0.7641754150390625,-0.6829071044921875,0.2146759033203125
1789222372081933300,10.235933349609375,-1.0164794921875,-0.899200439453125,0.077423095703125
1789222372091927000,10.245927001953126,-0.9889984130859375,-0.9665679931640625,0.013031005859375
1789222372101921000,10.255921142578124,-0.6776885986328125,-0.8393096923828125,-0.0413665771484375
1789222372111916000,10.265916015625,-0.4809112548828125,-0.95001220703125,-0.06597900390625
1789222372121910000,10.275909912109375,-0.459991455078125,-0.7533416748046875,0.01226806640625
1789222372131904000,10.285904052734375,-0.6691741943359375,-0.7906036376953125,0.1179962158203125
1789222372141898200,10.295898193359376,-0.5637359619140625,-0.7180633544921875,0.135772705078125
1789222372151892200,10.305892333984374,-0.509979248046875,-0.5817108154296875,0.0434417724609375
1789222372161887200,10.31588720703125,-0.7990570068359375,-0.7721405029296875,-0.0025787353515625
1789222372171881200,10.325881103515625,-0.7647247314453125,-0.63104248046875,0.0072479248046875
1789222372181875200,10.335875244140626,-0.4985809326171875,-0.5532684326171875,-0.0559539794921875
1789222372191869200,10.345869140625,-0.5862579345703125,-0.7711181640625,-0.0478363037109375
1789222372201863200,10.35586328125,-0.758697509765625,-0.538360595703125,0.0749969482421875
1789222372211857400,10.365857421875,-0.9304962158203125,-0.667724609375,0.2482452392578125
1789222372221852400,10.375852294921875,-0.6893157958984375,-0.80670166015625,0.2768096923828125
1789222372231846400,10.385846435546876,-0.3861846923828125,-0.6441802978515625,0.1850738525390625
1789222372241840400,10.39584033203125,-0.573089599609375,-0.6710357666015625,0.2114410400390625
1789222372251834400,10.40583447265625,-0.704620361328125,-0.7959136962890625,0.248260498046875
1789222372261828400,10.415828369140625,-0.585968017578125,-0.725830078125,0.15875244140625
1789222372271822300,10.425822265625,-0.690460205078125,-0.5906219482421875,0.0895233154296875
1789222372281817300,10.4358173828125,-1.0769500732421875,-0.6054534912109375,0.21038818359375
1789222372291811600,10.4458115234375,-1.0995330810546875,-0.772857666015625,0.2947540283203125
1789222372301805600,10.4558056640625,-0.8720855712890625,-0.6457061767578125,0.2126922607421875
1789222372311799300,10.46579931640625,-0.5699310302734375,-0.671112060546875,0.1182708740234375
1789222372321793300,10.475793212890625,-0.4241485595703125,-0.809722900390625,0.0707855224609375
1789222372331787300,10.485787353515626,-0.29833984375,-0.69122314453125,0.081695556640625
1789222372341782300,10.4957822265625,-0.345001220703125,-0.7370147705078125,0.1081695556640625
1789222372351776300,10.5057763671875,-0.632904052734375,-0.7552337646484375,0.20916748046875
1789222372361770500,10.5157705078125,-0.8982696533203125,-0.6927947998046875,0.3427581787109375
1789222372371764500,10.525764404296876,-1.1262359619140625,-0.8809051513671875,0.3447113037109375
1789222372381758500,10.535758544921874,-0.9200286865234375,-0.7966766357421875,0.20751953125
1789222372391753500,10.54575341796875,-0.61346435546875,-0.6625823974609375,-0.069732666015625
1789222372401747500,10.55574755859375,-0.6562347412109375,-0.9732208251953125,-0.19488525390625
1789222372411741400,10.565741455078125,-0.4223785400390625,-0.72784423828125,-0.1487884521484375
1789222372421735200,10.575735107421876,-0.2006683349609375,-0.5911865234375,-0.1455841064453125
1789222372431729400,10.5857294921875,-0.6312713623046875,-0.7395477294921875,-0.0196533203125
1789222372441723400,10.595723388671875,-0.9094390869140625,-0.7431182861328125,0.1786346435546875
1789222372451718400,10.605718505859375,-0.765594482421875,-0.6368255615234375,0.1257476806640625
1789222372461712400,10.61571240234375,-0.7600250244140625,-0.873626708984375,-0.042388916015625
1789222372471706400,10.625706298828124,-0.9120941162109375,-0.952239990234375,-0.073974609375
1789222372481700400,10.635700439453124,-0.907562255859375,-0.88922119140625,0.0140533447265625
1789222372491694300,10.6456943359375,-0.3987274169921875,-0.7587890625,-0.024505615234375
1789222372501688600,10.6556884765625,-0.2475128173828125,-0.93304443359375,-0.074249267578125
1789222372511683600,10.66568359375,-0.8066253662109375,-0.873291015625,0.1163787841796875
1789222372521677600,10.675677490234374,-1.076904296875,-0.4717864990234375,0.178924560546875
1789222372531671300,10.68567138671875,-0.696197509765625,-0.916839599609375,-0.0773468017578125
1789222372541665300,10.695665283203125,-0.3143310546875,-0.8520355224609375,-0.2320098876953125
1789222372551659300,10.7056591796875,-0.697235107421875,-0.7648468017578125,-0.0331573486328125
1789222372561654300,10.715654296875,-1.0110626220703125,-1.009521484375,0.101348876953125
1789222372571648300,10.725648193359374,-0.5740966796875,-0.8055877685546875,-0.0059051513671875
1789222372581642500,10.735642578125,-0.08416748046875,-0.7427520751953125,-0.0275115966796875
1789222372591636500,10.745636474609375,-0.27386474609375,-0.6379547119140625,0.04974365234375
1789222372601630500,10.75563037109375,-0.7039031982421875,-0.63031005859375,0.0225677490234375
1789222372611624400,10.76562451171875,-0.7879791259765625,-0.6081390380859375,0.000396728515625
1789222372621619500,10.775619384765625,-0.7528076171875,-0.6311492919921875,0.051239013671875
1789222372631613400,10.785613525390625,-0.7001190185546875,-0.87908935546875,-0.05810546875
1789222372641607200,10.795607177734375,-0.429718017578125,-0.8155975341796875,-0.1927947998046875
1789222372651601400,10.805601318359376,-0.63232421875,-0.63214111328125,-0.13555908203125
1789222372661595400,10.815595458984374,-0.905029296875,-0.9326171875,0.0600128173828125
1789222372671589400,10.82558935546875,-0.3898773193359375,-0.6667022705078125,0.079315185546875
1789222372681584400,10.83558447265625,-0.198577880859375,-0.3113555908203125,0.0860137939453125
1789222372691578400,10.845578369140625,-0.922698974609375,-0.82135009765625,0.2838287353515625
1789222372701572400,10.855572265625,-0.954986572265625,-0.81494140625,0.3048858642578125
1789222372711566300,10.86556640625,-0.68505859375,-0.4734039306640625,-0.04345703125
1789222372721560600,10.875560546875,-0.620819091796875,-0.870208740234375,-0.2073974609375
1789222372731554600,10.885554443359375,-0.73388671875,-0.782440185546875,-0.03558349609375
1789222372741549600,10.895549560546876,-1.0145721435546875,-0.7523193359375,0.078369140625
1789222372751543300,10.905543212890626,-0.6907501220703125,-0.755218505859375,0.092559814453125
1789222372761537300,10.915537353515624,-0.3873748779296875,-0.5577850341796875,0.1688232421875
1789222372771531300,10.92553125,-0.5476837158203125,-0.853851318359375,0.227508544921875
1789222372781525200,10.935525146484375,-0.533905029296875,-0.754119873046875,0.1994781494140625
1789222372791520300,10.945520263671876,-0.656524658203125,-0.562103271484375,0.0503692626953125
1789222372801514500,10.955514404296874,-0.9174041748046875,-1.0941162109375,-0.0339508056640625
1789222372811508500,10.965508544921875,-0.81732177734375,-0.8903961181640625,0.0384979248046875
1789222372821502500,10.97550244140625,-0.71441650390625,-0.66827392578125,0.0908966064453125
1789222372831496400,10.985496337890625,-0.6489715576171875,-0.9329071044921875,0.2055206298828125
1789222372841490400,10.995490478515626,-0.2655487060546875,-0.578582763671875,0.27972412109375
1789222372851485400,11.0054853515625,-0.1662750244140625,-0.61004638671875,0.2155303955078125
1789222372861479200,11.015479248046875,-0.4655609130859375,-0.770050048828125,0.0960693359375
1789222372871473400,11.025473388671875,-0.83245849609375,-0.6558685302734375,0.0498046875
1789222372881467400,11.03546728515625,-0.9875335693359375,-0.86077880859375,0.0201263427734375
1789222372891461400,11.04546142578125,-0.643585205078125,-0.6497802734375,-0.0240020751953125
1789222372901455400,11.055455322265624,-0.7063140869140625,-0.5983734130859375,-0.030975341796875
1789222372911450400,11.065450439453125,-0.9178466796875,-0.9324798583984375,0.06231689453125
1789222372921444400,11.0754443359375,-0.8377685546875,-0.58203125,0.1161651611328125
1789222372931438300,11.085438232421875,-0.85015869140625,-0.7448883056640625,0.079193115234375
1789222372941432600,11.0954326171875,-0.70343017578125,-0.7991180419921875,0.1553802490234375
1789222372951426600,11.105426513671874,-0.32049560546875,-0.688018798828125,0.255340576171875
1789222372961420300,11.115420166015625,-0.1817779541015625,-0.67010498046875,0.2270965576171875
1789222372971415300,11.125415283203125,-0.4541473388671875,-0.574920654296875,0.278594970703125
1789222372981409300,11.1354091796875,-0.8095703125,-0.5992584228515625,0.2931671142578125
1789222372991403300,11.1454033203125,-0.901092529296875,-0.8783721923828125,0.128265380859375
1789222373001397200,11.155397216796874,-0.808258056640625,-0.6711273193359375,0.0093536376953125
1789222373011391500,11.1653916015625,-0.9537811279296875,-0.6567840576171875,0.0644378662109375
1789222373021386500,11.175386474609375,-0.8853759765625,-1.035919189453125,0.2232666015625
1789222373031380500,11.18538037109375,-0.3927764892578125,-0.5025482177734375,0.200469970703125
1789222373041374500,11.19537451171875,-0.3901214599609375,-0.8852691650390625,0.1511383056640625
1789222373051368400,11.205368408203125,-0.663299560546875,-0.8807220458984375,0.2576446533203125
1789222373061362400,11.215362548828125,-0.789825439453125,-0.587890625,0.27203369140625
1789222373071356400,11.2253564453125,-0.7313690185546875,-0.92816162109375,0.2303924560546875
1789222373081351200,11.23535107421875,-0.527801513671875,-0.650146484375,0.2714996337890625
1789222373091345400,11.245345458984374,-0.555389404296875,-0.71478271484375,0.2268524169921875
1789222373101339400,11.25533935546875,-0.6056365966796875,-0.6816558837890625,0.0611724853515625
1789222373111333400,11.26533349609375,-0.7723236083984375,-0.47406005859375,-0.02587890625
1789222373121327400,11.275327392578125,-1.10723876953125,-0.8719329833984375,0.02459716796875
1789222373131321300,11.2853212890625,-0.968017578125,-0.6854705810546875,0.0732574462890625
1789222373141316400,11.29531640625,-0.5487518310546875,-0.530914306640625,-0.0316619873046875
1789222373151310300,11.305310302734375,-0.5120086669921875,-0.7642822265625,-0.0479583740234375
1789222373161304600,11.3153046875,-0.759063720703125,-0.6902618408203125,0.0707855224609375
1789222373171298600,11.325298583984376,-0.685791015625,-0.9669036865234375,0.08892822265625
1789222373181292300,11.335292236328126,-0.57135009765625,-0.7278289794921875,0.1002349853515625
1789222373191287300,11.345287353515625,-0.843658447265625,-0.869781494140625,0.2117767333984375
1789222373201280500,11.355280517578125,-0.5565338134765625,-0.9588165283203125,0.1495819091796875
1789222373211274500,11.3652744140625,-0.2848968505859375,-0.65496826171875,-0.0281982421875
1789222373221268700,11.375268798828126,-0.7271270751953125,-1.07623291015625,-0.1130218505859375
1789222373231262700,11.3852626953125,-0.9092864990234375,-0.9777374267578125,-0.0849761962890625
1789222373241256700,11.395256591796874,-0.51556396484375,-0.4335479736328125,-0.1305389404296875
1789222373251251700,11.405251708984375,-0.2847747802734375,-0.7816162109375,-0.1935882568359375
1789222373261245700,11.41524560546875,-0.3837738037109375,-0.6965179443359375,-0.149139404296875
1789222373271239700,11.42523974609375,-0.802215576171875,-0.4735870361328125,-0.0617523193359375
1789222373281233700,11.435233642578124,-1.1312713623046875,-0.8193817138671875,0.0507049560546875
1789222373291227600,11.4452275390625,-0.80419921875,-0.8121337890625,0.071533203125
1789222373301221600,11.4552216796875,-0.65545654296875,-0.696685791015625,0.073150634765625
1789222373311216600,11.465216552734375,-0.8903350830078125,-0.8477935791015625,0.2029876708984375
1789222373321210600,11.475210693359376,-0.968963623046875,-0.95611572265625,0.254180908203125
1789222373331204600,11.48520458984375,-0.6144256591796875,-0.775146484375,0.077606201171875
1789222373341198600,11.495198486328125,-0.4601287841796875,-0.6641845703125,0.0526885986328125
1789222373351192800,11.50519287109375,-0.6902618408203125,-0.6984405517578125,0.2216033935546875
1789222373361186800,11.515186767578125,-0.780426025390625,-0.6780242919921875,0.3469085693359375
1789222373371181800,11.525181884765624,-0.576629638671875,-0.43756103515625,0.243560791015625
1789222373381175800,11.53517578125,-0.617706298828125,-0.7070770263671875,0.1169586181640625
1789222373391169500,11.54516943359375,-0.7652435302734375,-0.6236724853515625,0.059783935546875
1789222373401163500,11.55516357421875,-0.9533843994140625,-0.6211700439453125,0.0350341796875
1789222373411157500,11.565157470703125,-0.79779052734375,-0.858642578125,-0.0258941650390625
1789222373421152500,11.575152587890624,-0.4881134033203125,-0.654327392578125,-0.0004119873046875
1789222373431146500,11.585146484375,-0.596343994140625,-0.82452392578125,0.2014617919921875
1789222373441140700,11.595140625,-0.6858367919921875,-0.8994293212890625,0.366729736328125
1789222373451134700,11.605134765625,-0.42669677734375,-0.571746826171875,0.337554931640625
1789222373461128700,11.615128662109376,-0.3815765380859375,-0.8949432373046875,0.19732666015625
1789222373471122700,11.625122802734374,-0.599029541015625,-0.7558135986328125,0.0577239990234375
1789222373481117700,11.63511767578125,-0.7534332275390625,-0.69464111328125,-0.06927490234375
1789222373491111700,11.645111572265625,-0.9508819580078125,-0.8461151123046875,-0.1109619140625
1789222373501105700,11.655105712890625,-0.8784027099609375,-0.8263702392578125,-0.0512542724609375
1789222373511099600,11.665099609375,-0.6038818359375,-0.634185791015625,0.05865478515625
1789222373521093600,11.67509375,-0.6089630126953125,-0.7325286865234375,0.1305389404296875
1789222373531087600,11.685087646484375,-0.9043121337890625,-0.98992919921875,0.16650390625
1789222373541082600,11.69508251953125,-1.1113739013671875,-0.64544677734375,0.1065673828125
1789222373551076600,11.70507666015625,-0.9800872802734375,-0.9332122802734375,0.0329742431640625
1789222373561070600,11.715070556640624,-0.3672027587890625,-1.041778564453125,-0.0365142822265625
1789222373571064800,11.72506494140625,-0.1088714599609375,-0.612579345703125,0.041656494140625
1789222373581058800,11.735058837890625,-0.603363037109375,-0.7317657470703125,0.200958251953125
1789222373591052500,11.745052490234375,-0.6743316650390625,-0.906402587890625,0.201934814453125
1789222373601047800,11.7550478515625,-0.5301971435546875,-0.47137451171875,0.0262298583984375
1789222373611041500,11.76504150390625,-0.85540771484375,-0.8431854248046875,-0.13604736328125
1789222373621035500,11.775035400390625,-1.2581939697265625,-0.7772216796875,-0.1490478515625
1789222373631029500,11.785029541015625,-1.287109375,-0.5844268798828125,-0.0822906494140625
1789222373641023700,11.795023681640625,-0.7943572998046875,-0.9246368408203125,0.00823974609375
1789222373651018500,11.8050185546875,-0.076690673828125,-0.7796478271484375,-0.0953521728515625
1789222373661012700,11.8150126953125,-0.1155548095703125,-0.9074554443359375,-0.1060943603515625
1789222373671006700,11.8250068359375,-0.6837158203125,-0.8249969482421875,0.0903472900390625
1789222373681000700,11.835000732421875,-0.8155364990234375,-0.89923095703125,-0.009674072265625
1789222373690994700,11.84499462890625,-0.6078643798828125,-0.9798736572265625,-0.2054443359375
1789222373700988400,11.854988525390626,-0.635589599609375,-0.6728363037109375,-0.137451171875
1789222373710983700,11.864983642578125,-0.791748046875,-0.8498382568359375,-0.1110076904296875
1789222373720977700,11.874977783203125,-0.7441864013671875,-0.866424560546875,-0.2252655029296875
1789222373730971600,11.8849716796875,-0.572479248046875,-0.9789581298828125,-0.35174560546875
1789222373740965600,11.894965576171876,-0.6898040771484375,-0.8539886474609375,-0.361297607421875
1789222373750959600,11.904959716796874,-0.658599853515625,-0.80902099609375,-0.3396148681640625
1789222373760953600,11.91495361328125,-0.2498626708984375,-1.019256591796875,-0.310333251953125
1789222373770948600,11.924948486328125,0.021697998046875,-0.5211181640625,-0.221588134765625
1789222373780942600,11.934942626953125,-0.582794189453125,-0.662872314453125,0.001617431640625
1789222373790936800,11.944936767578126,-1.0619964599609375,-0.9797515869140625,0.1484527587890625
1789222373800930800,11.954930908203124,-0.4977569580078125,-0.7170562744140625,-0.029296875
1789222373810924500,11.964924560546875,-0.289886474609375,-0.7219696044921875,-0.2547607421875
1789222373820918500,11.97491845703125,-0.64605712890625,-0.913909912109375,-0.2512359619140625
1789222373830913500,11.98491357421875,-0.7103424072265625,-0.86505126953125,-0.2157745361328125
1789222373840907500,11.994907470703126,-0.486480712890625,-0.528778076171875,-0.2492828369140625
1789222373850901500,12.004901611328124,-0.516204833984375,-0.732818603515625,-0.1364898681640625
1789222373860895700,12.014895751953125,-0.6060943603515625,-0.61517333984375,0.061492919921875
1789222373870889700,12.0248896484375,-0.505035400390625,-0.6329803466796875,0.0129547119140625
1789222373880883700,12.0348837890625,-0.5081787109375,-0.5499725341796875,-0.19329833984375
1789222373890878700,12.044878662109374,-0.8534088134765625,-0.638641357421875,-0.169647216796875
1789222373900872700,12.054872802734375,-0.9216766357421875,-0.862884521484375,-0.0975341796875
1789222373910866700,12.06486669921875,-0.6064453125,-0.595794677734375,-0.2113037109375
1789222373920860400,12.0748603515625,-0.8491058349609375,-0.765350341796875,-0.1019439697265625
1789222373930854700,12.084854736328126,-0.865692138671875,-0.76251220703125,0.14208984375
1789222373940849700,12.094849609375,-0.430694580078125,-0.6189422607421875,0.175323486328125
1789222373950843600,12.10484375,-0.565032958984375,-0.61767578125,0.1200408935546875
1789222373960837600,12.114837646484375,-0.9469146728515625,-0.8055419921875,0.2153778076171875
1789222373970831600,12.12483154296875,-0.918121337890625,-0.785064697265625,0.2530517578125
1789222373980825600,12.13482568359375,-0.3738250732421875,-0.6079864501953125,0.0472564697265625
1789222373990819600,12.144819580078124,-0.3530731201171875,-0.7941436767578125,-0.096466064453125
1789222374000814600,12.154814697265625,-0.8964385986328125,-0.76171875,0.0537109375
1789222374010808800,12.164808837890625,-0.9462432861328125,-0.7433319091796875,0.1890106201171875
1789222374020802800,12.174802734375,-0.4188232421875,-0.6940765380859375,0.0590667724609375
1789222374030796500,12.184796630859376,-0.3040924072265625,-0.563446044921875,0.001708984375
1789222374040790500,12.19479052734375,-0.7379302978515625,-0.814788818359375,0.3441009521484375
1789222374050784500,12.204784423828125,-0.653533935546875,-0.4918212890625,0.4750213623046875
1789222374060779500,12.214779541015625,-0.7724609375,-0.623626708984375,0.2635955810546875
1789222374070773500,12.2247734375,-0.8199005126953125,-0.89776611328125,0.1624603271484375
1789222374080767700,12.234767822265624,-0.608154296875,-0.6041412353515625,0.161834716796875
1789222374090761700,12.24476171875,-0.9652862548828125,-0.6294708251953125,0.0746307373046875
1789222374100755700,12.254755615234375,-0.9566497802734375,-0.86151123046875,0.1108551025390625
1789222374110749700,12.264749755859375,-0.4405975341796875,-0.367340087890625,0.196319580078125
1789222374120744700,12.27474462890625,-0.2272491455078125,-0.469146728515625,0.1645965576171875
1789222374130738700,12.28473876953125,-0.664520263671875,-0.753387451171875,0.1693572998046875
1789222374140732400,12.294732421875,-1.25885009765625,-0.42041015625,0.2073211669921875
1789222374150726700,12.3047265625,-1.408172607421875,-0.687896728515625,0.057708740234375
1789222374160720600,12.314720703125,-1.0153656005859375,-0.9950103759765625,-0.1133270263671875
1789222374170715600,12.324715576171876,-0.3128509521484375,-0.812286376953125,-0.0637359619140625
1789222374180709600,12.334709716796874,-0.189453125,-0.945098876953125,0.131378173828125
1789222374190703600,12.34470361328125,-0.43963623046875,-0.7420806884765625,0.317901611328125
1789222374200698600,12.35469873046875,-0.3044586181640625,-0.77435302734375,0.3440704345703125
1789222374210692600,12.364692626953126,-0.0119476318359375,-0.8856201171875,0.194580078125
1789222374220686600,12.3746865234375,-0.658447265625,-0.6169586181640625,0.04150390625
1789222374230681600,12.384681640625,-1.32598876953125,-1.0384063720703125,-0.0840606689453125
1789222374240675600,12.394675537109375,-0.8074493408203125,-0.9345245361328125,-0.2433624267578125
1789222374250669800,12.404669921875,-0.7895660400390625,-0.78448486328125,-0.2802734375
1789222374260663800,12.414663818359376,-0.8677215576171875,-1.16461181640625,-0.120513916015625
1789222374270657800,12.42465771484375,-0.4089508056640625,-0.6595306396484375,-0.0074005126953125
1789222374280651500,12.434651611328125,-0.3527374267578125,-0.6060028076171875,-0.0309295654296875
1789222374290646800,12.444646728515625,-0.4254150390625,-1.1167144775390625,-0.0377655029296875
1789222374300640500,12.454640625,-0.4366455078125,-0.5105743408203125,0.0092926025390625
1789222374310634500,12.464634521484374,-0.7945098876953125,-0.560699462890625,0.1148529052734375
1789222374320628700,12.474628662109374,-0.7785797119140625,-0.8397369384765625,0.1753997802734375
1789222374330622700,12.484622802734375,-0.4609832763671875,-0.504730224609375,0.1170654296875
1789222374340616700,12.49461669921875,-0.669281005859375,-0.693695068359375,-0.02642822265625
1789222374350611700,12.50461181640625,-1.12652587890625,-0.8668670654296875,-0.1887969970703125
1789222374360605700,12.514605712890624,-1.022430419921875,-0.9224853515625,-0.2866668701171875
1789222374370599700,12.524599609375,-0.7793426513671875,-0.648468017578125,-0.134185791015625
1789222374380593700,12.53459375,-0.64312744140625,-0.742919921875,0.1079254150390625
1789222374390587600,12.544587646484375,-0.2993011474609375,-0.77935791015625,0.295013427734375
1789222374400583000,12.5545830078125,-0.1484832763671875,-0.4001312255859375,0.33819580078125
1789222374410576600,12.56457666015625,-0.7078094482421875,-0.8126678466796875,0.270111083984375
1789222374420570600,12.574570556640625,-1.12176513671875,-0.8347320556640625,0.13525390625
1789222374430564600,12.584564697265625,-0.6707916259765625,-0.8298492431640625,-0.0305328369140625
1789222374440558600,12.59455859375,-0.298248291015625,-0.7973480224609375,-0.1114654541015625
1789222374450552600,12.604552490234376,-0.5102691650390625,-0.8390350341796875,0.0257720947265625
1789222374460547600,12.614547607421875,-0.596771240234375,-0.7690582275390625,0.17864990234375
1789222374470541800,12.624541748046875,-0.7076568603515625,-0.520660400390625,0.214385986328125
1789222374480535800,12.634535888671875,-0.588958740234375,-0.7381134033203125,0.1339111328125
1789222374490529800,12.64452978515625,-0.4517974853515625,-0.740142822265625,0.0648193359375
1789222374500523500,12.6545234375,-0.4888153076171875,-0.6077117919921875,0.095916748046875
1789222374510517500,12.664517578125,-0.772552490234375,-0.662445068359375,0.105224609375
1789222374520512500,12.674512451171875,-1.20404052734375,-0.8728790283203125,0.0900421142578125
1789222374530506500,12.684506591796875,-0.9467010498046875,-0.8710784912109375,0.072509765625
1789222374540500700,12.694500732421876,-0.33929443359375,-0.6986236572265625,-0.025299072265625
1789222374550494700,12.70449462890625,-0.4037628173828125,-0.663665771484375,-0.0277099609375
1789222374560488700,12.71448876953125,-0.726226806640625,-0.882781982421875,0.2245635986328125
1789222374570482700,12.724482666015625,-0.6696014404296875,-0.67633056640625,0.370452880859375
1789222374580477700,12.734477783203126,-0.693389892578125,-0.5108184814453125,0.2216644287109375
1789222374590471700,12.7444716796875,-0.8544464111328125,-0.921600341796875,0.092559814453125
1789222374600465700,12.754465576171874,-0.6652679443359375,-0.7487335205078125,0.049163818359375
1789222374610460000,12.7644599609375,-0.5252685546875,-0.6103057861328125,-0.064361572265625
1789222374620453600,12.77445361328125,-0.64752197265625,-0.8507537841796875,-0.1188812255859375
1789222374630447600,12.784447509765625,-0.8568572998046875,-0.793426513671875,0.066650390625
1789222374640442600,12.794442626953124,-0.690887451171875,-0.8207550048828125,0.1907806396484375
1789222374650436600,12.8044365234375,-0.429168701171875,-0.83062744140625,0.117767333984375
1789222374660430600,12.8144306640625,-0.547332763671875,-0.768310546875,0.1631927490234375
1789222374670424600,12.824424560546875,-0.7783966064453125,-0.814361572265625,0.2406463623046875
1789222374680418800,12.834418701171876,-0.6325531005859375,-0.911102294921875,0.1894683837890625
1789222374690413800,12.844413818359374,-0.27490234375,-0.7341766357421875,0.0665130615234375
1789222374700407800,12.85440771484375,-0.1881103515625,-0.7236328125,-0.0372772216796875
