time,seconds_elapsed,z,y,x
1789222361892875000,0.046875,-6.297442440128326,-7.423588158017396,1.1844574024084955
1789222361902869000,0.056868896484375,-6.305912162309885,-7.417747030773758,1.1759572850886733
1789222361912862700,0.06686279296875,-6.328456002551317,-7.4017813998788595,1.1552722244564444
1789222361922856700,0.076856689453125,-6.357532459431886,-7.381652804085612,1.1239990612491966
1789222361932851700,0.086851806640625,-6.387569285777211,-7.360839148637652,1.0896795160833745
1789222361942845700,0.096845703125,-6.40008565300107,-7.356822898733616,1.0423291513655335
1789222361952840000,0.10683984375,-6.391589042812585,-7.3694976713895795,1.0042286263562739
1789222361962834000,0.116833984375,-6.372018080902099,-7.387742937654257,0.9944999170895665
1789222361972828000,0.126827880859375,-6.363573493161797,-7.394173262962698,1.0007575892448424
1789222361982822000,0.13682177734375,-6.3679971548229455,-7.391146608617901,0.9949678268622606
1789222361992817000,0.14681689453125,-6.368294091942906,-7.393147427046299,0.9780472333300858
1789222362002811000,0.156810791015625,-6.369706881350279,-7.394877027317881,0.9555088729813694
1789222362012804900,0.166804931640625,-6.374447938397527,-7.395795895728469,0.9159664786007254
1789222362022798800,0.176798828125,-6.379307653388381,-7.396734053361415,0.8735884224027395
1789222362032792800,0.186792724609375,-6.382910646316409,-7.396506674346328,0.8488356008749455
1789222362042786800,0.196786865234375,-6.3876704080641264,-7.393000712051987,0.8435559799715876
1789222362052781800,0.20678173828125,-6.394449692940712,-7.387483409935236,0.8405301293443888
1789222362062775800,0.21677587890625,-6.391576767852902,-7.391010999539494,0.8313125844702124
1789222362072769800,0.226769775390625,-6.381617683896422,-7.3998255896359675,0.8294047780875116
1789222362082764000,0.236763916015625,-6.3671197874665255,-7.412686824774742,0.825983206140995
1789222362092758000,0.246758056640625,-6.356140128290653,-7.425377964043617,0.7960103849425911
1789222362102752000,0.256751953125,-6.352501479527354,-7.4332847916454075,0.7499260215725749
1789222362112747000,0.2667470703125,-6.354517495524883,-7.43428783120811,0.7223916065022349
1789222362122741000,0.276740966796875,-6.363202906283735,-7.427642986366152,0.7142498741660267
1789222362132734700,0.286734619140625,-6.3797939756006,-7.414279062402248,0.7050318909004331
1789222362142728700,0.296728759765625,-6.395554439312219,-7.401831668761372,0.692941055612266
1789222362152723000,0.306722900390625,-6.400166901543736,-7.397938752976059,0.6919177039138973
1789222362162717000,0.316717041015625,-6.395303679421544,-7.402347217068075,0.6897312267202883
1789222362172712000,0.3267119140625,-6.392360027185082,-7.407160754829644,0.6648897039957344
1789222362182706000,0.336705810546875,-6.392019250923394,-7.410629892244935,0.6285199483018368
1789222362192700000,0.346699951171875,-6.390968865087628,-7.412254278576373,0.6199907510180026
1789222362202694000,0.35669384765625,-6.3886699404954905,-7.4122981177181,0.6427411466822027
1789222362212688000,0.36668798828125,-6.3862020890772335,-7.412140296807885,0.668565323768556
1789222362222682000,0.37668212890625,-6.384580625355244,-7.412587456053495,0.6790148946557194
1789222362232676900,0.3866767578125,-6.388115229222178,-7.409387198707461,0.6806948836319148
1789222362242671000,0.396671142578125,-6.38659956396222,-7.413223415869474,0.6525672519087791
1789222362252665000,0.4066650390625,-6.382713077917694,-7.421004571264982,0.600043612738885
1789222362262659000,0.4166591796875,-6.38426965970993,-7.420905202543735,0.5845111856294796
1789222362272653000,0.426653076171875,-6.386981841278076,-7.416312029534578,0.6125123048961162
1789222362282647000,0.43664697265625,-6.385461499843001,-7.416794260093569,0.6224415782362223
1789222362292642000,0.44664208984375,-6.390898137938976,-7.414083832091093,0.598471577649191
1789222362302636000,0.456635986328125,-6.4008718349426985,-7.408422737589478,0.5607971325648948
1789222362312630000,0.466630126953125,-6.406858508136868,-7.406051916804909,0.5224483684156089
1789222362322624000,0.4766240234375,-6.402380485939979,-7.411675017383694,0.49696003568749875
1789222362332618000,0.486617919921875,-6.397677422815561,-7.414701087206602,0.5121576413519681
1789222362342612000,0.496612060546875,-6.4112961983233685,-7.402061385864019,0.524541322106868
1789222362352607000,0.50660693359375,-6.415062857380509,-7.400920399135351,0.4936837904958054
1789222362362601000,0.51660107421875,-6.419264400723576,-7.3987354563117025,0.4713189235504716
1789222362372595000,0.526594970703125,-6.4102417208343745,-7.409422854542732,0.42384233863707627
1789222362382589200,0.536589111328125,-6.376780765259266,-7.442603239610791,0.3386916374329477
1789222362392583200,0.546583251953125,-6.352251888680458,-7.4623150712966915,0.364886620593071
1789222362402577000,0.556576904296875,-6.346837462416291,-7.4558333080619565,0.5464306074297055
1789222362412572000,0.566572021484375,-6.3457198565632105,-7.447030408403277,0.6663065119910985
1789222362422566000,0.57656591796875,-6.343434960496425,-7.456836347624659,0.571678482465446
1789222362432559900,0.586559814453125,-6.344484761810302,-7.465131297761201,0.43556298890598116
1789222362442554000,0.59655419921875,-6.360989321887493,-7.451670927685499,0.4252032882593572
1789222362452548000,0.606548095703125,-6.375957758438587,-7.436029121917485,0.472253062595427
1789222362462542000,0.6165419921875,-6.367624229857325,-7.441241303607821,0.5016699669441208
1789222362472537000,0.626537109375,-6.349623878264427,-7.452392227697372,0.5608225227344781
1789222362482531000,0.636531005859375,-6.3283402672171585,-7.46507752174735,0.6285839534487575
1789222362492525000,0.646525146484375,-6.307032106250524,-7.482946355915069,0.6302756328627467
1789222362502519000,0.65651904296875,-6.303437881150841,-7.488945304068922,0.5939323998495936
1789222362512513000,0.666512939453125,-6.295866569113731,-7.4977505418151615,0.5623116653136909
1789222362522507000,0.676507080078125,-6.281085179567337,-7.510107334563136,0.5627125377321616
1789222362532502000,0.686501953125,-6.286323080220818,-7.503278365325928,0.5944289511948824
1789222362542496000,0.69649609375,-6.3041960060417646,-7.486542334580421,0.6157834355212748
1789222362552490000,0.706489990234375,-6.313570568108558,-7.480617620706558,0.5912356350462883
1789222362562484000,0.71648388671875,-6.322888431552052,-7.475034267616271,0.5615409732021391
1789222362572478000,0.72647802734375,-6.328443727591633,-7.470005041277408,0.5658656680008396
1789222362582472200,0.73647216796875,-6.3105059198409315,-7.48251556328237,0.5998898469492793
1789222362592467000,0.746467041015625,-6.2921659610301255,-7.4934847010642285,0.6532289306879043
1789222362602461200,0.756461181640625,-6.293178937464952,-7.488990312254429,0.6937669850423932
1789222362612455200,0.766455078125,-6.287914733326435,-7.494941914135217,0.6770251821432263
1789222362622449000,0.776448974609375,-6.267791982752084,-7.515168125084042,0.6382937388192862
1789222362632443000,0.78644287109375,-6.2738032058656215,-7.510324776706099,0.6362423592474311
1789222362642436900,0.796436767578125,-6.3004229172438375,-7.487049699580669,0.6474206097353249
1789222362652432000,0.806431884765625,-6.309103067305684,-7.479852481552958,0.6460726291924714
1789222362662426000,0.816426025390625,-6.306865517511963,-7.479906257566809,0.6669694328792393
1789222362672420000,0.826420166015625,-6.305540990909933,-7.477148483291268,0.7090763439856469
1789222362682414000,0.8364140625,-6.28990093870759,-7.487983765560388,0.7332309073593467
1789222362692408000,0.846407958984375,-6.266707110124826,-7.5061004370093345,0.7464731046397238
1789222362702402000,0.856402099609375,-6.255425253131985,-7.515127208551764,0.7502711086831987
1789222362712397000,0.86639697265625,-6.253585178223252,-7.518086642879247,0.7358238464619964
1789222362722391000,0.87639111328125,-6.256943841001391,-7.515971258160471,0.7288407826416194
1789222362732385000,0.886385009765625,-6.265588919749856,-7.50711458248794,0.745659377104044
1789222362742379000,0.89637890625,-6.275418239846825,-7.498437939557433,0.7502940511673688
1789222362752373000,0.906373046875,-6.2752878914654255,-7.49922645958662,0.7434705618228763
1789222362762367000,0.916366943359375,-6.267289293926954,-7.505968919584155,0.7429010183066129
1789222362772362000,0.926362060546875,-6.26104893823266,-7.512059053152799,0.7339097564689815
1789222362782356000,0.93635595703125,-6.255259833437204,-7.518452553582191,0.7176160626634955
1789222362792350000,0.946349853515625,-6.244933085212111,-7.526182271051407,0.7264897625360638
1789222362802344200,0.95634423828125,-6.241562731996178,-7.527015799266099,0.746526880653575
1789222362812338200,0.966338134765625,-6.24862843259871,-7.522560573422909,0.7321987147673964
1789222362822332000,0.976331787109375,-6.2581391882658,-7.51828654936552,0.6938713952649385
1789222362832327200,0.9863271484375,-6.263195887133479,-7.515990547382831,0.67278929813914
1789222362842321000,0.99632080078125,-6.266546366605162,-7.514160993868112,0.661935018908605
1789222362852315000,1.00631494140625,-6.271595466688275,-7.511567470243572,0.6432977576516569
1789222362862308900,1.016308837890625,-6.272174143359065,-7.512327348700166,0.6286106953252106
1789222362872303000,1.02630322265625,-6.261046600145101,-7.52196202300787,0.6243187702849506
1789222362882297000,1.036297119140625,-6.256434722435474,-7.525785965210199,0.6244605168431997
1789222362892292000,1.0462919921875,-6.2607531701564785,-7.522779769131541,0.6173748694311827
1789222362902286000,1.0562861328125,-6.255875334987044,-7.528536725223064,0.5962654459070414
1789222362912280000,1.066280029296875,-6.248415666630864,-7.537199339628219,0.5641820257628336
1789222362922274000,1.076274169921875,-6.24723025623858,-7.5402382689327,0.5360084360061214
1789222362932268000,1.08626806640625,-6.243064953252673,-7.544749608877301,0.5208384490009397
1789222362942262000,1.096261962890625,-6.236182208001614,-7.55114720095992,0.5104825842792168
1789222362952256000,1.106256103515625,-6.240643863585591,-7.548945307001471,0.48802594739720223
1789222362962251000,1.1162509765625,-6.2525523280441755,-7.54143244715333,0.4503161022059619
1789222362972245000,1.126244873046875,-6.264202433827519,-7.533433849614858,0.4213295155659318
1789222362982239000,1.136239013671875,-6.273123406907915,-7.526333077698945,0.41547753813471644
1789222362992233000,1.14623291015625,-6.273762289333344,-7.525808761563897,0.41533246710821986
1789222363002227000,1.15622705078125,-6.257768601387739,-7.539561392584442,0.40711237230617553
1789222363012221200,1.16622119140625,-6.235752584412694,-7.5578347158998245,0.40609121256489306
1789222363022216200,1.17621630859375,-6.2182970072209836,-7.572448932185768,0.4014916828801855
1789222363032210200,1.186210205078125,-6.211126092678308,-7.57955204218924,0.3777501207541674
1789222363042204000,1.196203857421875,-6.221514215701818,-7.572492771327495,0.347111675253883
1789222363052198000,1.206197998046875,-6.229850666892528,-7.566798943600058,0.32077432448100296
1789222363062191900,1.21619189453125,-6.237348329171538,-7.561053677946329,0.3103788218686357
1789222363072186000,1.22618603515625,-6.254626211708784,-7.546330156067014,0.32084578228201716
1789222363082180900,1.236180908203125,-6.264281344282627,-7.5381030104696745,0.3258518469410017
1789222363092175000,1.246175048828125,-6.261178117570281,-7.541651058340072,0.3025622663661837
1789222363102169000,1.256169189453125,-6.259718566411733,-7.544467869326472,0.2594546355183236
1789222363112163000,1.2661630859375,-6.262106922852992,-7.5437085753917685,0.22107211522990836
1789222363122157000,1.276156982421875,-6.271545197805762,-7.535961906787753,0.2176945833545178
1789222363132151000,1.286151123046875,-6.288125161206722,-7.521471609142422,0.2394610277489759
1789222363142146000,1.29614599609375,-6.293994930022954,-7.516195714566111,0.2506278252610937
1789222363152139800,1.306139892578125,-6.287431918245554,-7.521779652178287,0.24781338889487087
1789222363162134000,1.316134033203125,-6.286707111102342,-7.522471726095676,0.245208613223955
1789222363172128000,1.3261279296875,-6.286677885007858,-7.522924730560183,0.23168263056613503
1789222363182122000,1.3361220703125,-6.277905965009332,-7.530552156698703,0.22152102804118767
1789222363192115500,1.346115478515625,-6.275791749334335,-7.531566886699199,0.24560842619650064
1789222363202110500,1.3561103515625,-6.284104235127568,-7.523553676113486,0.27670294490121305
1789222363212104400,1.3661044921875,-6.28402590919435,-7.5239984972715375,0.26617784282611684
1789222363222098700,1.3760986328125,-6.283762874343991,-7.525471492433548,0.22802187956888229
1789222363232092700,1.3860927734375,-6.29736119158566,-7.514832024997473,0.20233009669054297
1789222363242086700,1.396086669921875,-6.308562384557724,-7.505421807095408,0.20265947477538138
1789222363252080600,1.40608056640625,-6.310002061972022,-7.5036466141164295,0.2226069235817529
1789222363262075600,1.41607568359375,-6.310376740503311,-7.502743527796864,0.24157420224435627
1789222363272069600,1.426069580078125,-6.304471315851807,-7.50737586377263,0.25166100423373283
1789222363282063600,1.436063720703125,-6.294978680363297,-7.515268078327178,0.25372792843459174
1789222363292057900,1.446057861328125,-6.292628317844867,-7.5175459601312875,0.24438343271249904
1789222363302051600,1.456051513671875,-6.289814429467916,-7.520209041860699,0.23469441613536327
1789222363312045600,1.466045654296875,-6.2912184510469435,-7.518667073115706,0.24616423344835636
1789222363322040600,1.47604052734375,-6.308074308779835,-7.503914325141906,0.26429811176043
1789222363332034600,1.48603466796875,-6.326168183875083,-7.488845935347676,0.25918016595849763
1789222363342028500,1.496028564453125,-6.330750835490226,-7.485438757252693,0.24533023030962794
1789222363352022500,1.5060224609375,-6.334744873562455,-7.482378200638294,0.2353785259420052
1789222363362016800,1.516016845703125,-6.338933557423949,-7.479186711120605,0.22375028493059798
1789222363372010800,1.5260107421875,-6.342132061204314,-7.476569806620478,0.22057543602045623
1789222363382005800,1.536005859375,-6.344902110439539,-7.473805018082261,0.23416043712282553
1789222363391999700,1.545999755859375,-6.35021424537301,-7.468893280643225,0.24655507766315712
1789222363401993700,1.55599365234375,-6.3505678811162705,-7.468653042146563,0.24471982506001366
1789222363411987500,1.565987548828125,-6.348961030441522,-7.470263984474539,0.23714568174500017
1789222363421981700,1.575981689453125,-6.351307301306724,-7.468686359894275,0.22359798044571652
1789222363431975700,1.5859755859375,-6.360115461662411,-7.461644040167331,0.20780071012135592
1789222363441970700,1.595970703125,-6.368540760180354,-7.454656080976128,0.2004264550263062
1789222363451964700,1.605964599609375,-6.37384588085115,-7.450136557725071,0.19982852566577494
1789222363461958700,1.615958740234375,-6.381575013798475,-7.443883342549205,0.18573740167217329
1789222363471952600,1.62595263671875,-6.383664679554104,-7.442780349743366,0.1556722077488899
1789222363481946600,1.635946533203125,-6.378489322742819,-7.447569337585568,0.13771487331381066
1789222363491940900,1.64594091796875,-6.36888445905149,-7.4557760249167675,0.13821362574934026
1789222363501935600,1.655935546875,-6.360583079174161,-7.462665784430503,0.1482903630024288
1789222363511929900,1.665929931640625,-6.3670853006750345,-7.4569257794737815,0.15771578760677948
1789222363521923600,1.675923583984375,-6.37102731629908,-7.453801509973406,0.14572853142409584
1789222363531917600,1.68591748046875,-6.370415321880579,-7.454644390538334,0.12832897700225002
1789222363541911600,1.69591162109375,-6.372740549957752,-7.4526751362919805,0.12729788952199741
1789222363551905500,1.705905517578125,-6.377139661699533,-7.448836581042409,0.13155409479490482
1789222363561900500,1.715900634765625,-6.377551749631762,-7.448594004458188,0.12520158396302722
1789222363571894500,1.72589453125,-6.37166152254939,-7.453689866292477,0.12169808762040919
1789222363581888800,1.735888671875,-6.374103070482612,-7.451666251510381,0.11773282811809331
1789222363591882800,1.7458828125,-6.376851492407917,-7.449597044020891,0.09819670919212511
1789222363601876700,1.755876708984375,-6.382333138689399,-7.4450500482410185,0.08621080471631139
1789222363611870500,1.765870361328125,-6.393850558003783,-7.43512603559792,0.08923781525413506
1789222363621865700,1.77586572265625,-6.402244292339682,-7.427885562950372,0.09043987538712099
1789222363631859500,1.785859375,-6.405722197583318,-7.424823837292194,0.09534094530167057
1789222363641853700,1.795853759765625,-6.3989388210535045,-7.430374457156658,0.11620660493150353
1789222363651847700,1.80584765625,-6.38514585802257,-7.441783155399561,0.14195645640632137
1789222363661841700,1.815841552734375,-6.371168186074495,-7.453295898538827,0.1642613915916532
1789222363671835600,1.825835693359375,-6.365857220184803,-7.457478737181424,0.1796164711064659
1789222363681830700,1.83583056640625,-6.370744407704472,-7.45331051158607,0.179347225711029
1789222363691824600,1.84582470703125,-6.383733068615197,-7.442669290584325,0.15815717469872906
1789222363701818600,1.855818603515625,-6.394225236535072,-7.434301275211572,0.12423557020877488
1789222363711812600,1.8658125,-6.3910015983134505,-7.437370599654317,0.10488326515080407
1789222363721806600,1.875806640625,-6.379419297069311,-7.447081261807679,0.11994227519533596
1789222363731800600,1.885800537109375,-6.367077117368579,-7.456802445355057,0.1637538256620057
1789222363741795600,1.895795654296875,-6.3577563313156364,-7.4636635632961985,0.20744183194739743
1789222363751789600,1.90578955078125,-6.35897915110886,-7.462259541717171,0.2201179197776131
1789222363761783600,1.915783447265625,-6.368793273636698,-7.454310628539323,0.20520545119745656
1789222363771777500,1.925777587890625,-6.378054438456893,-7.446434780597686,0.20350093056820331
1789222363781771800,1.935771728515625,-6.389184904280304,-7.436032629048824,0.2326383238557726
1789222363791765800,1.945765869140625,-6.389481841400265,-7.434747849935293,0.2634824479959905
1789222363801760800,1.9557607421875,-6.369114176154136,-7.451775557103753,0.27534959406349807
1789222363811754800,1.965754638671875,-6.349197761806845,-7.46893828882873,0.2702627375195734
1789222363821748700,1.975748779296875,-6.340948988899588,-7.475901698100566,0.2713650179393589
1789222363831742700,1.98574267578125,-6.34579584440887,-7.470674903362989,0.30046036218348887
1789222363841736400,1.995736328125,-6.360831500977278,-7.456148365360498,0.3406839072287082
1789222363851730700,2.005730712890625,-6.376329514360427,-7.441755682870745,0.3647863750889897
1789222363861725700,2.0157255859375,-6.401046022465825,-7.420059983891249,0.3737642294557765
1789222363871719700,2.0257197265625,-6.41785862557888,-7.406109199950099,0.36197551891934127
1789222363881713700,2.035713623046875,-6.414445602265,-7.409469616293907,0.35360454440452155
1789222363891707600,2.045707763671875,-6.410406556007266,-7.411596691450476,0.381184150323458
1789222363901701600,2.05570166015625,-6.40222967929244,-7.417274152565002,0.4072894093735143
1789222363911695600,2.065695556640625,-6.3962149490475655,-7.421327811869978,0.42746027340590953
1789222363921690600,2.075690673828125,-6.400763113871216,-7.415388484948873,0.46111218497585504
1789222363931684600,2.0856845703125,-6.413510367241502,-7.402531925985216,0.48967006134241814
1789222363941678800,2.095678955078125,-6.422979621854424,-7.393931270900368,0.49547184295635666
1789222363951672600,2.105672607421875,-6.429986870267987,-7.388094235309958,0.49164253045916556
1789222363961666600,2.11566650390625,-6.4400488300770515,-7.37992203477025,0.48261068088281894
1789222363971660500,2.12566064453125,-6.445090915897488,-7.376069450995326,0.4741313506226986
1789222363981655600,2.135655517578125,-6.439509900894761,-7.38064859547913,0.47866442747507243
1789222363991649500,2.1456494140625,-6.425201389557123,-7.392704943975806,0.48484994770959017
1789222364001643800,2.155643798828125,-6.4170443865865465,-7.3986360875904555,0.5021094178073108
1789222364011637800,2.1656376953125,-6.407921753454208,-7.406320212352275,0.5053077389245852
1789222364021631700,2.1756318359375,-6.389391240507364,-7.423049228835105,0.4943663293998688
1789222364031625700,2.185625732421875,-6.379249201199412,-7.432242004594206,0.4871759064391255
1789222364041620700,2.195620849609375,-6.3768602602362625,-7.435493699866533,0.4684831886678934
1789222364051614700,2.20561474609375,-6.370782401627301,-7.442358909460902,0.44138683622125535
1789222364061608400,2.2156083984375,-6.381694840785861,-7.433564193108677,0.4318380500987172
1789222364071602700,2.225602783203125,-6.406306719473004,-7.413425075921416,0.41321960314009337
1789222364081596700,2.2355966796875,-6.421853832694888,-7.402415021607279,0.36664175716470926
1789222364091590700,2.245590576171875,-6.4351639806449406,-7.392503868445754,0.3315524697354063
1789222364101585700,2.255585693359375,-6.438353716596961,-7.390159935668111,0.3217505125693977
1789222364111579600,2.26557958984375,-6.425196713382006,-7.40153590068519,0.3232803159525618
1789222364121573600,2.27557373046875,-6.402074196469783,-7.421537070706486,0.3234480372022837
1789222364131567600,2.285567626953125,-6.373987919670343,-7.446174668356776,0.31170396952517326
1789222364141561900,2.295561767578125,-6.36181583583951,-7.4574033338576555,0.291252352322638
1789222364151555600,2.3055556640625,-6.365312445783615,-7.455315421667694,0.2672965994566679
1789222364161550800,2.31555078125,-6.379359091314673,-7.444078572860359,0.24462951642805708
1789222364171544600,2.325544677734375,-6.402431339344382,-7.425217220523953,0.21308151833480224
1789222364181538600,2.33553857421875,-6.416575600031018,-7.41416332706809,0.16771745032966137
1789222364191532500,2.345532470703125,-6.41513650713861,-7.416008078151941,0.13869476032978853
1789222364201526500,2.355526611328125,-6.4063336074799295,-7.423836579820513,0.12619329841411672
1789222364211520800,2.365520751953125,-6.386789533576369,-7.441005156764388,0.10365560478568077
1789222364221515800,2.375515869140625,-6.361507208281755,-7.462822436296939,0.08891509523894638
1789222364231509800,2.385509765625,-6.347319692975282,-7.474872939574718,0.09053217504676431
1789222364241503700,2.395503662109375,-6.345003232726454,-7.47695851367712,0.0800875177967362
1789222364251497700,2.405497802734375,-6.346256447657942,-7.476172916257381,0.047420142018422484
1789222364261491700,2.41549169921875,-6.3520449679315085,-7.47140087954998,0.009270129582184016
1789222364271485400,2.4254853515625,-6.358149130025506,-7.466196296644211,-0.015474672465113689
1789222364281480700,2.435480712890625,-6.363035733023286,-7.46201871869862,-0.02071401501536602
1789222364291474700,2.445474609375,-6.35853257638514,-7.465875978648662,-0.011994642621406818
1789222364301468700,2.45546875,-6.349809171703457,-7.473305251866579,-0.005034951114284922
1789222364311462700,2.465462646484375,-6.350429933950305,-7.472770998859405,-0.010818224961397937
1789222364321456600,2.47545654296875,-6.348318056362867,-7.474493000346421,-0.034737348169495814
1789222364331450600,2.48545068359375,-6.344068582224845,-7.477955708020925,-0.05789109362033196
1789222364341445600,2.495445556640625,-6.359171458810567,-7.465057063481211,-0.06522571995789185
1789222364351439600,2.505439697265625,-6.374416374215484,-7.451859143733977,-0.08372990202023647
1789222364361433900,2.515433837890625,-6.380253409805894,-7.446628841865063,-0.10226557519938796
1789222364371427800,2.525427734375,-6.388191217067837,-7.439785844102501,-0.10479719430254772
1789222364381421800,2.535421875,-6.3849973894625895,-7.442508547064661,-0.10609361818809993
1789222364391415600,2.54541552734375,-6.371132530239224,-7.45442987100482,-0.10266120518716051
1789222364401410600,2.55541064453125,-6.364627386128902,-7.4601973484903565,-0.08579555671261622
1789222364411404500,2.565404541015625,-6.3651026024252175,-7.459934898161888,-0.07235883694055956
1789222364421398500,2.5753984375,-6.368234470710158,-7.457253111732006,-0.07316039911441038
1789222364431392800,2.585392822265625,-6.375648546358943,-7.450778947281837,-0.08593635342279449
1789222364441386800,2.59538671875,-6.383647728419303,-7.443756501299142,-0.09961330712493509
1789222364451380700,2.605380615234375,-6.388082495996356,-7.439983412501215,-0.0971107588526327
1789222364461375700,2.615375732421875,-6.390792923998832,-7.437857506388426,-0.0801792512007989
1789222364471369700,2.62536962890625,-6.390240550813078,-7.438556010046601,-0.05567544056458864
1789222364481363700,2.63536376953125,-6.3848892529129975,-7.443318694403767,-0.02398402682909509
1789222364491357700,2.645357666015625,-6.378346699401736,-7.448954654464125,-0.012512638613523449
1789222364501351700,2.6553515625,-6.372220909997821,-7.454173850417137,-0.021916899415547957
1789222364511345700,2.665345703125,-6.367685020133853,-7.458074364987016,-0.010067699996684677
1789222364521340700,2.675340576171875,-6.362836411058902,-7.462171863433718,0.026362590245413594
1789222364531334700,2.685334716796875,-6.367217402622103,-7.458256151294708,0.057762457705405536
1789222364541328600,2.69532861328125,-6.372729444041847,-7.453456642058491,0.06855600145834032
1789222364551322600,2.705322509765625,-6.374226989123225,-7.452024563428759,0.0832536902100779
1789222364561316600,2.715316650390625,-6.37699586931467,-7.449260359412431,0.11326583877187221
1789222364571310800,2.725310791015625,-6.373720208644866,-7.451542332869768,0.14348472541952506
1789222364581305900,2.735305908203125,-6.372127386495471,-7.452324423158168,0.1709713192927651
1789222364591299800,2.7452998046875,-6.381423622629046,-7.443899709162116,0.19021076596025377
1789222364601293800,2.7552939453125,-6.392935196724534,-7.433716753321885,0.20157010863609612
1789222364611287600,2.76528759765625,-6.404883993193507,-7.423163795125484,0.21089600925557314
1789222364621281500,2.775281494140625,-6.4158525464534755,-7.413623813363909,0.21309642364298922
1789222364631275800,2.78527587890625,-6.413734823647141,-7.415176303502917,0.22260984619120133
1789222364641270500,2.7952705078125,-6.405390773671865,-7.420892927584052,0.2677892966107465
1789222364651264800,2.8052646484375,-6.401701856026053,-7.421859726789593,0.3234196878906339
1789222364661258800,2.8152587890625,-6.389452030783891,-7.430451614046096,0.36561986677106467
1789222364671252700,2.825252685546875,-6.381712376442551,-7.434438637855648,0.41624106985311954
1789222364681246700,2.835246826171875,-6.386848570287227,-7.427306886279583,0.46223764534182843
1789222364691240700,2.84524072265625,-6.392462903037667,-7.421516027918457,0.47738454373236744
1789222364701235700,2.855235595703125,-6.395207233309746,-7.418406371465325,0.4888202395800501
1789222364711229700,2.865229736328125,-6.395355701869726,-7.41610335521996,0.5207963999575004
1789222364721223700,2.8752236328125,-6.391248851072788,-7.416240717864036,0.5671911809835583
1789222364731217700,2.8852177734375,-6.38777679104805,-7.415268073439598,0.6168355749227106
1789222364741211600,2.895211669921875,-6.387745811387896,-7.412345463991165,0.6513156444124877
1789222364751205600,2.90520556640625,-6.389726171550154,-7.410250537538528,0.6557178248941898
1789222364761200600,2.91520068359375,-6.3986103197515005,-7.4015662958234545,0.6670822456039488
1789222364771194600,2.925194580078125,-6.4088996585756535,-7.389192551940679,0.704425376374647
1789222364781188600,2.935188720703125,-6.407479270383715,-7.386801857411861,0.7414532306510955
1789222364791182800,2.945182861328125,-6.396638727417588,-7.3930229238837954,0.7724037377752363
1789222364801176800,2.9551767578125,-6.385880602037906,-7.397970901679992,0.8129824164010584
1789222364811170600,2.965170654296875,-6.3795636739760635,-7.398824303638935,0.8537815328445285
1789222364821165800,2.975165771484375,-6.370684201949834,-7.40459645729959,0.8698977511912583
1789222364831159600,2.98515966796875,-6.367935195502638,-7.406107446384429,0.877127775510028
1789222364841153500,2.995153564453125,-6.379186657357216,-7.393132229477167,0.9044069006450474
1789222364851147800,3.005147705078125,-6.392303913083672,-7.377751120471954,0.9368131595354526
1789222364861141800,3.015141845703125,-6.401994116970896,-7.371066528141498,0.9231647195417434
1789222364871135700,3.0251357421875,-6.399459045535326,-7.378947052258253,0.8766082086153328
1789222364881130800,3.035130859375,-6.394642585164308,-7.384176769605278,0.8676796367503702
1789222364891124700,3.045124755859375,-6.387675084239244,-7.3870339126020665,0.894270925751701
1789222364901118700,3.05511865234375,-6.369185487824678,-7.400175133726,0.9172023770712315
1789222364911112700,3.06511279296875,-6.354457289770245,-7.410777776283025,0.9336206471044569
1789222364921106700,3.075106689453125,-6.348892641380429,-7.415060568168759,0.9374459775462746
1789222364931100700,3.0851005859375,-6.338855816012621,-7.424858324083686,0.9277676832925528
1789222364941095700,3.095095703125,-6.334596405002475,-7.429972306096554,0.9158472361352294
1789222364951089700,3.105089599609375,-6.345189110687374,-7.423496972602606,0.8947886660154908
1789222364961083600,3.115083740234375,-6.359840736374259,-7.414653740933537,0.8635466285988688
1789222364971077600,3.12507763671875,-6.370737977963685,-7.407930570158362,0.8406185382802039
1789222364981071600,3.135071533203125,-6.379200101360678,-7.401945066007971,0.8290928625941276
1789222364991066600,3.145066650390625,-6.382279362675547,-7.399864752602577,0.8239494352910667
1789222365001060600,3.155060546875,-6.371099212491512,-7.410106160631775,0.8184143052566796
1789222365011054800,3.165054931640625,-6.353098276376724,-7.425899942091107,0.8151854794032871
1789222365021048800,3.175048828125,-6.347897785124182,-7.430408943948149,0.8146171779960394
1789222365031042600,3.18504248046875,-6.353655325737595,-7.426449392667412,0.8057968888111412
1789222365041036500,3.19503662109375,-6.358745342352986,-7.423855284520983,0.7893758422989398
1789222365051030500,3.205030517578125,-6.366539941751957,-7.4185373043686145,0.7764392769016325
1789222365061025500,3.215025634765625,-6.378243823549151,-7.409702840527892,0.7646629874553531
1789222365071019800,3.225019775390625,-6.380771296200156,-7.409188461264968,0.7483736775640398
1789222365081013800,3.235013671875,-6.371477982676029,-7.417319745272398,0.7470080152340233
1789222365091007700,3.2450078125,-6.359528601685166,-7.426401461872458,0.7585201007861644
1789222365101001700,3.255001708984375,-6.340177420005202,-7.441892460992932,0.7686220272794365
1789222365110995700,3.26499560546875,-6.319180224683881,-7.4571806310176845,0.7929748166389763
1789222365120990700,3.27499072265625,-6.30855069411993,-7.462836464822292,0.8237978979911654
1789222365130984700,3.284984619140625,-6.305019597384333,-7.464971138763428,0.8314530889194458
1789222365140978700,3.294978759765625,-6.310886443591118,-7.460157601001859,0.8301463902350514
1789222365150972700,3.30497265625,-6.320584830784798,-7.450973593071103,0.8387991408333182
1789222365160966700,3.314966552734375,-6.322528366068005,-7.448707986226678,0.8442552873473614
1789222365170961700,3.324961669921875,-6.317792569717764,-7.451752760750055,0.8527996091350912
1789222365180955600,3.33495556640625,-6.323280645740032,-7.442886732727289,0.8887804385766387
1789222365190950100,3.3449501953125,-6.343565308877825,-7.420957224991917,0.9268030029788613
1789222365200944000,3.354944091796875,-6.361563322383165,-7.404598795387148,0.9342479121573268
1789222365210938000,3.364938232421875,-6.368584014800191,-7.398155610597133,0.9374475849814713
1789222365220932400,3.374932373046875,-6.362931103605032,-7.399563723829388,0.9643460402358323
1789222365230927000,3.384927001953125,-6.341480319297314,-7.412071323224902,1.008567459278181
1789222365240921300,3.39492138671875,-6.317638840460777,-7.4244929979026315,1.0652355413090437
1789222365250915300,3.404915283203125,-6.307865634465217,-7.425106161364913,1.1175913130987436
1789222365260909300,3.414909423828125,-6.306428295138478,-7.421805950775742,1.1472336602337658
1789222365270903300,3.4249033203125,-6.31709231249392,-7.410141231945157,1.1638478912305086
1789222365280897300,3.434897216796875,-6.327608445811271,-7.398274853062629,1.1820726992290467
1789222365290892300,3.444892333984375,-6.331876040127873,-7.3897490167796605,1.2121662241976707
1789222365300886300,3.45488623046875,-6.3260992102921,-7.390039524158835,1.240226855099201
1789222365310880300,3.46488037109375,-6.308415669563412,-7.404173847973346,1.245990971583873
1789222365320874200,3.474874267578125,-6.298346110969781,-7.4141300093203775,1.237703766362369
1789222365330868200,3.4848681640625,-6.295990487754344,-7.415929752218723,1.2389013055838645
1789222365340862200,3.4948623046875,-6.290573138880729,-7.417066647294163,1.2594418431788683
1789222365350857200,3.504857177734375,-6.284216463330388,-7.418056242853402,1.2850856952622531
1789222365360851200,3.514851318359375,-6.2747594836771485,-7.4221192545086145,1.307638449462503
1789222365370845400,3.524845458984375,-6.264213539743423,-7.427493933284282,1.327531629064679
1789222365380839400,3.53483935546875,-6.263620834547281,-7.4237734514564275,1.3509389542676509
1789222365390833400,3.54483349609375,-6.270303673312068,-7.417358908239007,1.3551638784863054
1789222365400827100,3.5548271484375,-6.277577463707328,-7.415091547828912,1.3337259536601602
1789222365410822100,3.564822265625,-6.293675781071186,-7.4049319728642695,1.3141545533582568
1789222365420816100,3.574816162109375,-6.310861309149861,-7.391777307736874,1.3057691484592855
1789222365430810000,3.58481005859375,-6.316733416053652,-7.385241768488288,1.314328594750911
1789222365440804400,3.594804443359375,-6.322181744587421,-7.377740599077939,1.3301632927425204
1789222365450798300,3.60479833984375,-6.3218228481471535,-7.37635937385261,1.3395010299302637
1789222365460792300,3.614792236328125,-6.313449572077393,-7.381233701890706,1.3520814023010432
1789222365470787300,3.624787353515625,-6.307719503992796,-7.383005972260237,1.3690445198006926
1789222365480781300,3.63478125,-6.307210969948768,-7.381260005375743,1.380750739685446
1789222365490775300,3.644775390625,-6.306341201376915,-7.377837629711627,1.4028417215928435
1789222365500769300,3.654769287109375,-6.305001477205753,-7.374043498125672,1.42857559004724
1789222365510763300,3.66476318359375,-6.305277956059575,-7.37330232436955,1.4311783198915422
1789222365520757200,3.67475732421875,-6.303780995500087,-7.37632254897356,1.422181943487376
1789222365530752300,3.684752197265625,-6.299074425244331,-7.379131176653504,1.428452840450406
1789222365540746200,3.694746337890625,-6.293302856105566,-7.383320445036888,1.4322326512500643
1789222365550740200,3.704740234375,-6.291414850401878,-7.386473940631747,1.4242533429339528
1789222365560734200,3.714734130859375,-6.2918298609435555,-7.385860777169466,1.4255929209746419
1789222365570728200,3.724728271484375,-6.28085604698658,-7.393976863607763,1.4319000582948327
1789222365580722400,3.734722412109375,-6.264664206120371,-7.407966225993633,1.4305235092446207
1789222365590717400,3.744717529296875,-6.25543635904789,-7.417590378907322,1.420999163443595
1789222365600711400,3.75471142578125,-6.252010476252436,-7.421985983517765,1.4131072411499916
1789222365610705400,3.764705322265625,-6.254066824260354,-7.420429401725531,1.4121863269127906
1789222365620699100,3.77469921875,-6.261455180945992,-7.413796831843256,1.414281545626372
1789222365630693000,3.784693115234375,-6.268223359906673,-7.409377846357226,1.4074407398208975
1789222365640688000,3.794688232421875,-6.262841082346439,-7.416583832213282,1.3933726131103932
1789222365650682000,3.80468212890625,-6.25942688998878,-7.422485165211558,1.3771978695094584
1789222365660676400,3.81467626953125,-6.256563901773095,-7.42764649349749,1.3623011830203233
1789222365670670300,3.82467041015625,-6.245023101583123,-7.436381588616967,1.3675889141649007
1789222365680664300,3.834664306640625,-6.233653566306829,-7.443044553637504,1.383127551819384
1789222365690658300,3.844658203125,-6.2268608374267815,-7.449581846451759,1.3785159663707016
1789222365700653300,3.8546533203125,-6.227494459155202,-7.452538358169794,1.3595463313542306
1789222365710647300,3.864647216796875,-6.225196703606843,-7.458061505505442,1.3396376619219779
1789222365720641300,3.874641357421875,-6.219661281311511,-7.467773336702585,1.3109361758336424
1789222365730635300,3.88463525390625,-6.221743932804465,-7.469686476847529,1.2899914413519202
1789222365740629200,3.894629150390625,-6.215012578722834,-7.475348740392923,1.2896370749562978
1789222365750623200,3.904623291015625,-6.200097918185591,-7.4885215256989,1.2849980169788002
1789222365760618200,3.9146181640625,-6.192207457196712,-7.499265622553229,1.260149406926334
1789222365770612200,3.9246123046875,-6.181342948833108,-7.513490547260641,1.228351562257856
1789222365780606200,3.934606201171875,-6.175061092084646,-7.521054845035076,1.2135663002539425
1789222365790600200,3.94460009765625,-6.17574322912991,-7.5229861053586005,1.198025835968554
1789222365800594400,3.954594482421875,-6.16824615137279,-7.533010655766725,1.173405408648774
1789222365810588400,3.96458837890625,-6.1563984771907325,-7.5443860362619155,1.1624935540121049
1789222365820583400,3.97458349609375,-6.139109488737583,-7.559042338123917,1.15870037227422
1789222365830577400,3.984577392578125,-6.12363544075191,-7.573600440308451,1.1454479458607734
1789222365840571100,3.994571044921875,-6.1191457281172275,-7.580593075674772,1.1229673070486634
1789222365850565000,4.004565185546875,-6.123436703309417,-7.5805334544420235,1.0997326349988579
1789222365860559000,4.01455908203125,-6.146131350198388,-7.5670046953052275,1.0657841881677508
1789222365870553300,4.02455322265625,-6.170970607900619,-7.553280121335387,1.018564610222727
1789222365880548400,4.03454833984375,-6.187685595858096,-7.5430094872117035,0.9929413625359534
1789222365890542300,4.044542236328125,-6.203060275122523,-7.531801864498854,0.9820308961387723
1789222365900536300,4.054536376953125,-6.198775145149231,-7.537878554064035,0.9622707683317363
1789222365910530300,4.0645302734375,-6.178389359724521,-7.554157488691806,0.9657040307160466
1789222365920524300,4.074524169921875,-6.159210612002015,-7.568935955628752,0.9724838270492852
1789222365930518300,4.084518310546875,-6.146054193308949,-7.582521413388847,0.9496241988569497
1789222365940513300,4.09451318359375,-6.141758541941642,-7.5888400950163595,0.9266558495931326
1789222365950507300,4.10450732421875,-6.153433197644352,-7.578911990720033,0.9304415056116878
1789222365960501200,4.114501220703125,-6.171261699801683,-7.5645800985068075,0.9290058467853813
1789222365970495200,4.1244951171875,-6.186156486594677,-7.555404858404398,0.9042746525675058
1789222365980489200,4.1344892578125,-6.200197286906838,-7.547467051142454,0.8738935428291559
1789222365990483200,4.144483154296875,-6.209862940874696,-7.542807242637872,0.8450162617824971
1789222366000478200,4.154478271484375,-6.222862123179436,-7.535303150618076,0.8158329104613512
1789222366010472200,4.16447216796875,-6.2423547591567035,-7.523612128302455,0.7737349133137613
1789222366020466400,4.174466552734375,-6.253191210469603,-7.518088980966806,0.7391388162288814
1789222366030460400,4.18446044921875,-6.249270822155475,-7.5204393434852355,0.7483163944188505
1789222366040454400,4.194454345703125,-6.233160229831934,-7.530138315200805,0.7842997080784291
1789222366050448100,4.2044482421875,-6.210838507908583,-7.545996978589892,0.8085835238549858
1789222366060443100,4.214443115234375,-6.199044609740376,-7.556847458428144,0.7976761261977254
1789222366070437000,4.22443701171875,-6.213259597575664,-7.548095412173867,0.7694445226434617
1789222366080431000,4.23443115234375,-6.242906547820568,-7.526191623401641,0.7436026637699454
1789222366090425300,4.24442529296875,-6.260543326798081,-7.514379605054855,0.7142012857839465
1789222366100419300,4.25441943359375,-6.266314895936846,-7.511751010116934,0.6908600115545094
1789222366110414300,4.264414306640625,-6.276794788897037,-7.502424378845095,0.6970400153636932
1789222366120408300,4.274408203125,-6.284246858468651,-7.494380773121118,0.7161584112010896
1789222366130402300,4.28440234375,-6.275813376644253,-7.500709976142645,0.7238054918881506
1789222366140396300,4.294396240234375,-6.268195302855968,-7.507446590921282,0.7199703707046806
1789222366150390300,4.304390380859375,-6.27621143605113,-7.502901933228969,0.697152608892694
1789222366160384300,4.31438427734375,-6.289969912290573,-7.493046309646964,0.6789075618237257
1789222366170379300,4.324379150390625,-6.302452961766719,-7.481496157106757,0.6904331644445657
1789222366180373200,4.334373291015625,-6.312174145314097,-7.471266439515352,0.7120547752745449
1789222366190366500,4.344366455078125,-6.32190351216793,-7.462126855248212,0.7215160657767206
1789222366200360400,4.3543603515625,-6.3207888289242975,-7.46269150339365,0.7254332392204552
1789222366210354700,4.364354736328125,-6.305906901612877,-7.475113178071379,0.7270600367046892
1789222366220348700,4.3743486328125,-6.296680223584175,-7.482510887107253,0.7309133511319756
1789222366230343700,4.38434375,-6.286219619846344,-7.489701090872288,0.7471322992008179
1789222366240337700,4.394337646484375,-6.283550108376145,-7.488817878296971,0.7778190408222377
1789222366250331600,4.40433154296875,-6.301654504865407,-7.472504456877708,0.7881658819872885
1789222366260325600,4.41432568359375,-6.315834421387314,-7.463688697737455,0.7576032051369548
1789222366270319400,4.4243193359375,-6.326177536225319,-7.459546775627135,0.7106546261530369
1789222366280313600,4.434313720703125,-6.336074660861492,-7.452876796343922,0.6922284503635019
1789222366290308400,4.444308349609375,-6.336363414674997,-7.450233003836869,0.7175774842187762
1789222366300302600,4.454302490234375,-6.330048240178823,-7.452842894074321,0.7456547009289264
1789222366310296600,4.464296630859375,-6.3219438441783185,-7.459117152038216,0.7516535760175437
1789222366320290600,4.47429052734375,-6.323298181396723,-7.459000832182168,0.7413504278637468
1789222366330284500,4.484284423828125,-6.317829979118704,-7.465566766569018,0.7216070319958031
1789222366340278500,4.494278564453125,-6.30008389454782,-7.481445888224243,0.7122532935213297
1789222366350273500,4.5042734375,-6.299048121759295,-7.481809460839629,0.7175755845226347
1789222366360267500,4.514267578125,-6.313047421017289,-7.470997559446096,0.7071138117410242
1789222366370261800,4.52426171875,-6.320993996107578,-7.466506677767634,0.6831549901351333
1789222366380255500,4.53425537109375,-6.328949923548102,-7.459756034463644,0.6832367501344532
1789222366390249500,4.54424951171875,-6.335217751771212,-7.454080911436677,0.6870804199505597
1789222366400243500,4.554243408203125,-6.320079803872108,-7.468103007048368,0.6741009652595966
1789222366410238500,4.564238525390625,-6.297910057640076,-7.4862617640733715,0.6801457253165543
1789222366420232400,4.574232421875,-6.291987097331881,-7.491082316097617,0.6818794903066009
1789222366430226700,4.584226806640625,-6.293720204734802,-7.492092369922995,0.6542388383828103
1789222366440220700,4.594220703125,-6.296847396844625,-7.490715820872783,0.6397511710859834
1789222366450214700,4.604214599609375,-6.309683497542142,-7.480376213166117,0.6342378144919872
1789222366460209700,4.614209716796875,-6.325941973903775,-7.469130012008548,0.6041077203726396
1789222366470203600,4.62420361328125,-6.326517727965116,-7.47059833099544,0.5794117070659994
1789222366480197600,4.63419775390625,-6.310100846171379,-7.483648366704583,0.5899374849945307
1789222366490191400,4.64419140625,-6.30192981467545,-7.489442147675156,0.6035950216101482
1789222366500185600,4.654185546875,-6.285254574206471,-7.503491715815663,0.6029755745375529
1789222366510179600,4.6641796875,-6.257646436312794,-7.524842546880245,0.6236946470372379
1789222366520174600,4.674174560546875,-6.24814269490838,-7.531084071618318,0.6433274952027946
1789222366530168600,4.68416845703125,-6.2455649533748625,-7.535683674368262,0.6138236066903918
1789222366540162600,4.69416259765625,-6.257566941335797,-7.529406493794918,0.5668184021484106
1789222366550156500,4.704156494140625,-6.300082140982151,-7.495342896151542,0.5469795100167394
1789222366560150500,4.714150634765625,-6.3248050788283345,-7.475843245911598,0.5281933418083936
1789222366570144800,4.724144775390625,-6.331339449033141,-7.471444134169817,0.5119043607106432
1789222366580139500,4.734139404296875,-6.334266150134802,-7.469427533650398,0.5050784602133557
1789222366590133800,4.7441337890625,-6.310795258176326,-7.489828516644239,0.4967013847513124
1789222366600127500,4.75412744140625,-6.285559110110998,-7.510569691377878,0.5034634262321517
1789222366610121500,4.76412158203125,-6.270950154522061,-7.522062560772896,0.5139483972262591
1789222366620115500,4.774115478515625,-6.258090088427067,-7.533052156820893,0.5097409721316769
1789222366630109400,4.784109375,-6.26778204587996,-7.525315425089001,0.5048958336554468
1789222366640104400,4.7941044921875,-6.2881011958092445,-7.508536139723658,0.5020474219543859
1789222366650098700,4.8040986328125,-6.304594649970531,-7.495755568605661,0.4859139602119103
1789222366660092700,4.8140927734375,-6.329191915610433,-7.476574482795596,0.4610390101417899
1789222366670086700,4.824086669921875,-6.34635464733541,-7.463280701458454,0.43999951004870236
1789222366680080600,4.83408056640625,-6.34475013474822,-7.465560336828231,0.42417960776742547
1789222366690074400,4.844074462890625,-6.337045551720261,-7.472103474861383,0.4241444268561899
1789222366700069600,4.854069580078125,-6.327669236087798,-7.479418181788921,0.43508108714055266
1789222366710063400,4.8640634765625,-6.319924321049451,-7.485448694124817,0.4438406225815415
1789222366720057600,4.8740576171875,-6.326499607786536,-7.479282572710513,0.45401583350673314
1789222366730051600,4.884051513671875,-6.342430751889943,-7.465607098579406,0.4568156568257138
1789222366740045600,4.894045654296875,-6.353461848992109,-7.457509716841578,0.4352606449585408
1789222366750040600,4.90404052734375,-6.359265566834807,-7.453716754299402,0.41501857885345816
1789222366760034600,4.91403466796875,-6.368336177518963,-7.4456918532758944,0.4199241422800347
1789222366770028500,4.924028564453125,-6.36797026681602,-7.444989257964491,0.43758324268721044
1789222366780022500,4.9340224609375,-6.353941741463542,-7.456317292186617,0.44848545271269974
1789222366790016800,4.944016845703125,-6.346365168729424,-7.461485050213336,0.469339440171048
1789222366800010500,4.954010498046875,-6.347232599213719,-7.458617970344424,0.5020383983977139
1789222366810005800,4.964005859375,-6.342622475069761,-7.462270063111186,0.5060166543789207
1789222366819999500,4.97399951171875,-6.336583779427409,-7.469138779836893,0.47963838707376266
1789222366829993500,4.983993408203125,-6.351043097412586,-7.457844647884368,0.4638777772316709
1789222366839987500,4.993987548828125,-6.370963603413105,-7.441268191614746,0.45688821060527113
1789222366849981400,5.0039814453125,-6.3692006853938095,-7.44448832270503,0.42808523690383876
1789222366859975700,5.0139755859375,-6.356952613717318,-7.455511821022629,0.4181816094616428
1789222366869970700,5.023970703125,-6.346504869461059,-7.461917011889815,0.46049449146892873
1789222366879964700,5.033964599609375,-6.323856984323263,-7.478085471880435,0.5073955049840733
1789222366889958700,5.043958740234375,-6.3008227302163835,-7.497004691883921,0.5147142670322209
1789222366899952600,5.05395263671875,-6.304627967718243,-7.494108970442414,0.5102832623148337
1789222366909946600,5.063946533203125,-6.326965471732616,-7.475313084557652,0.5095079305607825
1789222366919940400,5.0739404296875,-6.344225234091281,-7.461776142114401,0.49304063375405965
1789222366929935400,5.083935302734375,-6.359685838073491,-7.450458629286289,0.4641720840031281
1789222366939929600,5.0939296875,-6.36397739778757,-7.448195945051312,0.441074117010273
1789222366949923600,5.103923583984375,-6.347790817618369,-7.461966696250438,0.44156785534396764
1789222366959917600,5.11391748046875,-6.326783100903034,-7.478062675526738,0.4698673730352893
1789222366969911600,5.12391162109375,-6.302499723517895,-7.4958391552358865,0.5111475509939715
1789222366979905500,5.133905517578125,-6.286137786781787,-7.506661578023433,0.5521586662203073
1789222366989900500,5.143900634765625,-6.286437646511197,-7.504913273051381,0.5721577173497527
1789222366999894500,5.15389453125,-6.295351020807027,-7.498589330726862,0.5568674649657681
1789222367009888800,5.163888671875,-6.305556188479065,-7.492292276409268,0.5252671156307682
1789222367019882800,5.1738828125,-6.309416955560446,-7.491109788626432,0.49488428885936736
1789222367029876500,5.18387646484375,-6.30965017979443,-7.491202727606892,0.4904852136502042
1789222367039871500,5.19387158203125,-6.303997853121161,-7.494035320684313,0.5190736678181216
1789222367049865500,5.203865478515625,-6.295874167898297,-7.4982842103004455,0.5550607078047469
1789222367059859500,5.213859375,-6.298467107000946,-7.494670111456513,0.5741178384415805
1789222367069853400,5.223853515625,-6.296274565392732,-7.496549349331855,0.5736329410014673
1789222367079847700,5.23384765625,-6.292526026514172,-7.498899127328396,0.5839648768583312
1789222367089841700,5.243841552734375,-6.298361308538913,-7.492205767169595,0.6065363357590511
1789222367099836700,5.253836669921875,-6.308981486752629,-7.482434899261594,0.6166826493833214
1789222367109830700,5.26383056640625,-6.31636575178504,-7.477961553239822,0.5949804110651835
1789222367119824600,5.27382470703125,-6.3256315927803515,-7.471562207591533,0.5766565266063437
1789222367129818600,5.283818603515625,-6.333399304172397,-7.464269127973914,0.5857761275313794
1789222367139812400,5.293812255859375,-6.327305078950524,-7.467365340423584,0.6116028619010001
1789222367149806600,5.303806640625,-6.311821678614616,-7.476583250623941,0.6572612549439072
1789222367159801600,5.313801513671875,-6.300178002572059,-7.4833736414164305,0.6908405031364411
1789222367169795600,5.323795654296875,-6.294315832540392,-7.486787833774089,0.7070929881487041
1789222367179789600,5.33378955078125,-6.276787774634361,-7.501049583360552,0.7117426405854522
1789222367189783600,5.343783447265625,-6.258900820288062,-7.517817178288102,0.6920722368884831
1789222367199778600,5.353778564453125,-6.258592192730307,-7.520066418519615,0.6700806967675685
1789222367209772500,5.3637724609375,-6.270381414723396,-7.509908597120642,0.6737662534125148
1789222367219767600,5.373767578125,-6.298682211056351,-7.482364756634831,0.714978480701521
1789222367229761500,5.383761474609375,-6.3314294654041525,-7.450858442258834,0.7537256330512464
1789222367239755500,5.393755615234375,-6.351889485108852,-7.433935364508629,0.7486605316814035
1789222367249749500,5.40374951171875,-6.354264982068538,-7.434679460874199,0.7205809038184583
1789222367259743500,5.413743408203125,-6.343772229626774,-7.442540695768594,0.7318023358609527
1789222367269738500,5.423738525390625,-6.328050344359874,-7.4534227397888895,0.7567351901307702
1789222367279732500,5.433732421875,-6.307107509574294,-7.471236044377088,0.7559202204860747
1789222367289726500,5.4437265625,-6.303402225315571,-7.473122881036996,0.7680788603134453
1789222367299720400,5.453720458984375,-6.311687823101877,-7.463141585248708,0.7965536249738187
1789222367309714400,5.46371435546875,-6.315589506715535,-7.458354350972175,0.8103546982459724
1789222367319708700,5.473708740234375,-6.329105406370759,-7.446568051588535,0.8132765770420431
1789222367329703700,5.48370361328125,-6.348060282209516,-7.429443898308277,0.8221194433849305
1789222367339697700,5.49369775390625,-6.354352075830102,-7.423197697395086,0.8298986260190606
1789222367349691600,5.503691650390625,-6.345835591897368,-7.43219816545248,0.8143656143877654
1789222367359685400,5.513685302734375,-6.33322394760549,-7.445109084951877,0.7943575031690299
1789222367369679400,5.523679443359375,-6.33328064622879,-7.443693957456946,0.8070729731615632
1789222367379673600,5.533673583984375,-6.334515156459808,-7.44014240245521,0.8298133588884026
1789222367389668400,5.54366845703125,-6.340926192545891,-7.433588158506154,0.8395299393258988
1789222367399662600,5.55366259765625,-6.347562269559503,-7.426293325322866,0.8538203304849564
1789222367409656600,5.563656494140625,-6.335204892289638,-7.432696178102493,0.8891524867594242
1789222367419650600,5.573650634765625,-6.321563904950023,-7.440884745255112,0.9173041569452732
1789222367429644500,5.58364453125,-6.3154275941520925,-7.44795746012032,0.9020468935154378
1789222367439638500,5.593638427734375,-6.315801688161492,-7.449390707793832,0.8874756395883858
1789222367449633500,5.603633544921875,-6.330429932972788,-7.434291338339447,0.9095891986537724
1789222367459627500,5.61362744140625,-6.338216933587193,-7.423653039947152,0.9416863915950059
1789222367469621500,5.62362158203125,-6.334099561396241,-7.423704477873444,0.9685951490476727
1789222367479615500,5.633615478515625,-6.323728389507532,-7.430412451079487,0.9847962691988795
1789222367489609500,5.643609375,-6.3223156001001595,-7.432438988471031,0.9785518218513578
1789222367499603500,5.653603515625,-6.330360374867916,-7.428712661424279,0.9545420737758278
1789222367509598500,5.663598388671875,-6.323325069403648,-7.4341183198601,0.9590721914861351
1789222367519592400,5.673592529296875,-6.323216932854056,-7.428035200554132,1.0057856465399264
1789222367529586400,5.68358642578125,-6.338004752141237,-7.410904033011198,1.038547587000206
1789222367539580700,5.69358056640625,-6.336341787365079,-7.409613408678769,1.0577277960274367
1789222367549574700,5.70357470703125,-6.318372415432334,-7.417410346165299,1.1093169673588126
1789222367559569700,5.713569580078125,-6.3006152249455445,-7.430404852294921,1.123264536429569
1789222367569563600,5.723563720703125,-6.275839680129289,-7.461988323560357,1.050214570853114
1789222367579557400,5.733557373046875,-6.276255275192856,-7.466668590331077,1.0138365587875247
1789222367589551400,5.74355126953125,-6.328122825074195,-7.414604056572914,1.0718665037561208
1789222367599545600,5.753545654296875,-6.373243238782882,-7.367682730922103,1.1266782903958112
1789222367609539600,5.76353955078125,-6.387892526382207,-7.358440855324268,1.1038830326765776
1789222367619534600,5.77353466796875,-6.3928545327037565,-7.358640177288651,1.0734130756109952
1789222367629528600,5.783528564453125,-6.368968630203605,-7.374477213367819,1.1062201703872532
1789222367639522600,5.7935224609375,-6.314623876553774,-7.409885795879363,1.1787684700518846
1789222367649516500,5.8035166015625,-6.271532922846078,-7.434974059906602,1.2487645279504358
1789222367659510500,5.813510498046875,-6.276994110861421,-7.423654793512821,1.2880524361133574
1789222367669504500,5.82350439453125,-6.297324951228499,-7.406039057323336,1.290219404888898
1789222367679499500,5.83349951171875,-6.318047421261668,-7.389562554296851,1.2833626708619297
1789222367689493500,5.843493408203125,-6.355030705744028,-7.360431736880541,1.2680711398363114
1789222367699487500,5.853487548828125,-6.38082039603889,-7.3428066483408205,1.2404440049812198
1789222367709481500,5.8634814453125,-6.380771296200156,-7.345561500006914,1.2242829976446925
1789222367719475500,5.873475341796875,-6.3739873351484535,-7.350373868724703,1.2307215062595904
1789222367729470500,5.883470458984375,-6.363499843403696,-7.354822664827108,1.2581107407055794
1789222367739464400,5.89346435546875,-6.3386459726542235,-7.366879013323784,1.311885293252021
1789222367749458400,5.90345849609375,-6.304221725004911,-7.389553201946616,1.3496926074683666
1789222367759452700,5.91345263671875,-6.293585180178284,-7.397369428655505,1.3564995110042393
1789222367769446700,5.92344677734375,-6.3078469297647475,-7.386461081150173,1.34968617772758
1789222367779440400,5.9334404296875,-6.331403161919116,-7.374356217336654,1.3048331827834247
1789222367789435600,5.943435546875,-6.377625399389863,-7.344535664090514,1.2466256162256002
1789222367799429400,5.953429443359375,-6.410878849694132,-7.319338094469905,1.22405474184677
1789222367809423400,5.96342333984375,-6.395498325210809,-7.331795424982905,1.2299445305377243
1789222367819417600,5.97341748046875,-6.3657648657262325,-7.35955670761168,1.218339725200832
1789222367829411600,5.98341162109375,-6.338961029952764,-7.381953832858801,1.2225861305989325
1789222367839405600,5.993405517578125,-6.294140475973487,-7.40955787909925,1.2855442526847123
1789222367849400600,6.003400634765625,-6.247475170910358,-7.441402631649375,1.3285207862325012
1789222367859394600,6.01339453125,-6.259246272724867,-7.4370087806046,1.297353202291578
1789222367869388500,6.023388427734375,-6.303686302953958,-7.412530172908306,1.2199671072069556
1789222367879382500,6.033382568359375,-6.3195625019997355,-7.407063139674067,1.1700095556654035
1789222367889376500,6.04337646484375,-6.344223480525613,-7.391836344447731,1.1322376780886203
1789222367899371500,6.05337158203125,-6.370724533960223,-7.380353411924839,1.0557581764549016
1789222367909365500,6.063365478515625,-6.3557876615911715,-7.399095521795749,1.0137723344448952
1789222367919359500,6.073359375,-6.331996451637148,-7.415001531457901,1.0459293678145856
1789222367929353500,6.083353515625,-6.3076891088545315,-7.434301859733462,1.0557512352574616
1789222367939347500,6.093347412109375,-6.264687002474069,-7.471644625177979,1.0481478475816548
1789222367949341400,6.103341552734375,-6.232071265551448,-7.49726714221239,1.0595544999979436
1789222367959336400,6.11333642578125,-6.235527543485165,-7.499542101407051,1.0224717737291007
1789222367969330400,6.123330322265625,-6.260082139027118,-7.490873641782999,0.9319705418098717
1789222367979324700,6.13332470703125,-6.280232362130284,-7.47846950276196,0.8952977115161717
1789222367989318700,6.143318603515625,-6.300113120642304,-7.459885213801265,0.9105346628103405
1789222367999312400,6.1533125,-6.320301337668299,-7.448067350235581,0.8662951966546475
1789222368009306400,6.163306396484375,-6.329086117148399,-7.45006524605453,0.780759112862125
1789222368019301400,6.17330126953125,-6.322663390624522,-7.459554374411701,0.7411881499741226
1789222368029295400,6.18329541015625,-6.293664675155282,-7.482187646502256,0.7596295233327895
1789222368039289600,6.19328955078125,-6.256151813840866,-7.510059988290071,0.7936989661950618
1789222368049283600,6.20328369140625,-6.226935656228661,-7.533622650185227,0.8001178202614188
1789222368059277600,6.213277587890625,-6.228716694426536,-7.534069809430838,0.7818289340507238
1789222368069271600,6.223271484375,-6.260240544459223,-7.512762817507982,0.7335887078210711
1789222368079266600,6.2332666015625,-6.281872530552745,-7.500483766171336,0.671715312232077
1789222368089260500,6.243260498046875,-6.30515520646274,-7.484752528554201,0.6276074365667998
1789222368099254500,6.253254638671875,-6.325215997716784,-7.470879486024379,0.5899079301064833
1789222368109248500,6.26324853515625,-6.320640360364317,-7.47669606334865,0.5647074744090438
1789222368119242500,6.273242431640625,-6.307632994753122,-7.486493234741688,0.5801534653440118
1789222368129236500,6.283236572265625,-6.282397431209683,-7.505043036910891,0.6133482442636042
1789222368139231500,6.2932314453125,-6.249334535041451,-7.531130833369493,0.6310829306576401
1789222368149225500,6.3032255859375,-6.21097470150888,-7.563027023845911,0.6283257409039884
1789222368159219500,6.313219482421875,-6.18646745223999,-7.584687651512026,0.6086974593156949
1789222368169213400,6.32321337890625,-6.199650758939981,-7.576524218800664,0.5753151949999854
1789222368179207700,6.333207763671875,-6.2244783262044185,-7.557924147748946,0.5513944769147783
1789222368189202400,6.343202392578125,-6.256416017735004,-7.530719329959154,0.5620558273890987
1789222368199196700,6.35319677734375,-6.297711904719471,-7.495497209930419,0.5716139293292537
1789222368209190700,6.363190673828125,-6.319532106861471,-7.4785665333956475,0.5522083505809307
1789222368219184600,6.3731845703125,-6.315481370165943,-7.482506210932135,0.5451521849917248
1789222368229178600,6.3831787109375,-6.293244988438487,-7.501337168130278,0.5434962344782427
1789222368239172600,6.393172607421875,-6.262994811603426,-7.526410819110274,0.5462888608714566
1789222368249167600,6.403167724609375,-6.248712019228935,-7.53604023272097,0.5762551427312195
1789222368259161600,6.41316162109375,-6.240346341943741,-7.540196183356643,0.6114698831710964
1789222368269155800,6.42315576171875,-6.255138252884149,-7.52662358507812,0.6273411137808114
1789222368279149600,6.433149658203125,-6.275902808493376,-7.510596579384804,0.6118512837041169
1789222368289143600,6.4431435546875,-6.286833367830514,-7.504063378223776,0.5789131098940968
1789222368299137500,6.453137451171875,-6.310960677871107,-7.486518369182944,0.5423929494114592
1789222368309132500,6.463132568359375,-6.316264044976234,-7.483626739394665,0.5201105731178075
1789222368319126500,6.47312646484375,-6.2995531486719845,-7.497176541319489,0.5275943164693191
1789222368329120500,6.48312060546875,-6.287658128216862,-7.505781872579455,0.5467860698038712
1789222368339114800,6.49311474609375,-6.277277603977918,-7.512919469374418,0.5676275631068274
1789222368349108700,6.503108642578125,-6.268850551894307,-7.518183673512935,0.5905977755341678
1789222368359103700,6.513103759765625,-6.2636120667189354,-7.522736514511704,0.5882098940169438
1789222368369097700,6.52309765625,-6.274226399713754,-7.516441213759779,0.5545955745110288
1789222368379091700,6.533091796875,-6.290085647624731,-7.507343130546808,0.49498376717846837
1789222368389085400,6.54308544921875,-6.2942684862673275,-7.505840324768424,0.46360009280145165
1789222368399079700,6.55307958984375,-6.299386559933423,-7.501548765054345,0.46353462634980674
1789222368409073700,6.56307373046875,-6.30687194725275,-7.497021643018722,0.4340649689005688
1789222368419068700,6.573068603515625,-6.304609263017773,-7.500447525814175,0.40690395371988414
1789222368429062700,6.583062744140625,-6.311418943032622,-7.4931217129707335,0.4353204123217612
1789222368439056600,6.593056640625,-6.328772813415527,-7.479045256823301,0.42532187313772735
1789222368449050600,6.603050537109375,-6.323894393724203,-7.487042685317992,0.3506280858770013
1789222368459044600,6.613044677734375,-6.31088235193789,-7.499162162178754,0.32512711286302654
1789222368469038800,6.623038818359375,-6.317956235846877,-7.492583952832222,0.33910120461452753
1789222368479033600,6.63303369140625,-6.317248964360356,-7.494486571583152,0.3088896062241867
1789222368489027800,6.64302783203125,-6.305505919596553,-7.5056152838408945,0.2769938176065683
1789222368499021600,6.653021484375,-6.31496640638113,-7.497949863779544,0.268923451739829
1789222368509015600,6.663015625,-6.332727688521146,-7.484089096209407,0.23527318413769824
1789222368519009500,6.673009521484375,-6.3478656364202495,-7.472383460846543,0.19614815665259955
1789222368529004500,6.683004638671875,-6.376770828387141,-7.448321617257594,0.17231065987143665
1789222368538998500,6.69299853515625,-6.381877796137332,-7.444505858361721,0.14610879944595506
1789222368548992500,6.702992431640625,-6.372593834963441,-7.452696763601899,0.13321797288651577
1789222368558986800,6.71298681640625,-6.362257149866223,-7.461405555236339,0.13965229851664043
1789222368568980700,6.722980712890625,-6.336873702284693,-7.483021759238839,0.13711565617849117
1789222368578974700,6.732974609375,-6.321153570583462,-7.496714184504747,0.11258881629314273
1789222368588969700,6.7429697265625,-6.315023105004429,-7.501966113683581,0.10667409409033134
1789222368598963700,6.752963623046875,-6.32742373689413,-7.491316709375381,0.11944727648631669
1789222368608957400,6.76295751953125,-6.345023690992593,-7.476521875825524,0.11257958267391659
1789222368618951700,6.77295166015625,-6.356479735508561,-7.466982478585839,0.09856190750901586
1789222368628945700,6.782945556640625,-6.379654859390855,-7.447295196819305,0.09052681388505734
1789222368638939600,6.792939697265625,-6.389575949424505,-7.439153391417861,0.051985865331650706
1789222368648934700,6.8029345703125,-6.384730262959003,-7.443474177226424,0.01732903505245922
1789222368658928600,6.8129287109375,-6.377112189170718,-7.449896319228411,0.043317428540484974
1789222368668922600,6.822922607421875,-6.364568933939934,-7.459966462343931,0.10749738403880037
1789222368678916600,6.83291650390625,-6.352654039740562,-7.469089095476269,0.1639788300569169
1789222368688910800,6.842910888671875,-6.3501581312716,-7.470293210569023,0.20150040440075098
1789222368698905600,6.852905517578125,-6.344684668296575,-7.474825008779764,0.20582133633978664
1789222368708899800,6.86289990234375,-6.331654506331682,-7.486224939194321,0.19228444869546218
1789222368718893600,6.8728935546875,-6.3301458553344006,-7.487161927783489,0.20504041509516535
1789222368728887600,6.882887451171875,-6.352068933328986,-7.467487505498528,0.24130787945836782
1789222368738881500,6.892881591796875,-6.377113942736387,-7.446032045015692,0.24373077749004587
1789222368748875500,6.90287548828125,-6.394162108170986,-7.431742822900414,0.23297760228011755
1789222368758870500,6.91287060546875,-6.4031602381408215,-7.423049813356995,0.2612738503021188
1789222368768864500,6.922864501953125,-6.390732133722305,-7.432004688706994,0.30698351687453684
1789222368778858800,6.932858642578125,-6.3639107622921465,-7.453686359161138,0.3370460987156257
1789222368788852700,6.942852783203125,-6.343704425087571,-7.469603474739193,0.3644360272813588
1789222368798846700,6.9528466796875,-6.334480085146427,-7.475393164056539,0.40403164968658234
1789222368808840700,6.9628408203125,-6.330742652183771,-7.476168824604153,0.4460750671027228
1789222368818835700,6.972835693359375,-6.347357686898112,-7.4596917370557785,0.48417263296991586
1789222368828829400,6.982829345703125,-6.371137206414342,-7.439078572615981,0.48897466295678166
1789222368838823700,6.99282373046875,-6.371387966305017,-7.439926713877916,0.4725260708505287
1789222368848817700,7.002817626953125,-6.374938936784863,-7.43674866836369,0.47467539437152445
1789222368858811600,7.012811767578125,-6.384410529485344,-7.427224468693137,0.4960120142476633
1789222368868805600,7.0228056640625,-6.364889836457372,-7.440732185041904,0.5422700902167708
1789222368878800600,7.032800537109375,-6.339903863760829,-7.457595057037472,0.6002301482869312
1789222368888794600,7.042794677734375,-6.33779490878284,-7.456813551270962,0.631405221414566
1789222368898788600,7.05278857421875,-6.32796558868587,-7.465735108873248,0.6245262755557894
1789222368908782800,7.062782958984375,-6.318840032944083,-7.4736179710775605,0.6226427268315107
1789222368918776800,7.07277685546875,-6.333737742346525,-7.460686008790135,0.6263470612421631
1789222368928771800,7.082771728515625,-6.354815017166733,-7.442220962294936,0.6325013460882007
1789222368938765600,7.092765625,-6.362340151974559,-7.435099147590995,0.6405524044662714
1789222368948759600,7.102759521484375,-6.369936013931036,-7.428091899177431,0.6463355909775942
1789222368958753500,7.11275341796875,-6.3754924790143965,-7.4252622287094585,0.6236599410500377
1789222368968747500,7.12274755859375,-6.360739731040597,-7.439576585265994,0.603372099574469
1789222368978741800,7.13274169921875,-6.3370414600670335,-7.456930455648899,0.6375565836511552
1789222368988736500,7.142736572265625,-6.31860330157876,-7.468138662883639,0.6874099441658705
1789222368998730800,7.152730712890625,-6.307556422385573,-7.476329568123817,0.6997222401849925
1789222369008724700,7.162724853515625,-6.307198110467195,-7.4780457243919365,0.6844597160581499
1789222369018718700,7.17271875,-6.330251653796434,-7.462440158981084,0.6405292427863926
1789222369028712700,7.182712646484375,-6.359767086616158,-7.443977450573444,0.557616712430492
1789222369038706400,7.19270654296875,-6.380723949927091,-7.4297624627381555,0.5053423718465492
1789222369048701700,7.20270166015625,-6.395064025446772,-7.416191033503413,0.5231170979900285
1789222369058695700,7.21269580078125,-6.390084483468532,-7.419788181212544,0.5328687132082879
1789222369068689700,7.222689697265625,-6.368271880111098,-7.4409788532793515,0.49732791915182023
1789222369078683600,7.23268359375,-6.349680576887726,-7.459316474002599,0.4588526060134172
1789222369088677600,7.242677734375,-6.341451677724718,-7.467123348361254,0.4454729364911094
1789222369098672600,7.252672607421875,-6.319395913261175,-7.4849641254782675,0.459262867314741
1789222369108666600,7.26266650390625,-6.2719964487046,-7.523668826925754,0.4762949949299916
1789222369118660600,7.27266064453125,-6.234261469072103,-7.553558353754878,0.49813499775100495
1789222369128654600,7.282654541015625,-6.231448165217041,-7.55469291074276,0.5158121087389067
1789222369138648800,7.29264892578125,-6.260258664637804,-7.531797772845626,0.501561209340021
1789222369148642600,7.302642578125,-6.321784269702434,-7.4836653178393835,0.44741997890565544
1789222369158637800,7.312637939453125,-6.386820513236522,-7.431365806281566,0.39205720731969923
1789222369168631600,7.322631591796875,-6.424711560213566,-7.399457340845466,0.37616471472624685
1789222369178625500,7.33262548828125,-6.428832439535856,-7.395619954639673,0.381196973272413
1789222369188619500,7.34261962890625,-6.412019251900911,-7.410069920274615,0.3837241536624729
1789222369198613800,7.35261376953125,-6.377291637390852,-7.437742355576157,0.4248934551252052
1789222369208607700,7.362607666015625,-6.325515272924304,-7.477343713602424,0.49757177437767386
1789222369218602800,7.372602783203125,-6.289443258067966,-7.504948928886652,0.5376140080392361
1789222369228596700,7.3825966796875,-6.299288360255956,-7.4962798847407095,0.5432741892253979
1789222369238590700,7.3925908203125,-6.32184798258841,-7.475874810093641,0.5620689791316166
1789222369248584700,7.402584716796875,-6.363295260742306,-7.43833330720663,0.5916525087514892
1789222369258578400,7.412578369140625,-6.418738915544748,-7.392054371112585,0.5724521337190642
1789222369268573700,7.42257373046875,-6.445673099699616,-7.373140411806106,0.510385626710765
1789222369278567700,7.432567626953125,-6.457119791865348,-7.365267486473917,0.4783544847430661
1789222369288561700,7.442561767578125,-6.452784977531433,-7.369649647080898,0.46925746097601945
1789222369298555600,7.4525556640625,-6.424812682500481,-7.393024092927575,0.485146556035988
1789222369308549600,7.462549560546875,-6.396316655856371,-7.412683902165293,0.5564466457378119
1789222369318543600,7.472543701171875,-6.372690281075239,-7.42660195288062,0.6362322031795978
1789222369328538600,7.48253857421875,-6.342782634067535,-7.448732536146045,0.6751936558671295
1789222369338532600,7.49253271484375,-6.324099560907483,-7.464764218014478,0.6733900405112654
1789222369348526600,7.502526611328125,-6.342812444683909,-7.452723067086935,0.6293091989833861
1789222369358520800,7.512520751953125,-6.376371599936485,-7.429116566050052,0.5661258533069864
1789222369368514600,7.5225146484375,-6.3949237401932475,-7.415666132846474,0.532189096913673
1789222369378508500,7.532508544921875,-6.4057911711663005,-7.406134334391355,0.53423561764732
1789222369388503600,7.542503662109375,-6.403448407432436,-7.407090612202882,0.5488519893577322
1789222369398497500,7.55249755859375,-6.388863417240977,-7.419196645060182,0.5552732545768841
1789222369408491500,7.562491455078125,-6.37619448980391,-7.430982359921932,0.5431695598071441
1789222369418485800,7.57248583984375,-6.369010131257772,-7.437483412379026,0.5384605783985927
1789222369428479700,7.582479736328125,-6.35778731097579,-7.445670810487866,0.557598665317148
1789222369438474800,7.592474853515625,-6.340903396192193,-7.459391292804479,0.5664088349668309
1789222369448468700,7.60246875,-6.331010363209248,-7.467877381598949,0.5652352611428126
1789222369458462700,7.612462646484375,-6.335550929248333,-7.464069221487641,0.5646671058660373
1789222369468456700,7.622456787109375,-6.340794675120711,-7.460890591451525,0.5475514281531796
1789222369478450400,7.632450439453125,-6.346569166868925,-7.457491596662997,0.5265769926529378
1789222369488444700,7.642444580078125,-6.357322616073489,-7.448992648386954,0.5170582363424823
1789222369498439400,7.652439453125,-6.359342723724246,-7.447808407038449,0.509216290670447
1789222369508433700,7.66243359375,-6.353768138462304,-7.453212311908603,0.49964313729163257
1789222369518427600,7.672427734375,-6.343788596239686,-7.461604292678833,0.5011914992447942
1789222369528421600,7.682421630859375,-6.337742886334658,-7.466642286846041,0.5026488219136372
1789222369538415600,7.69241552734375,-6.329788712459802,-7.474383110231161,0.48759584888424723
1789222369548409600,7.70240966796875,-6.324576530769467,-7.479258607313036,0.48041908912267534
1789222369558404600,7.712404541015625,-6.324400589680671,-7.478349675774574,0.49661323154382403
1789222369568398600,7.722398681640625,-6.328480552470683,-7.474199570357799,0.5070095013411715
1789222369578392800,7.732392822265625,-6.334645504841208,-7.469533916634321,0.4987132360303774
1789222369588386600,7.742386474609375,-6.329986865380406,-7.474747267368436,0.47937692312598223
1789222369598380500,7.752380615234375,-6.3195765305250875,-7.484561389896273,0.46332445419784635
1789222369608375600,7.76237548828125,-6.3226721584528685,-7.4821677727580065,0.4597408966226503
1789222369618369500,7.77236962890625,-6.323519715192914,-7.481331906455755,0.4616846145689487
1789222369628363500,7.782363525390625,-6.315442207199335,-7.487194661009311,0.47696328611299393
1789222369638357800,7.792357666015625,-6.323031054893136,-7.479417597267031,0.49797410810086873
1789222369648351700,7.802351806640625,-6.338380015194415,-7.465434080100059,0.5124607159517706
1789222369658345700,7.812345703125,-6.347904799386859,-7.457129777613281,0.5154556599840522
1789222369668340700,7.8223408203125,-6.349427478909492,-7.457517315626144,0.4905039183506742
1789222369678334700,7.832334716796875,-6.357411463400721,-7.453034032732248,0.4538704702192917
1789222369688328700,7.84232861328125,-6.383695074692368,-7.431928116339445,0.43040662905611093
1789222369698322400,7.852322509765625,-6.388686891630291,-7.426822317633032,0.44428913353402166
1789222369708316700,7.862316650390625,-6.375339918801188,-7.4347338214099405,0.500166247850284
1789222369718310700,7.872310546875,-6.373761125177144,-7.433985633391141,0.5304812700824811
1789222369728305700,7.8823056640625,-6.365411229982972,-7.442849907848238,0.5058861963996664
1789222369738299600,7.892299560546875,-6.357593834230303,-7.450151170772314,0.4966221089700237
1789222369748293600,7.902293701171875,-6.364461966434121,-7.444210674807429,0.4977350021153688
1789222369758287600,7.91228759765625,-6.3722045433849095,-7.439072727397083,0.47496922621894627
1789222369768281600,7.922281494140625,-6.38607875495851,-7.427282336360216,0.4731489885218441
1789222369778276600,7.932276611328125,-6.394613359069824,-7.417322083359957,0.5124874578282237
1789222369788270600,7.9422705078125,-6.403827762138843,-7.408774035245179,0.5209978042811155
1789222369798264800,7.952264892578125,-6.41021132569611,-7.406140764132141,0.47817163898944853
1789222369808258600,7.962258544921875,-6.397565779134631,-7.4181030046045775,0.46183191408514973
1789222369818252500,7.97225244140625,-6.386610085356235,-7.425738614049553,0.48990872893650084
1789222369828246500,7.98224658203125,-6.375396617424488,-7.434481307953596,0.503182490398921
1789222369838241500,7.992241455078125,-6.357361779040098,-7.450490193468331,0.4945096103280782
1789222369848235500,8.002235595703125,-6.351171692228317,-7.455452784311771,0.4992167285731062
1789222369858229800,8.012229736328125,-6.346020885336399,-7.459338101312517,0.506631242613308
1789222369868223700,8.0222236328125,-6.344606342363357,-7.460614112597703,0.5055540053032338
1789222369878217700,8.0322177734375,-6.357631828153133,-7.448996740040182,0.5131794221477582
1789222369888211700,8.042211669921874,-6.373874522423744,-7.434359727400541,0.5238460333190859
1789222369898206700,8.052206787109375,-6.391299119955301,-7.420815186172724,0.5031763529190794
1789222369908200700,8.06220068359375,-6.39822044365108,-7.417454185307025,0.46317481659408655
1789222369918194400,8.0721943359375,-6.398015860989689,-7.418179576972126,0.45429202009961006
1789222369928188700,8.082188720703124,-6.391836880093813,-7.422529004353285,0.4699698835616931
1789222369938182700,8.0921826171875,-6.377082963076234,-7.434511703091859,0.48086749047730115
1789222369948176600,8.1021767578125,-6.363365403369069,-7.445676071184873,0.4897748368911445
1789222369958171600,8.112171630859375,-6.367412048411369,-7.441752175739407,0.4967690431600436
1789222369968165600,8.12216552734375,-6.370307769852876,-7.4394251940965646,0.494492878388986
1789222369978159600,8.13215966796875,-6.354169705000519,-7.453146260935068,0.4955057817585766
1789222369988153600,8.142153564453125,-6.355113123330473,-7.452572844961285,0.49201709939260035
1789222369998147800,8.15214794921875,-6.36373599024713,-7.447268893334269,0.45981633647903797
1789222370008142600,8.162142578125,-6.362248382037878,-7.450223066964745,0.4316842477764934
1789222370018136800,8.17213671875,-6.371757968661188,-7.442805484184622,0.4192098930634558
1789222370028130600,8.182130615234374,-6.364181395927071,-7.450583716970682,0.39545864979363976
1789222370038124500,8.19212451171875,-6.344311743330955,-7.468200037682056,0.38221528346948325
1789222370048118500,8.202118408203125,-6.337524275147914,-7.473253813940286,0.395798366609402
1789222370058112500,8.212112548828125,-6.320403628998995,-7.487125687426328,0.4072200339317322
1789222370068107500,8.222107421875,-6.313067294761538,-7.493632585102319,0.40128867112137373
1789222370078101800,8.232101806640625,-6.326812911519408,-7.483420403167605,0.3744784786723554
1789222370088095700,8.242095703125,-6.33076252592802,-7.481530059376358,0.34429292803872374
1789222370098089700,8.25208984375,-6.341003933957219,-7.473531461837887,0.32920740444660185
1789222370108083700,8.262083740234376,-6.345583662962913,-7.470516497930884,0.3087647377355024
1789222370118078700,8.27207861328125,-6.340567296105623,-7.475463306683301,0.29163092157775533
1789222370128072700,8.28207275390625,-6.349252122342586,-7.467952784922718,0.29507543600844216
1789222370138066400,8.29206640625,-6.358772814881801,-7.4603972549766295,0.28081892885267734
1789222370148060700,8.302060791015625,-6.370139427548646,-7.451492063987255,0.2587940709840506
1789222370158054700,8.3120546875,-6.37541181499362,-7.446980724042653,0.25882742526438085
1789222370168048600,8.322048583984374,-6.370173329818249,-7.451158301988244,0.2674040418865159
1789222370178043600,8.332043701171875,-6.361015625372529,-7.459252176594734,0.25965543705374
1789222370188037600,8.34203759765625,-6.337350672146678,-7.479600552618503,0.25287253544796257
1789222370198030800,8.35203076171875,-6.319164442592859,-7.493797420275211,0.28557147540831934
1789222370208025000,8.362025146484376,-6.316854996606708,-7.494015446940064,0.32780130050834266
1789222370218019000,8.37201904296875,-6.3204316860497,-7.4906971161723135,0.3346492667069658
1789222370228012800,8.3820126953125,-6.335042979726195,-7.478940042883157,0.3210507302695885
1789222370238007800,8.3920078125,-6.347284037140011,-7.468847103413939,0.3141520933296531
1789222370248001800,8.402001708984375,-6.344613941147923,-7.470977685701847,0.31740758799426255
1789222370257995800,8.411995849609376,-6.332246627005935,-7.480841492590308,0.3317466406006366
1789222370267989800,8.42198974609375,-6.323938232865929,-7.487112827944755,0.3483250696316361
1789222370277984000,8.43198388671875,-6.309643165531754,-7.498903218981623,0.3538775891922414
1789222370287979000,8.44197900390625,-6.3018070650786155,-7.504660759595036,0.37105613954085853
1789222370297973000,8.451972900390626,-6.304078517141938,-7.50105425953567,0.4039360072923824
1789222370307967000,8.461967041015624,-6.307423151394724,-7.496922274297475,0.4277395652713254
1789222370317961000,8.4719609375,-6.326625864514708,-7.480164031720161,0.4374312304632738
1789222370327955000,8.481954833984375,-6.3421823300868265,-7.4667007390350095,0.4421434998074546
1789222370337948700,8.49194873046875,-6.337353594756126,-7.4707795327812425,0.4424896463640034
1789222370347943700,8.501943603515626,-6.321677302196622,-7.4841300127416845,0.44111298771593715
1789222370357938000,8.51193798828125,-6.306587869614362,-7.495941446566581,0.45628476481940594
1789222370367932000,8.521931884765625,-6.288486395734548,-7.508615050178766,0.4960135851502418
1789222370377926000,8.53192578125,-6.270575475990772,-7.52044986487925,0.5413824571946636
1789222370387920000,8.541919921875,-6.277316766944527,-7.512778015077114,0.5690874065263196
1789222370397913900,8.551913818359376,-6.299650179305672,-7.49366882545948,0.5742234907731414
1789222370407908900,8.561908935546874,-6.318238559919595,-7.478738967353105,0.5645492516400292
1789222370417902800,8.57190283203125,-6.325083311247825,-7.474452668336033,0.5443020344357937
1789222370427897000,8.58189697265625,-6.324393575417995,-7.477129194068908,0.5147539414554834
1789222370437891000,8.59189111328125,-6.311027897888422,-7.489519889086484,0.4984005533520132
1789222370447884800,8.601884765625,-6.280573722913861,-7.513178412571549,0.5262449842195958
1789222370457879800,8.6118798828125,-6.254275498574972,-7.531256505575776,0.5784527258407324
1789222370467873800,8.621873779296875,-6.242115689703822,-7.539004927745461,0.6080977398568764
1789222370477867800,8.63186767578125,-6.2480824891537425,-7.53380326744914,0.6112712187938392
1789222370487861800,8.64186181640625,-6.262202199921012,-7.523083720514178,0.5986767813650891
1789222370497856000,8.65185595703125,-6.284872881412506,-7.506746918219328,0.5652507144402712
1789222370507850000,8.66185009765625,-6.30954028967917,-7.4894696202039714,0.517632090707682
1789222370517845000,8.671844970703125,-6.3224225676059715,-7.481039645510911,0.4810465368386358
1789222370527839000,8.6818388671875,-6.3304667578518385,-7.475433496066928,0.462023308471404
1789222370537833000,8.6918330078125,-6.330211906307936,-7.476152457991242,0.4538127121500671
1789222370547827000,8.701826904296874,-6.326278073990345,-7.4788979573071,0.4633307012755424
1789222370557820700,8.711820556640625,-6.317322614118456,-7.485509484401345,0.47849466039873656
1789222370567815000,8.72181494140625,-6.307614290052652,-7.493321034935116,0.48428255961779504
1789222370577810000,8.731809814453126,-6.302960326766968,-7.497704364585876,0.47697800875809043
1789222370587804000,8.741803955078124,-6.299588219985366,-7.500591318199038,0.4761335207579657
1789222370597798000,8.7517978515625,-6.298339681228995,-7.500698285704851,0.4907322106812149
1789222370607791900,8.7617919921875,-6.303555370050669,-7.495709975898265,0.4999160724814981
1789222370617785900,8.771785888671875,-6.3154059668421745,-7.4866259212106465,0.4862682535422966
1789222370627779800,8.78177978515625,-6.333920697697997,-7.472920636463165,0.45529250237904484
1789222370637774800,8.79177490234375,-6.34721155642569,-7.463893864920735,0.41662053415738043
1789222370647769000,8.80176904296875,-6.352753992983699,-7.459923207724094,0.40305951671879736
1789222370657763000,8.81176318359375,-6.354104823070764,-7.457166017970442,0.431744416998513
1789222370667756800,8.8217568359375,-6.349067997947335,-7.460193256837129,0.45302930668741465
1789222370677750800,8.831750732421876,-6.334919061085581,-7.472766907206177,0.44378684656769035
1789222370687745800,8.841745849609374,-6.32315380448997,-7.482783858829737,0.44278534137494857
1789222370697739800,8.85173974609375,-6.328976227033138,-7.476320800295472,0.4680572914060205
1789222370707733800,8.861733642578125,-6.340266267332434,-7.466147196805477,0.47754594483915713
1789222370717728000,8.87172802734375,-6.344038771608472,-7.4640125228643415,0.46051754355095326
1789222370727722000,8.881721923828126,-6.3534928286522625,-7.456398540729284,0.453487243055366
1789222370737716000,8.891716064453124,-6.373925960350037,-7.439145208111405,0.4500824395805597
1789222370747711000,8.9017109375,-6.382754578971863,-7.432896084588766,0.4276556863801554
1789222370757705000,8.911705078125,-6.374447353875636,-7.440507144114375,0.41912400487829
1789222370767699000,8.921698974609376,-6.364508143663406,-7.447452433207631,0.4459374852629378
1789222370777692700,8.931692626953126,-6.355215999183058,-7.453529707294702,0.47593723100088536
1789222370787687000,8.94168701171875,-6.340909825932979,-7.464756619229912,0.49057245354223994
1789222370797682000,8.951681884765625,-6.33003596521914,-7.472919467419385,0.5064642520159482
1789222370807676000,8.961676025390625,-6.334301805970072,-7.468377147814631,0.5199483682934195
1789222370817670000,8.971669921875,-6.34435908960402,-7.460631063732505,0.5084022343412041
1789222370827664000,8.981663818359374,-6.3500914957761765,-7.4571344537884,0.48771633345875887
1789222370837657900,8.991657958984375,-6.359360259380936,-7.450286779850721,0.47132644926980133
1789222370847651800,9.00165185546875,-6.361883055856824,-7.448519185656309,0.465177461653389
1789222370857646800,9.011646728515625,-6.3563376966893665,-7.45206021926403,0.4838938160285353
1789222370867641000,9.02164111328125,-6.352068348807096,-7.4540440865576265,0.508760546259582
1789222370877635000,9.031635009765624,-6.344044616827368,-7.460815772649646,0.5096233005687594
1789222370887628800,9.04162890625,-6.344269073233008,-7.4609385222464795,0.5050113497938961
1789222370897622800,9.051622802734375,-6.365007325357198,-7.443386498942971,0.5030540051810443
1789222370907616800,9.06161669921875,-6.386995285281539,-7.425839736336469,0.4833015492238104
1789222370917611800,9.07161181640625,-6.396891825395822,-7.418743640595674,0.4608759285345673
1789222370927605800,9.081605712890624,-6.398150885546207,-7.41729636439681,0.46664932430423794
1789222370937600000,9.09160009765625,-6.385268023097515,-7.427269476878642,0.48415155364926904
1789222370947594000,9.101593994140625,-6.367305080905556,-7.442330852410197,0.48941400422211734
1789222370957588000,9.111587890625,-6.351645739480853,-7.455356922721863,0.494609344375506
1789222370967583000,9.1215830078125,-6.3409063188016415,-7.462135038554668,0.5289934426775201
1789222370977577000,9.131576904296875,-6.3443228492468595,-7.456606046000123,0.5647746213611216
1789222370987571000,9.141571044921875,-6.354788713681698,-7.448874574965238,0.5489238855501637
1789222370997564700,9.151564697265625,-6.359058646085858,-7.448116450074314,0.5082629720009864
1789222371007559000,9.161558837890626,-6.354668886694312,-7.452183553382754,0.5035225725408643
1789222371017553000,9.171552978515624,-6.356974825549125,-7.449181448957323,0.5186007896093652
1789222371027548000,9.1815478515625,-6.365385511019825,-7.441730548429489,0.5223896239656954
1789222371037542000,9.1915419921875,-6.3716761355966325,-7.4354966224759815,0.5343272779861464
1789222371047535900,9.201535888671875,-6.385557945954799,-7.421742822411656,0.5592628722023218
1789222371057529900,9.21152978515625,-6.392519017139077,-7.415136556014418,0.5673013633597642
1789222371067523800,9.22152392578125,-6.383116982543468,-7.422137959209084,0.5814355775764212
1789222371077518000,9.23151806640625,-6.369027082392573,-7.4317872465640304,0.6119013699235394
1789222371087513000,9.24151318359375,-6.35577246402204,-7.442393396252394,0.6207515793226659
1789222371097507000,9.251507080078126,-6.352084715420007,-7.446480373305082,0.6093761257622391
1789222371107500800,9.261500732421876,-6.356789532110095,-7.442177707675099,0.6128701784230768
1789222371117494800,9.271494873046874,-6.36625352602601,-7.431939222255349,0.6383334863077849
1789222371127488800,9.28148876953125,-6.3830719743579625,-7.415345814850926,0.6628872050669044
1789222371137483000,9.29148291015625,-6.396378615176677,-7.404141699269413,0.6598461568705737
1789222371147477800,9.301477783203126,-6.397872068604826,-7.404948339477181,0.635886385416612
1789222371157472000,9.311471923828124,-6.392572208631038,-7.410609433978796,0.6231126824308186
1789222371167466000,9.321466064453125,-6.389626802828907,-7.412533095517754,0.6304063465703278
1789222371177460000,9.3314599609375,-6.383021705475449,-7.4168486206293105,0.6463621136583387
1789222371187454000,9.341453857421875,-6.374882822683453,-7.422738847711682,0.6589467968780547
1789222371197449200,9.35144921875,-6.369469565463065,-7.425922738444805,0.6752103878062218
1789222371207443200,9.361443115234374,-6.362458809918165,-7.429128256487846,0.7053778547938913
1789222371217437000,9.37143701171875,-6.350436363691091,-7.438938871884345,0.7103000405617058
1789222371227431200,9.38143115234375,-6.342458224418759,-7.448835411998629,0.6770995625536889
1789222371237425200,9.391425048828125,-6.348515624761581,-7.445953719082474,0.6515445577975362
1789222371247419100,9.401419189453126,-6.36172289685905,-7.434737913063168,0.6507946162130683
1789222371257414100,9.4114140625,-6.368228625491261,-7.4293632342875,0.6485456682424992
1789222371267408100,9.421408203125,-6.371636972630023,-7.427148480847477,0.6403803358349949
1789222371277402000,9.431402099609375,-6.364671809792518,-7.432974995043874,0.6420377476532012
1789222371287396000,9.44139599609375,-6.344682330209016,-7.448875159487128,0.655476344288513
1789222371297390300,9.451390380859374,-6.322497386407852,-7.466839855244755,0.665363678183034
1789222371307384300,9.46138427734375,-6.304812092113495,-7.480926832786202,0.6748824710261077
1789222371317379300,9.47137939453125,-6.302958573201298,-7.480113178315758,0.7007175348326563
1789222371327373000,9.481373046875,-6.31226182359755,-7.470984699964523,0.7142318270526826
1789222371337367000,9.491366943359376,-6.323879196155071,-7.4631708113431925,0.6928418330214917
1789222371347361000,9.501361083984374,-6.3341100827902554,-7.457704362630843,0.6573357084196061
1789222371357355000,9.51135498046875,-6.333292336666584,-7.45968822992444,0.6425289652362466
1789222371367350000,9.52135009765625,-6.330191448041797,-7.460622295904159,0.6619462709549814
1789222371377344300,9.53134423828125,-6.317533041998743,-7.468922506737709,0.6887317673541605
1789222371387338200,9.541338134765626,-6.307608444833755,-7.474997442737221,0.713342330867052
1789222371397332200,9.551332275390624,-6.311641061350703,-7.469234056904911,0.73764945445396
1789222371407326200,9.561326171875,-6.314473654428124,-7.465589562922716,0.7501811653774231
1789222371417320200,9.5713203125,-6.331128436630964,-7.4523746920406815,0.7411527863997965
1789222371427315200,9.581315185546876,-6.347198112422228,-7.441313784322142,0.7143554534323513
1789222371437309000,9.591308837890624,-6.34129911751151,-7.447253695765137,0.7047900449685752
1789222371447303200,9.60130322265625,-6.329999724861979,-7.454239901390672,0.7319789345368742
1789222371457297200,9.611297119140625,-6.318481721025705,-7.461041398099065,0.7615986314486711
1789222371467291100,9.621291015625,-6.304233415442705,-7.470517082452774,0.7863831632889807
1789222371477285000,9.63128515625,-6.298294088521599,-7.470147664618492,0.8359214665051549
1789222371487280000,9.641280029296874,-6.300918007284403,-7.464376095479726,0.8671261675860732
1789222371497274000,9.651274169921875,-6.307234350824356,-7.461760360023379,0.843392533038184
1789222371507268000,9.66126806640625,-6.313236806109547,-7.459155145961046,0.8212429528113454
1789222371517262300,9.671262451171875,-6.320200799903273,-7.451116800934076,0.8404215544033795
1789222371527256300,9.68125634765625,-6.329516325259208,-7.4419924142360685,0.8510905401948838
1789222371537251300,9.691251220703125,-6.326367505839467,-7.444439807388186,0.8530946465589105
1789222371547245000,9.7012451171875,-6.325136502739786,-7.441042566165327,0.8910199611317365
1789222371557239000,9.711239013671875,-6.327219738754629,-7.435849089175463,0.9191383866351097
1789222371567233000,9.72123291015625,-6.319649595761299,-7.441416075652837,0.9261389130469411
1789222371577227000,9.73122705078125,-6.318785087886452,-7.438284791889786,0.9566961100045591
1789222371587221200,9.74122119140625,-6.315763109716773,-7.435299638599157,0.9989287663824856
1789222371597216300,9.75121630859375,-6.307541809338331,-7.4378347100347275,1.0314642776757479
1789222371607210200,9.761210205078125,-6.3121116014719005,-7.430795897439122,1.0539978887841104
1789222371617204200,9.771204345703126,-6.315447467896342,-7.429167419454455,1.045460581259057
1789222371627198200,9.7811982421875,-6.316223128443956,-7.432860428753495,1.0140453061673789
1789222371637192200,9.791192138671875,-6.327160117521882,-7.425182733732462,1.0020417107712476
1789222371647186000,9.80118603515625,-6.342355933088064,-7.408159702739119,1.0315420921523124
1789222371657181200,9.81118115234375,-6.358735990002751,-7.3883239524126045,1.072161833440885
1789222371667175200,9.821175048828126,-6.370815719375014,-7.375738611605763,1.0869980219144373
1789222371677169200,9.831169189453124,-6.377862130755186,-7.369690563613176,1.0866989659026265
1789222371687163100,9.8411630859375,-6.375920349037647,-7.371040224656462,1.0889347621306777
1789222371697157000,9.8511572265625,-6.347917658868432,-7.394774151465296,1.091623562823236
1789222371707152100,9.861152099609376,-6.309459625658392,-7.426561620870232,1.0987675893589854
1789222371717146000,9.87114599609375,-6.296061799424886,-7.435671394520997,1.1139024685181678
1789222371727140000,9.88114013671875,-6.295322379234433,-7.433220494237542,1.1342542055428027
1789222371737134300,9.89113427734375,-6.298357801407575,-7.426134335368872,1.1634430367566644
1789222371747128300,9.90112841796875,-6.3335968725711105,-7.395716400751471,1.1658971519105135
1789222371757122000,9.9111220703125,-6.371646909502148,-7.3693094553411,1.1250699784163385
1789222371767117300,9.921117431640624,-6.375773049521446,-7.371262342974543,1.0882983639232813
1789222371777111000,9.931111083984375,-6.3821232953310005,-7.368792737990617,1.0676042432017623
1789222371787105000,9.94110498046875,-6.382780882456898,-7.3728212628543375,1.0353748752482235
1789222371797099000,9.95109912109375,-6.361704776680469,-7.389442142787575,1.046538074297458
1789222371807093200,9.96109326171875,-6.338333253443241,-7.401179926854372,1.1038361247949302
1789222371817087200,9.971087158203124,-6.320539822599291,-7.412767488795518,1.1278483570884912
1789222371827082200,9.981082275390625,-6.320232364085316,-7.415673147109151,1.1103373233824967
1789222371837076200,9.991076171875,-6.329777022022008,-7.4097162845313544,1.0956344058997929
1789222371847070200,10.0010703125,-6.332585649701953,-7.409241652756929,1.0825356356780975
1789222371857064200,10.011064208984376,-6.345992828285694,-7.401289816969633,1.0581424412429332
1789222371867058000,10.021057861328124,-6.356441157063841,-7.394633281689882,1.0418481629155576
1789222371877053200,10.03105322265625,-6.354618033289909,-7.392646491786837,1.0667666233338415
1789222371887047200,10.041047119140625,-6.357724182611704,-7.386583830747008,1.0900035604059695
1789222371897041200,10.051041259765626,-6.354954133376479,-7.392040342587232,1.0689676405094564
1789222371907035100,10.06103515625,-6.351843307879567,-7.397540693569183,1.0492206644449382
1789222371917029000,10.071029052734374,-6.351982424089313,-7.396658650037645,1.0545787574119865
1789222371927023000,10.081023193359375,-6.34299773812294,-7.40267513384819,1.0663768202986568
1789222371937018000,10.09101806640625,-6.33777386599481,-7.4044655243963,1.0848502692960202
1789222371947012000,10.10101220703125,-6.343543097046017,-7.3968737540930505,1.1027708336509763
1789222371957006300,10.11100634765625,-6.346846814766526,-7.39458067471981,1.0991319656919687
1789222371967000300,10.121000244140625,-6.355215414661169,-7.390791219308972,1.0760266191102563
1789222371976994000,10.130994140625,-6.3716685368120665,-7.379943077558279,1.0529352279886603
1789222371986988000,10.140988037109375,-6.389581210121512,-7.364215931594371,1.0545039386101067
1789222371996983000,10.150983154296876,-6.399242772436142,-7.352540106847882,1.077138672005385
1789222372006977000,10.16097705078125,-6.398479386848211,-7.35330816861093,1.0764375379987061
1789222372016971000,10.170970947265625,-6.392070104327797,-7.362454182618856,1.0517125543259083
1789222372026965200,10.18096533203125,-6.382462902548909,-7.370588389235735,1.053083112026751
1789222372036959200,10.190959228515625,-6.375949575132132,-7.371796595981717,1.0836357058744877
1789222372046953200,10.200953125,-6.384260307359695,-7.361427762180567,1.104982518351078
1789222372056948200,10.2109482421875,-6.395336997169256,-7.351808869963884,1.1049725084137172
1789222372066942200,10.220942138671875,-6.40226650417149,-7.346490305289626,1.1002060246642678
1789222372076936200,10.230936279296875,-6.408491662296653,-7.344148126077651,1.079403475132212
1789222372086930000,10.240929931640625,-6.406732835930585,-7.350321846276521,1.0473458104837685
1789222372096924200,10.250924072265626,-6.400768959090113,-7.355483174562454,1.0475707052808254
1789222372106919200,10.260919189453125,-6.392108682772517,-7.358818456465006,1.0766245119381694
1789222372116913200,10.2709130859375,-6.385657899197936,-7.36108464783132,1.099174635789916
1789222372126907100,10.2809072265625,-6.389829047402739,-7.357806649073958,1.0968882784184069
1789222372136901000,10.290901123046876,-6.396993532204627,-7.352676300448179,1.0894961954057216
1789222372146895000,10.30089501953125,-6.407828814473747,-7.343288294377922,1.0891426327276974
1789222372156889000,10.31088916015625,-6.419719743275642,-7.3353762060791246,1.0723034338686614
1789222372166884000,10.320884033203125,-6.427309760013222,-7.3325886211872096,1.045574343831837
1789222372176878300,10.33087841796875,-6.434702208352088,-7.326482121005654,1.042902640404552
1789222372186872300,10.340872314453126,-6.435498327165842,-7.3243380947142835,1.0530035439845173
1789222372196866600,10.350866455078124,-6.431408427503705,-7.327536598494649,1.0557400562763213
1789222372206860300,10.3608603515625,-6.429485935008525,-7.328833652567863,1.0584340446006506
1789222372216854300,10.370854248046875,-6.418935314899683,-7.336500241672992,1.0693122892286628
1789222372226849300,10.380849365234376,-6.402475763007998,-7.350298465400933,1.0732242019753901
1789222372236843300,10.39084326171875,-6.394763581195473,-7.360029001298546,1.0523086205229162
1789222372246837500,10.40083740234375,-6.398046840649843,-7.361618900838494,1.0207583208747208
1789222372256831500,10.41083154296875,-6.408807304117083,-7.355327107217907,0.9983720823477953
1789222372266825500,10.420825439453125,-6.428380019593239,-7.341393858933448,0.9748094204526394
1789222372276820500,10.430820556640626,-6.453919534519314,-7.323719086033106,0.9383207876194268
1789222372286814500,10.440814453125,-6.465536907076835,-7.316931033328175,0.9108940707072615
1789222372296808400,10.450808349609375,-6.451182218509912,-7.330676065564155,0.9021194472949952
1789222372306802400,10.460802490234375,-6.420960683247447,-7.358427411320805,0.8917452797316014
1789222372316796400,10.47079638671875,-6.383266620147228,-7.393987969523668,0.8678866305645555
1789222372326790400,10.480790283203126,-6.352860375967621,-7.422604992198944,0.8464560122620314
1789222372336785400,10.490785400390624,-6.343627268198132,-7.431216753199696,0.8401124884542077
1789222372346779400,10.500779296875,-6.355888783878088,-7.42197780021131,0.8290463200386613
1789222372356773400,10.5107734375,-6.383426779145002,-7.401161806675791,0.8031441823452711
1789222372366767400,10.520767333984375,-6.408756450712681,-7.383846514737606,0.7596242626357823
1789222372376761300,10.53076123046875,-6.413734239125251,-7.3842030730903145,0.7126998682450503
1789222372386755600,10.540755615234374,-6.407298653119802,-7.393284205168485,0.6754707923080772
1789222372396750300,10.550750244140625,-6.393463019990921,-7.4084554708153005,0.6393803650122135
1789222372406744600,10.56074462890625,-6.37675387725234,-7.423924842625856,0.6266812616325914
1789222372416738600,10.570738525390626,-6.372616631317138,-7.425507143381237,0.6496046027109027
1789222372426732300,10.580732177734374,-6.38356180370152,-7.414531575858592,0.667263593520224
1789222372436726300,10.590726318359375,-6.399410530218482,-7.40185329607129,0.6561227524332702
1789222372446720300,10.60072021484375,-6.413607982397079,-7.391303260484337,0.6361198288463056
1789222372456715300,10.61071533203125,-6.41869799901247,-7.389003166848421,0.6110055901275947
1789222372466709200,10.620709228515626,-6.410035384607315,-7.39866531368494,0.5844608436817303
1789222372476703500,10.630703369140624,-6.39708121048808,-7.409395966535806,0.5904101440075784
1789222372486697500,10.640697509765625,-6.390107864344119,-7.411580324837565,0.6366888609059155
1789222372496691500,10.65069140625,-6.388215766987204,-7.410400759664178,0.6686169808905571
1789222372506686500,10.6606865234375,-6.381326007473469,-7.417559983769059,0.6548849542666226
1789222372516680400,10.670680419921876,-6.3850546726077795,-7.415443430006504,0.6423842960685491
1789222372526674400,10.68067431640625,-6.3967842733681195,-7.405421802207827,0.6413038073554634
1789222372536668400,10.69066845703125,-6.392582145503163,-7.410091547584533,0.6291450944628566
1789222372546662400,10.700662353515625,-6.382177071344852,-7.419345698142052,0.6256955385308712
1789222372556656400,10.710656494140625,-6.367217987143993,-7.429489491015672,0.6569706744994968
1789222372566651400,10.7206513671875,-6.352551163887977,-7.438738380876183,0.6932846814181656
1789222372576645400,10.730645263671875,-6.343410995098948,-7.444952433085441,0.7100749996341764
1789222372586639400,10.740639404296875,-6.3379749415248625,-7.44903882561624,0.715730175851658
1789222372596633300,10.75063330078125,-6.341130190685391,-7.44648446495831,0.7143654633697122
1789222372606627600,10.760627685546876,-6.354357921048998,-7.436397955229878,0.7017902786307036
1789222372616621600,10.77062158203125,-6.374430402740836,-7.4194719548702235,0.6988917807102203
1789222372626616600,10.780616455078125,-6.386997623369098,-7.408914905020594,0.6961472312424332
1789222372636610600,10.790610595703125,-6.379730262714624,-7.416597276216745,0.6808094499222934
1789222372646604300,10.800604248046875,-6.3664920109570025,-7.4283286305427545,0.6768231567651033
1789222372656598300,10.810598388671876,-6.352883172321319,-7.436857389435172,0.7102160155400633
1789222372666592300,10.82059228515625,-6.335992827796936,-7.44547558017671,0.7684206594884395
1789222372676587300,10.830587158203125,-6.337920580989122,-7.440106746619939,0.8037145295791327
1789222372686581200,10.840581298828125,-6.360709335902333,-7.423236860361695,0.7793000731602311
1789222372696575500,10.850575439453126,-6.376709453588724,-7.4137313653916115,0.7379392311807721
1789222372706569500,10.860569580078124,-6.392036202058196,-7.402327927845716,0.719581298321858
1789222372716563500,10.8705634765625,-6.406105643942952,-7.392465290001034,0.6954537690855562
1789222372726557400,10.880557373046875,-6.40280660239756,-7.396159468343853,0.6864983822789043
1789222372736552400,10.890552490234375,-6.389841906884312,-7.4046326976567505,0.7153526477761566
1789222372746546400,10.90054638671875,-6.370652053245902,-7.417786778262257,0.749404116590321
1789222372756540400,10.91054052734375,-6.356938585191965,-7.427954536533355,0.7649897351916879
1789222372766534400,10.920534423828125,-6.351113240039348,-7.433810276824236,0.7564396412502974
1789222372776528400,10.9305283203125,-6.347261240786314,-7.43921067456305,0.7353969262868165
1789222372786522400,10.9405224609375,-6.361300872054696,-7.429788181701302,0.7088533488847315
1789222372796517400,10.950517333984376,-6.385002065637707,-7.413997322851419,0.6593772241845727
1789222372806511400,10.960511474609374,-6.393030473792552,-7.409940156415105,0.6263618204198778
1789222372816505300,10.97050537109375,-6.3942293281883,-7.40681647143662,0.6506024546418339
1789222372826499600,10.98049951171875,-6.384016561731696,-7.411988321116566,0.6907622502684593
1789222372836493600,10.99049365234375,-6.364612188559771,-7.427056710910796,0.707770156757906
1789222372846488600,11.000488525390624,-6.354893343099952,-7.436433026543259,0.6965492361720651
1789222372856482600,11.010482666015625,-6.356499024730921,-7.439073896440863,0.6523009291227907
1789222372866476300,11.020476318359375,-6.376541111284494,-7.426624164712429,0.596125306783989
1789222372876470300,11.03047021484375,-6.410837348639965,-7.399864168080687,0.5599724087111652
1789222372886464300,11.04046435546875,-6.443233305332064,-7.372089441448449,0.5544697196416557
1789222372896458500,11.05045849609375,-6.470653227177262,-7.348333887329697,0.550474549058266
1789222372906453200,11.060453369140625,-6.4727721190273755,-7.34860919713974,0.5210995841551572
1789222372916447500,11.070447509765625,-6.449497041901946,-7.369862413048744,0.5094142974605783
1789222372926441500,11.08044140625,-6.422130896070599,-7.392419697293639,0.5279702371096238
1789222372936435500,11.090435546875,-6.396493181467056,-7.41375299270153,0.5399408070189878
1789222372946429400,11.100429443359374,-6.383131595590711,-7.425207868173718,0.5406464710703119
1789222372956423200,11.110423095703124,-6.3849985585063695,-7.424398305356502,0.52960470644366
1789222372966418400,11.12041845703125,-6.402291638612747,-7.411886029785871,0.4949617014771327
1789222372976412400,11.130412353515625,-6.431282170775533,-7.390076933559775,0.44245435585491355
1789222372986406400,11.140406494140626,-6.451891243562102,-7.375581959739327,0.37982086261361836
1789222372996400400,11.150400390625,-6.4516089194893835,-7.378297648438811,0.328412089350447
1789222373006394400,11.160394287109375,-6.445402466064691,-7.384456755590438,0.31139841070733965
1789222373016388400,11.170388427734375,-6.4258718361645935,-7.401131411537528,0.3190949565593153
1789222373026383400,11.18038330078125,-6.401529422068595,-7.421633516818285,0.33190168503187595
1789222373036377300,11.19037744140625,-6.390949575865268,-7.4318585582345715,0.3059857014762237
1789222373046371600,11.20037158203125,-6.380733302277326,-7.442866274461149,0.24570085372030734
1789222373056365600,11.210365478515625,-6.389219391071796,-7.4367369779258965,0.2078562214345671
1789222373066359300,11.220359375,-6.407852779871225,-7.421086988851427,0.19306538820639252
1789222373076354600,11.2303544921875,-6.420747917279601,-7.410429985758662,0.17291916542490943
1789222373086348300,11.240348388671874,-6.427647613665461,-7.4052464456409215,0.13433824562071822
1789222373096342300,11.25034228515625,-6.424816189631819,-7.4085548395365475,0.07371747130816803
1789222373106336300,11.260336181640625,-6.429867627802491,-7.404520469453931,0.01624950646224315
1789222373116330500,11.27033056640625,-6.444438004946709,-7.391836928969621,-0.018960558944160582
1789222373126324500,11.280324462890626,-6.452613128095865,-7.384664845383167,-0.03006794528608443
1789222373136319500,11.290319580078124,-6.460831505864858,-7.377435478651523,-0.038542706685652954
1789222373146313500,11.3003134765625,-6.458225122758746,-7.379442142298817,-0.07451867728899232
1789222373156307500,11.310307373046875,-6.447073614147305,-7.3886957083344456,-0.11311038334867916
1789222373166301400,11.320301513671875,-6.431514225965738,-7.402184135460853,-0.11694029863406903
1789222373176295200,11.330295166015626,-6.414720912075042,-7.41701637841165,-0.09803236720957793
1789222373186289400,11.340289306640624,-6.410643871894479,-7.4204843467831605,-0.10220581696932203
1789222373196283600,11.35028369140625,-6.406691919398307,-7.4232806995034215,-0.13993069533291272
1789222373206277600,11.360277587890625,-6.408769310194254,-7.420646259346604,-0.17907520383661613
1789222373216271600,11.370271728515625,-6.4139996120631695,-7.41522540334165,-0.21314391604652627
1789222373226265600,11.380265625,-6.408989090424775,-7.4188161213099955,-0.23753813339499755
1789222373236259600,11.390259521484374,-6.415401880076527,-7.413537888646125,-0.22904941425202413
1789222373246253800,11.40025390625,-6.432873823881149,-7.398773450234532,-0.2160652833859436
1789222373256248800,11.410248779296875,-6.434384812965988,-7.396972538292408,-0.23211972507545722
1789222373266242800,11.420242919921876,-6.433900828841328,-7.396586753845215,-0.25654331464888525
1789222373276236500,11.430236572265626,-6.4356707611232995,-7.394926127156615,-0.2599649413943291
1789222373286230500,11.44023046875,-6.431872537884116,-7.398988554289937,-0.23740542865972963
1789222373296224500,11.450224609375,-6.424883994171023,-7.405671977576613,-0.21741079797707497
1789222373306219500,11.460219482421875,-6.419986869779229,-7.409666015648842,-0.22585476466286927
1789222373316213500,11.470213623046876,-6.412686775898933,-7.41545102879107,-0.24273979369131846
1789222373326207700,11.480207763671874,-6.406953200682997,-7.420238263067603,-0.2478014427287504
1789222373336201700,11.49020166015625,-6.407288131725788,-7.419976981782913,-0.24695825163656845
1789222373346195700,11.50019580078125,-6.413313383364677,-7.414775906008481,-0.2467826028087176
1789222373356189700,11.510189697265625,-6.418348454922437,-7.410476162987947,-0.24500412189410997
1789222373366184700,11.520184814453126,-6.426692504897713,-7.403033445766567,-0.25120637406772
1789222373376178700,11.5301787109375,-6.434572444492578,-7.394731481367349,-0.29086327993981537
1789222373386172400,11.54017236328125,-6.432923508241772,-7.39377871068716,-0.34628194643147286
1789222373396166700,11.550166748046875,-6.434361432090402,-7.391144855052232,-0.3746342537559569
1789222373406160600,11.56016064453125,-6.430362717843055,-7.394461432254314,-0.37784558048527683
1789222373416154600,11.570154541015626,-6.417879668366909,-7.405346398884058,-0.3768764066595584
1789222373426149600,11.580149658203124,-6.406382707318663,-7.415608849701285,-0.3706661538425833
1789222373436143600,11.5901435546875,-6.3922366930663586,-7.428391758906841,-0.35873741378095
1789222373446137600,11.6001376953125,-6.388741836687922,-7.431779063257575,-0.3507463784944266
1789222373456131600,11.610131591796875,-6.393955187422037,-7.425886498087644,-0.37938930279593913
1789222373466125800,11.620125732421876,-6.395325306731462,-7.420835059916973,-0.44877168577555565
1789222373476119800,11.630119873046874,-6.4070250968754285,-7.406732884806394,-0.5106180837597698
1789222373486114800,11.64011474609375,-6.427030358549952,-7.387952781012654,-0.5308635108657181
1789222373496108500,11.650108642578125,-6.444127039301395,-7.373696292123198,-0.5217368226127699
1789222373506102500,11.6601025390625,-6.451176373291015,-7.368869310358166,-0.502467145203799
1789222373516096500,11.670096435546874,-6.4500453234344715,-7.37050421808362,-0.49292646932248024
1789222373526090500,11.680090576171875,-6.428607983130216,-7.388212893253565,-0.5076384468944743
1789222373536085500,11.69008544921875,-6.405253995549678,-7.406881937888264,-0.5302854187168181
1789222373546079700,11.700079833984375,-6.399591732004285,-7.411081143143773,-0.5398943009961397
1789222373556073700,11.71007373046875,-6.394677071955799,-7.416040226855873,-0.5299338288001716
1789222373566067700,11.720067626953124,-6.390913920029997,-7.421093418592214,-0.5039499676400795
1789222373576061700,11.730061767578125,-6.399574196347594,-7.414969967275858,-0.48379419157896186
1789222373586055700,11.7400556640625,-6.406264049375057,-7.408442611333728,-0.49512134901825333
1789222373596050700,11.75005078125,-6.413806719839573,-7.399957691583037,-0.5235343370214104
1789222373606044400,11.76004443359375,-6.426126103186607,-7.3868199775904415,-0.5569448410509154
1789222373616038700,11.77003857421875,-6.427377564552426,-7.383588740584254,-0.5846547222860157
1789222373626032600,11.78003271484375,-6.43589346396327,-7.376767370131612,-0.5770294515719637
1789222373636026600,11.790026611328125,-6.440255166304111,-7.376683783501386,-0.5272845929330214
1789222373646020600,11.8000205078125,-6.424519252511859,-7.394252757939696,-0.4700752801649272
1789222373656015600,11.810015625,-6.389890422201156,-7.425080442401766,-0.4559107438752427
1789222373666009600,11.820009521484375,-6.3587202079117295,-7.451738732224702,-0.45678825736213474
1789222373676003600,11.830003662109375,-6.356746862012147,-7.45500796315372,-0.43011703499238935
1789222373685997800,11.839997802734375,-6.371486750504374,-7.4438681449800725,-0.404185050150007
1789222373695991800,11.84999169921875,-6.393433209374547,-7.4255843002706765,-0.3938231940789148
1789222373705985500,11.859985595703124,-6.413320982149243,-7.4091674184769385,-0.3793999337878078
1789222373715980500,11.86998046875,-6.413782754442096,-7.409978734859823,-0.35494708158727734
1789222373725974500,11.879974609375,-6.3928276446968315,-7.4294836457967754,-0.32388500384744257
1789222373735968500,11.889968505859375,-6.359982190671563,-7.459325826352834,-0.2818868686114438
1789222373745962500,11.89996240234375,-6.340970616209507,-7.477512055906653,-0.22201286667874082
1789222373755956700,11.909956787109374,-6.329208282223344,-7.489235811448097,-0.15120467954655176
1789222373765950700,11.91995068359375,-6.319836058244109,-7.49825556872785,-0.07883812965699472
1789222373775945700,11.92994580078125,-6.325946065557003,-7.493508666461706,-0.010975288961431942
1789222373785939700,11.939939697265626,-6.33098639781177,-7.489131766551733,0.04359137751050293
1789222373795933700,11.94993359375,-6.329015974521637,-7.49044343367219,0.08489027843596413
1789222373805927700,11.959927734375,-6.325844358748197,-7.492722484520077,0.11485589357544668
1789222373815921700,11.969921630859375,-6.321454599356651,-7.49598177857697,0.1409247935373336
1789222373825916400,11.97991650390625,-6.313402225804329,-7.501543504357337,0.1954015578026883
1789222373835910700,11.98991064453125,-6.31362434412241,-7.498624402040242,0.28137959494274106
1789222373845904600,11.999904541015624,-6.3228223805785175,-7.4875670014530415,0.35868243219070134
1789222373855898600,12.009898681640625,-6.328722544533014,-7.479595291921496,0.4163076688159257
1789222373865892600,12.019892578125,-6.33285277620554,-7.472919467419385,0.46992783451825376
1789222373875886600,12.029886474609375,-6.335532224547863,-7.468525031852722,0.5025489417357369
1789222373885881600,12.039881591796876,-6.347471668666601,-7.457550633373856,0.5147134998472407
1789222373895875600,12.04987548828125,-6.356742770358919,-7.447160756784677,0.5495519543206319
1789222373905869800,12.059869873046875,-6.361110317918658,-7.43790368361771,0.619874431161955
1789222373915863800,12.06986376953125,-6.3658934605419635,-7.428740718474984,0.6779385706610978
1789222373925857500,12.079857421875,-6.366002181613445,-7.424554957222938,0.7213751960013062
1789222373935851500,12.0898515625,-6.363640128657221,-7.419788765734434,0.7881685123357921
1789222373945846500,12.099846435546874,-6.365038889539242,-7.4122262215256685,0.8459076576642691
1789222373955840500,12.109840576171875,-6.373176603287458,-7.404636204788089,0.8511049340464174
1789222373965834500,12.11983447265625,-6.378900826153159,-7.400087455442548,0.847778419972211
1789222373975828700,12.129828857421876,-6.3829077237069605,-7.392806650784611,0.88049717887789
1789222373985822700,12.13982275390625,-6.385271530228853,-7.3873320187658065,0.9088527010727673
1789222373995816700,12.149816650390624,-6.385151703241467,-7.388362530857324,0.9012930064082145
1789222374005811700,12.159811767578125,-6.387059582689404,-7.385798233327269,0.908765607311204
1789222374015805700,12.1698056640625,-6.385720443040132,-7.3811787568330764,0.9545523759741336
1789222374025799700,12.179799560546876,-6.388291170310974,-7.375119018402695,0.9837384307090192
1789222374035793700,12.189793701171874,-6.389620373088121,-7.374673028200864,0.9784322140596806
1789222374045787600,12.19978759765625,-6.383539591869711,-7.377074244123697,0.9997868445165454
1789222374055782700,12.20978271484375,-6.3849260777920485,-7.373067931091785,1.020278428403288
1789222374065776600,12.219776611328125,-6.388264866825938,-7.376369895246625,0.9744825996510684
1789222374075770600,12.2297705078125,-6.3885565432488916,-7.38249568465054,0.9249231805816293
1789222374085764600,12.2397646484375,-6.395670174646377,-7.376606626611948,0.9227540929142385
1789222374095758600,12.249758544921875,-6.4041013183832165,-7.3681860042691225,0.9315086233865469
1789222374105752800,12.2597529296875,-6.410097343927622,-7.361822898977994,0.9405390481907874
1789222374115747600,12.26974755859375,-6.420556194099784,-7.351864984065294,0.9470670617200434
1789222374125741800,12.279741943359374,-6.4193760444045065,-7.355860191181302,0.9237550135850906
1789222374135735800,12.28973583984375,-6.414626804050803,-7.365419462165236,0.879516351146996
1789222374145729500,12.2997294921875,-6.420850793132185,-7.364115393829345,0.8443138856668024
1789222374155723500,12.3097236328125,-6.419826710781455,-7.36806033206284,0.817248914739117
1789222374165717500,12.319717529296875,-6.400524044418335,-7.3842451586663715,0.8225548391275107
1789222374175712500,12.32971240234375,-6.364100731906294,-7.410365103828907,0.868963612146303
1789222374185706500,12.33970654296875,-6.326479149520397,-7.436192203524708,0.9214582078848034
1789222374195700700,12.34970068359375,-6.315958924549817,-7.443442028522491,0.9349971961546689
1789222374205695700,12.35969580078125,-6.324371948108077,-7.439886381867527,0.90598262552917
1789222374215689700,12.369689697265626,-6.350763695949316,-7.4235583474010225,0.8537909582599997
1789222374225683700,12.37968359375,-6.387820045667886,-7.3991568965941665,0.7865194299545138
1789222374235678700,12.3896787109375,-6.406883642578125,-7.386326056593656,0.7512734175935387
1789222374245672700,12.399672607421875,-6.411835127505659,-7.380026079666614,0.7706939381826668
1789222374255666700,12.409666748046876,-6.39816432954967,-7.3876453224986784,0.8102948578175156
1789222374265660700,12.41966064453125,-6.37073096370101,-7.405726338112354,0.8598744428921491
1789222374275655000,12.429655029296875,-6.360244056478142,-7.409901577970385,0.9005820816598832
1789222374285648600,12.439648681640625,-6.352112772470712,-7.416358206763863,0.9048129241626709
1789222374295643600,12.4496435546875,-6.340301923167705,-7.426327227592468,0.9058727354139089
1789222374305637600,12.4596376953125,-6.347721844035386,-7.416273451089858,0.9357825013134627
1789222374315631600,12.469631591796874,-6.362880834722518,-7.398530289128423,0.9725633950915187
1789222374325625600,12.47962548828125,-6.38339346139729,-7.3797168675869695,0.9810434925366193
1789222374335619600,12.48961962890625,-6.409781117585301,-7.361057175302505,0.9486484126273542
1789222374345614600,12.499614501953126,-6.4267696617871515,-7.353399938547611,0.8913685553736984
1789222374355608600,12.509608642578126,-6.422787898674607,-7.359310623896121,0.8710502091620117
1789222374365602800,12.519602783203124,-6.398809057193994,-7.372451260498166,0.9341215823639184
1789222374375596800,12.5295966796875,-6.3705503464370965,-7.382659350779652,1.040579823480174
1789222374385590800,12.5395908203125,-6.341106809809804,-7.398592248448729,1.105251763746515
1789222374395584500,12.54958447265625,-6.333499841937423,-7.404837280318141,1.1070460998173803
1789222374405579500,12.55957958984375,-6.3533133804321285,-7.394083246591687,1.0645801461402327
1789222374415573500,12.569573486328125,-6.379788130381703,-7.379357971146702,1.0068610206864774
1789222374425567700,12.579567626953125,-6.3989160246998065,-7.365752055120468,0.9848602012805641
1789222374435561700,12.589561767578125,-6.395081561103463,-7.365251704382896,1.0131070754691958
1789222374445555700,12.5995556640625,-6.373539006859064,-7.378481188312173,1.0518571504283696
1789222374455549700,12.6095498046875,-6.344876975998282,-7.399779412406683,1.0752558539334685
1789222374465544700,12.619544677734375,-6.337446533736586,-7.405165197098254,1.0819825318399816
1789222374475538700,12.62953857421875,-6.357121540543437,-7.390163442799449,1.069054880401492
1789222374485532700,12.63953271484375,-6.384240433615446,-7.370563839316367,1.0424228940635918
1789222374495527000,12.64952685546875,-6.404583548942208,-7.355030170097947,1.0272443218931555
1789222374505520600,12.659520751953124,-6.414112424787879,-7.346357034298777,1.0298450789760798
1789222374515514600,12.6695146484375,-6.410711091911792,-7.351145437619089,1.0167743658050894
1789222374525509600,12.679509521484375,-6.3960863542318345,-7.366824068266153,0.9951734324369579
1789222374535503600,12.689503662109376,-6.376629374089837,-7.38217945830822,1.0061864824257791
1789222374545497600,12.69949755859375,-6.367556425318122,-7.386877260735631,1.0289084557130932
1789222374555491600,12.70949169921875,-6.370175083383917,-7.383897952663898,1.0340697109337895
1789222374565485800,12.71948583984375,-6.375967695310711,-7.378172560754418,1.039221979130432
