time,seconds_elapsed,z,y,x
1789222361887878000,0.0418779296875,0.085233673453331,-0.26103612780570984,0.42440080642700195
1789222361897872000,0.051871826171875,0.011379420757293701,-0.09322261810302734,-0.13419215381145477
1789222361907866000,0.0618662109375,0.14805445075035095,-0.17141090333461761,-0.2842136025428772
1789222361917859800,0.07185986328125,0.41037288308143616,-0.041733864694833755,-0.3931334316730499
1789222361927854800,0.081854736328125,0.6630765199661255,0.23915798962116241,-0.4693504571914673
1789222361937848800,0.091848876953125,0.74098140001297,0.06621523946523666,-0.18504682183265686
1789222361947842800,0.1018427734375,0.5390797257423401,-0.010277937166392803,0.11857804656028748
1789222361957836800,0.1118369140625,0.21527129411697388,0.09728633612394333,0.27158063650131226
1789222361967830800,0.121830810546875,0.01019591186195612,0.1321878582239151,0.0957704707980156
1789222361977825000,0.131824951171875,0.06328975409269333,-0.03657105937600136,-0.08228075504302979
1789222361987820000,0.141820068359375,0.2793522775173187,0.0343816764652729,-0.001035436987876892
1789222361997814000,0.15181396484375,0.5363444089889526,0.27825719118118286,-0.06120716407895088
1789222362007808000,0.16180810546875,0.6918013691902161,0.15214426815509796,-0.09097118675708771
1789222362017802000,0.171802001953125,0.6157340407371521,0.012588762678205967,-0.07269550859928131
1789222362027795700,0.181795654296875,0.3531476855278015,0.00361683894880116,-0.052686113864183426
1789222362037789700,0.191789794921875,0.06678248941898346,0.0018184063956141472,-0.06292171031236649
1789222362047784700,0.20178466796875,-0.018063155934214592,-0.06936336308717728,-0.10761061310768127
1789222362057779000,0.211779052734375,0.11582940071821213,-0.044430848211050034,0.047437023371458054
1789222362067773000,0.22177294921875,0.31395819783210754,0.3310551643371582,0.09186973422765732
1789222362077767000,0.231766845703125,0.4609207510948181,0.5027899146080017,0.14526212215423584
1789222362087761000,0.241760986328125,0.5559263229370117,0.1534034013748169,0.12910738587379456
1789222362097755000,0.2517548828125,0.5022362470626831,-0.19968461990356445,0.06484290957450867
1789222362107750000,0.26175,0.26260820031166077,-0.13215164840221405,-0.019036009907722473
1789222362117743900,0.271743896484375,0.04231736436486244,-0.06581150740385056,-0.10986924171447754
1789222362127738000,0.281738037109375,0.016320915892720222,-0.13757650554180145,-0.22629651427268982
1789222362137731800,0.29173193359375,0.13315245509147644,-0.07348966598510742,-0.21922077238559723
1789222362147725800,0.301725830078125,0.20991727709770203,0.23081643879413605,-0.08658389002084732
1789222362157719800,0.3117197265625,0.2373204082250595,0.2572365999221802,0.05043094977736473
1789222362167713800,0.3217138671875,0.28729623556137085,-0.07993771135807037,0.04188619554042816
1789222362177708800,0.331708740234375,0.31660404801368713,-0.26698270440101624,0.021620873361825943
1789222362187703000,0.341703125,0.19878287613391876,0.08527574688196182,0.002296443795785308
1789222362197697000,0.351697021484375,0.021795576438307762,0.3968791663646698,-0.00036698358599096537
1789222362207691000,0.36169091796875,-0.01492142491042614,0.4034039080142975,-0.008700280450284481
1789222362217685000,0.37168505859375,0.14102450013160706,0.28947681188583374,0.0027869981713593006
1789222362227679000,0.381678955078125,0.30494579672813416,0.4017024338245392,-0.10486117005348206
1789222362237674000,0.391674072265625,0.44706830382347107,0.06724748015403748,0.016384832561016083
1789222362247668000,0.40166796875,0.5448079109191895,-0.28408151865005493,0.08124585449695587
1789222362257662000,0.411661865234375,0.46023231744766235,0.26593393087387085,-0.04797844588756561
1789222362267656200,0.42165625,0.2113173007965088,0.7544050812721252,-0.11087857931852341
1789222362277650200,0.431650146484375,-0.025653963908553123,0.12121004611253738,0.02340865321457386
1789222362287644000,0.441643798828125,-0.14364132285118103,-0.5788804292678833,-0.035098597407341
1789222362297639200,0.45163916015625,-0.07590248435735703,-0.7026374936103821,-0.09044148027896881
1789222362307633000,0.4616328125,0.08872054517269135,-0.5140939354896545,-0.04999019578099251
1789222362317627000,0.471626953125,0.21285633742809296,-0.21418632566928864,0.07365318387746811
1789222362327620900,0.481620849609375,0.18159402906894684,0.48412594199180603,0.06448657810688019
1789222362337615000,0.491614990234375,0.17283062636852264,0.4534766674041748,-0.2728552222251892
1789222362347609000,0.501609130859375,0.2111431360244751,-0.3566601276397705,0.003040530951693654
1789222362357604000,0.51160400390625,0.17497020959854126,-0.10471096634864807,-0.07495865970849991
1789222362367598000,0.52159814453125,0.2364564836025238,-0.42981982231140137,0.13066133856773376
1789222362377592000,0.531592041015625,0.36249855160713196,-1.1306990385055542,0.5469110012054443
1789222362387586000,0.5415859375,0.14275023341178894,0.5009749531745911,0.308548241853714
1789222362397580000,0.551580078125,-0.3752599060535431,2.671095848083496,-0.10584493726491928
1789222362407574000,0.561573974609375,-0.6228707432746887,1.3557546138763428,-0.10472428053617477
1789222362417569000,0.571569091796875,-0.4201909005641937,-2.23671293258667,0.22598892450332642
1789222362427563000,0.58156298828125,-0.2002318948507309,-2.5947718620300293,0.1690731793642044
1789222362437557000,0.591556884765625,0.01955213025212288,-0.0397772416472435,-0.24102726578712463
1789222362447551000,0.601551025390625,0.30197131633758545,1.1762868165969849,-0.3003089725971222
1789222362457545000,0.611544921875,0.3002719581127167,0.7179266810417175,0.07964529097080231
1789222362467539200,0.621539306640625,-0.14461444318294525,0.7720799446105957,0.19362911581993103
1789222362477534000,0.631533935546875,-0.5718398094177246,0.5006532669067383,0.23570147156715393
1789222362487528200,0.641528076171875,-0.6347066760063171,-0.7959967255592346,0.3781515657901764
1789222362497522200,0.651522216796875,-0.48188912868499756,-1.1942291259765625,0.11109323054552078
1789222362507516000,0.661515869140625,-0.17177414894104004,-0.7507008910179138,0.150947704911232
1789222362517510000,0.671510009765625,0.22421392798423767,0.2590440809726715,0.2101348638534546
1789222362527504000,0.68150390625,0.5423402190208435,1.1870979070663452,-0.17626850306987762
1789222362537499000,0.691498779296875,0.5308497548103333,1.0105860233306885,-0.34965893626213074
1789222362547492900,0.701492919921875,0.2462390661239624,-0.16946785151958466,-0.10072901099920273
1789222362557487000,0.711487060546875,-0.1784869134426117,-0.7370250225067139,-0.07358047366142273
1789222362567481000,0.721481201171875,-0.49461373686790466,-0.5137203335762024,-0.07039666920900345
1789222362577475000,0.73147509765625,-0.567992627620697,-0.14024631679058075,0.2768683433532715
1789222362587469000,0.741468994140625,-0.3870917856693268,0.4031575918197632,0.22881028056144714
1789222362597464000,0.751464111328125,-0.08239101618528366,0.6030262112617493,-0.10407154262065887
1789222362607458000,0.7614580078125,0.1697179228067398,-0.12400077283382416,0.06446980684995651
1789222362617452000,0.7714521484375,0.1198454424738884,-0.5607176423072815,0.3643779456615448
1789222362627446000,0.781446044921875,-0.12150458991527557,-0.1541472226381302,-0.0785592570900917
1789222362637440000,0.79143994140625,-0.28737691044807434,-0.1371258944272995,-0.3942141532897949
1789222362647434000,0.80143408203125,-0.40791770815849304,-0.5729489922523499,-0.055750612169504166
1789222362657429000,0.811428955078125,-0.5502095818519592,-0.33736738562583923,0.07324305176734924
1789222362667423000,0.821423095703125,-0.5154353976249695,0.10929959267377853,-0.019758790731430054
1789222362677417000,0.8314169921875,-0.2796148657798767,0.010289655067026615,0.21290241181850433
1789222362687411000,0.841410888671875,-0.12483301013708115,0.054060839116573334,0.32041236758232117
1789222362697405200,0.8514052734375,-0.07496185600757599,-0.020724719390273094,0.1423984169960022
1789222362707399200,0.861399169921875,-0.05872483178973198,-0.3444646894931793,0.05222512036561966
1789222362717394200,0.871394287109375,-0.11729893088340759,-0.29413601756095886,-0.019643742591142654
1789222362727388000,0.881387939453125,-0.25830504298210144,0.003798999357968569,-0.12088167667388916
1789222362737382000,0.8913818359375,-0.26773691177368164,-0.2656910717487335,-0.1218888908624649
1789222362747375900,0.9013759765625,-0.2215699404478073,-0.41014304757118225,0.04181615635752678
1789222362757370000,0.9113701171875,-0.14446157217025757,-0.16900713741779327,0.13001525402069092
1789222362767364000,0.921364013671875,0.01876782812178135,-0.12990659475326538,0.09132751822471619
1789222362777359000,0.931359130859375,0.15147393941879272,-0.14392654597759247,0.07499221712350845
1789222362787353000,0.94135302734375,0.09059115499258041,0.2566443085670471,0.125077486038208
1789222362797347000,0.95134716796875,-0.011591674759984016,0.35668089985847473,0.007801730185747147
1789222362807341000,0.961341064453125,0.000404534162953496,-0.25551697611808777,-0.08031454682350159
1789222362817335000,0.9713349609375,0.07247180491685867,-0.5949137210845947,-0.08347970992326736
1789222362827329000,0.9813291015625,0.11087032407522202,-0.20427457988262177,-0.05049007013440132
1789222362837324000,0.991323974609375,0.18787989020347595,0.06310519576072693,-0.050101250410079956
1789222362847318000,1.001318115234375,0.28360721468925476,0.010902714915573597,-0.0779065191745758
1789222362857312000,1.01131201171875,0.2926182746887207,0.09803947806358337,-0.03406316041946411
1789222362867306000,1.021305908203125,0.23617205023765564,0.20738114416599274,0.15112240612506866
1789222362877300000,1.031300048828125,0.19166743755340576,0.23394085466861725,0.04044489562511444
1789222362887294000,1.0412939453125,0.2041424810886383,0.12501437962055206,-0.09585249423980713
1789222362897289000,1.0512890625,0.25998151302337646,-0.04018763452768326,0.075790636241436
1789222362907283000,1.061282958984375,0.3684627115726471,-0.10055910050868988,0.11479955166578293
1789222362917277200,1.071277099609375,0.4332126975059509,0.047209590673446655,-0.0043707797303795815
1789222362927271200,1.081271240234375,0.38600921630859375,0.21786442399024963,0.03405330702662468
1789222362937265000,1.091264892578125,0.29404279589653015,0.1939481645822525,0.09345964342355728
1789222362947259000,1.1012587890625,0.2623986005783081,-0.05054759606719017,-0.06550230830907822
1789222362957254000,1.11125390625,0.31405967473983765,-0.267599493265152,-0.15179724991321564
1789222362967248000,1.121247802734375,0.3694970905780792,-0.04813290759921074,-0.15762771666049957
1789222362977242000,1.1312421875,0.3893994092941284,0.3815058171749115,-0.14865924417972565
1789222362987236000,1.141236083984375,0.39209774136543274,0.47356730699539185,-0.05085785314440727
1789222362997230000,1.15122998046875,0.35955390334129333,0.25712525844573975,0.20608365535736084
1789222363007224000,1.16122412109375,0.24753603339195251,0.2875569462776184,0.2827046811580658
1789222363017219000,1.171218994140625,0.17656251788139343,0.14851224422454834,0.22110548615455627
1789222363027213000,1.181213134765625,0.19008950889110565,-0.18379512429237366,0.11447518318891525
1789222363037207000,1.19120703125,0.2547638416290283,-0.20780032873153687,-0.1590287983417511
1789222363047201000,1.201200927734375,0.3154570162296295,-0.06733217090368271,-0.10825616866350174
1789222363057195000,1.211195068359375,0.35385581851005554,0.23762160539627075,-0.0979987382888794
1789222363067189000,1.22118896484375,0.33816394209861755,0.5963299870491028,-0.2791331112384796
1789222363077184000,1.23118408203125,0.26635950803756714,0.41472235321998596,-0.15574805438518524
1789222363087178000,1.241177978515625,0.18752488493919373,-0.1766032725572586,0.06463997811079025
1789222363097172000,1.251171875,0.15013357996940613,-0.5439218878746033,0.03370283544063568
1789222363107166000,1.261166015625,0.18839707970619202,-0.44196969270706177,-0.020352410152554512
1789222363117160200,1.27116015625,0.22470608353614807,0.21449391543865204,-0.131783589720726
1789222363127154200,1.281154296875,0.2352932095527649,0.6615347862243652,-0.26661357283592224
1789222363137149200,1.291149169921875,0.2108674943447113,0.41776129603385925,-0.09953244775533676
1789222363147143200,1.30114306640625,0.13634824752807617,0.07787535339593887,0.10267950594425201
1789222363157137000,1.311136962890625,0.03970427066087723,0.014942997135221958,-0.005085838492959738
1789222363167131000,1.321130859375,0.0007440872141160071,-0.2445993572473526,-0.00815166998654604
1789222363177124900,1.331124755859375,-0.01661333069205284,-0.23951219022274017,0.13938532769680023
1789222363187119000,1.341119140625,-0.018603511154651642,0.383340984582901,0.018602712079882622
1789222363197113900,1.35111376953125,0.053166016936302185,0.6116554141044617,-0.16110099852085114
1789222363207107600,1.361107666015625,0.13102379441261292,-0.0490248017013073,0.009104282595217228
1789222363217101600,1.3711015625,0.1110953614115715,-0.5359204411506653,0.034512970596551895
1789222363227095600,1.381095458984375,0.054671235382556915,-0.3647204339504242,-0.1952645629644394
1789222363237089500,1.391089599609375,0.009431851096451283,0.006189985200762749,-0.15943706035614014
1789222363247083800,1.401083740234375,-0.044079042971134186,0.27660417556762695,-0.01883893460035324
1789222363257078500,1.41107861328125,-0.026261964812874794,0.26138073205947876,-0.026520824059844017
1789222363267072800,1.42107275390625,0.0228605754673481,0.1700846403837204,0.06918146461248398
1789222363277066800,1.431066650390625,0.0539575070142746,0.09088942408561707,0.1349112093448639
1789222363287060700,1.441060791015625,0.0923384502530098,-0.06126415729522705,0.014289990067481995
1789222363297054500,1.451054443359375,0.11038003861904144,-0.0690818652510643,0.04263933748006821
1789222363307048400,1.46104833984375,0.07289311289787292,0.27319878339767456,-0.016639163717627525
1789222363317043500,1.47104345703125,0.043773047626018524,0.3702313303947449,-0.2559119462966919
1789222363327037700,1.48103759765625,0.07050958275794983,-0.03911810740828514,-0.26316824555397034
1789222363337031700,1.49103173828125,0.06553000956773758,-0.16713732481002808,-0.03786296024918556
1789222363347025700,1.501025634765625,0.09743574261665344,-0.043477967381477356,-0.060145094990730286
1789222363357019600,1.51101953125,0.16877250373363495,-0.014459633268415928,-0.058275558054447174
1789222363367013600,1.521013671875,0.21506117284297943,0.17628182470798492,-0.0560251846909523
1789222363377008600,1.531008544921875,0.1904410570859909,0.44961509108543396,-0.04656750336289406
1789222363387002600,1.541002685546875,0.16967478394508362,0.39865922927856445,-0.10014231503009796
1789222363396996900,1.550996826171875,0.1678134948015213,0.13736851513385773,-0.00708747049793601
1789222363406990600,1.560990478515625,0.15365827083587646,0.05379984900355339,0.020548950880765915
1789222363416984600,1.570984619140625,0.19170285761356354,-0.007092264015227556,-0.030463101342320442
1789222363426978600,1.580978515625,0.28171929717063904,0.053758036345243454,-0.12995746731758118
1789222363436973600,1.5909736328125,0.3511042296886444,0.28131103515625,-0.1277449131011963
1789222363446967600,1.600967529296875,0.3535652458667755,0.4150342047214508,-0.0751139223575592
1789222363456961500,1.61096142578125,0.3653108775615692,0.19837673008441925,-0.12485058605670929
1789222363466955800,1.620955810546875,0.3709607720375061,-0.0937802866101265,-0.028232969343662262
1789222363476949800,1.63094970703125,0.3212280869483948,0.0759538859128952,0.06892367452383041
1789222363486943700,1.64094384765625,0.2956430912017822,0.35126161575317383,0.11835593730211258
1789222363496937700,1.650937744140625,0.29991722106933594,0.4987855553627014,0.12224122136831284
1789222363506932700,1.6609326171875,0.314445823431015,0.5375465154647827,-0.1289862096309662
1789222363516926500,1.670926513671875,0.32407739758491516,0.14921104907989502,-0.05429572984576225
1789222363526920400,1.68092041015625,0.285982221364975,0.02189970575273037,0.011537612415850163
1789222363536914700,1.690914794921875,0.22979457676410675,0.25286900997161865,-0.04229765385389328
1789222363546908700,1.70090869140625,0.20425327122211456,0.3164288103580475,-0.07323586195707321
1789222363556902700,1.710902587890625,0.21860983967781067,0.11596707999706268,-0.017355820164084435
1789222363566897700,1.720897705078125,0.17050382494926453,0.1326930671930313,0.09694039821624756
1789222363576891600,1.7308916015625,0.17643068730831146,0.15890948474407196,-0.05609975382685661
1789222363586885600,1.7408857421875,0.23588629066944122,-0.08386880159378052,-0.033851705491542816
1789222363596879600,1.750879638671875,0.22883132100105286,0.05732880160212517,-0.07386543601751328
1789222363606873900,1.760873779296875,0.2042466104030609,0.2964356541633606,-0.17484185099601746
1789222363616867600,1.77086767578125,0.2180287390947342,0.249106764793396,-0.11525708436965942
1789222363626862600,1.780862548828125,0.21563109755516052,0.2921256124973297,-0.06250971555709839
1789222363636856600,1.790856689453125,0.12185453623533249,0.4711986780166626,0.08549758791923523
1789222363646850600,1.8008505859375,0.019116969779133797,0.41871604323387146,0.1770927608013153
1789222363656844500,1.810844482421875,-0.05654130503535271,0.27118197083473206,0.189408540725708
1789222363666838500,1.820838623046875,-0.04854170233011246,0.18095380067825317,0.06160290911793709
1789222363676832800,1.830832763671875,0.031503330916166306,0.022600118070840836,-0.06956576555967331
1789222363686827800,1.840827880859375,0.12682266533374786,-0.20471106469631195,-0.1840880811214447
1789222363696821800,1.85082177734375,0.19960658252239227,-0.346615195274353,-0.15047526359558105
1789222363706815700,1.860815673828125,0.17731140553951263,-0.13277775049209595,0.047987766563892365
1789222363716809700,1.870809814453125,0.07127764075994492,0.30819937586784363,0.15518265962600708
1789222363726803500,1.880803466796875,-0.08980312198400497,0.5959989428520203,0.15327557921409607
1789222363736797700,1.890797607421875,-0.24788783490657806,0.41675886511802673,0.11825393885374069
1789222363746792400,1.90079248046875,-0.2994394302368164,-0.1684609204530716,-0.014943529851734638
1789222363756786700,1.91078662109375,-0.2211371809244156,-0.5574720501899719,-0.13359534740447998
1789222363766780700,1.92078076171875,-0.11113450676202774,-0.19668669998645782,-0.11338115483522415
1789222363776774700,1.930774658203125,-0.027171965688467026,0.454171746969223,-0.18216687440872192
1789222363786768600,1.9407685546875,-0.02545316144824028,0.4570485055446625,-0.03822861239314079
1789222363796762600,1.9507626953125,-0.1433853954076767,0.003099120454862714,0.2961941063404083
1789222363806757600,1.960757568359375,-0.28653350472450256,-0.45543143153190613,0.2867944836616516
1789222363816751600,1.970751708984375,-0.37610653042793274,-0.46958693861961365,0.1227368414402008
1789222363826745900,1.980745849609375,-0.39110010862350464,0.006039250176399946,-0.06745520979166031
1789222363836739600,1.990739501953125,-0.35525450110435486,0.2350335568189621,-0.2344394028186798
1789222363846733600,2.000733642578125,-0.3044155538082123,-0.004005394410341978,-0.19412899017333984
1789222363856727600,2.0107275390625,-0.21267259120941162,-0.10810436308383942,-0.35034921765327454
1789222363866722600,2.02072265625,-0.12914147973060608,-0.3792724907398224,-0.23127129673957825
1789222363876716500,2.030716552734375,-0.2097332626581192,-0.43688252568244934,0.09472224861383438
1789222363886710500,2.04071044921875,-0.27921485900878906,0.156904399394989,0.028663335368037224
1789222363896704800,2.050704833984375,-0.32412242889404297,0.012795157730579376,0.11737509816884995
1789222363906698800,2.06069873046875,-0.4894128441810608,-0.29394346475601196,0.10086829215288162
1789222363916692700,2.070692626953125,-0.6525388956069946,-0.2181890606880188,-0.052018459886312485
1789222363926687700,2.080687744140625,-0.5681244134902954,-0.19825290143489838,-0.18136286735534668
1789222363936681700,2.090681640625,-0.31201088428497314,-0.30752772092819214,-0.10994354635477066
1789222363946675500,2.100675537109375,-0.1302216500043869,-0.22379767894744873,-0.07480339705944061
1789222363956669700,2.110669677734375,-0.06408151239156723,-0.22856153547763824,-0.13784947991371155
1789222363966663700,2.12066357421875,-0.08321206271648407,-0.27304965257644653,-0.05643531307578087
1789222363976657700,2.13065771484375,-0.1285494565963745,-0.05811337009072304,0.07344971597194672
1789222363986652700,2.140652587890625,-0.23957930505275726,-0.21907588839530945,0.22354041039943695
1789222363996646700,2.150646728515625,-0.25306129455566406,0.006157494615763426,0.09418615698814392
1789222364006640600,2.160640625,-0.13583159446716309,-0.12945891916751862,0.11633646488189697
1789222364016634600,2.170634521484375,-0.04879550263285637,-0.26937422156333923,0.28754761815071106
1789222364026628600,2.180628662109375,0.025971412658691406,-0.07152558118104935,0.13563399016857147
1789222364036622800,2.190622802734375,0.1423582136631012,-0.14101091027259827,0.015607722103595734
1789222364046617900,2.200617919921875,0.2024764120578766,-0.24483850598335266,0.12324390560388565
1789222364056611600,2.210611572265625,0.20466552674770355,0.11316756904125214,-0.16066130995750427
1789222364066605600,2.22060546875,0.2439088076353073,0.0004063983797095716,-0.36623790860176086
1789222364076599600,2.230599609375,0.28957056999206543,-0.4609830677509308,-0.17137734591960907
1789222364086593500,2.240593505859375,0.30893492698669434,-0.21343745291233063,-0.1885584592819214
1789222364096587800,2.250587890625,0.3370020091533661,0.2372322529554367,-0.06272543221712112
1789222364106582500,2.26058251953125,0.3539274334907532,0.4242623448371887,0.16668406128883362
1789222364116576800,2.27057666015625,0.3137424886226654,0.3647763729095459,0.2877731919288635
1789222364126570800,2.28057080078125,0.24119025468826294,0.07540660351514816,0.397946834564209
1789222364136564700,2.290564697265625,0.21229708194732666,-0.09189263731241226,0.15866953134536743
1789222364146558700,2.300558837890625,0.26013731956481934,-0.09630576521158218,-0.05146239325404167
1789222364156552400,2.310552490234375,0.37623247504234314,0.08038245886564255,-0.1944187432527542
1789222364166547500,2.32054736328125,0.5488242506980896,0.14155606925487518,-0.3393911123275757
1789222364176541400,2.33054150390625,0.6977961659431458,0.04267475754022598,-0.2040921449661255
1789222364186535700,2.34053564453125,0.6947332620620728,0.33511674404144287,0.020870661363005638
1789222364196529700,2.35052978515625,0.6048007011413574,0.529742419719696,0.09880567342042923
1789222364206523600,2.360523681640625,0.528626561164856,0.21379190683364868,0.259640634059906
1789222364216517600,2.370517578125,0.41312313079833984,0.22538678348064423,0.3520296812057495
1789222364226512600,2.3805126953125,0.3366440534591675,0.4448224604129791,0.18352189660072327
1789222364236506600,2.390506591796875,0.3725826144218445,0.2680210769176483,0.011901134625077248
1789222364246500600,2.40050048828125,0.4674302935600281,0.00022210762836039066,-0.015202654525637627
1789222364256494800,2.410494873046875,0.5731666088104248,0.03278511017560959,-0.08871202915906906
1789222364266488800,2.42048876953125,0.5720139741897583,0.2624366879463196,-0.0818578451871872
1789222364276482600,2.430482666015625,0.46671631932258606,0.45478349924087524,-0.07901758700609207
1789222364286477800,2.440477783203125,0.31229957938194275,0.5087500214576721,0.06220425292849541
1789222364296471600,2.450471435546875,0.23063161969184875,0.3705431818962097,0.13329467177391052
1789222364306465500,2.460465576171875,0.23225906491279602,0.17187614738941193,-0.029024194926023483
1789222364316459800,2.470459716796875,0.29783886671066284,-0.05940500274300575,0.01877475343644619
1789222364326453800,2.480453857421875,0.4053112864494324,0.06927281618118286,0.08717378228902817
1789222364336447700,2.49044775390625,0.5402666926383972,0.5526311993598938,-0.22869735956192017
1789222364346442800,2.50044287109375,0.6509085297584534,0.4333423674106598,-0.21410483121871948
1789222364356436700,2.510436767578125,0.5527423024177551,0.31721124053001404,-0.059121642261743546
1789222364366430700,2.5204306640625,0.37320420145988464,0.4013029634952545,-0.12195999175310135
1789222364376424700,2.5304248046875,0.26482686400413513,0.2649432420730591,0.042636409401893616
1789222364386418700,2.540418701171875,0.18435199558734894,0.23807941377162933,0.2068682312965393
1789222364396412700,2.55041259765625,0.14519447088241577,0.4399595260620117,0.08881562203168869
1789222364406407700,2.56040771484375,0.20192725956439972,0.4434613287448883,-0.011876100674271584
1789222364416401700,2.570401611328125,0.26099804043769836,0.2767391800880432,-0.04297995939850807
1789222364426395600,2.580395751953125,0.27577832341194153,0.09508869796991348,-0.10438366234302521
1789222364436389600,2.5903896484375,0.27751070261001587,0.06877081096172333,-0.11435320973396301
1789222364446383600,2.600383544921875,0.24258893728256226,0.3125493824481964,-0.05666860565543175
1789222364456377900,2.6103779296875,0.17740540206432343,0.4672108590602875,-0.03587650880217552
1789222364466372600,2.62037255859375,0.11847657710313797,0.4940994679927826,0.0070770843885838985
1789222364476366800,2.630366943359375,0.01152509544044733,0.5331142544746399,0.07669317722320557
1789222364486360800,2.64036083984375,-0.06247882544994354,0.09588125348091125,0.08256971091032028
1789222364496354600,2.6503544921875,-0.06804350018501282,-0.3066134750843048,0.08263708651065826
1789222364506348500,2.6603486328125,-0.1147817075252533,0.03664456307888031,0.05018780380487442
1789222364516342500,2.670342529296875,-0.20255602896213531,0.3506331145763397,0.07792302966117859
1789222364526337500,2.680337646484375,-0.221238911151886,0.23906078934669495,-0.0771120935678482
1789222364536331800,2.690331787109375,-0.1736879050731659,-0.08550584316253662,-0.08295027911663055
1789222364546325800,2.70032568359375,-0.15850229561328888,0.016650881618261337,-0.016340358182787895
1789222364556319700,2.71031982421875,-0.17052780091762543,0.27897971868515015,-0.05783293768763542
1789222364566313700,2.720313720703125,-0.17481335997581482,0.24923565983772278,0.04577521234750748
1789222364576307700,2.7303076171875,-0.18742582201957703,0.20909009873867035,0.02334234118461609
1789222364586302700,2.740302734375,-0.17895802855491638,0.07745590806007385,-0.14402854442596436
1789222364596296700,2.750296630859375,-0.16523343324661255,-0.04140815883874893,-0.15824875235557556
1789222364606290700,2.760290771484375,-0.17923685908317566,-0.06850555539131165,-0.1620331108570099
1789222364616284700,2.77028466796875,-0.16327600181102753,-0.17869970202445984,-0.16382594406604767
1789222364626278700,2.780278564453125,-0.17082233726978302,-0.10998695343732834,0.036068256944417953
1789222364636273700,2.790273681640625,-0.3263693153858185,0.3479846119880676,0.11481526494026184
1789222364646267600,2.800267578125,-0.4708327651023865,0.3358443081378937,0.007481351960450411
1789222364656261600,2.81026171875,-0.5687393546104431,-0.05937890335917473,0.18465347588062286
1789222364666255600,2.820255615234375,-0.6656890511512756,0.02184404619038105,0.1058095172047615
1789222364676249900,2.830249755859375,-0.667601466178894,-0.03290628269314766,-0.0866083949804306
1789222364686243800,2.840243896484375,-0.5668189525604248,-0.4774264693260193,-0.05114361271262169
1789222364696238800,2.85023876953125,-0.5099186301231384,-0.4517221748828888,-0.011392736807465553
1789222364706232800,2.86023291015625,-0.5449927449226379,-0.1364065706729889,-0.000532632227987051
1789222364716226600,2.8702265625,-0.6874223351478577,-0.07623405009508133,0.06221463903784752
1789222364726220500,2.880220458984375,-0.904610276222229,-0.2730315327644348,0.0668187141418457
1789222364736214500,2.890214599609375,-1.0371803045272827,-0.6490264534950256,0.047264982014894485
1789222364746208800,2.900208740234375,-0.9346582293510437,-1.0827118158340454,0.07246328145265579
1789222364756203800,2.910203857421875,-0.7326659560203552,-0.7084623575210571,-0.06729035824537277
1789222364766197800,2.92019775390625,-0.5617594718933105,-0.04283135384321213,-0.1566934734582901
1789222364776191700,2.930191650390625,-0.48466041684150696,0.010202303528785706,0.01925651915371418
1789222364786185700,2.940185791015625,-0.5303530693054199,-0.1663767248392105,0.1664225310087204
1789222364796179700,2.9501796875,-0.6830416917800903,-0.15926875174045563,0.16473914682865143
1789222364806173700,2.960173583984375,-0.8077623248100281,-0.2739284932613373,0.09874255210161209
1789222364816168700,2.970168701171875,-0.7797264456748962,-0.6899113059043884,0.20375525951385498
1789222364826162700,2.98016259765625,-0.582500696182251,-0.6162336468696594,0.11874262988567352
1789222364836156700,2.99015673828125,-0.31478482484817505,0.06184312701225281,-0.18244996666908264
1789222364846150700,3.000150634765625,-0.11599185317754745,0.43048587441444397,-0.23292912542819977
1789222364856144600,3.01014453125,0.04573925957083702,-0.18686948716640472,-0.1290019303560257
1789222364866138600,3.020138671875,0.08543606847524643,-0.7393417358398438,0.13584491610527039
1789222364876133600,3.030133544921875,-0.039576172828674316,-0.18744419515132904,0.08123493194580078
1789222364886127600,3.040127685546875,-0.15645751357078552,0.27636873722076416,0.041190315037965775
1789222364896121900,3.050121826171875,-0.1827160120010376,0.12423113733530045,0.251200795173645
1789222364906115800,3.06011572265625,-0.13777650892734528,0.0929267480969429,0.19027434289455414
1789222364916109800,3.07010986328125,0.03735349699854851,0.09411051869392395,0.03658943623304367
1789222364926103600,3.080103515625,0.22228899598121643,0.0759672001004219,0.1368342787027359
1789222364936098600,3.0900986328125,0.3071034848690033,0.16783453524112701,0.042146921157836914
1789222364946092500,3.100092529296875,0.3468775153160095,0.062195464968681335,-0.16752322018146515
1789222364956086500,3.11008642578125,0.34470146894454956,-0.13085788488388062,-0.19275826215744019
1789222364966080800,3.120080810546875,0.27617913484573364,-0.04902293533086777,-0.144016295671463
1789222364976074800,3.13007470703125,0.25780436396598816,0.105892613530159,-0.13113272190093994
1789222364986068700,3.14006884765625,0.2834141254425049,0.24131515622138977,-0.08330074697732925
1789222364996063700,3.150063720703125,0.3010282814502716,0.24527740478515625,0.1252942681312561
1789222365006057700,3.1600576171875,0.2904195785522461,0.2713228464126587,0.23196105659008026
1789222365016051700,3.1700517578125,0.2884131669998169,0.3290756344795227,0.024213727563619614
1789222365026045700,3.180045654296875,0.30550211668014526,0.20237547159194946,-0.11821266263723373
1789222365036039700,3.190039794921875,0.30439823865890503,0.06763896346092224,-0.0748119205236435
1789222365046033700,3.20003369140625,0.289643794298172,0.12320023030042648,-0.12045744061470032
1789222365056028700,3.210028564453125,0.32557782530784607,0.19198700785636902,-0.19747047126293182
1789222365066022700,3.220022705078125,0.39331960678100586,0.15548066794872284,-0.058636680245399475
1789222365076016600,3.2300166015625,0.3359423279762268,0.359391987323761,0.09963525086641312
1789222365086010600,3.2400107421875,0.20613159239292145,0.42884376645088196,0.10365715622901917
1789222365096004600,3.250004638671875,0.07055912166833878,0.1957995891571045,0.24473224580287933
1789222365105998800,3.259998779296875,-0.11402510851621628,0.24263474345207214,0.2669355571269989
1789222365115993900,3.269993896484375,-0.25938788056373596,0.2101854532957077,0.10574959963560104
1789222365125987800,3.27998779296875,-0.2748211920261383,-0.24369122087955475,0.07824154198169708
1789222365135981800,3.28998193359375,-0.2610001564025879,-0.3725533187389374,-0.04920110106468201
1789222365145975600,3.2999755859375,-0.28996336460113525,-0.19873972237110138,-0.12549108266830444
1789222365155969500,3.309969482421875,-0.32769665122032166,-0.31988078355789185,0.004204865079373121
1789222365165963800,3.3199638671875,-0.38979411125183105,-0.377693235874176,0.11897166073322296
1789222365175958500,3.32995849609375,-0.4892437160015106,0.012480371631681919,-0.07365131378173828
1789222365185952800,3.339952880859375,-0.5169776082038879,0.0282894279807806,-0.30344322323799133
1789222365195947300,3.349947265625,-0.47252678871154785,-0.4858708381652832,-0.19419769942760468
1789222365205941200,3.359941162109375,-0.48060816526412964,-0.5568339824676514,-0.031007450073957443
1789222365215935200,3.369935302734375,-0.5227159261703491,-0.1829618215560913,0.08887740969657898
1789222365225929200,3.37992919921875,-0.539915144443512,0.052988648414611816,0.28888747096061707
1789222365235924200,3.38992431640625,-0.6109848022460938,0.18617360293865204,0.3099445402622223
1789222365245918200,3.399918212890625,-0.6889957189559937,0.033728670328855515,0.10546091198921204
1789222365255912200,3.409912109375,-0.7319051027297974,-0.4219357967376709,0.09135361760854721
1789222365265906400,3.419906494140625,-0.6828576922416687,-0.5642157196998596,-0.08153107762336731
1789222365275900400,3.429900390625,-0.545659601688385,-0.3767257034778595,-0.09008488804101944
1789222365285894100,3.43989404296875,-0.4200896918773651,-0.010988202877342701,-0.06497553735971451
1789222365295889400,3.449889404296875,-0.3513298034667969,0.04874170571565628,0.057435330003499985
1789222365305883100,3.459883056640625,-0.32399776577949524,-0.3137270212173462,0.3121347427368164
1789222365315877000,3.469877197265625,-0.300434410572052,-0.5221545100212097,0.21336740255355835
1789222365325871000,3.47987109375,-0.29821091890335083,-0.36219868063926697,0.07411843538284302
1789222365335865300,3.489865234375,-0.3519974648952484,-0.076015405356884,0.08586936444044113
1789222365345859300,3.499859375,-0.3700305223464966,-0.03284689784049988,0.08364882320165634
1789222365355854300,3.509854248046875,-0.32595759630203247,-0.03664003685116768,0.1303502768278122
1789222365365848300,3.519848388671875,-0.26318156719207764,-0.02316097915172577,0.15362684428691864
1789222365375842300,3.52984228515625,-0.28284475207328796,0.060929663479328156,-0.012190353125333786
1789222365385836300,3.539836181640625,-0.30833545327186584,-0.29765936732292175,-0.051412858068943024
1789222365395830300,3.549830322265625,-0.30424219369888306,-0.7569308280944824,0.04772304743528366
1789222365405824300,3.55982421875,-0.26963892579078674,-0.6427709460258484,-0.11543551832437515
1789222365415819300,3.5698193359375,-0.19331753253936768,-0.38419532775878906,-0.18720318377017975
1789222365425813200,3.579813232421875,-0.20507565140724182,-0.10519059747457504,-0.04712436720728874
1789222365435807200,3.58980712890625,-0.2633560001850128,-0.0498112328350544,-0.08050496131181717
1789222365445801200,3.59980126953125,-0.3206608295440674,-0.25294438004493713,0.04409182816743851
1789222365455795200,3.609795166015625,-0.3830406069755554,-0.26262974739074707,0.16827821731567383
1789222365465790200,3.619790283203125,-0.40068748593330383,-0.1897643357515335,0.11091320216655731
1789222365475784200,3.6297841796875,-0.3211950659751892,-0.22977274656295776,0.036019787192344666
1789222365485778400,3.6397783203125,-0.26818403601646423,0.03520645573735237,0.0013353090034797788
1789222365495772400,3.6497724609375,-0.2372937798500061,0.15600664913654327,-0.012255067937076092
1789222365505766100,3.65976611328125,-0.191481813788414,-0.21043819189071655,0.02570429816842079
1789222365515760000,3.669760009765625,-0.2009083330631256,-0.429436057806015,0.09748900681734085
1789222365525755100,3.679755126953125,-0.271822988986969,-0.19757166504859924,0.09975428879261017
1789222365535749000,3.6897490234375,-0.2690402567386627,-0.24974298477172852,0.12539014220237732
1789222365545743000,3.6997431640625,-0.20089635252952576,-0.40923944115638733,0.10236764699220657
1789222365555737300,3.7097373046875,-0.17492307722568512,-0.18263132870197296,0.008583634160459042
1789222365565731300,3.7197314453125,-0.17272090911865234,-0.09519735723733902,0.17067666351795197
1789222365575725300,3.729725341796875,-0.17708076536655426,-0.23475098609924316,0.27468082308769226
1789222365585720300,3.73972021484375,-0.16132977604866028,-0.36301228404045105,0.18726922571659088
1789222365595714300,3.74971435546875,-0.11927179992198944,-0.28220078349113464,0.0950239822268486
1789222365605708300,3.759708251953125,-0.05729258432984352,-0.09142711758613586,-0.017228521406650543
1789222365615702300,3.769702392578125,-0.02931367978453636,0.00917645450681448,-0.10624707490205765
1789222365625696300,3.7796962890625,-0.008499212563037872,-0.12738512456417084,-0.08970937877893448
1789222365635690200,3.789690185546875,-0.01613076590001583,-0.2622515857219696,0.139851376414299
1789222365645685200,3.799685302734375,-0.011601528152823448,-0.2764457166194916,0.08879990875720978
1789222365655679200,3.80967919921875,-0.006155896931886673,-0.2818053066730499,0.07372215390205383
1789222365665673200,3.819673095703125,-0.06111901253461838,0.01587803289294243,0.16113616526126862
1789222365675667200,3.829667236328125,-0.07755471020936966,0.19357985258102417,0.11255157738924026
1789222365685661400,3.839661376953125,-0.03640035167336464,-0.13652482628822327,0.11997140944004059
1789222365695655400,3.849655517578125,0.0026818031910806894,-0.3342605233192444,0.03418513387441635
1789222365705650400,3.859650390625,0.025489913299679756,-0.28177550435066223,0.07548756897449493
1789222365715644400,3.86964453125,0.08046581596136093,-0.403098464012146,0.16071458160877228
1789222365725638100,3.87963818359375,0.12034451961517334,-0.22457878291606903,-0.01816462352871895
1789222365735632100,3.889632080078125,0.10609234869480133,0.1474539041519165,0.06144258752465248
1789222365745626000,3.899626220703125,0.12507721781730652,0.07821597903966904,0.2033185064792633
1789222365755620400,3.909620361328125,0.16825611889362335,-0.2241838276386261,0.12019431591033936
1789222365765615000,3.919614990234375,0.21524253487586975,-0.3041447103023529,0.20235736668109894
1789222365775609300,3.929609375,0.26911988854408264,0.10636691749095917,0.06540270894765854
1789222365785603300,3.939603271484375,0.35597115755081177,0.18111465871334076,-0.06289507448673248
1789222365795597300,3.949597412109375,0.3738042116165161,0.006926083005964756,0.10566703975200653
1789222365805591300,3.95959130859375,0.3059178590774536,0.199870765209198,0.11863689869642258
1789222365815585300,3.969585205078125,0.24913392961025238,0.2522306442260742,0.19489172101020813
1789222365825580300,3.979580322265625,0.2087356299161911,0.02383422665297985,0.21029464900493622
1789222365835574300,3.98957421875,0.20721018314361572,-0.13663694262504578,0.06449989974498749
1789222365845568300,3.999568359375,0.2376125603914261,-0.08354496210813522,-0.030221551656723022
1789222365855562200,4.009562255859375,0.3489169776439667,-0.12632916867733002,-0.30659615993499756
1789222365865556200,4.01955615234375,0.47742968797683716,-0.2481594681739807,-0.3121517598628998
1789222365875550200,4.02955029296875,0.4728735387325287,0.1580980271100998,-0.22837086021900177
1789222365885545200,4.039545166015625,0.43270960450172424,0.38371169567108154,-0.2871425449848175
1789222365895539200,4.049539306640625,0.37215784192085266,0.05511678010225296,0.05360570549964905
1789222365905533400,4.059533447265625,0.1720583140850067,0.2856016457080841,0.24664519727230072
1789222365915527400,4.06952734375,0.044248953461647034,0.19538919627666473,0.22794342041015625
1789222365925521400,4.079521484375,0.06636996567249298,-0.34543943405151367,0.2141868621110916
1789222365935516400,4.089516357421875,0.14989548921585083,-0.23917396366596222,0.0929885283112526
1789222365945510400,4.099510498046875,0.2365076094865799,0.3889525532722473,-0.21605746448040009
1789222365955504000,4.109504150390625,0.3166581094264984,0.3699037432670593,-0.295654833316803
1789222365965498000,4.119498046875,0.32178229093551636,-0.050090596079826355,-0.18764206767082214
1789222365975492400,4.129492431640625,0.2541334629058838,-0.1949998438358307,-0.1753380000591278
1789222365985486300,4.139486328125,0.18313945829868317,-0.25707706809043884,-0.09351237118244171
1789222365995481300,4.1494814453125,0.1830393224954605,-0.24041686952114105,-0.14360350370407104
1789222366005475300,4.159475341796875,0.32931825518608093,-0.3153044283390045,-0.24923352897167206
1789222366015469300,4.16946923828125,0.44605737924575806,-0.08446534723043442,-0.14328712224960327
1789222366025463300,4.17946337890625,0.3581498861312866,0.5943994522094727,-0.0059724049642682076
1789222366035457300,4.189457275390625,0.17494651675224304,0.816131055355072,0.13259905576705933
1789222366045451300,4.199451171875,-0.0022916500456631184,0.40325692296028137,0.26520290970802307
1789222366055446300,4.2094462890625,-0.03883235156536102,-0.262746661901474,0.19528241455554962
1789222366065440300,4.219440185546875,0.04917553439736366,-0.4368670582771301,-0.15757231414318085
1789222366075434200,4.229434326171875,0.15376585721969604,-0.22759614884853363,-0.40552058815956116
1789222366085428200,4.23942822265625,0.20925602316856384,-0.24165523052215576,-0.21134473383426666
1789222366095422200,4.249422119140625,0.24077533185482025,-0.13394688069820404,-0.04898938164114952
1789222366105416200,4.259416259765625,0.21333464980125427,0.36140507459640503,-0.18755951523780823
1789222366115411200,4.2694111328125,0.09114828705787659,0.4313974678516388,-0.16061364114284515
1789222366125405200,4.2794052734375,-0.07215355336666107,0.011541874147951603,0.12769031524658203
1789222366135399400,4.2893994140625,-0.16453781723976135,-0.2517342269420624,0.1391163468360901
1789222366145393400,4.299393310546875,-0.07830572128295898,-0.5010801553726196,-0.07808787375688553
1789222366155387100,4.30938720703125,0.023500265553593636,-0.3087533116340637,-0.1631058305501938
1789222366165381000,4.319381103515625,0.055933039635419846,0.26391953229904175,-0.198038250207901
1789222366175376100,4.329376220703125,0.07321402430534363,0.4444544315338135,-0.1712023764848709
1789222366185370000,4.3393701171875,0.05235828086733818,0.18019400537014008,-0.16277000308036804
1789222366195363600,4.349363525390625,-0.09542185813188553,-0.06004096567630768,0.008376440964639187
1789222366205357600,4.359357666015625,-0.25883689522743225,-0.29609665274620056,0.25205621123313904
1789222366215351600,4.3693515625,-0.3097456097602844,-0.32868388295173645,0.1349162757396698
1789222366225345500,4.379345458984375,-0.28271904587745667,-0.10796774923801422,0.1561451256275177
1789222366235340500,4.389340576171875,-0.22845767438411713,0.25035977363586426,0.026459837332367897
1789222366245334500,4.39933447265625,-0.1141904890537262,0.04274400323629379,-0.2866450846195221
1789222366255328800,4.409328857421875,-0.008761799894273281,-0.535879909992218,-0.13004082441329956
1789222366265322500,4.419322509765625,0.08937968313694,-0.7015559673309326,-0.07103262841701508
1789222366275316500,4.42931640625,0.09542425721883774,-0.21823513507843018,-0.13064083456993103
1789222366285311500,4.4393115234375,-0.057011354714632034,0.374702513217926,-0.03610420972108841
1789222366295305500,4.449305419921875,-0.16290369629859924,0.2631320357322693,0.05378120765089989
1789222366305299500,4.459299560546875,-0.16330423951148987,-0.1257914900779724,0.13701723515987396
1789222366315293400,4.46929345703125,-0.0985417515039444,-0.2936643660068512,-0.016031963750720024
1789222366325287700,4.47928759765625,-0.02978692390024662,-0.3857783079147339,0.09875986725091934
1789222366335281700,4.48928173828125,0.007418235298246145,-0.16552823781967163,0.2870786488056183
1789222366345276700,4.499276611328125,0.05903828516602516,0.1850614696741104,-0.012294217012822628
1789222366355270700,4.509270751953125,0.14472469687461853,-0.005603291094303131,-0.21740742027759552
1789222366365264600,4.5192646484375,0.14938496053218842,-0.2764672636985779,-0.07252799719572067
1789222366375258400,4.52925830078125,0.04380181059241295,0.06942727416753769,-0.11538837850093842
1789222366385252400,4.53925244140625,0.016262592747807503,0.10427021235227585,-0.1262120008468628
1789222366395246600,4.54924658203125,0.07494454830884933,-0.19692504405975342,0.23445431888103485
1789222366405241600,4.55924169921875,0.04337730258703232,0.1732948273420334,0.30173081159591675
1789222366415235600,4.569235595703125,0.08111775666475296,0.14971040189266205,0.04896780848503113
1789222366425229600,4.5792294921875,0.18743248283863068,-0.3019428253173828,-0.005911951418966055
1789222366435223600,4.5892236328125,0.1573438197374344,-0.043419111520051956,-0.03045670874416828
1789222366445217500,4.599217529296875,0.13583506643772125,0.11121413856744766,-0.18977579474449158
1789222366455211500,4.60921142578125,0.22797058522701263,-0.265846312046051,-0.21705055236816406
1789222366465206500,4.61920654296875,0.23484766483306885,-0.1660906970500946,-0.009012669324874878
1789222366475200800,4.62920068359375,0.0903855562210083,0.30376121401786804,0.23129820823669434
1789222366485194500,4.639194580078125,0.031806133687496185,0.27240967750549316,0.05933602899312973
1789222366495188500,4.6491884765625,0.010847588069736958,-0.07834380865097046,0.21988895535469055
1789222366505182500,4.659182373046875,-0.12120072543621063,0.2092626690864563,0.3834392726421356
1789222366515176400,4.669176513671875,-0.1440945863723755,0.19330714643001556,0.08660946041345596
1789222366525171500,4.67917138671875,0.006445914972573519,-0.5217524170875549,0.08065356314182281
1789222366535165400,4.68916552734375,0.19432313740253448,-0.5971012115478516,-0.08429570496082306
1789222366545159700,4.69915966796875,0.34298717975616455,0.13696317374706268,-0.6482610702514648
1789222366555153700,4.709153564453125,0.4136890470981598,0.16492077708244324,-0.33867791295051575
1789222366565147600,4.719147705078125,0.3140423595905304,0.08499691635370255,-0.07098682224750519
1789222366575142700,4.729142578125,0.18677280843257904,0.12829405069351196,-0.09408335387706757
1789222366585136600,4.73913671875,0.0812506452202797,-0.08747205883264542,0.3515859842300415
1789222366595130400,4.74913037109375,-0.06024869158864021,0.03924807161092758,0.3431549668312073
1789222366605124400,4.759124267578125,-0.10624894499778748,0.05337480828166008,0.16559748351573944
1789222366615118600,4.76911865234375,-0.005998503882437944,-0.11444961279630661,0.20823203027248383
1789222366625112600,4.779112548828125,0.1633250117301941,0.10322758555412292,-0.1557275503873825
1789222366635107600,4.789107666015625,0.2927730083465576,0.31514835357666016,-0.31578752398490906
1789222366645101600,4.7991015625,0.3668581545352936,0.15948393940925598,-0.20902885496616364
1789222366655095600,4.809095458984375,0.3871743381023407,0.03356089070439339,-0.35805508494377136
1789222366665089500,4.819089599609375,0.30952855944633484,0.025077922269701958,-0.2494039684534073
1789222366675083500,4.82908349609375,0.20146706700325012,-0.046786945313215256,0.03996019810438156
1789222366685077800,4.839077880859375,0.06536169350147247,0.06887254118919373,0.0951709896326065
1789222366695072800,4.84907275390625,-0.013405287638306618,0.1616315096616745,0.11367729306221008
1789222366705066500,4.85906640625,0.01775449514389038,0.13430774211883545,0.11060374230146408
1789222366715060500,4.869060546875,0.055739693343639374,0.2201928198337555,-0.11348395049571991
1789222366725054500,4.879054443359375,0.06807785481214523,0.14101357758045197,-0.24034975469112396
1789222366735048400,4.88904833984375,0.10459645092487335,-0.26711344718933105,-0.13428457081317902
1789222366745042700,4.899042724609375,0.071149542927742,-0.2759021520614624,-0.0547170415520668
1789222366755037400,4.909037353515625,0.01877129077911377,0.1029956266283989,-0.14777694642543793
1789222366765031700,4.91903173828125,-0.08079178631305695,0.19926942884922028,-0.017246898263692856
1789222366775025700,4.929025634765625,-0.22589518129825592,-0.13486674427986145,0.21736854314804077
1789222366785019600,4.93901953125,-0.31194111704826355,-0.06281144917011261,0.10205552726984024
1789222366795013600,4.949013671875,-0.3055894672870636,0.20203138887882233,-0.04638667404651642
1789222366805007400,4.95900732421875,-0.20034001767635345,-0.18684658408164978,0.07605855166912079
1789222366815002600,4.969002685546875,-0.08279634267091751,-0.5818301439285278,0.14589062333106995
1789222366824996400,4.978996337890625,0.025606293231248856,-0.22898098826408386,-0.20314432680606842
1789222366834990600,4.988990478515625,0.15287236869335175,0.11000452935695648,-0.3090212345123291
1789222366844984600,4.998984619140625,0.25963184237480164,-0.22154676914215088,0.048222657293081284
1789222366854978600,5.008978515625,0.16327440738677979,-0.022854449227452278,0.1756884753704071
1789222366864972500,5.01897265625,-0.04314960166811943,0.6650965213775635,0.07469181716442108
1789222366874967600,5.028967529296875,-0.1906205415725708,0.5596622228622437,0.27460867166519165
1789222366884961500,5.03896142578125,-0.21986152231693268,-0.2035089135169983,0.34736835956573486
1789222366894955500,5.04895556640625,-0.15384149551391602,-0.2864493429660797,-0.04288701340556145
1789222366904949800,5.05894970703125,0.04776938632130623,0.06302743405103683,-0.336750328540802
1789222366914943500,5.068943603515625,0.2673417031764984,0.033960096538066864,-0.22520409524440765
1789222366924938800,5.078938720703125,0.3552246689796448,-0.07234849780797958,-0.21528542041778564
1789222366934932500,5.088932373046875,0.32271838188171387,-0.01654355600476265,-0.07621461153030396
1789222366944926500,5.098926513671875,0.19180911779403687,0.21102462708950043,0.22527199983596802
1789222366954920400,5.10892041015625,-0.02052151970565319,0.4272730350494385,0.24677462875843048
1789222366964914700,5.118914794921875,-0.25578224658966064,0.3505529463291168,0.3085131049156189
1789222366974908700,5.12890869140625,-0.357143759727478,0.23582184314727783,0.20809967815876007
1789222366984903700,5.138903564453125,-0.21341533958911896,0.07088828831911087,-0.023805463686585426
1789222366994897700,5.148897705078125,0.08602223545312881,-0.18607079982757568,-0.11274465918540955
1789222367004891600,5.1588916015625,0.2949586808681488,-0.17385327816009521,-0.13694506883621216
1789222367014885600,5.1688857421875,0.32288458943367004,-0.14113794267177582,-0.04205077886581421
1789222367024879400,5.17887939453125,0.1823785901069641,0.12120498716831207,-0.017740914598107338
1789222367034873600,5.18887353515625,-0.03591325879096985,0.43047335743904114,0.044009268283843994
1789222367044868400,5.198868408203125,-0.2000523954629898,0.34247052669525146,0.1001172810792923
1789222367054862600,5.208862548828125,-0.219443678855896,0.040171120315790176,-0.06911195814609528
1789222367064856600,5.218856689453125,-0.10597889870405197,-0.19696472585201263,0.05000670626759529
1789222367074850600,5.2288505859375,-0.02094176784157753,0.1306176632642746,0.04712756350636482
1789222367084844500,5.238844482421875,0.0015688681742176414,0.37395042181015015,-0.11705045402050018
1789222367094838500,5.248838623046875,-0.0034200313966721296,0.17725759744644165,-0.17238295078277588
1789222367104833500,5.25883349609375,0.042380478233098984,-0.3603890836238861,-0.06467247009277344
1789222367114827500,5.26882763671875,-0.020134296268224716,-0.3556843400001526,-0.10414370894432068
1789222367124821800,5.27882177734375,-0.2119242399930954,-0.09375046193599701,-0.11374041438102722
1789222367134815500,5.2888154296875,-0.36852237582206726,-0.06136748567223549,0.09170834720134735
1789222367144809500,5.2988095703125,-0.38324859738349915,0.3116835951805115,0.18691635131835938
1789222367154804500,5.308804443359375,-0.1176786944270134,0.378777414560318,0.1231408417224884
1789222367164798500,5.318798583984375,0.10921064019203186,0.35900741815567017,0.017717745155096054
1789222367174792400,5.32879248046875,0.05825691297650337,0.15797685086727142,0.23024065792560577
1789222367184786400,5.338786376953125,-0.07092051208019257,-0.4454331398010254,0.2977975904941559
1789222367194781400,5.348781494140625,-0.14791250228881836,-0.5678054094314575,0.03620540723204613
1789222367204775700,5.358775634765625,-0.12885011732578278,-0.1351516991853714,-0.13743482530117035
1789222367214770400,5.3687705078125,-0.11177047342061996,0.5638623237609863,-0.44735780358314514
1789222367224764700,5.3787646484375,-0.10577862709760666,0.5240280628204346,-0.509864866733551
1789222367234758700,5.388758544921875,-0.05138729140162468,-0.1700042188167572,-0.2673850953578949
1789222367244752400,5.39875244140625,-0.0033457293175160885,-0.5513928532600403,0.022546587511897087
1789222367254746400,5.408746337890625,-0.11403602361679077,0.07184196263551712,0.14356276392936707
1789222367264740400,5.418740234375,-0.1656574010848999,0.24245737493038177,0.16995468735694885
1789222367274735400,5.4287353515625,-0.12515738606452942,-0.24143099784851074,0.33111587166786194
1789222367284729600,5.4387294921875,-0.12057754397392273,0.03598489984869957,0.03454972058534622
1789222367294723600,5.4487236328125,-0.14366422593593597,0.3130713701248169,-0.17039677500724792
1789222367304717600,5.458717529296875,-0.14756521582603455,0.023575633764266968,-0.03530951961874962
1789222367314711600,5.468711669921875,-0.08226717263460159,-0.08737378567457199,-0.1817024201154709
1789222367324705500,5.47870556640625,-0.010249974206089973,0.12221139669418335,-0.29606494307518005
1789222367334700500,5.488700439453125,0.011347463354468346,0.15370061993598938,-0.10252264887094498
1789222367344694500,5.498694580078125,-0.017543040215969086,-0.29558584094047546,0.1467369794845581
1789222367354688500,5.5086884765625,-0.09217493236064911,-0.49228718876838684,0.2427854835987091
1789222367364682500,5.5186826171875,-0.13613919913768768,0.06474970281124115,-0.035524170845746994
1789222367374676500,5.528676513671875,-0.08460170030593872,0.27360785007476807,-0.042389269918203354
1789222367384670500,5.53867041015625,-0.02370266616344452,0.08484458178281784,-0.09978225082159042
1789222367394665500,5.54866552734375,-0.05806143954396248,0.12622691690921783,-0.13719354569911957
1789222367404659500,5.558659423828125,-0.16410797834396362,0.380425363779068,0.14476144313812256
1789222367414653400,5.5686533203125,-0.2200322300195694,0.23086729645729065,0.15845409035682678
1789222367424647700,5.578647705078125,-0.1915944665670395,-0.5420310497283936,0.1343037486076355
1789222367434641700,5.5886416015625,-0.19705981016159058,-0.5220778584480286,0.07121346145868301
1789222367444636700,5.59863671875,-0.1841764897108078,0.16476178169250488,-0.24953792989253998
1789222367454630700,5.608630615234375,-0.16634316742420197,0.30658629536628723,-0.14605361223220825
1789222367464624400,5.618624267578125,-0.2034388780593872,0.17634201049804688,0.03008679673075676
1789222367474618400,5.628618408203125,-0.25779637694358826,-0.044686511158943176,0.15583594143390656
1789222367484612400,5.6386123046875,-0.2441418319940567,-0.39384424686431885,0.07337594777345657
1789222367494606600,5.648606689453125,-0.1708657443523407,-0.6523290276527405,-0.06631270796060562
1789222367504601600,5.6586015625,-0.19498707354068756,-0.19308529794216156,0.14683231711387634
1789222367514595600,5.668595703125,-0.1872844099998474,0.5846104621887207,-0.07115966081619263
1789222367524589600,5.678589599609375,-0.10028665512800217,0.38667526841163635,-0.2919447720050812
1789222367534583600,5.68858349609375,-0.15200737118721008,0.030473221093416214,0.01206864695996046
1789222367544577500,5.69857763671875,-0.3839452564716339,0.447931706905365,0.19669468700885773
1789222367554571500,5.708571533203125,-0.4418301284313202,-0.2232045829296112,0.25146207213401794
1789222367564566500,5.71856640625,-0.32670220732688904,-1.750993013381958,0.6168179512023926
1789222367574560500,5.728560546875,-0.36756202578544617,-1.090806245803833,0.17578673362731934
1789222367584554500,5.738554443359375,-0.40994250774383545,0.5484998822212219,-0.8495073914527893
1789222367594548500,5.748548583984375,-0.33978259563446045,0.5525861978530884,-0.7188372611999512
1789222367604542500,5.75854248046875,-0.114532969892025,-0.5968298316001892,-0.07971879839897156
1789222367614536400,5.768536376953125,-0.014506238512694836,-0.5938745141029358,-0.016647951677441597
1789222367624531500,5.778531494140625,-0.23792095482349396,0.2658838629722595,0.2815698981285095
1789222367634525400,5.788525390625,-0.5820298790931702,0.4984548091888428,0.6913776397705078
1789222367644519700,5.798519775390625,-0.858051061630249,0.12226945161819458,0.6061141490936279
1789222367654513700,5.808513671875,-0.8791379928588867,-0.40675869584083557,-0.056591641157865524
1789222367664507600,5.818507568359375,-0.71720951795578,-0.8711205124855042,-0.14016643166542053
1789222367674502700,5.828502685546875,-0.5144391059875488,-0.7192668318748474,-0.13072791695594788
1789222367684496400,5.838496337890625,-0.21834991872310638,-0.4914112687110901,-0.45829299092292786
1789222367694490400,5.848490478515625,-0.03495798259973526,-0.5188591480255127,-0.27887582778930664
1789222367704484400,5.858484375,-0.08759376406669617,-0.37616032361984253,0.08299901336431503
1789222367714478600,5.868478515625,-0.27648138999938965,-0.21771714091300964,0.12477415800094604
1789222367724472600,5.87847265625,-0.5080161094665527,-0.19606643915176392,0.163367360830307
1789222367734467600,5.888467529296875,-0.741126537322998,0.03876630589365959,0.3267621397972107
1789222367744461600,5.898461669921875,-0.7045595049858093,-0.21625614166259766,0.5399546027183533
1789222367754455600,5.90845556640625,-0.40604284405708313,-0.42038050293922424,0.2164473533630371
1789222367764449500,5.918449462890625,-0.10889772325754166,-0.1969657987356186,-0.18549981713294983
1789222367774443500,5.928443603515625,0.17926669120788574,-0.5439903140068054,-0.19978554546833038
1789222367784437500,5.9384375,0.3134085237979889,-0.6223517060279846,-0.5644487142562866
1789222367794432500,5.9484326171875,0.2036186307668686,-0.1306927651166916,-0.48127874732017517
1789222367804426500,5.958426513671875,-0.01817207969725132,0.12450011819601059,0.23074346780776978
1789222367814420500,5.96842041015625,-0.12144546955823898,-0.36752715706825256,0.4782049357891083
1789222367824414500,5.97841455078125,-0.20778888463974,-0.2568301856517792,0.3729834258556366
1789222367834408400,5.988408447265625,-0.3408481180667877,0.6994214653968811,0.4946230351924896
1789222367844403500,5.998403564453125,-0.25747227668762207,0.41644275188446045,0.6219482421875
1789222367854397400,6.0083974609375,0.02610989660024643,-0.5005967617034912,-0.10471416264772415
1789222367864391700,6.0183916015625,0.38068529963493347,-0.8972319960594177,-0.5280579924583435
1789222367874385700,6.0283857421875,0.49224618077278137,-0.19606351852416992,-0.12921737134456635
1789222367884379600,6.038379638671875,0.5578992366790771,0.12285587936639786,-0.3658219277858734
1789222367894373400,6.048373291015625,0.6344645619392395,-0.5815134644508362,-0.3324194848537445
1789222367904368400,6.058368408203125,0.4551645815372467,-0.2083609253168106,0.2733481824398041
1789222367914362400,6.0683623046875,0.18649157881736755,0.8693801164627075,0.20164550840854645
1789222367924356400,6.0783564453125,0.13721324503421783,0.2775786221027374,0.2587604522705078
1789222367934350600,6.0883505859375,0.10828093439340591,-0.06991276890039444,0.6202366352081299
1789222367944344600,6.098344482421875,0.16731256246566772,0.47091957926750183,0.38953524827957153
1789222367954338600,6.108338623046875,0.4748983383178711,-0.014177071861922741,-0.06350760161876678
1789222367964333600,6.11833349609375,0.7736757397651672,-0.6875765323638916,-0.26749294996261597
1789222367974327600,6.12832763671875,0.7206689715385437,0.26100417971611023,-0.295467346906662
1789222367984321500,6.138321533203125,0.5466236472129822,1.0391947031021118,-0.3959835469722748
1789222367994315500,6.1483154296875,0.5529830455780029,-0.10257591307163239,-0.27389147877693176
1789222368004309500,6.1583095703125,0.485705703496933,-0.9017034769058228,-0.02014894410967827
1789222368014304500,6.168304443359375,0.34825146198272705,-0.23103907704353333,0.08947662264108658
1789222368024298500,6.178298583984375,0.23817448318004608,0.6080332398414612,0.34102603793144226
1789222368034292500,6.18829248046875,0.206948384642601,0.8296937346458435,0.42176535725593567
1789222368044286500,6.198286376953125,0.27286508679389954,0.39979586005210876,0.3667532205581665
1789222368054280400,6.208280517578125,0.3214520514011383,0.0968296080827713,-0.02912619337439537
1789222368064274400,6.2182744140625,0.4020023047924042,-0.31588447093963623,-0.4488222599029541
1789222368074269400,6.22826953125,0.4118216335773468,-0.5538139343261719,-0.21165499091148376
1789222368084263700,6.238263671875,0.4079105257987976,-0.20777396857738495,-0.2994261085987091
1789222368094257700,6.248257568359375,0.47970402240753174,-0.0457959845662117,-0.2994844317436218
1789222368104251600,6.258251708984375,0.5071550607681274,0.14170227944850922,0.0789898931980133
1789222368114245400,6.268245361328125,0.3963846266269684,0.7365632653236389,0.10036654770374298
1789222368124239400,6.2782392578125,0.17230838537216187,0.7561246752738953,0.28111183643341064
1789222368134234400,6.288234375,-0.04884583503007889,0.21109066903591156,0.4173879027366638
1789222368144228400,6.298228271484375,-0.17112940549850464,-0.2694450616836548,0.545447051525116
1789222368154222600,6.30822265625,-0.11336437612771988,-0.4657301604747772,0.39418086409568787
1789222368164216600,6.318216552734375,0.0763176754117012,-0.48318183422088623,-0.17824509739875793
1789222368174210600,6.32821044921875,0.15432752668857574,-0.24750061333179474,-0.31368201971054077
1789222368184204500,6.33820458984375,0.09782003611326218,0.31853723526000977,-0.44102799892425537
1789222368194199600,6.348199462890625,0.06364022940397263,0.25996553897857666,-0.6086734533309937
1789222368204193500,6.358193603515625,0.008464857004582882,-0.38408321142196655,-0.2696293592453003
1789222368214187500,6.3681875,-0.21068426966667175,-0.350578248500824,0.08922708034515381
1789222368224181800,6.378181640625,-0.31509456038475037,-0.4104764759540558,0.31944963335990906
1789222368234175700,6.38817578125,-0.3027265667915344,-0.37183746695518494,0.46078386902809143
1789222368244170800,6.398170654296875,-0.2415950447320938,0.21262864768505096,0.13992168009281158
1789222368254164700,6.408164794921875,-0.184029221534729,0.3496432304382324,0.11331670731306076
1789222368264158700,6.41815869140625,-0.12184760719537735,0.11129749566316605,-0.23283538222312927
1789222368274152700,6.428152587890625,-0.06033098325133324,-0.35258015990257263,-0.2764992415904999
1789222368284146400,6.438146484375,-0.01949913240969181,-0.5713463425636292,-0.05913336202502251
1789222368294140700,6.448140625,0.09345830976963043,-0.5012029409408569,-0.3331233561038971
1789222368304135700,6.4581357421875,0.12013866007328033,-0.245650514960289,-0.059299543499946594
1789222368314129700,6.468129638671875,0.048584580421447754,0.18905460834503174,0.24110636115074158
1789222368324123600,6.47812353515625,0.049371011555194855,0.36810266971588135,0.11532366275787354
1789222368334117600,6.48811767578125,0.05265868455171585,0.3639252185821533,0.11457185447216034
1789222368344111600,6.498111572265625,-0.030840469524264336,0.360066294670105,0.07585667818784714
1789222368354105600,6.508105712890625,-0.054838214069604874,-0.12127236276865005,0.09290038049221039
1789222368364100600,6.5181005859375,0.05379372462630272,-0.4760536253452301,-0.1169481873512268
1789222368374094800,6.5280947265625,0.295918732881546,-0.6848401427268982,-0.19201017916202545
1789222368384088800,6.5380888671875,0.3845553994178772,-0.05179235711693764,-0.04328036308288574
1789222368394082600,6.54808251953125,0.33556681871414185,0.4657703638076782,-0.0941118523478508
1789222368404076500,6.55807666015625,0.3480660915374756,-0.10439431667327881,-0.12073041498661041
1789222368414070500,6.568070556640625,0.29984796047210693,-0.18488463759422302,0.05986546352505684
1789222368424065500,6.5780654296875,0.1536628007888794,0.760029137134552,-0.13339561223983765
1789222368434059500,6.5880595703125,0.2626982033252716,0.18168431520462036,-0.2871851623058319
1789222368444053800,6.5980537109375,0.45627886056900024,-0.8259144425392151,0.12231206148862839
1789222368454047700,6.6080478515625,0.4607976973056793,0.1461516171693802,0.20079702138900757
1789222368464041700,6.618041748046875,0.4883851110935211,0.9161074161529541,-0.17869065701961517
1789222368474036700,6.62803662109375,0.5503132343292236,0.07480739802122116,-0.00021598236344289035
1789222368484030700,6.63803076171875,0.3647894263267517,-0.11764993518590927,0.1985626220703125
1789222368494024700,6.648024658203125,0.21492961049079895,0.2045171856880188,-0.1568782925605774
1789222368504018400,6.658018310546875,0.34406521916389465,-0.18672940135002136,-0.2498585730791092
1789222368514012700,6.6680126953125,0.47830772399902344,-0.09555049240589142,-0.16400066018104553
1789222368524006700,6.678006591796875,0.6255179643630981,0.38186880946159363,-0.46353116631507874
1789222368534001700,6.688001708984375,0.7275396585464478,0.39936044812202454,-0.058884087949991226
1789222368543995600,6.69799560546875,0.7069693803787231,0.6010885238647461,0.13027358055114746
1789222368553989600,6.70798974609375,0.56001216173172,0.77564537525177,0.088839590549469
1789222368563983600,6.717983642578125,0.35074764490127563,0.38370266556739807,0.37399810552597046
1789222368573977600,6.7279775390625,0.28696706891059875,-0.12832733988761902,0.19522088766098022
1789222368583972600,6.73797265625,0.2376604974269867,0.1780613511800766,0.09209424257278442
1789222368593966800,6.747966796875,0.3070395588874817,0.6080883741378784,-0.19313670694828033
1789222368603960800,6.7579609375,0.4643777906894684,0.4011088013648987,-0.26092132925987244
1789222368613954600,6.76795458984375,0.5196194648742676,0.34730497002601624,-0.128683939576149
1789222368623948500,6.777948486328125,0.49102139472961426,0.5020465850830078,-0.3653566837310791
1789222368633942500,6.787942626953125,0.42555102705955505,-0.1721896082162857,-0.12696167826652527
1789222368643937500,6.7979375,0.2347765564918518,-0.35177773237228394,0.07573071122169495
1789222368653931500,6.807931640625,-0.02377483807504177,0.39620620012283325,0.09191740304231644
1789222368663925800,6.81792578125,-0.15922081470489502,0.8602324724197388,0.16089753806591034
1789222368673919700,6.827919677734375,-0.15700852870941162,0.6883216500282288,0.15835689008235931
1789222368683913700,6.837913818359375,-0.13006532192230225,0.4513847529888153,0.0019350528018549085
1789222368693907700,6.84790771484375,-0.12070511281490326,-0.1063661202788353,0.073447585105896
1789222368703902700,6.85790283203125,-0.2142246812582016,-0.5357294678688049,0.20666129887104034
1789222368713896700,6.867896728515625,-0.34753134846687317,-0.23217597603797913,0.03913275524973869
1789222368723890400,6.877890380859375,-0.3675186336040497,0.21088241040706635,-0.32508087158203125
1789222368733884700,6.887884765625,-0.24593573808670044,-0.29818642139434814,-0.3397863209247589
1789222368743878700,6.897878662109375,-0.23417255282402039,-0.5235284566879272,-0.21164114773273468
1789222368753872600,6.90787255859375,-0.34438374638557434,0.06435342133045197,-0.14465118944644928
1789222368763867600,6.91786767578125,-0.42139169573783875,0.25119414925575256,0.16101844608783722
1789222368773861600,6.927861572265625,-0.4980763792991638,-0.14274436235427856,0.3806525468826294
1789222368783855600,6.937855712890625,-0.634801983833313,-0.35123953223228455,0.29218098521232605
1789222368793849600,6.947849609375,-0.674849808216095,-0.16108129918575287,0.11445174366235733
1789222368803843800,6.95784375,-0.5681667923927307,-0.02905268967151642,0.07104940712451935
1789222368813838800,6.9678388671875,-0.47781530022621155,0.06646531075239182,-0.2432965487241745
1789222368823832800,6.977832763671875,-0.40398529171943665,-0.425215482711792,-0.3402553200721741
1789222368833826600,6.98782666015625,-0.3848659098148346,-0.7758022546768188,0.08412633091211319
1789222368843820500,6.997820556640625,-0.3371732234954834,-0.35449737310409546,-0.02472212351858616
1789222368853814500,7.007814453125,-0.2718048691749573,-0.013765347190201283,-0.17775774002075195
1789222368863808500,7.01780859375,-0.41172656416893005,0.25558996200561523,0.26647987961769104
1789222368873803500,7.027803466796875,-0.5773522853851318,0.2578533887863159,0.3580087423324585
1789222368883797800,7.0377978515625,-0.5439514517784119,-0.13291756808757782,-0.012322979047894478
1789222368893791700,7.047791748046875,-0.38711923360824585,-0.6494967937469482,0.1963530033826828
1789222368903785700,7.05778564453125,-0.3144295811653137,-0.3950785994529724,0.1800512671470642
1789222368913779700,7.06777978515625,-0.18267926573753357,-0.17486342787742615,-0.2085374891757965
1789222368923773400,7.0777734375,-0.04639466106891632,0.034710843116045,-0.3147329092025757
1789222368933768700,7.087768798828125,0.026583140715956688,0.13556049764156342,-0.09597313404083252
1789222368943762400,7.097762451171875,-0.02213539555668831,0.09839661419391632,-0.11942226439714432
1789222368953756700,7.107756591796875,-0.031686823815107346,-0.43801677227020264,-0.0640982910990715
1789222368963750700,7.117750732421875,-0.016886305063962936,-0.42980730533599854,0.24864603579044342
1789222368973744600,7.12774462890625,-0.092667356133461,0.4722386598587036,0.2845560908317566
1789222368983739600,7.13773974609375,-0.14191585779190063,0.6747552752494812,0.1874508559703827
1789222368993733600,7.147733642578125,-0.06735294312238693,0.07360497862100601,0.1350739300251007
1789222369003727600,7.1577275390625,0.0519912950694561,-0.18982745707035065,0.0365377701818943
1789222369013721600,7.1677216796875,0.25225383043289185,-0.3800424039363861,-0.29735124111175537
1789222369023715800,7.1777158203125,0.4978958070278168,-0.8305824398994446,-0.34766554832458496
1789222369033709600,7.18770947265625,0.5473546981811523,-0.25039705634117126,-0.2598153352737427
1789222369043704800,7.197704833984375,0.43122783303260803,0.8759022355079651,-0.2757953703403473
1789222369053698600,7.207698486328125,0.3625587522983551,0.6019154191017151,0.02221156284213066
1789222369063692500,7.217692626953125,0.34081777930259705,-0.23828260600566864,0.3251778185367584
1789222369073686500,7.2276865234375,0.3277600407600403,-0.25846537947654724,0.2741287648677826
1789222369083680500,7.237680419921875,0.3600175678730011,0.18973425030708313,0.06678515672683716
1789222369093674800,7.2476748046875,0.2892912030220032,0.5844604969024658,0.2435346245765686
1789222369103669800,7.257669677734375,0.17512308061122894,0.4548085331916809,0.6427808403968811
1789222369113663700,7.267663818359375,0.088764488697052,0.45422476530075073,0.4906077980995178
1789222369123657700,7.27765771484375,0.09223964810371399,0.41100990772247314,-0.0029920614324510098
1789222369133651700,7.287651611328125,0.11806085705757141,-0.08435536175966263,-0.36688879132270813
1789222369143645700,7.297645751953125,0.1586037576198578,-0.733431875705719,-0.8138399124145508
1789222369153640700,7.307640625,0.17625199258327484,-0.7275726795196533,-0.8614529967308044
1789222369163634400,7.317634521484375,0.16759511828422546,-0.04518132656812668,-0.5225178003311157
1789222369173628700,7.327628662109375,0.13264192640781403,0.2593191862106323,-0.05801776424050331
1789222369183622700,7.33762255859375,0.0786905512213707,0.05126664787530899,0.22063995897769928
1789222369193616600,7.34761669921875,-0.1653261035680771,0.44575056433677673,0.43616771697998047
1789222369203610600,7.357610595703125,-0.47723740339279175,0.6567504405975342,0.6780892610549927
1789222369213605600,7.367605712890625,-0.593555212020874,-0.08838605135679245,0.5253021121025085
1789222369223599600,7.377599609375,-0.4848353862762451,-0.5669217705726624,-0.1496259719133377
1789222369233593600,7.387593505859375,-0.39055335521698,-0.1718844175338745,-0.27514156699180603
1789222369243587800,7.397587890625,-0.2529046833515167,0.23146331310272217,-0.5716733336448669
1789222369253581800,7.407581787109375,0.0032826124224811792,-0.30697086453437805,-0.7878586649894714
1789222369263575600,7.417575439453125,0.15104223787784576,-0.9129787683486938,-0.2720552086830139
1789222369273570600,7.427570556640625,0.0494205467402935,-0.4253624975681305,-0.13262328505516052
1789222369283564500,7.437564453125,-0.07518503069877625,-0.2375371903181076,0.053573478013277054
1789222369293558500,7.44755859375,-0.1783124804496765,-0.02786332182586193,0.4079984128475189
1789222369303552500,7.457552490234375,-0.32775843143463135,0.7845078706741333,0.3332245647907257
1789222369313546800,7.467546630859375,-0.38142672181129456,0.8508411049842834,0.2290526181459427
1789222369323540700,7.477540771484375,-0.34145453572273254,0.186177596449852,0.39759451150894165
1789222369333535700,7.48753564453125,-0.24475595355033875,-0.3214009404182434,0.31062257289886475
1789222369343529700,7.49752978515625,0.004276504274457693,-0.726408064365387,-0.21667398512363434
1789222369353523700,7.507523681640625,0.28873300552368164,-0.7312955260276794,-0.4311191737651825
1789222369363517700,7.517517578125,0.40699198842048645,-0.07454454153776169,-0.22777937352657318
1789222369373511700,7.52751171875,0.38649818301200867,0.4916088879108429,-0.1995362788438797
1789222369383506400,7.53750634765625,0.1958765685558319,0.4568391740322113,-0.0035244273021817207
1789222369393500700,7.547500732421875,-0.021796375513076782,0.07721995562314987,0.2023022323846817
1789222369403494700,7.55749462890625,-0.06764668971300125,-0.3137885630130768,0.19431355595588684
1789222369413488600,7.567488525390625,0.0021933794487267733,-0.1131473258137703,0.087186299264431
1789222369423482600,7.577482666015625,0.06567488610744476,0.4181322753429413,0.11396678537130356
1789222369433476600,7.5874765625,0.19364456832408905,0.3440505862236023,0.20929010212421417
1789222369443471600,7.5974716796875,0.2612510323524475,0.25438541173934937,0.1205916628241539
1789222369453465600,7.607465576171875,0.23280049860477448,0.28328895568847656,-0.1032819151878357
1789222369463459800,7.6174599609375,0.16457456350326538,-0.11105994135141373,-0.06524291634559631
1789222369473453800,7.627453857421875,0.04837845265865326,-0.3062576651573181,-0.05227332562208176
1789222369483447600,7.637447509765625,0.0005036037764512002,-0.15106141567230225,-0.1583329141139984
1789222369493441500,7.647441650390625,0.08519665151834488,-0.03133315593004227,-0.019463978707790375
1789222369503436500,7.6574365234375,0.23227638006210327,0.08707205206155777,0.06018238142132759
1789222369513430500,7.667430419921875,0.25064873695373535,0.32009679079055786,0.12377440184354782
1789222369523424500,7.677424560546875,0.2196258306503296,0.2930643558502197,0.04412618279457092
1789222369533418800,7.687418701171875,0.18117325007915497,-0.07588251680135727,0.11840733885765076
1789222369543412700,7.697412841796875,0.0780165046453476,-0.05915147066116333,0.06809250265359879
1789222369553407700,7.70740771484375,-0.041611891239881516,0.23512010276317596,-0.01666126772761345
1789222369563401700,7.717401611328125,-0.017704429104924202,0.13948571681976318,-0.06621576845645905
1789222369573395700,7.727395751953125,0.07374772429466248,-0.06681684404611588,-0.09508629888296127
1789222369583389700,7.7373896484375,0.1365964561700821,-0.1740117371082306,0.0720643401145935
1789222369593383400,7.747383544921875,0.17410148680210114,-0.07623910903930664,0.16491065919399261
1789222369603377700,7.757377685546875,0.18955901265144348,0.17149078845977783,-0.07472456991672516
1789222369613372700,7.76737255859375,0.1397770792245865,0.1658715307712555,-0.03807228431105614
1789222369623366700,7.77736669921875,-0.017420269548892975,0.21702365577220917,0.12660321593284607
1789222369633360600,7.787360595703125,-0.09309665113687515,0.22361604869365692,-0.1335705816745758
1789222369643354600,7.797354736328125,-0.08939433097839355,0.10518127679824829,-0.22849150002002716
1789222369653348600,7.8073486328125,-0.09639071673154831,-0.04897633194923401,-0.12717020511627197
1789222369663342600,7.817342529296875,-0.03532390296459198,-0.4712199866771698,0.01613556034862995
1789222369673337600,7.827337646484375,0.07170481234788895,-0.53272944688797,-0.0539894662797451
1789222369683331800,7.837331787109375,0.19611704349517822,-0.1769729107618332,-0.4001103937625885
1789222369693325800,7.847325927734375,0.11836019903421402,0.32101690769195557,-0.08494099229574203
1789222369703319600,7.857319580078125,-0.13360972702503204,0.7889571785926819,0.16974376142024994
1789222369713313500,7.8673134765625,-0.2186785489320755,0.2581450045108795,-0.03232651576399803
1789222369723308500,7.87730859375,-0.1729278415441513,-0.7201584577560425,0.1723177134990692
1789222369733302500,7.887302490234375,-0.20369000732898712,-0.37982508540153503,0.1460631936788559
1789222369743296500,7.897296630859375,-0.08969579637050629,-0.04440581426024437,-0.11768642067909241
1789222369753290800,7.907290771484375,0.13842712342739105,-0.27298998832702637,-0.07078681886196136
1789222369763284700,7.91728466796875,0.2316902130842209,0.19523394107818604,-0.2273426055908203
1789222369773278700,7.92727880859375,0.10467847436666489,0.8170849680900574,-0.15902000665664673
1789222369783273700,7.937273681640625,0.03161172196269035,0.18531925976276398,-0.14210493862628937
1789222369793267700,7.947267822265625,0.019042400643229485,-0.7657530903816223,-0.06453131884336472
1789222369803261700,7.95726171875,-0.09648073464632034,-0.39802858233451843,0.22487331926822662
1789222369813255400,7.96725537109375,-0.11533378064632416,0.3726694583892822,0.11426079273223877
1789222369823249700,7.977249755859375,0.01260793674737215,0.2114991992712021,0.11897565424442291
1789222369833243600,7.98724365234375,0.09703786671161652,-0.0910758450627327,0.2757311761379242
1789222369843238700,7.99723876953125,0.06035735085606575,0.14984062314033508,0.05187198519706726
1789222369853232600,8.007232666015625,-0.02255910448729992,0.09141833335161209,0.0615115649998188
1789222369863226600,8.0172265625,-0.08339768648147583,-0.1570277065038681,0.043898481875658035
1789222369873220600,8.027220703125,-0.1464991569519043,-0.06314967572689056,-0.1909899264574051
1789222369883214600,8.037214599609374,-0.1792597621679306,-0.008731439709663391,-0.2164105921983719
1789222369893209600,8.047209716796875,-0.05907903239130974,-0.41739511489868164,-0.22966381907463074
1789222369903203800,8.057203857421875,0.09534276276826859,-0.5987989902496338,-0.04658827558159828
1789222369913197800,8.06719775390625,0.13894909620285034,0.021508753299713135,0.0011835087789222598
1789222369923191600,8.077191650390626,0.09598138928413391,0.38035666942596436,0.051000598818063736
1789222369933185500,8.087185546875,0.015025022439658642,0.16579508781433105,0.1900748610496521
1789222369943179500,8.097179443359375,-0.06215045601129532,0.049990464001894,0.20031152665615082
1789222369953174500,8.107174560546875,-0.06805175542831421,0.03104819729924202,-0.08187462389469147
1789222369963168500,8.11716845703125,-0.009196960367262363,-0.08201337605714798,-0.06647276878356934
1789222369973162800,8.127162841796874,0.026756247505545616,0.03906404599547386,0.26375919580459595
1789222369983156700,8.13715673828125,0.16153642535209656,0.16389678418636322,-0.045346442610025406
1789222369993150700,8.147150634765625,0.37123480439186096,-0.13742735981941223,-0.1393725425004959
1789222370003144700,8.157144775390625,0.39392200112342834,-0.007166832685470581,0.05654796585440636
1789222370013139700,8.1671396484375,0.3237772583961487,0.2087995558977127,-0.1847330927848816
1789222370023133700,8.1771337890625,0.2643384337425232,-0.11051639169454575,0.11245996505022049
1789222370033127400,8.18712744140625,0.2191544473171234,0.010353305377066135,0.29708945751190186
1789222370043121700,8.19712158203125,0.2098935842514038,0.4897236227989197,0.01973269134759903
1789222370053115600,8.20711572265625,0.19415003061294556,0.4030201733112335,0.23185214400291443
1789222370063110700,8.217110595703126,0.19742146134376526,0.13203978538513184,0.10495198518037796
1789222370073104600,8.227104736328124,0.30256572365760803,-0.09798595309257507,-0.23238131403923035
1789222370083098600,8.2370986328125,0.4143684208393097,-0.03425890579819679,-0.01884346269071102
1789222370093092600,8.247092529296875,0.4913526773452759,0.35970252752304077,-0.1794762760400772
1789222370103086600,8.257086669921875,0.4957546293735504,0.2372564971446991,-0.08290393650531769
1789222370113080800,8.267080810546876,0.40523990988731384,0.15494270622730255,0.09376111626625061
1789222370123075800,8.277075927734375,0.2545287013053894,0.40265023708343506,-0.15960271656513214
1789222370133069800,8.28706982421875,0.18741250038146973,-0.043295808136463165,-0.11906354129314423
1789222370143063600,8.2970634765625,0.1885557919740677,-0.17569459974765778,-0.16166506707668304
1789222370153057500,8.3070576171875,0.21364784240722656,0.25493109226226807,-0.08725208044052124
1789222370163051500,8.317051513671874,0.2871321737766266,0.48349928855895996,0.06450255960226059
1789222370173045800,8.327045654296874,0.3559996485710144,0.26135435700416565,0.08764596283435822
1789222370183040500,8.33704052734375,0.22629918158054352,0.08655060082674026,0.3397618234157562
1789222370193034000,8.347033935546875,-0.08588960766792297,0.4352406859397888,0.23625221848487854
1789222370203028000,8.357028076171876,-0.3038102090358734,0.3478724956512451,-0.0048975530080497265
1789222370213022000,8.36702197265625,-0.3270476162433624,-0.3213122487068176,-0.02244671992957592
1789222370223015700,8.377015625,-0.22869442403316498,-0.5395029187202454,-0.19193455576896667
1789222370233011000,8.387010986328125,-0.08544885367155075,-0.2239617258310318,-0.1680625081062317
1789222370243004700,8.397004638671875,0.057858504354953766,0.10149546712636948,0.02623293548822403
1789222370252999000,8.4069990234375,0.06809383630752563,0.29692143201828003,0.17317818105220795
1789222370262993000,8.416992919921874,-0.0772833377122879,0.17719101905822754,0.07887963205575943
1789222370272987000,8.42698681640625,-0.2933519780635834,-0.31409481167793274,0.22159896790981293
1789222370282980900,8.43698095703125,-0.4758685231208801,-0.31121140718460083,0.12053706496953964
1789222370292975900,8.446975830078125,-0.5096030831336975,-0.06587781757116318,-0.04674806445837021
1789222370302969900,8.456969970703126,-0.3803268373012543,-0.087550088763237,-0.015596802346408367
1789222370312963800,8.4669638671875,-0.16978611052036285,-0.07629210501909256,-0.2845340073108673
1789222370322958000,8.4769580078125,-0.0632077306509018,-0.010843059979379177,-0.22557958960533142
1789222370332951800,8.486951904296875,-0.09213045984506607,-0.11601235717535019,0.07992226630449295
1789222370342945800,8.49694580078125,-0.2169823795557022,-0.31782376766204834,0.2336079627275467
1789222370352940800,8.50694091796875,-0.3824600279331207,-0.23825517296791077,0.20429082214832306
1789222370362934800,8.516934814453125,-0.5296497344970703,0.006502906791865826,0.23594355583190918
1789222370372928800,8.5269287109375,-0.5864027738571167,0.03291294351220131,0.26662182807922363
1789222370382923000,8.536923095703125,-0.4687075614929199,-0.13042618334293365,-0.09755025804042816
1789222370392917000,8.5469169921875,-0.25029346346855164,-0.23960167169570923,-0.29857924580574036
1789222370402912000,8.556912109375,-0.033899642527103424,-0.2142592966556549,-0.24307629466056824
1789222370412906000,8.566906005859375,0.09043695777654648,-0.22678440809249878,-0.07053515315055847
1789222370422900000,8.57689990234375,0.1319151520729065,-0.3474264144897461,0.026608441025018692
1789222370432894000,8.58689404296875,0.057500310242176056,-0.24709926545619965,0.18101638555526733
1789222370442887700,8.5968876953125,-0.13495248556137085,0.29066699743270874,0.41161951422691345
1789222370452882000,8.6068818359375,-0.2430826872587204,0.5867471098899841,0.30693650245666504
1789222370462876700,8.616876708984375,-0.19563288986682892,0.21779145300388336,0.1511479765176773
1789222370472871000,8.626870849609375,-0.06155763566493988,-0.05281634256243706,-0.09380771964788437
1789222370482865000,8.636864990234375,0.12220500409603119,-0.055876847356557846,-0.1825285255908966
1789222370492859000,8.64685888671875,0.3326977789402008,-0.154104083776474,-0.2964085042476654
1789222370502852900,8.656852783203124,0.44927579164505005,-0.2677195966243744,-0.33016112446784973
1789222370512846800,8.666846923828125,0.39706453680992126,-0.12971751391887665,-0.15323136746883392
1789222370522841900,8.676841796875,0.25867122411727905,0.005751628894358873,-0.12292725592851639
1789222370532835800,8.6868359375,0.08535484224557877,-0.061109691858291626,0.015172827988862991
1789222370542830000,8.696830078125,-0.055217184126377106,0.09024893492460251,0.03663337975740433
1789222370552823800,8.70682373046875,-0.03416436165571213,0.1982867270708084,0.10806442052125931
1789222370562817800,8.71681787109375,0.11043117195367813,0.21692299842834473,0.11613619327545166
1789222370572812800,8.726812744140625,0.2736344635486603,0.16254204511642456,0.04614246264100075
1789222370582806800,8.736806884765626,0.2771349251270294,0.29206833243370056,0.02263473905622959
1789222370592800800,8.74680078125,0.1452767699956894,0.4190467894077301,-0.005343100056052208
1789222370602795000,8.756794921875,0.0062544336542487144,0.15686337649822235,-0.08413298428058624
1789222370612789000,8.7667890625,-0.06483039259910583,-0.32264116406440735,-0.13737542927265167
1789222370622783000,8.776782958984375,-0.029563751071691513,-0.5414627194404602,-0.23358799517154694
1789222370632778000,8.786778076171874,0.1465446949005127,-0.485665500164032,-0.1528015285730362
1789222370642772000,8.79677197265625,0.3229961693286896,0.1197919175028801,-0.07927058637142181
1789222370652766000,8.806765869140625,0.30501049757003784,0.8649475574493408,-0.07143929600715637
1789222370662759700,8.816759765625,0.1896684616804123,0.5708283185958862,0.025965820997953415
1789222370672754000,8.82675390625,0.010789530351758003,-0.2012345790863037,0.2095889151096344
1789222370682748000,8.836747802734376,-0.1932477504014969,-0.2835949659347534,0.18848548829555511
1789222370692743000,8.846742919921875,-0.28740912675857544,0.109386146068573,-0.10358711332082748
1789222370702737000,8.85673681640625,-0.15788710117340088,-0.03658783808350563,-0.16646328568458557
1789222370712731000,8.86673095703125,0.05336495488882065,-0.27566805481910706,-0.02371758036315441
1789222370722724900,8.876724853515626,0.18592938780784607,0.10250480473041534,-0.12501810491085052
1789222370732718800,8.88671875,0.2582800090312958,0.2730938494205475,-0.3223753869533539
1789222370742713900,8.8967138671875,0.22674739360809326,-0.14854313433170319,-0.11802943795919418
1789222370752707800,8.906707763671875,0.008443285711109638,-0.1668851226568222,0.1382524073123932
1789222370762702000,8.9167021484375,-0.22145329415798187,0.19034597277641296,0.11927499622106552
1789222370772695800,8.92669580078125,-0.27091139554977417,0.16067703068256378,0.10563667863607407
1789222370782689800,8.936689697265624,-0.18381990492343903,-0.029034581035375595,0.20007583498954773
1789222370792683800,8.946683837890625,-0.08003651350736618,0.1459318995475769,0.14547570049762726
1789222370802678800,8.9566787109375,0.03032994270324707,0.2730664312839508,-0.08718523383140564
1789222370812672800,8.9666728515625,0.1303577423095703,-0.07396077364683151,-0.14717426896095276
1789222370822667000,8.9766669921875,0.0792146623134613,-0.2563004791736603,-0.05002908036112785
1789222370832661000,8.986660888671874,-0.014364291913807392,-0.2920129597187042,-0.12422927469015121
1789222370842655000,8.996655029296875,-0.06407139450311661,-0.20924963057041168,-0.026145316660404205
1789222370852649000,9.00664892578125,-0.09146493673324585,0.19417187571525574,0.07273412495851517
1789222370862644000,9.01664404296875,-0.06752897799015045,0.342467337846756,0.01799711026251316
1789222370872638000,9.026637939453124,-0.01512915175408125,-0.05138382688164711,0.11967047303915024
1789222370882631700,9.036631591796874,-0.0011837751371785998,-0.10179826617240906,0.018075672909617424
1789222370892626000,9.0466259765625,0.0403871051967144,0.03471590206027031,-0.30848008394241333
1789222370902620000,9.056619873046875,0.11942439526319504,-0.20088383555412292,-0.3007097542285919
1789222370912615000,9.066614990234376,0.14525705575942993,-0.24095934629440308,-0.11133851110935211
1789222370922609000,9.07660888671875,0.09524556249380112,0.21407340466976166,-0.046840209513902664
1789222370932603000,9.086602783203125,0.02948998101055622,0.31847625970840454,0.1615002155303955
1789222370942596900,9.096596923828125,-0.026026275008916855,0.025237180292606354,0.24424010515213013
1789222370952590800,9.1065908203125,-0.08082108199596405,-0.07155913859605789,0.2097332626581192
1789222370962585000,9.116585205078126,-0.16678579151630402,0.3658645451068878,0.1278197467327118
1789222370972579800,9.126579833984374,-0.16381236910820007,0.4279681146144867,-0.08972775191068649
1789222370982574000,9.136573974609375,-0.016107063740491867,-0.31784987449645996,-0.1318078339099884
1789222370992567800,9.14656787109375,0.11745365709066391,-0.5984008312225342,-0.02671416848897934
1789222371002561800,9.156561767578125,0.09205589443445206,0.05059553310275078,0.07087470591068268
1789222371012555800,9.1665556640625,0.019456522539258003,0.2869787812232971,-0.05517883226275444
1789222371022549800,9.1765498046875,-0.08140803873538971,-0.08334389328956604,-0.12444046139717102
1789222371032544800,9.186544677734375,-0.24256762862205505,-0.1235421746969223,-0.0619930624961853
1789222371042539000,9.1965390625,-0.314452201128006,0.06393370777368546,-0.21696719527244568
1789222371052533000,9.206532958984376,-0.2147676944732666,-0.17723309993743896,-0.09255044162273407
1789222371062527000,9.21652685546875,-0.1616370975971222,0.006687730085104704,0.1382329761981964
1789222371072521000,9.22652099609375,-0.180966317653656,0.30877941846847534,0.16228744387626648
1789222371082516000,9.236515869140625,-0.1666254699230194,-0.07413814216852188,0.19226984679698944
1789222371092510000,9.246510009765625,-0.14972025156021118,-0.4123731851577759,0.07710490375757217
1789222371102503700,9.256503662109376,-0.2119748443365097,-0.21152742207050323,-0.05446617305278778
1789222371112498000,9.266497802734374,-0.28159359097480774,0.08110124617815018,-0.13042032718658447
1789222371122492000,9.276491943359375,-0.2535632848739624,0.10597996413707733,-0.25344184041023254
1789222371132486000,9.28648583984375,-0.13065601885318756,-0.21974247694015503,-0.17050409317016602
1789222371142481000,9.29648095703125,-0.007821704261004925,-0.43928229808807373,0.016748087480664253
1789222371152475000,9.306474853515626,0.007677360903471708,-0.21186324954032898,0.10016628354787827
1789222371162468900,9.31646875,-0.00977566558867693,0.10336340963840485,0.015977101400494576
1789222371172462800,9.326462890625,-0.048232510685920715,0.1935657411813736,0.07194209843873978
1789222371182457000,9.33645703125,-0.0661659687757492,0.09989144653081894,0.10093700140714645
1789222371192451000,9.346451171875,-0.06574172526597977,0.1389501690864563,0.05342114716768265
1789222371202446300,9.3564462890625,-0.09209850430488586,0.4099997580051422,0.046773895621299744
1789222371212440300,9.3664404296875,-0.002332130214199424,0.07939495891332626,0.15926341712474823
1789222371222434000,9.37643408203125,0.13607634603977203,-0.4400029480457306,0.15389874577522278
1789222371232428000,9.386427978515625,0.19228368997573853,-0.21304570138454437,-0.07193810492753983
1789222371242422000,9.396422119140626,0.20155975222587585,0.24796533584594727,-0.22412098944187164
1789222371252417000,9.4064169921875,0.19952882826328278,0.18421165645122528,-0.09771990031003952
1789222371262411000,9.416410888671875,0.16605901718139648,0.03249109908938408,-0.06291291862726212
1789222371272405200,9.4264052734375,0.09279970824718475,0.11703367531299591,0.07681222259998322
1789222371282399200,9.436399169921875,0.02568645402789116,0.24653148651123047,0.25788772106170654
1789222371292393200,9.446393310546876,0.019306853413581848,0.16132284700870514,0.28204581141471863
1789222371302387200,9.45638720703125,0.053769756108522415,0.1672888547182083,0.2302854061126709
1789222371312382200,9.46638232421875,0.06465968489646912,0.5144904851913452,-0.03263437747955322
1789222371322376200,9.476376220703125,0.08116089552640915,0.32600632309913635,-0.16697381436824799
1789222371332370000,9.486369873046876,0.11059734970331192,-0.25067588686943054,-0.13149970769882202
1789222371342364200,9.4963642578125,0.14574921131134033,-0.4424234926700592,-0.12100924551486969
1789222371352358100,9.506358154296874,0.11952666193246841,-0.1285393387079239,0.0373590886592865
1789222371362352000,9.51635205078125,0.023212645202875137,0.3614506125450134,-0.007540207821875811
1789222371372347100,9.52634716796875,-0.09566447138786316,0.2990386188030243,0.1546391099691391
1789222371382341000,9.536341064453126,-0.18842850625514984,0.1435590237379074,0.13449789583683014
1789222371392335000,9.546335205078124,-0.205827996134758,0.14262080192565918,-0.09836918115615845
1789222371402329000,9.5563291015625,-0.15672622621059418,0.008951417170464993,-0.016405871137976646
1789222371412323300,9.5663232421875,-0.015206916257739067,-0.17144125699996948,-0.22794528305530548
1789222371422318300,9.576318359375,0.10669022798538208,-0.3538675308227539,-0.21070611476898193
1789222371432312300,9.586312255859376,0.0727117508649826,-0.1099158450961113,0.11132093518972397
1789222371442306000,9.59630615234375,-0.09536992758512497,0.3513665497303009,0.11735645681619644
1789222371452300000,9.606300048828125,-0.2645717263221741,0.15953293442726135,0.1278301328420639
1789222371462294000,9.6162939453125,-0.3667827844619751,-0.11344347149133682,0.21476663649082184
1789222371472288300,9.626288330078125,-0.4598008692264557,0.28850555419921875,0.04258421063423157
1789222371482283000,9.636282958984374,-0.3852246403694153,0.0755099356174469,-0.0512557290494442
1789222371492277200,9.64627734375,-0.1216241717338562,-0.6096023917198181,-0.022974291816353798
1789222371502271200,9.656271240234375,0.06015228480100632,-0.3471795320510864,-0.04716538265347481
1789222371512265200,9.66626513671875,0.031377095729112625,0.4062276780605316,-0.13240677118301392
1789222371522259200,9.67625927734375,-0.0416845977306366,0.1063474789261818,-0.1669173538684845
1789222371532253000,9.6862529296875,-0.22421365976333618,-0.3240819275379181,0.09730684757232666
1789222371542248200,9.696248291015625,-0.4635298550128937,0.11689306050539017,0.00010173275222769007
1789222371552242000,9.706241943359375,-0.47037044167518616,-0.1083483099937439,-0.04282069951295853
1789222371562236200,9.716236083984375,-0.4263622462749481,-0.4692407250404358,0.18364253640174866
1789222371572230100,9.726230224609376,-0.4226665794849396,-0.0037979339249432087,-0.0075998627580702305
1789222371582224100,9.73622412109375,-0.38584837317466736,0.23015064001083374,0.00023915186466183513
1789222371592219100,9.74621923828125,-0.37821096181869507,0.0443301796913147,0.12588097155094147
1789222371602213000,9.756213134765625,-0.43864232301712036,-0.13711364567279816,-0.06961663067340851
1789222371612207000,9.76620703125,-0.4527725279331207,-0.6902607083320618,0.04980484023690224
1789222371622201000,9.776201171875,-0.3962418735027313,-1.0248619318008423,0.1437678188085556
1789222371632195300,9.7861953125,-0.32614853978157043,-0.617309033870697,-0.08077394217252731
1789222371642189000,9.79618896484375,-0.29627639055252075,0.14049425721168518,-0.22636283934116364
1789222371652184300,9.806184326171875,-0.25073447823524475,0.38395965099334717,-0.28862807154655457
1789222371662178000,9.816177978515626,-0.20033548772335052,-0.026940271258354187,-0.16478654742240906
1789222371672172000,9.826172119140624,-0.2187965214252472,-0.2928129732608795,-0.05155613645911217
1789222371682166000,9.836166015625,-0.24925030767917633,-0.2601519525051117,0.03707493096590042
1789222371692160300,9.84616015625,-0.26792678236961365,-0.28722697496414185,0.43009066581726074
1789222371702154200,9.856154296875,-0.28443092107772827,-0.239805668592453,0.5952426195144653
1789222371712149200,9.866149169921876,-0.23666927218437195,-0.03923448920249939,0.16172604262828827
1789222371722143200,9.876143310546874,-0.15277382731437683,0.10634268820285797,-0.025257419794797897
1789222371732137200,9.88613720703125,-0.17495423555374146,0.29852065443992615,-0.0481233187019825
1789222371742131200,9.896131103515625,-0.10378392040729523,-0.07254903763532639,-0.5018399357795715
1789222371752125200,9.906125244140625,0.0713530108332634,-0.6359913349151611,-0.47442641854286194
1789222371762119200,9.916119140625,0.1638728231191635,-0.41615432500839233,0.06190384924411774
1789222371772114000,9.926114013671874,0.23764264583587646,-0.0004921521758660674,-0.10978855192661285
1789222371782108200,9.936108154296875,0.30804678797721863,-0.251947820186615,0.003329484025016427
1789222371792102100,9.94610205078125,0.13015161454677582,0.3088843524456024,0.26428890228271484
1789222371802096000,9.95609619140625,-0.10439378023147583,0.8773493766784668,0.18460579216480255
1789222371812090000,9.966090087890626,-0.14796842634677887,0.19698230922222137,0.2232501357793808
1789222371822085000,9.976085205078125,-0.061100903898477554,-0.4245457053184509,0.05817835032939911
1789222371832079000,9.9860791015625,0.013291836716234684,-0.22105835378170013,-0.12480611354112625
1789222371842073000,9.996072998046875,0.08661878108978271,-0.10235326737165451,0.001743305241689086
1789222371852067300,10.0060673828125,0.18061532080173492,-0.20565329492092133,-0.17569352686405182
1789222371862061300,10.016061279296874,0.17015574872493744,-0.12637577950954437,-0.14033207297325134
1789222371872055000,10.026054931640624,-0.018992599099874496,0.4147162437438965,-0.010210826061666012
1789222371882050000,10.036050048828125,-0.1515871286392212,0.23837874829769135,-0.10482414811849594
1789222371892044000,10.0460439453125,-0.16176120936870575,-0.6035860180854797,0.13244885206222534
1789222371902038000,10.0560380859375,-0.13944897055625916,-0.5099764466285706,0.1163572371006012
1789222371912032000,10.066031982421874,-0.06598247587680817,0.02695385366678238,-0.02864362858235836
1789222371922026200,10.076026123046875,0.012747487053275108,0.17787732183933258,0.10867614299058914
1789222371932020200,10.086020263671875,0.0037177728954702616,0.28738412261009216,0.0355508029460907
1789222371942015200,10.09601513671875,-0.0826493427157402,0.2033565789461136,-0.13410693407058716
1789222371952009200,10.10600927734375,-0.20487432181835175,-0.3140617907047272,0.012015916407108307
1789222371962003200,10.116003173828124,-0.28232648968696594,-0.7255846261978149,-0.010416422039270401
1789222371971997200,10.1259970703125,-0.25177446007728577,-0.6963484287261963,-0.13296310603618622
1789222371981991200,10.1359912109375,-0.15636590123176575,-0.1703147441148758,-0.23236532509326935
1789222371991986000,10.14598583984375,-0.08996371179819107,0.29959842562675476,-0.18018148839473724
1789222372001980200,10.155980224609374,-0.037091709673404694,-0.06333023309707642,0.02046159841120243
1789222372011974100,10.16597412109375,-0.04133225977420807,-0.5151256322860718,0.1604570597410202
1789222372021968100,10.175968017578125,-0.16296042501926422,-0.17869864404201508,0.15572381019592285
1789222372031962000,10.185962158203125,-0.2806966304779053,0.1888524740934372,0.07531925290822983
1789222372041956000,10.1959560546875,-0.2902155816555023,0.0011065434664487839,-0.1358308047056198
1789222372051951000,10.205951171875,-0.24193380773067474,-0.3197553753852844,-0.11203865706920624
1789222372061945000,10.215945068359375,-0.1933169960975647,-0.2892339527606964,-0.046426620334386826
1789222372071939300,10.225939208984375,-0.07750757783651352,-0.4256218671798706,-0.040516532957553864
1789222372081933300,10.235933349609375,0.01810869574546814,-0.5551199316978455,0.10717812180519104
1789222372091927000,10.245927001953126,-0.07410778105258942,-0.08209593594074249,0.08769895881414413
1789222372101921000,10.255921142578124,-0.2542594373226166,0.19001254439353943,0.08792532980442047
1789222372111916000,10.265916015625,-0.399663507938385,-0.09669645130634308,0.110964335501194
1789222372121910000,10.275909912109375,-0.41742652654647827,-0.5554847717285156,0.007303985767066479
1789222372131904000,10.285904052734375,-0.35983219742774963,-0.5567899942398071,-0.014598117209970951
1789222372141898200,10.295898193359376,-0.24974964559078217,-0.27077770233154297,-0.11385732889175415
1789222372151892200,10.305892333984374,-0.07342441380023956,-0.3626602292060852,-0.12090697884559631
1789222372161887200,10.31588720703125,0.033365145325660706,-0.4382050335407257,-0.03729410842061043
1789222372171881200,10.325881103515625,-0.030778419226408005,-0.07027043402194977,-0.10457061976194382
1789222372181875200,10.335875244140626,-0.15869776904582977,-0.013081979937851429,-0.011468370445072651
1789222372191869200,10.345869140625,-0.23251952230930328,-0.24766412377357483,0.09803282469511032
1789222372201863200,10.35586328125,-0.22295691072940826,-0.23430438339710236,0.04060974344611168
1789222372211857400,10.365857421875,-0.16154362261295319,-0.007245129905641079,0.14461657404899597
1789222372221852400,10.375852294921875,-0.04754168540239334,0.01852787844836712,0.23413127660751343
1789222372231846400,10.385846435546876,0.10607370734214783,-0.23879100382328033,0.13555462658405304
1789222372241840400,10.39584033203125,0.21359111368656158,-0.2849494516849518,-0.013206882402300835
1789222372251834400,10.40583447265625,0.22721265256404877,-0.08609147369861603,-0.13648301362991333
1789222372261828400,10.415828369140625,0.21203289926052094,-0.11764088273048401,-0.25411349534988403
1789222372271822300,10.425822265625,0.253065288066864,-0.32226407527923584,-0.33189910650253296
1789222372281817300,10.4358173828125,0.28922781348228455,-0.11982813477516174,-0.16154974699020386
1789222372291811600,10.4458115234375,0.31074297428131104,0.23195840418338776,0.17927707731723785
1789222372301805600,10.4558056640625,0.3601134419441223,0.2504625618457794,0.3810168504714966
1789222372311799300,10.46579931640625,0.3922173082828522,0.04728442430496216,0.5156718492507935
1789222372321793300,10.475793212890625,0.3747251331806183,0.06619766354560852,0.4127345681190491
1789222372331787300,10.485787353515626,0.3253194987773895,0.29863595962524414,0.08490956574678421
1789222372341782300,10.4957822265625,0.36064422130584717,0.23657925426959991,-0.19900497794151306
1789222372351776300,10.5057763671875,0.45539069175720215,0.11726830154657364,-0.4044193923473358
1789222372361770500,10.5157705078125,0.5933272242546082,-0.022485600784420967,-0.3670909106731415
1789222372371764500,10.525764404296876,0.6621518731117249,-0.004539890680462122,-0.05443554371595383
1789222372381758500,10.535758544921874,0.6159183382987976,0.13650192320346832,0.07060252875089645
1789222372391753500,10.54575341796875,0.49729233980178833,-0.02990490198135376,0.18752728402614594
1789222372401747500,10.55574755859375,0.27113962173461914,0.08321712911128998,0.23207958042621613
1789222372411741400,10.565741455078125,0.023426229134202003,0.4269784986972809,0.017581390216946602
1789222372421735200,10.575735107421876,-0.04273121803998947,0.2431820183992386,-0.1859179437160492
1789222372431729400,10.5857294921875,0.0998525619506836,-0.1041218712925911,-0.21362920105457306
1789222372441723400,10.595723388671875,0.2826237082481384,0.0011323761427775025,-0.20299972593784332
1789222372451718400,10.605718505859375,0.4093262553215027,0.06991223990917206,-0.08439504355192184
1789222372461712400,10.61571240234375,0.3841111958026886,-0.026992201805114746,0.12485005706548691
1789222372471706400,10.625706298828124,0.134231835603714,0.2211931049823761,0.16329412162303925
1789222372481700400,10.635700439453124,-0.2403859794139862,0.5000777244567871,0.05156385898590088
1789222372491694300,10.6456943359375,-0.4834044873714447,-0.029525401070713997,0.007903729565441608
1789222372501688600,10.6556884765625,-0.4617982506752014,-0.836463212966919,0.18696163594722748
1789222372511683600,10.66568359375,-0.2626361548900604,-0.5171738862991333,-0.008709069341421127
1789222372521677600,10.675677490234374,0.03557237610220909,0.04849855974316597,-0.1988624930381775
1789222372531671300,10.68567138671875,0.21060411632061005,0.019360115751624107,0.07368461042642593
1789222372541665300,10.695665283203125,0.1280232071876526,0.03985020890831947,0.12884719669818878
1789222372551659300,10.7056591796875,-0.18743327260017395,0.30586403608322144,0.1784573644399643
1789222372561654300,10.715654296875,-0.48627403378486633,0.017102288082242012,0.198019340634346
1789222372571648300,10.725648193359374,-0.6570013165473938,-0.5254430174827576,0.16584835946559906
1789222372581642500,10.735642578125,-0.61933434009552,-0.6555591821670532,0.14108841121196747
1789222372591636500,10.745636474609375,-0.32699036598205566,-0.39837878942489624,-0.008185225538909435
1789222372601630500,10.75563037109375,0.046905990689992905,-0.19146503508090973,-0.162680521607399
1789222372611624400,10.76562451171875,0.2053733915090561,0.20001883804798126,-0.306416392326355
1789222372621619500,10.775619384765625,0.14414864778518677,0.13096120953559875,-0.20314033329486847
1789222372631613400,10.785613525390625,-0.0908321663737297,-0.38791391253471375,0.15024089813232422
1789222372641607200,10.795607177734375,-0.3789105713367462,-0.5501523613929749,0.22986142337322235
1789222372651601400,10.805601318359376,-0.5716890692710876,-0.13882791996002197,0.18155860900878906
1789222372661595400,10.815595458984374,-0.5818077325820923,0.275297611951828,0.22225011885166168
1789222372671589400,10.82558935546875,-0.39181703329086304,0.1371717005968094,-0.03579021990299225
1789222372681584400,10.83558447265625,-0.051956407725811005,-0.5135741233825684,-0.2949879765510559
1789222372691578400,10.845578369140625,0.1513940542936325,-0.5433562397956848,-0.1508728712797165
1789222372701572400,10.855572265625,0.14400804042816162,-0.07627665996551514,-0.19947369396686554
1789222372711566300,10.86556640625,0.0578441247344017,-0.35789209604263306,-0.18255355954170227
1789222372721560600,10.875560546875,-0.18147605657577515,-0.3920639157295227,0.09437364339828491
1789222372731554600,10.885554443359375,-0.3859735429286957,0.03845258429646492,0.16553090512752533
1789222372741549600,10.895549560546876,-0.38133084774017334,0.09815319627523422,0.25947365164756775
1789222372751543300,10.905543212890626,-0.21644628047943115,-0.0139568280428648,0.18546733260154724
1789222372761537300,10.915537353515624,0.026975957676768303,-0.12664476037025452,0.07599436491727829
1789222372771531300,10.92553125,0.2122560739517212,-0.10967989265918732,0.0825103223323822
1789222372781525200,10.935525146484375,0.3001915216445923,-0.04189019277691841,-0.19230446219444275
1789222372791520300,10.945520263671876,0.3494482636451721,-0.4315527379512787,-0.31717848777770996
1789222372801514500,10.955514404296874,0.2021120935678482,-0.34976625442504883,-0.06301332265138626
1789222372811508500,10.965508544921875,-0.047017309814691544,0.372357577085495,-0.06184898689389229
1789222372821502500,10.97550244140625,-0.19448931515216827,0.43274956941604614,0.09476006776094437
1789222372831496400,10.985496337890625,-0.21837307512760162,-0.003013632958754897,0.2824476659297943
1789222372841490400,10.995490478515626,-0.13628967106342316,-0.3340456187725067,0.15402552485466003
1789222372851485400,11.0054853515625,0.06705280393362045,-0.6547410488128662,0.04453657567501068
1789222372861479200,11.015479248046875,0.30701425671577454,-0.5719740390777588,-0.2287743240594864
1789222372871473400,11.025473388671875,0.4188784956932068,-0.10649768263101578,-0.4767407178878784
1789222372881467400,11.03546728515625,0.29695257544517517,0.27350717782974243,-0.4566706120967865
1789222372891461400,11.04546142578125,0.09712974727153778,0.08204959332942963,-0.4097622036933899
1789222372901455400,11.055455322265624,-0.05435991287231445,-0.593711256980896,0.011365838348865509
1789222372911450400,11.065450439453125,-0.18296769261360168,-0.415545791387558,0.368580162525177
1789222372921444400,11.0754443359375,-0.1613585352897644,0.14537237584590912,0.3549674153327942
1789222372931438300,11.085438232421875,0.020721523091197014,0.1936917006969452,0.34339651465415955
1789222372941432600,11.0954326171875,0.19939672946929932,0.2289133369922638,0.15984559059143066
1789222372951426600,11.105426513671874,0.29184651374816895,0.170732319355011,-0.03954314813017845
1789222372961420300,11.115420166015625,0.3566121757030487,-0.15213148295879364,-0.22622567415237427
1789222372971415300,11.125415283203125,0.41486483812332153,-0.3549378514289856,-0.39312970638275146
1789222372981409300,11.1354091796875,0.4812702238559723,-0.45360904932022095,-0.27403393387794495
1789222372991403300,11.1454033203125,0.4961804747581482,-0.27411678433418274,0.03579261898994446
1789222373001397200,11.155397216796874,0.46350428462028503,0.27080246806144714,0.05498389154672623
1789222373011391500,11.1653916015625,0.4228130280971527,0.5980367660522461,0.24347816407680511
1789222373021386500,11.175386474609375,0.3622596859931946,0.665213942527771,0.3251059055328369
1789222373031380500,11.18538037109375,0.41795995831489563,0.0661635771393776,0.10555412620306015
1789222373041374500,11.19537451171875,0.515770673751831,-0.437100887298584,0.18358154594898224
1789222373051368400,11.205368408203125,0.5977638363838196,0.09645622968673706,-0.13632161915302277
1789222373061362400,11.215362548828125,0.6559096574783325,0.5547550916671753,-0.2868000864982605
1789222373071356400,11.2253564453125,0.6615632772445679,0.4451412558555603,-0.18203744292259216
1789222373081351200,11.23535107421875,0.6045714020729065,0.09197253733873367,-0.10779757052659988
1789222373091345400,11.245345458984374,0.5615988969802856,-0.3458085358142853,0.062068965286016464
1789222373101339400,11.25533935546875,0.5545223355293274,-0.28555479645729065,-0.06772898137569427
1789222373111333400,11.26533349609375,0.5986402630805969,0.12675873935222626,-0.22701025009155273
1789222373121327400,11.275327392578125,0.6344214081764221,0.5566203594207764,-0.09261835366487503
1789222373131321300,11.2853212890625,0.6577248573303223,0.6498839855194092,-0.13126987218856812
1789222373141316400,11.29531640625,0.656537652015686,0.1455281674861908,0.04156848043203354
1789222373151310300,11.305310302734375,0.5839492082595825,0.00899882148951292,0.15278901159763336
1789222373161304600,11.3153046875,0.44049137830734253,0.44543206691741943,0.21034684777259827
1789222373171298600,11.325298583984376,0.2962702810764313,0.6772005558013916,0.25884807109832764
1789222373181292300,11.335292236328126,0.29940348863601685,0.2812527120113373,0.03111930377781391
1789222373191287300,11.345287353515625,0.37444549798965454,-0.21605134010314941,0.06106068938970566
1789222373201280500,11.355280517578125,0.3972112834453583,-0.1677839457988739,-0.03682352975010872
1789222373211274500,11.3652744140625,0.41461262106895447,-0.06261198222637177,-0.09889169037342072
1789222373221268700,11.375268798828126,0.3936660587787628,0.017361946403980255,0.0955805853009224
1789222373231262700,11.3852626953125,0.24688568711280823,0.4414184093475342,-0.07080066949129105
1789222373241256700,11.395256591796874,0.10057587921619415,0.34494727849960327,-0.2688101530075073
1789222373251251700,11.405251708984375,0.03988350182771683,-0.246848925948143,-0.0041281660087406635
1789222373261245700,11.41524560546875,0.09469694644212723,-0.31594783067703247,-0.006361759267747402
1789222373271239700,11.42523974609375,0.20797690749168396,0.16598205268383026,-0.02924443781375885
1789222373281233700,11.435233642578124,0.28086361289024353,0.691652238368988,0.07313679158687592
1789222373291227600,11.4452275390625,0.26662954688072205,0.6368891000747681,0.11909043788909912
1789222373301221600,11.4552216796875,0.20758621394634247,0.06534252315759659,0.05561772361397743
1789222373311216600,11.465216552734375,0.10515784472227097,-0.1806403547525406,0.09785465896129608
1789222373321210600,11.475210693359376,0.03364238142967224,-0.04097166657447815,0.07365851104259491
1789222373331204600,11.48520458984375,0.04358049854636192,0.056958358734846115,-0.0023062974214553833
1789222373341198600,11.495198486328125,0.16177985072135925,0.1666632890701294,-0.08606910705566406
1789222373351192800,11.50519287109375,0.3080049753189087,0.3756023943424225,-0.05210501328110695
1789222373361186800,11.515186767578125,0.4157077372074127,0.4044015407562256,-0.1045604944229126
1789222373371181800,11.525181884765624,0.5068392157554626,-0.07054980099201202,-0.12716060876846313
1789222373381175800,11.53517578125,0.5286004543304443,-0.3227969706058502,0.02906360849738121
1789222373391169500,11.54516943359375,0.5138478875160217,0.1401408612728119,-0.029629264026880264
1789222373401163500,11.55516357421875,0.539525032043457,0.58428555727005,0.07819201052188873
1789222373411157500,11.565157470703125,0.5833329558372498,0.6626783609390259,0.21499167382717133
1789222373421152500,11.575152587890624,0.552307665348053,0.721481204032898,0.17766372859477997
1789222373431146500,11.585146484375,0.4799945652484894,0.7310201525688171,0.24282382428646088
1789222373441140700,11.595140625,0.4225381910800934,0.6453797817230225,0.07315463572740555
1789222373451134700,11.605134765625,0.47692686319351196,0.09876572340726852,-0.08690720051527023
1789222373461128700,11.615128662109376,0.6315246820449829,-0.4277273714542389,-0.02106587029993534
1789222373471122700,11.625122802734374,0.788409948348999,-0.108827143907547,-0.17572735249996185
1789222373481117700,11.63511767578125,0.8225495219230652,0.6380934119224548,-0.2358117252588272
1789222373491111700,11.645111572265625,0.746952474117279,0.9992291927337646,-0.17246657609939575
1789222373501105700,11.655105712890625,0.53684401512146,0.9139127135276794,-0.025552764534950256
1789222373511099600,11.665099609375,0.3308753967285156,0.528852641582489,0.024581508710980415
1789222373521093600,11.67509375,0.25186872482299805,0.02052365057170391,0.31346285343170166
1789222373531087600,11.685087646484375,0.3400326669216156,-0.0026221484877169132,0.3375236988067627
1789222373541082600,11.69508251953125,0.5280755162239075,0.43750011920928955,0.08187302947044373
1789222373551076600,11.70507666015625,0.6281997561454773,0.8678480386734009,0.12949754297733307
1789222373561070600,11.715070556640624,0.5648216009140015,1.0560640096664429,0.14507250487804413
1789222373571064800,11.72506494140625,0.44036033749580383,0.838701069355011,-0.08167967945337296
1789222373581058800,11.735058837890625,0.3571738302707672,0.19058433175086975,-0.07803142070770264
1789222373591052500,11.745052490234375,0.3085556924343109,-0.1177375540137291,-0.10072581470012665
1789222373601047800,11.7550478515625,0.3811361789703369,-0.1036480963230133,-0.20738141238689423
1789222373611041500,11.76504150390625,0.5368384122848511,0.12823998928070068,0.02359613962471485
1789222373621035500,11.775035400390625,0.6619108319282532,0.8550451397895813,-0.07048135995864868
1789222373631029500,11.785029541015625,0.59326171875,1.4604157209396362,0.0377897247672081
1789222373641023700,11.795023681640625,0.36763420701026917,1.3427006006240845,0.3065761923789978
1789222373651018500,11.8050185546875,0.1498962938785553,0.3179284334182739,0.5128622651100159
1789222373661012700,11.8150126953125,-0.06344635039567947,-0.17701685428619385,0.4391328990459442
1789222373671006700,11.8250068359375,-0.16899168491363525,0.24887266755104065,0.016649283468723297
1789222373681000700,11.835000732421875,-0.10483720153570175,0.27963563799858093,-0.19083945453166962
1789222373690994700,11.84499462890625,0.027778901159763336,0.13272050023078918,-0.2920454442501068
1789222373700988400,11.854988525390626,0.1118309274315834,0.3198312520980835,-0.27123868465423584
1789222373710983700,11.864983642578125,0.06403331458568573,0.42859476804733276,0.016699351370334625
1789222373720977700,11.874977783203125,-0.13027730584144592,0.29833582043647766,0.2962399125099182
1789222373730971600,11.8849716796875,-0.42625144124031067,0.12532223761081696,0.4791649878025055
1789222373740965600,11.894965576171876,-0.6649196743965149,0.1540878415107727,0.24639086425304413
1789222373750959600,11.904959716796874,-0.7968114018440247,0.1677655726671219,0.1526004672050476
1789222373760953600,11.91495361328125,-0.8176141381263733,0.16382648050785065,0.1468525528907776
1789222373770948600,11.924948486328125,-0.7061606049537659,0.23101218044757843,-0.10982876271009445
1789222373780942600,11.934942626953125,-0.5371167063713074,0.20248067378997803,-0.0742393434047699
1789222373790936800,11.944936767578126,-0.4691757559776306,0.07964716106653214,0.02720099501311779
1789222373800930800,11.954930908203124,-0.5875213146209717,-0.24815841019153595,0.04478131979703903
1789222373810924500,11.964924560546875,-0.7823062539100647,-0.5790950655937195,0.05921725183725357
1789222373820918500,11.97491845703125,-1.001939296722412,-0.348592609167099,0.12421596050262451
1789222373830913500,11.98491357421875,-1.1308178901672363,0.05342886969447136,-0.006346579175442457
1789222373840907500,11.994907470703126,-1.0839158296585083,-0.07057536393404007,-0.1424090713262558
1789222373850901500,12.004901611328124,-0.9804158210754395,-0.29297593235969543,-0.05879194289445877
1789222373860895700,12.014895751953125,-0.9155244827270508,-0.2185152918100357,-0.055859535932540894
1789222373870889700,12.0248896484375,-0.8602526783943176,-0.5109418034553528,0.013234046287834644
1789222373880883700,12.0348837890625,-0.801200270652771,-0.8207098245620728,-0.12585006654262543
1789222373890878700,12.044878662109374,-0.8363401889801025,-0.47105672955513,-0.09691908955574036
1789222373900872700,12.054872802734375,-0.9186766147613525,0.08976078033447266,-0.0613752081990242
1789222373910866700,12.06486669921875,-0.8901208639144897,-0.13826227188110352,-0.06396034359931946
1789222373920860400,12.0748603515625,-0.8371905088424683,-0.3706584870815277,0.03225008025765419
1789222373930854700,12.084854736328126,-0.8733327984809875,0.060498498380184174,0.024463530629873276
1789222373940849700,12.094849609375,-0.8443059325218201,-0.02636236511170864,-0.012615926563739777
1789222373950843600,12.10484375,-0.6498081088066101,-0.747256875038147,-0.0402400977909565
1789222373960837600,12.114837646484375,-0.5148583054542542,-0.7249484062194824,0.004592354875057936
1789222373970831600,12.12483154296875,-0.520923912525177,-0.048833586275577545,-0.053590524941682816
1789222373980825600,12.13482568359375,-0.5071495175361633,-0.1093512549996376,-0.02562520280480385
1789222373990819600,12.144819580078124,-0.41616979241371155,-0.688968300819397,0.09169982373714447
1789222374000814600,12.154814697265625,-0.39103299379348755,-0.37922534346580505,0.002737196860834956
1789222374010808800,12.164808837890625,-0.43078359961509705,0.2789086103439331,-0.008981777355074883
1789222374020802800,12.174802734375,-0.37281912565231323,0.045457497239112854,-0.050452522933483124
1789222374030796500,12.184796630859376,-0.23840059340000153,-0.46751391887664795,0.029751770198345184
1789222374040790500,12.19479052734375,-0.21752087771892548,0.10737812519073486,0.08826833963394165
1789222374050784500,12.204784423828125,-0.1208004504442215,0.2688943147659302,-0.06940624117851257
1789222374060779500,12.214779541015625,0.1144685223698616,-0.6940783858299255,0.037213150411844254
1789222374070773500,12.2247734375,0.17915697395801544,-0.6438279747962952,0.08723264187574387
1789222374080767700,12.234767822265624,0.14409326016902924,0.17909091711044312,-0.12816116213798523
1789222374090761700,12.24476171875,0.17361173033714294,0.31984564661979675,-0.1679043173789978
1789222374100755700,12.254755615234375,0.12916943430900574,0.27556607127189636,-0.10667558014392853
1789222374110749700,12.264749755859375,0.07094021886587143,0.20950475335121155,-0.1977277249097824
1789222374120744700,12.27474462890625,0.10128267854452133,-0.27414047718048096,0.058919508010149
1789222374130738700,12.28473876953125,0.23740935325622559,-0.4778536558151245,0.13876719772815704
1789222374140732400,12.294732421875,0.4034649133682251,-0.07538290321826935,-0.10515730828046799
