time,seconds_elapsed,z,y,x
1789317516206315000,0.05031494140625,9.751732999420165,3.577984743499756,-0.9160814102172851
1789317516216349000,0.060348876953125,9.546280569458007,3.5386300537109374,-0.6821978355407714
1789317516226382800,0.0703828125,9.267954626464844,3.455281908416748,-0.47105917663574215
1789317516236417000,0.0804169921875,9.057264880371093,3.5782840187072753,-0.3796306007385254
1789317516246450000,0.090449951171875,8.984690642547607,3.8486791687011714,-0.43619361495971676
1789317516256484000,0.100484130859375,8.813505223846436,4.106055847167968,-0.7630021415710448
1789317516266518000,0.11051806640625,8.364293137359619,3.9811084480285643,-1.0164882423400878
1789317516276551000,0.120551025390625,8.04361975250244,3.544615557861328,-0.6452373474121094
1789317516286585000,0.130585205078125,7.901164753723144,3.8890813217163083,-0.8601169464111328
1789317516296619000,0.140618896484375,7.499836700439452,4.293701402282714,-0.9772831901550293
1789317516306652200,0.150652099609375,8.030302005767822,4.460846605682373,-0.7938274879455566
1789317516316685800,0.160685791015625,9.849296717071532,4.451718711853027,-1.1622352684020996
1789317516326720000,0.170719970703125,10.208576603698729,4.402936853027343,-1.6985364402770995
1789317516336754200,0.180754150390625,10.43841996307373,4.446032482910156,-2.204461178588867
1789317516346787000,0.190787109375,10.488548560333252,4.500350933074951,-2.2028151649475096
1789317516356821000,0.200821044921875,10.16338604736328,4.514117592620849,-1.9032406822204588
1789317516366855000,0.21085498046875,9.827449626922608,4.257938014984131,-1.9816507865905761
1789317516376888000,0.22088818359375,9.358186101531983,4.33500138092041,-2.065896757507324
1789317516386922000,0.230921875,8.795548711395263,4.787355857086181,-2.0473416946411134
1789317516396956000,0.240955810546875,8.192958081054687,4.924872814941406,-1.8110639183044432
1789317516406990000,0.250989990234375,7.521384515380859,4.67976641998291,-1.469740544128418
1789317516417023000,0.26102294921875,7.043292371368408,4.655525128173828,-1.4655506912231444
1789317516427057200,0.27105712890625,7.3802762550354,4.46877739868164,-1.8371008613586424
1789317516437091000,0.281091064453125,8.225429441070556,4.534767581939697,-2.1562778701782226
1789317516447124000,0.2911240234375,8.534730368041991,5.147234294128418,-2.5472809288024902
1789317516457158000,0.301157958984375,8.42773948135376,5.496039548492432,-3.170371910858154
1789317516467191800,0.31119189453125,8.257002975463866,5.579238056182861,-3.1387983764648437
1789317516477226000,0.32122607421875,8.16542476196289,5.9485436622619625,-3.028066549682617
1789317516487259000,0.3312587890625,8.092700886535644,6.092644674682616,-2.832789476776123
1789317516497293000,0.34129296875,8.259397177124024,5.725134719848633,-3.062034285736084
1789317516507326700,0.35132666015625,8.41487064743042,5.648520266723632,-3.6950013496398926
1789317516517359900,0.36135986328125,7.795670243072509,5.756408979034424,-4.038419650268555
1789317516527394000,0.37139404296875,6.801777278900146,6.149357326507568,-4.127603662109375
1789317516537428000,0.381427978515625,5.391592501068115,6.513724891662597,-3.902548706054687
1789317516547461000,0.391461181640625,3.7294179985046383,6.646902359008789,-3.3361703758239742
1789317516557494800,0.401494873046875,2.3295582153320313,6.654533876800537,-2.4920646530151367
1789317516567529000,0.411529052734375,1.647809292602539,6.672490389251709,-1.5107412475585937
1789317516577563100,0.421563232421875,3.399766357421875,7.200262217712402,-0.4870704002380371
1789317516587596000,0.431595947265625,5.6434325881958,6.9168485961914055,1.0058639724731444
1789317516597630000,0.4416298828125,8.007407452392577,5.571307263183593,1.6967407890319823
1789317516607663900,0.451663818359375,9.875184022521973,5.7040358177185055,1.2617442749023438
1789317516617697000,0.461697021484375,10.071957471466064,6.887369988250732,0.42182840499877927
1789317516627731000,0.47173095703125,10.197653058624267,7.060799971008301,-0.48063598327636714
1789317516637764900,0.481764892578125,10.308384885406493,6.56310530090332,-1.3356652511596678
1789317516647799000,0.491799072265625,9.424625197601317,6.705111386871337,-0.7483376564025879
1789317516657832000,0.50183203125,7.835174570465087,6.622062516784667,-1.398812319946289
1789317516667866000,0.5118662109375,7.032668101501464,6.483947008514404,-1.9330185653686522
1789317516677900000,0.521900146484375,7.096264083099364,6.57597413482666,-1.57688106842041
1789317516687933000,0.531932861328125,7.5905170883178705,6.828412772369385,-0.4837783729553222
1789317516697967000,0.541967041015625,8.789712844848632,7.360524091339111,0.6476315490722656
1789317516708001000,0.5520009765625,10.181192922210693,7.689876457214355,0.7031471000671387
1789317516718035000,0.562034912109375,10.213065731811524,7.4326494163513175,-0.17732056045532227
1789317516728067800,0.57206787109375,8.731803092193603,6.961141326904296,-0.9822212310791015
1789317516738102000,0.58210205078125,7.615057655334472,6.678625531005859,-1.0027215827941893
1789317516748136000,0.592135986328125,6.950517057037353,6.6522893127441405,-0.3284545402526855
1789317516758168800,0.6021689453125,7.391349437713623,6.909067440795898,0.45878889312744137
1789317516768203000,0.612203125,9.012972149658202,7.631966704559326,1.2003928573608398
1789317516778237000,0.62223681640625,9.888202494049072,7.996483907318114,1.7613842338562011
1789317516788270800,0.632270751953125,9.279327084350586,8.019528098297119,1.57688106842041
1789317516798303700,0.6423037109375,7.994837893676757,7.693767034912109,1.070657054901123
1789317516808338000,0.652337890625,6.859836669158935,7.373093650054932,0.9772831901550293
1789317516818372000,0.6623720703125,6.578517974090576,7.101501399230957,1.4258967262268065
1789317516828405000,0.672405029296875,6.809109521484374,6.699874070739746,0.9024643882751464
1789317516838439000,0.68243896484375,6.552181755828857,6.508038662719726,1.0380360572814942
1789317516848473000,0.69247314453125,6.637325552368163,6.441001016235351,2.5564088226318358
1789317516858507000,0.702507080078125,6.707804863739013,6.959794588470459,2.7334301078796384
1789317516868540200,0.7125400390625,6.364087287902832,8.202385250091552,1.1737573638916015
1789317516878573800,0.72257373046875,7.551012760925293,6.419752476501465,0.6974608711242676
1789317516888608000,0.73260791015625,9.685742816162108,2.9984383041381832,-0.4900631523132324
1789317516898641000,0.742640869140625,9.709984107971191,2.302174533843994,-3.9082349349975583
1789317516908675000,0.752675048828125,9.026140258789061,2.7703905960083004,-6.519710395812988
1789317516918709000,0.762708984375,8.736142582702636,2.8465561363220213,-6.615029549407959
1789317516928743000,0.772742919921875,7.785045973205566,3.2704794677734372,-5.560084442901611
1789317516938776000,0.782776123046875,6.014982758331299,4.0346787101745605,-3.9351697036743163
1789317516948810000,0.79281005859375,4.313752841186523,4.300734369659423,-2.6988638214111327
1789317516958844000,0.802843994140625,3.663427815246582,4.057722901153564,-1.7148469390869139
1789317516968877000,0.812876953125,3.1754595893859863,3.7012861289978027,-0.7582137382507323
1789317516978911000,0.822910888671875,2.4986487075805663,2.5694272941589356,-0.28924948806762696
1789317516988945000,0.83294482421875,2.533813544464111,1.3675380607604979,-0.7573159126281738
1789317516998978800,0.842978759765625,4.245218818664551,0.485873299407959,-2.412756723022461
1789317517009012000,0.853011962890625,7.583933033752441,0.11866261978149413,-3.9790135215759275
1789317517019046100,0.863046142578125,11.408071635437011,0.10803834991455077,-4.697722932434082
1789317517029079800,0.873079833984375,12.393435256195067,1.7018284675598143,-1.1767501159667968
1789317517039113000,0.883113037109375,8.744073375701904,3.2046389221191403,2.835183678436279
1789317517049147000,0.89314697265625,4.997596690368652,3.139696202087402,4.6076410949707025
1789317517059181000,0.90318115234375,3.6776433876037595,1.9825486122131346,4.399794463348388
1789317517069214000,0.9132138671875,4.133888441467285,0.7939771255493163,3.729118723297119
1789317517079248000,0.923247802734375,4.101716356658935,0.31004911499023435,3.0268694488525387
1789317517089282000,0.933281982421875,3.9858968513488766,0.051475335693359374,2.7884967460632324
1789317517099316000,0.94331591796875,4.844966334533691,0.027682956695556638,2.497002693939209
1789317517109349000,0.95334912109375,5.823296987915039,-0.006733692169189453,2.720261998748779
1789317517119382800,0.9633828125,6.001665011596679,-0.556053335571289,3.6584897743225095
1789317517129417000,0.9734169921875,6.1727007926940916,-1.0330980163574217,4.247613020324707
1789317517139450000,0.9834501953125,6.5762734100341795,-1.0447697494506836,4.563198726654052
1789317517149484000,0.993484130859375,6.549637916564941,-0.8245031967163086,4.772841009521484
1789317517159518000,1.00351806640625,6.23749387512207,-0.9187748870849609,4.69892003326416
1789317517169552000,1.0135517578125,5.990591828918457,-1.4037503608703612,4.5139679550170895
1789317517179585000,1.0235849609375,6.085162794494629,-3.27511823348999,4.3740567955017085
1789317517189619000,1.033618896484375,6.770054106903076,-4.727949728393554,4.106504759979248
1789317517199652900,1.04365283203125,8.074744374084473,-4.163516687011718,3.4626141510009765
1789317517209686000,1.05368603515625,9.4864255279541,-3.3406595039367675,3.039588645172119
1789317517219720000,1.063719970703125,11.51760636138916,-3.2900819938659667,2.9236195022583007
1789317517229753900,1.07375390625,13.064110996246336,-3.56242243270874,3.6659716545104977
1789317517239788000,1.0837880859375,12.184840436553955,-3.9502831016540525,5.2180128807067865
1789317517249821000,1.093821044921875,10.252420421600341,-3.922001594543457,6.819733791351318
1789317517259855000,1.103855224609375,8.377760521697997,-3.304596841430664,8.436268824768065
1789317517269888800,1.113888671875,6.5689411674499505,-2.4836849472045897,9.409960712432861
1789317517279922000,1.123921875,5.125836116790771,-2.504634211730957,10.04173067550659
1789317517289955800,1.133955810546875,4.3053731353759765,-3.3170167625427243,9.7928833404541
1789317517299990000,1.143989990234375,4.403086490631103,-3.8901287849426267,8.634389012145995
1789317517310024000,1.15402392578125,5.095908596038818,-3.8826469047546386,8.087463570404053
1789317517320056800,1.164056884765625,5.686977130889892,-3.3797149185180664,8.287678684234619
1789317517330091000,1.174091064453125,6.329072088623047,-2.7052982383728024,8.60565859222412
1789317517340125000,1.184125,6.590040069580078,-2.013972509002685,9.044695321655272
1789317517350158000,1.194157958984375,6.363788012695312,-1.7432780838012694,9.567828384399414
1789317517360192000,1.20419189453125,6.16716420135498,-1.5408184059143066,10.102333905029296
1789317517370226000,1.214225830078125,6.2110080192565915,-1.6135422813415525,10.713304241180419
1789317517380260000,1.224260009765625,6.40344197769165,-2.6331729133605957,11.480496235656737
1789317517390293000,1.23429296875,6.669647274780273,-1.50026661529541,12.164938635253906
1789317517400327000,1.244326904296875,6.823025818634033,0.0661398208618164,11.947215921783446
1789317517410361000,1.254361083984375,6.645256345367431,0.3404255485534668,11.35839195098877
1789317517420394000,1.26439404296875,6.681019732666015,-0.4906617027282715,10.613047046661377
1789317517430428000,1.274427978515625,6.7160349319458,-1.2062287239074707,9.685742816162108
1789317517440461800,1.2844619140625,6.212654032897949,-1.731456713104248,9.651176529693602
1789317517450495700,1.294495849609375,5.662137288665771,-2.4443302574157713,10.564714100646972
1789317517460529000,1.30452880859375,5.555445677185058,-2.539050860595703,11.027393571472167
1789317517470562800,1.314562744140625,4.948216281127929,-1.4291887535095213,10.266336718749999
1789317517480596700,1.3245966796875,3.8352117843627926,-0.12330138549804687,9.613318215942382
1789317517490629600,1.334629638671875,3.009511486816406,0.6753145057678223,9.269151727294922
1789317517500663800,1.344663818359375,2.3412299484252928,0.9968857162475585,8.541314422607421
1789317517510697700,1.35469775390625,1.972223617553711,0.6382043800354004,8.836699052429198
1789317517520731600,1.364731689453125,1.5313912368774414,0.15023615417480468,9.22590645980835
1789317517530764800,1.374764892578125,1.0160393295288086,-0.1261444999694824,8.859144692993164
1789317517540798700,1.384798828125,0.8801683853149413,-0.7056909393310546,7.844302464294433
1789317517550832600,1.39483251953125,1.2401964599609374,-1.635539009094238,6.884526873779296
1789317517560865500,1.404865478515625,2.1082441993713377,-2.392106733703613,6.134243928527832
1789317517570899700,1.414899658203125,3.328089945220947,-3.015945903778076,5.85442160949707
1789317517580934000,1.424933837890625,4.663156645965576,-3.7065234451293945,6.373215181732177
1789317517590967600,1.434967529296875,5.811176342010498,-4.349067315673828,6.392368795013427
1789317517601000700,1.445000732421875,6.403741252899169,-4.7117888671875,6.378602135467529
1789317517611034600,1.45503466796875,6.751648681640624,-4.358793759918212,6.847267110443115
1789317517621068800,1.46506884765625,6.478260779571533,-3.777451669311523,6.9588967628479
1789317517631102000,1.47510205078125,5.466860215759277,-3.4075475128173824,7.409455587768554
1789317517641135600,1.485135498046875,2.8598738830566406,-3.450493505096435,7.724442743682861
1789317517651169800,1.495169677734375,0.8230068206787109,-3.0460230621337887,7.43743781967163
1789317517661204000,1.505203857421875,-0.40491935577392574,-2.7301380805969235,7.717110501098633
1789317517671236900,1.51523681640625,-0.26740239791870113,-3.090764705657959,9.07207900314331
1789317517681270800,1.525270751953125,1.2559084083557128,-4.09842432937622,9.815628256225585
1789317517691304700,1.5353046875,4.040514576721191,-4.14361488571167,11.258583669281006
1789317517701337900,1.545337890625,6.156689569091797,-5.072864405059814,10.668412960052489
1789317517711371800,1.555371826171875,7.313238608551025,-5.287295091247558,9.1676974319458
1789317517721405700,1.56540576171875,7.154173835754394,-5.3205146392822265,8.800337114715576
1789317517731439900,1.57543994140625,6.535721619415283,-4.46862776107788,8.61209300918579
1789317517741472800,1.58547265625,5.550357998657226,-3.012204963684082,9.814131880187988
1789317517751506700,1.595506591796875,5.46506456451416,-1.9572598571777342,10.468646759033202
1789317517761540600,1.60554052734375,6.1833250625610345,-0.6579565437316894,13.084162435150146
1789317517771573800,1.61557373046875,6.525097349548339,-1.009305637359619,12.030115154266356
1789317517781608000,1.62560791015625,6.110002636718749,-1.8836381561279296,9.230694863128662
1789317517791641600,1.6356416015625,5.224148022460938,-2.8137855010986326,8.43357534790039
1789317517801674800,1.6456748046875,5.677998874664306,-3.8998552291870117,8.878298306274413
1789317517811708700,1.655708740234375,6.78651424331665,-3.9942765571594236,9.300725261688232
1789317517821742800,1.665742919921875,6.584204203033447,-3.298760974884033,10.857405253601074
1789317517831776800,1.67577685546875,5.97577770614624,-2.242918042755127,12.326247972106932
1789317517841809700,1.6858095703125,6.904877587890625,-1.107018992614746,14.17247672729492
1789317517851843800,1.69584375,4.469824861907958,-0.5192424850463867,13.059023317718506
1789317517861877800,1.705877685546875,-1.0218751960754393,-1.2259808876037597,10.313322926330565
1789317517871911700,1.71591162109375,-1.92164610748291,-3.1982045051574706,10.979808813476561
1789317517881944600,1.725944580078125,0.6726210289001464,-4.803367080688476,9.45485199356079
1789317517891978800,1.735978759765625,0.25902269210815426,-6.085611707305908,11.477952396392821
1789317517902013000,1.746012939453125,2.34302559967041,-5.558588066864013,14.450952307891844
1789317517912045800,1.7560458984375,6.046855567932129,-3.577086917877197,13.37475866165161
1789317517922079700,1.766079833984375,5.804293012237548,-2.429216859436035,8.904185611724852
1789317517932113700,1.77611376953125,5.041290870666503,-2.0994155807495116,7.619247508239746
1789317517942147800,1.78614794921875,4.531475554656982,-2.9390321754455564,8.377161971282959
1789317517952180700,1.7961806640625,4.10485874633789,-3.605368424987793,7.476343596649169
1789317517962214700,1.806214599609375,5.013757551574707,-3.5601778686523438,6.977451825714111
1789317517972248800,1.816248779296875,5.667973155212402,-3.209427325439453,6.666953797912598
1789317517982281700,1.82628173828125,6.054935998535156,-2.655319278717041,6.284031169891357
1789317517992315600,1.836315673828125,7.107486903381347,-1.1436802055358886,7.666084078216552
1789317518002349800,1.846349853515625,5.916820490264892,-1.1848305465698241,9.242516233825683
1789317518012383700,1.8563837890625,3.547757947540283,-1.1737573638916015,7.915081050872803
1789317518022417000,1.8664169921875,2.8010663047790527,-1.6525976959228514,7.828889791107177
1789317518032450600,1.876450439453125,2.1205144828796385,-2.090886237335205,7.3091983932495115
1789317518042484700,1.886484619140625,3.3768718040466306,-3.620631460571289,6.433968048858643
1789317518052517600,1.896517578125,4.994155025482177,-5.532850399017334,7.100753211212158
1789317518062551800,1.9065517578125,5.8834513046264645,-5.871181021118164,6.4640452072143555
1789317518072585700,1.916585693359375,4.703409161376952,-5.2533273551940916,7.040898169708251
1789317518082618600,1.92661865234375,3.162890030670166,-4.551526993560791,9.331849883270262
1789317518092652800,1.93665283203125,0.31543606872558594,-3.0379426315307616,11.435455316925049
1789317518102686700,1.946686767578125,1.694346587371826,-1.901295393371582,12.025027475738524
1789317518112720600,1.956720703125,3.0948049209594726,-2.921674213409424,11.552920835876463
1789317518122753800,1.96675390625,1.527650296783447,-4.4099698204040525,8.90657981338501
1789317518132787700,1.97678759765625,1.9934721572875975,-5.344755931091308,7.093420968627929
1789317518142822000,1.98682177734375,3.277063522338867,-4.872948566436767,7.613561279296874
1789317518152854800,1.996854736328125,4.096329402923584,-3.7865795631408687,7.847594491577148
1789317518162888700,2.006888671875,5.034706816101074,-4.045901530456542,8.353369592285155
1789317518172923000,2.0169228515625,4.745906240844726,-5.064634336853027,7.920916917419433
1789317518182956800,2.026956787109375,3.950582376861572,-4.57756393661499,6.972064871978759
1789317518192990000,2.036989990234375,3.9529765785217283,-3.326743206787109,7.1668930320739745
1789317518203023600,2.047023681640625,4.489577025604248,-3.161992205047607,7.957877405548095
1789317518213057800,2.057057861328125,4.867711250305176,-3.3755250656127926,8.45961229095459
1789317518223090700,2.067090576171875,4.930110131072998,-3.450792780303955,8.240393201446533
1789317518233124600,2.07712451171875,4.761917464447021,-3.9317280387878415,8.37057791671753
1789317518243158800,2.08715869140625,4.898835871887207,-4.299237993621826,8.557026371002197
1789317518253192700,2.097192626953125,4.903923550415039,-4.349366590881347,9.083900373840331
1789317518263225900,2.107225830078125,4.377648097991943,-4.096778315734863,9.023147506713867
1789317518273259500,2.117259521484375,3.7677252250671383,-3.828777367401123,8.448239833068847
1789317518283293700,2.127293701171875,3.754557115936279,-3.6221278366088865,8.112004137420653
1789317518293326800,2.137326904296875,4.295497053527832,-3.6023756729125975,8.030152368164062
1789317518303360800,2.14736083984375,5.007921685028076,-3.5788825691223143,8.021473387145996
1789317518313394700,2.157394775390625,4.969614458465576,-3.312976547241211,8.161234909057617
1789317518323428900,2.167428955078125,3.981856636047363,-3.1036335395812986,8.35681125717163
1789317518333461800,2.177461669921875,3.4204163467407223,-3.063829936981201,8.285434120178222
1789317518343496000,2.187495849609375,3.7467759605407713,-3.169623722839355,8.208370754241942
1789317518353529600,2.197529541015625,4.361936149597168,-3.020285394287109,8.320898232269286
1789317518363562800,2.207562744140625,4.932953245544433,-2.926013703918457,8.57408505783081
1789317518373596700,2.2175966796875,5.399972206878662,-2.983324906158447,8.751106343078613
1789317518383630800,2.227630859375,5.142445890808105,-3.1534628616333005,8.47203221206665
1789317518393664800,2.237664794921875,5.12000025024414,-3.1762077774047848,8.098836028289794
1789317518403697700,2.24769775390625,5.323357753753662,-3.5200749908447264,8.517522043609619
1789317518413731800,2.25773193359375,6.047304480743408,-3.708019821166992,9.278279621124266
1789317518423765800,2.267765869140625,5.987748714447021,-4.14316597290039,9.0910829788208
1789317518433799000,2.277798828125,5.309142181396484,-3.221547971343994,8.756343659210204
1789317518443832600,2.28783251953125,3.697245913696289,-2.5863363433837887,8.444199617767334
1789317518453867500,2.297867431640625,1.6436194396972654,1.4944307487487791,8.495824591064453
1789317518463901200,2.307901123046875,1.1080664558410644,-1.1628338188171385,5.964255610656738
1789317518473934300,2.317934326171875,1.3319243110656738,-3.4171243194580074,6.748955204772948
1789317518483968300,2.32796826171875,1.303044253540039,-4.244320993041992,8.129212461853028
1789317518494002400,2.33800244140625,1.1384428894042968,-4.423586842346191,7.938723792266845
1789317518504035300,2.348035400390625,2.326565463256836,-4.423437204742432,7.3932947265625
1789317518514069200,2.3580693359375,3.063231386566162,-4.832247138214111,7.408108849334717
1789317518524103400,2.368103515625,5.456385583496093,-5.098003522491455,7.049726788330077
1789317518534137300,2.378137451171875,8.59997236328125,-5.17746109008789,7.154772386169433
1789317518544170500,2.38817041015625,9.553612812042235,-5.678747062683105,6.749254479980468
1789317518554204200,2.3982041015625,7.429507026672363,-6.063315704345703,5.627271726989746
1789317518564238300,2.40823828125,5.19032992401123,-4.562001625823974,5.297021535491943
1789317518574271500,2.418271484375,4.910058692169189,-3.8199487487792965,6.854000802612305
1789317518584305400,2.428305419921875,4.984877494049072,-4.198531886291503,7.613262004089355
1789317518594339300,2.43833935546875,4.646846147155761,-4.687996488189697,7.62912359008789
1789317518604373200,2.448373291015625,4.582801252746582,-4.912602531433105,7.432200503540039
1789317518614406400,2.458406494140625,4.892102179718017,-4.62829108428955,7.44432114944458
1789317518624440300,2.4684404296875,5.297919361114501,-3.9860464889526366,7.157914775848388
1789317518634474200,2.47847412109375,5.794865843200683,-4.078073615264892,7.030423537445068
1789317518644507400,2.48850732421875,5.639242735290527,-4.3251252990722655,6.697779144287109
1789317518654541300,2.498541259765625,5.767482161712646,-4.327220225524902,6.976703637695312
1789317518664575200,2.5085751953125,5.188983185577392,-4.0924388252258295,7.018602166748046
1789317518674609400,2.518609375,5.272032055664062,-4.179827185821533,6.927472866058349
1789317518684642300,2.528642333984375,5.174468338012695,-4.295646691131592,6.951863795471191
1789317518694676500,2.538676513671875,5.605723912048339,-4.344428549957275,6.92702395324707
1789317518704710100,2.548710205078125,5.553051475524902,-4.5145665054321285,6.804770030975342
1789317518714743300,2.558743408203125,5.728576384735107,-4.664054471588135,6.7290534034729
1789317518724777200,2.568777099609375,5.51594134979248,-4.67931750717163,6.888118176269531
1789317518734811400,2.578811279296875,5.418676907348632,-4.601655590820312,6.859537393951416
1789317518744845300,2.58884521484375,5.121047713470459,-4.422838654327393,6.834697551727294
1789317518754878200,2.598878173828125,4.805910919952392,-4.158728283691406,6.6018614402771
1789317518764912400,2.608912353515625,4.830002574157715,-4.52010309677124,7.352144385528564
1789317518774946600,2.618946533203125,4.900781160736083,-4.371961869049072,7.202357144165038
1789317518784979500,2.6289794921875,4.920832599639892,-4.364180713653564,7.385962483978271
1789317518795013400,2.639013427734375,5.406705899047851,-4.554070832824706,7.561786668395996
1789317518805047300,2.64904736328125,5.331887097167969,-4.205415216064453,7.48247873840332
1789317518815081500,2.65908154296875,5.092018018341064,-3.758447693634033,7.570316011810302
1789317518825114400,2.6691142578125,5.033808990478516,-3.781342247009277,7.678952912139892
1789317518835148300,2.679148193359375,4.880131171417236,-3.8175545471191406,7.427711375427245
1789317518845182500,2.689182373046875,4.781669628143311,-3.8352117843627926,7.300818687438964
1789317518855215400,2.69921533203125,4.720018935394287,-4.096329402923584,7.377283502960204
1789317518865249300,2.709249267578125,4.413261847686767,-4.44303973083496,7.32251613998413
1789317518875283200,2.719283203125,4.46862776107788,-4.595071536254882,7.21417851486206
1789317518885317400,2.7293173828125,4.415656049346923,-4.733037406921387,7.5339540740966795
1789317518895350300,2.739350341796875,4.670189613342285,-4.7280993659973145,7.509563144683837
1789317518905384200,2.74938427734375,4.637119702911376,-4.615422250366211,7.282263624572754
1789317518915418400,2.75941845703125,4.78795440750122,-4.4768578292846675,7.282562899780273
1789317518925451300,2.769451171875,4.524292949676513,-4.324077835845947,7.546972545623779
1789317518935485400,2.7794853515625,4.388870918273925,-4.197484423065185,7.729380784606933
1789317518945519400,2.789519287109375,4.198980799102783,-4.207809417724609,7.708880432891846
1789317518955553300,2.79955322265625,4.128202212524414,-4.1548377059936525,7.866448829650879
1789317518965586400,2.80958642578125,4.093037375640869,-3.9215526817321775,8.28722977142334
1789317518975620400,2.819620361328125,4.10515802154541,-3.558531855010986,8.3639938621521
1789317518985654300,2.829654296875,4.026299004364013,-3.4982279006958006,8.384045301055908
1789317518995687200,2.839687255859375,4.352209705352783,-3.4825159523010254,8.523657185363769
1789317519005721300,2.849721435546875,4.396053523254395,-3.501071015167236,8.519467332458495
1789317519015755500,2.859755615234375,4.6915877906799315,-3.629310441589355,8.193556631469725
1789317519025789200,2.8697890625,4.7207671234130855,-3.837456348419189,7.810334728240966
1789317519035822300,2.879822265625,4.7493479057312005,-4.039916026306152,7.6096707015991205
1789317519045856300,2.889856201171875,4.46294153213501,-4.248810121154785,7.415291454315185
1789317519055890400,2.899890380859375,4.341735073089599,-4.462043706512451,7.305158177947997
1789317519065923300,2.90992333984375,4.372710057067871,-4.338891958618164,7.61041888961792
1789317519075957200,2.919957275390625,4.454412188720703,-4.23264925994873,7.694365585327148
1789317519085991400,2.929991455078125,4.556465034484863,-4.532074105072021,7.475296133422851
1789317519096025300,2.940025390625,4.745457328033447,-4.566191478729248,7.325957804870605
1789317519106058200,2.950058349609375,4.866514149475098,-4.270806848907471,7.522282341003417
1789317519116092400,2.960092529296875,4.777180500030517,-4.0830116561889644,7.434445067596435
1789317519126126300,2.970126220703125,4.784812017822265,-4.146757275390625,7.208641923522949
1789317519136159500,2.980159423828125,4.8138417129516595,-3.917961379241943,7.341370478057861
1789317519146193200,2.990193115234375,4.552275181579589,-3.6343981201171873,7.673117045593261
1789317519156227300,3.000227294921875,4.333654642486572,-3.3831565834045407,7.95518392868042
1789317519166261500,3.010261474609375,4.2019735511779785,-3.085377751922607,8.055141847991942
1789317519176294400,3.02029443359375,4.199130436706542,-2.824559408569336,8.049904531860351
1789317519186328300,3.030328369140625,4.301332920074462,-2.863914098358154,7.809137627410888
1789317519196362200,3.0403623046875,4.496460355377197,-3.181295455932617,7.919420541381835
1789317519206395400,3.0503955078125,4.576516473388671,-3.5139398490905758,8.008604553222655
1789317519216429300,3.06042919921875,4.6532805641174315,-3.5901053894042967,8.24847363204956
1789317519226463200,3.070463134765625,4.61587116317749,-3.5914521278381346,8.426392742919921
1789317519236497400,3.080497314453125,4.550928443145752,-3.7339071266174315,8.496123866271972
1789317519246530300,3.0905302734375,4.888211602020263,-3.9695863525390624,8.292018174743651
1789317519256564500,3.100564453125,4.750844281768798,-3.906140008544922,8.065616480255127
1789317519266598100,3.11059814453125,5.0288709495544435,-3.318513138580322,7.358429164886474
1789317519276631300,3.12063134765625,4.716876545715332,-4.225616292572021,7.668627917480468
1789317519286665500,3.13066552734375,4.796633388519287,-4.24536845626831,7.18844084701538
1789317519296699400,3.140699462890625,4.2506057723999024,-4.2137949218749995,7.260566172027588
1789317519306733300,3.1507333984375,4.300435094451904,-4.345027100372314,7.399729143524169
1789317519316766200,3.16076611328125,4.198681523895264,-4.38587816619873,7.448959915161132
1789317519326800400,3.17080029296875,4.551377355957031,-4.2609307670593255,7.19517453918457
1789317519336834300,3.180834228515625,4.432116185760497,-4.189553630065918,6.833650088500976
1789317519346867200,3.1908671875,4.539855260467529,-4.480748406982421,6.848913124084472
1789317519356901400,3.2009013671875,4.245218818664551,-4.627692533874511,7.208791561126708
1789317519366935300,3.210935302734375,4.522048385620117,-4.624999057006836,7.704092029571533
1789317519376969200,3.22096923828125,4.513219766998291,-4.641908106231689,7.998429196166992
1789317519387002000,3.231002197265625,4.300584732055664,-4.4559085647583005,8.290970711517334
1789317519397036300,3.241036376953125,4.141968872070312,-4.207659780120849,8.553435068511963
1789317519407070500,3.251070556640625,3.4165257690429685,-4.497807093811035,8.328679387664794
1789317519417103400,3.261103271484375,3.954024041748047,-4.757577973937988,8.413074996185303
1789317519427137300,3.27113720703125,3.522319554901123,-3.7134067749023436,7.921515467834472
1789317519437171200,3.281171142578125,4.281431118774414,-4.2335470855712884,9.245808261108397
1789317519447205400,3.291205322265625,4.395305335235595,-4.325274936676025,8.683619783782959
1789317519457237800,3.30123779296875,4.0818145553588865,-3.922450507354736,7.702745291137695
1789317519467271700,3.311271728515625,4.240580052947998,-4.040065663909912,8.021772662353515
1789317519477305900,3.321305908203125,3.832069394683838,-4.32856696395874,8.060678439331054
1789317519487338800,3.3313388671875,3.591003215026855,-4.902427174377441,7.681197476196289
1789317519497373000,3.341373046875,3.12173968963623,-5.223848747253418,7.492055545043945
1789317519507406800,3.35140673828125,3.929333837127685,-5.284601614379882,8.287977959442138
1789317519517440800,3.361440673828125,3.8411972885131833,-4.693084166717529,8.118588191986083
1789317519527474000,3.371473876953125,4.18162283706665,-4.544793301391601,7.6945152229309075
1789317519537507800,3.3815078125,3.9535751289367673,-4.308066612243652,7.436839269256591
1789317519547541800,3.391541748046875,3.386897523498535,-4.37315896987915,7.583484120941161
1789317519557576000,3.401575927734375,3.615394144439697,-4.889408702850342,8.350376840209961
1789317519567608800,3.41160888671875,3.633949207305908,-4.814589900970459,8.132205213928222
1789317519577643000,3.42164306640625,3.444208725738525,-4.969614458465576,8.234856610107421
1789317519587676700,3.4316767578125,3.183390382385254,-4.817283377838135,7.9670052993774405
1789317519597709800,3.441709716796875,2.9617770912170407,-4.501847309112549,7.651269955444335
1789317519607743700,3.45174365234375,3.2984616996765133,-4.375253896331787,8.53577783126831
1789317519617778000,3.46177783203125,3.3795652809143064,-3.959560633087158,8.33227069015503
1789317519627811800,3.471811767578125,3.257460996246338,-4.364180713653564,8.096741101837157
1789317519637844700,3.4818447265625,3.641580725097656,-4.761917464447021,8.54236188583374
1789317519647879000,3.49187890625,3.988889603424072,-4.831199674987793,8.840439992523192
1789317519657912800,3.501912841796875,4.527734614562988,-4.990264447784424,9.172485835266112
1789317519667946000,3.511946044921875,4.23264925994873,-5.127781405639648,8.901492134857177
1789317519677980000,3.52197998046875,4.882226097869872,-5.532102210998535,8.549694128417968
1789317519688013800,3.532013916015625,4.821622868347168,-5.405209523010254,7.218667642974853
1789317519698048000,3.542048095703125,5.0385973937988275,-4.97335539855957,5.689072057342529
1789317519708081000,3.552080810546875,5.8098296035766595,-4.778976151275635,5.93747047958374
1789317519718114800,3.56211474609375,6.044910279083251,-4.1569326324462885,5.926397296905518
1789317519728149000,3.57214892578125,5.81626402053833,-3.854066122436523,5.80997924118042
1789317519738182000,3.582181884765625,5.996726970672607,-3.3846529594421386,6.068852295684814
1789317519748215800,3.5922158203125,6.5200096710205075,-3.8648400299072265,7.837119859313964
1789317519758249700,3.602249755859375,6.2784945785522455,-3.374776877593994,7.296778472137451
1789317519768284000,3.612283935546875,6.262333717346191,-3.194164289855957,6.391620606994628
1789317519778316800,3.62231689453125,6.407482192993164,-2.58558815536499,5.922207444000244
1789317519788350700,3.632350830078125,6.789506995391846,-2.8576293190002438,7.131728195190429
1789317519798385000,3.642385009765625,6.98403588027954,-2.2501006477355956,6.836792478179931
1789317519808417800,3.652417724609375,4.971709384918213,-2.5962124252319336,7.047482224273681
1789317519818452000,3.662451904296875,5.067627088928222,-4.1115924385070795,7.846995941162109
1789317519828485600,3.672485595703125,4.7661073173522945,-5.822848075103759,8.258648989105223
1789317519838519800,3.682519775390625,4.518457083129882,-6.542754586791991,7.372046186828613
1789317519848553000,3.692552978515625,4.598513201141357,-6.609792233276367,6.694786392211913
1789317519858587000,3.7025869140625,5.472396807098388,-6.772597946166992,5.9296893241882325
1789317519868620800,3.712620849609375,5.427206250762939,-7.164049917602538,5.792920554351806
1789317519878653700,3.72265380859375,5.097105696868896,-7.70618695602417,5.402665683746338
1789317519888687900,3.73268798828125,4.669890338134765,-8.03239693222046,5.127631768035888
1789317519898722000,3.74272216796875,4.20107572555542,-7.94859987411499,5.2916345817565915
1789317519908755700,3.752755615234375,4.553771557617187,-7.881113314819335,6.1553428306579585
1789317519918788900,3.762788818359375,4.798578677368163,-7.977629569244384,6.985831531524658
1789317519928822800,3.77282275390625,4.715978720092773,-7.761403231811523,6.726509564208984
1789317519938857000,3.78285693359375,4.29025973739624,-6.730998692321777,6.5762734100341795
1789317519948891000,3.792890869140625,4.439298790740967,-3.091363256072998,7.6939166725158685
1789317519958923800,3.802923828125,4.2521021484374995,-1.183034895324707,7.678952912139892
1789317519968958000,3.8129580078125,5.1611505912780755,-1.1127052215576172,8.672696238708495
1789317519978991900,3.822991943359375,4.764910216522217,-0.8339303657531738,9.135076434326171
1789317519989024800,3.833024658203125,4.305672410583496,-0.5461772537231445,9.907056832122802
1789317519999058700,3.84305859375,3.7585973312377927,-0.15682020874023436,9.399037167358397
1789317520009092900,3.8530927734375,3.2972645988464353,0.30256723480224607,8.526350662231446
1789317520019126800,3.863126708984375,2.8520927276611325,1.0592845970153808,8.618078513336181
1789317520029159700,3.87315966796875,2.844311572265625,1.1158476112365723,9.121609049987793
1789317520039193900,3.88319384765625,3.93277550201416,-1.4918869094848632,9.558101940155028
1789317520049227800,3.893227783203125,5.190928474426269,-3.309684519958496,9.746495683288574
1789317520059261000,3.903260986328125,6.310666663360595,-3.4159272186279295,8.086565744781494
1789317520069294800,3.913294921875,6.381744525146484,-4.256142363739014,7.819462622070312
1789317520079328800,3.923328857421875,6.415113710784912,-5.463418550872802,7.244554948425293
1789317520089363000,3.933363037109375,5.795614031219482,-5.778405706787109,6.909366716003418
1789317520099395800,3.943395751953125,5.587767399597167,-5.647173528289795,7.344213592529297
1789317520109429800,3.9534296875,5.6289177406311035,-5.589263775634765,7.536647550964355
1789317520119464000,3.9634638671875,5.330091445922851,-5.003731832122803,5.976974806976318
1789317520129496800,3.973496826171875,4.943876790618896,-4.439897341156006,5.134066184997558
1789317520139531000,3.983531005859375,4.677222580718994,-4.261828592681884,5.069722015380859
1789317520149564700,3.993564697265625,4.544643663787841,-3.271826206207275,3.7014357666015623
1789317520159598800,4.003598876953125,5.706878932189941,-3.810222304534912,5.116109672546386
1789317520169631700,4.0136318359375,7.232583940124512,-3.3197102394104,6.246771406555175
1789317520179666000,4.023666015625,6.9162500457763665,-2.785354356384277,5.5912090644836425
1789317520189699800,4.033699951171875,6.535571981811523,-4.06655151977539,6.851456963348388
1789317520199732700,4.043732666015625,6.922684462738037,-4.760121813201904,7.387458860015869
1789317520209767000,4.053766845703125,5.508609107208252,-4.5048400611877435,7.358429164886474
1789317520219800800,4.06380078125,4.511573753356934,-4.051138846588135,6.58195963897705
1789317520229834800,4.073834716796875,5.04383470993042,-4.92816484222412,7.200112580108642
1789317520239868000,4.083867919921875,5.284601614379882,-5.017199216461181,6.798335614013672
1789317520249901800,4.09390185546875,5.2919338569641114,-5.252728804779053,6.972214509582519
1789317520259935700,4.103935791015625,6.3335612167358395,-5.767182886505126,7.302763976287841
1789317520269970000,4.113969970703125,6.956652198791503,-5.948094749450683,7.345111418151855
1789317520280002800,4.1240029296875,6.463895569610595,-6.057928750610351,7.070376777648925
1789317520290037000,4.134037109375,6.0145338455200195,-5.329792170715332,6.870610576629638
1789317520300070700,4.144070556640625,5.770175638580322,-4.885667762756348,8.028207079315186
1789317520310103800,4.154103759765625,5.7335144256591795,-4.248810121154785,8.37671305847168
1789317520320137700,4.1641376953125,5.40101967010498,-3.9644986740112302,8.587402804565428
1789317520330172000,4.174171875,4.917839847564697,-2.9358897857666015,8.038980986785889
1789317520340205800,4.184205810546875,4.538059609222412,-1.772307778930664,8.293813825988769
1789317520350238700,4.19423876953125,4.507533538055419,-0.5746083984375,8.690952026367187
1789317520360273000,4.20427294921875,4.105906209564209,-0.2727893516540527,8.129661374664305
1789317520370306800,4.214306884765625,4.1374797439575195,-0.04773439559936523,7.500884163665771
1789317520380340000,4.224340087890625,4.460248055267334,-0.3265092514038086,7.565826883697509
1789317520390374000,4.234373779296875,5.042936884307861,-1.6340426330566404,7.932738288116455
1789317520400407800,4.24440771484375,5.238363594818115,-2.7926865989685057,7.752125700378418
1789317520410442000,4.25444189453125,5.990292553710937,-3.9166146408081053,7.338228088378906
1789317520420475000,4.264474853515625,5.716605376434326,-4.792293898010254,6.701370446777343
1789317520430508800,4.2745087890625,5.779004257202148,-6.004508126068115,7.5248261802673335
1789317520440543000,4.28454296875,5.284751251983642,-6.258592777252197,7.06109924621582
1789317520450576400,4.294576416015625,5.249736052703857,-6.328174263000488,6.704063923645019
1789317520460610300,4.3046103515625,4.984278943634033,-6.260238790893554,6.494272003173828
1789317520470644200,4.314644287109375,4.064905506134033,-6.0513446960449215,6.39057314376831
1789317520480678400,4.324678466796875,3.951330564880371,-5.709722046661376,7.257723057556152
1789317520490711600,4.334711669921875,3.710114747619629,-4.970362646484375,7.921515467834472
1789317520500745200,4.3447451171875,3.3625065940856933,-4.280682930755615,7.9773302940368644
1789317520510779400,4.354779296875,3.9369653549194332,-3.4659061782836913,7.963563634490966
1789317520520813300,4.364813232421875,4.962581491088867,-3.2002994316101074,8.196100470733642
1789317520530846500,4.374846435546875,5.330390721130371,-2.4877251625061034,7.553556600189209
1789317520540880400,4.38488037109375,5.622483323669433,-2.2465093452453613,7.738508678436279
1789317520550914300,4.394914306640625,5.788431426239013,-2.2201731269836427,7.6759601600646965
1789317520560947500,4.404947509765625,5.833322707366943,-1.7121534622192383,8.202085974884033
1789317520570981400,4.4149814453125,5.875370874023437,-1.0369885940551757,8.489240536499024
1789317520581015300,4.425015380859375,6.004508126068115,-0.8710404914855957,8.253561310577393
1789317520591049500,4.435049560546875,5.5078609191894525,-0.6521206771850585,7.831134355163574
1789317520601082400,4.445082275390625,5.637895996856689,-0.8527847038269043,7.705139492797851
1789317520611116300,4.4551162109375,5.128978506469727,-1.1284171699523926,7.40526573486328
1789317520621150200,4.465150146484375,5.327996519470214,-1.5849614990234373,7.768585836791992
1789317520631183400,4.475183349609375,5.597942756652832,-2.1279963630676266,8.200439961242676
1789317520641217300,4.48521728515625,5.2642509002685545,-2.6493337745666503,7.287650578308105
1789317520651251200,4.495251220703125,5.172672686767577,-3.648613692474365,7.4438722366333
1789317520661285400,4.505285400390625,5.7591024559021,-3.370287749481201,6.718129858398437
1789317520671318300,4.515318359375,5.403114596557617,-2.9831752685546875,6.264129368591308
1789317520681352400,4.5253525390625,6.208164904785156,-2.749890244293213,6.5695397178649895
1789317520691386000,4.53538623046875,5.809380690765381,-2.113780790710449,6.608295857238769
1789317520701419300,4.545419189453125,5.18359623184204,-1.8486229568481445,6.810755535125732
1789317520711453400,4.555453369140625,5.243750548553466,-2.348113278198242,8.311321425628662
1789317520721487400,4.5654873046875,4.553472282409667,-1.4034510856628417,7.747786209869385
1789317520731521300,4.575521240234375,4.753687396240234,-1.1330559356689451,8.071751622009277
1789317520741554200,4.58555419921875,4.758176524353027,-1.3358148887634276,8.519317694854736
1789317520751588400,4.59558837890625,4.9072155776977535,-1.7642273483276367,8.814103774261474
1789317520761622500,4.60562255859375,4.151096765899658,-1.8381483245849608,8.531288703155518
1789317520771656200,4.61565625,4.463091169738769,-2.8106431114196777,10.135254177856444
1789317520781689300,4.625689453125,4.275445614624023,-2.971054622650146,10.047865817260742
1789317520791723300,4.63572314453125,3.8489784439086914,-3.2686838165283203,8.864980559539795
1789317520801757400,4.64575732421875,4.6903906898498535,-4.149001839447021,9.260772021484375
1789317520811790300,4.655790283203125,5.531503660583496,-4.708197564697265,9.72240402908325
1789317520821824300,4.66582421875,5.329492895507812,-4.7286979164123535,8.84313346939087
1789317520831858400,4.6758583984375,4.856937342834472,-4.325873487091064,7.29109224319458
1789317520841892400,4.685892333984375,4.3640310760498044,-4.602553416442871,7.134571309661865
1789317520851925200,4.69592529296875,4.205115940856933,-4.821922143554687,7.15686731262207
1789317520861959200,4.705959228515625,3.4270004013061524,-4.964975692749023,7.805695962524414
1789317520871993300,4.715993408203125,3.189525524139404,-4.520701647186279,7.940369805908203
1789317520882026500,4.726026611328125,2.6316765373229978,-5.021538706970214,8.768165029907227
1789317520892060200,4.73606005859375,2.842815196228027,-5.563975020599365,9.349357482910156
1789317520902094300,4.74609423828125,3.152714673614502,-5.6754550354003905,9.361478128814698
1789317520912128500,4.75612841796875,3.661482526397705,-5.214122303009033,8.434622811126708
1789317520922161400,4.766161376953125,4.42388611755371,-4.267664459228516,7.917175977325439
1789317520932195300,4.7761953125,4.461445156097412,-4.453664000701904,7.743446719360351
1789317520942229200,4.786229248046875,3.8340146835327147,-5.131223070526123,7.972541890716553
1789317520952263400,4.796263427734375,3.2077813117980956,-5.484367815399169,8.705167598724366
1789317520962296300,4.80629638671875,3.086724490356445,-5.494842447662354,8.5172227684021
1789317520972330200,4.816330322265625,2.620304079437256,-5.655104321289063,8.723124111175537
1789317520982364400,4.826364501953125,3.1509190223693846,-5.3856069969177245,8.238747187805176
1789317520992397300,4.836397216796875,4.005349739837646,-5.224297660064697,7.213280689239501
1789317521002431500,4.846431396484375,4.492270502471923,-5.530306559753417,7.052420265197753
1789317521012465200,4.856465087890625,4.866514149475098,-4.646995784759521,6.529586477661132
1789317521022499300,4.866499267578125,4.343829999542236,-4.170699291992188,6.5683426170349115
1789317521032532200,4.8765322265625,3.91347225112915,-4.211101445007324,6.242581553649902
1789317521042566400,4.88656640625,3.1759085021972653,-4.320935446166992,7.473201206970215
1789317521052600300,4.896600341796875,3.3143232856750484,-4.171148204803466,8.979752601623535
1789317521062633200,4.90663330078125,3.0437784980773923,-3.906738558959961,8.93770443496704
1789317521072667400,4.91666748046875,3.4657565406799313,-3.6112042915344236,8.693645503234864
1789317521082701600,4.92670166015625,4.3716625938415525,-2.865410474395752,8.445995269012451
1789317521092735200,4.9367353515625,5.099050985717773,-2.577358087158203,8.296656940460204
1789317521102768400,4.946768310546875,4.254945262908936,-3.0247745223999023,8.116642903137206
1789317521112802300,4.95680224609375,4.0912417243957515,-3.1139585342407226,8.6061075050354
1789317521122836200,4.966836181640625,2.6192566162109374,-3.0564976943969726,8.485948509216309
1789317521132870400,4.976870361328125,2.8592753326416016,-3.202394358062744,8.524854286193847
1789317521142903300,4.9869033203125,3.4859576171874997,-3.9419033958435055,9.46742155227661
1789317521152937500,4.9969375,3.0980969482421874,-3.99038597946167,9.185205031585692
1789317521162971100,5.00697119140625,2.996193740081787,-3.8474820678710935,8.773551983642578
1789317521173004300,5.01700439453125,3.4497453170776367,-4.834790977478027,9.252691590881348
1789317521183038200,5.0270380859375,3.743035020446777,-5.819556047821044,8.560168760681151
1789317521193072400,5.037072265625,4.5036429603576655,-7.261015084838867,8.56076731109619
1789317521203106300,5.047106201171875,4.94193150177002,-7.537096463775634,7.66787972946167
1789317521213139200,5.05713916015625,4.776881224822998,-7.701398552703857,6.934505833435058
1789317521223173400,5.06717333984375,3.698443014526367,-7.540987041473389,6.351368091583252
1789317521233207300,5.077207275390625,2.552368607330322,-6.6271501953125,6.587795505523681
1789317521243241200,5.0872412109375,2.808398547363281,-5.809081415557861,7.232434302520751
1789317521253274400,5.0972744140625,2.8643630111694334,-6.044611003875732,7.18888975982666
1789317521263308300,5.107308349609375,3.365648983764648,-5.338620789337158,6.9627873405456535
1789317521273342500,5.117342529296875,3.768473413085937,-4.958242000579833,7.851784344482422
1789317521283375400,5.127375244140625,4.186411240386962,-4.4005426513671875,7.615805843353271
1789317521293409300,5.1374091796875,4.074482312774658,-3.4234090988159176,7.572710213470459
1789317521303443500,5.147443359375,4.809352584838867,-2.806602896118164,8.077587488555908
1789317521313477400,5.157477294921875,4.875642043304443,-2.070236248016357,7.4968439483642575
1789317521323510500,5.167510498046875,5.103839389038086,-1.7583914817810058,7.225700610351562
1789317521333544200,5.177544189453125,5.162347692108154,-1.4932336479187012,7.631068878936767
1789317521343578400,5.187578369140625,5.046827462005615,-1.3896844261169432,8.474426413726807
1789317521353611300,5.197611328125,5.446060588836669,-1.5040075553894041,9.255235430145262
1789317521363645400,5.2076455078125,4.876839144134522,-0.7246949150085449,8.252214572143554
1789317521373679400,5.217679443359375,4.848407999420166,0.06943184814453125,7.4685624412536615
1789317521383713300,5.22771337890625,5.1128176452636716,-0.5603928260803223,7.443722599029541
1789317521393746400,5.237746337890625,5.945101997375488,-2.0789152290344237,8.377610884094238
1789317521403780000,5.247780029296875,5.506065267944336,-2.2475568084716797,6.9707181335449215
1789317521413814300,5.257814208984375,4.980388365936279,-2.382081014251709,7.190835048675536
1789317521423847400,5.267847412109375,6.041169338989257,-2.8057050704956055,7.275081019592284
1789317521433881300,5.27788134765625,5.8074354019165035,-2.774430811309814,6.993313411712646
1789317521443915300,5.287915283203125,6.409427481842041,-2.306514024353027,7.425616448974609
1789317521453949200,5.29794921875,5.524171417999267,-1.8987515541076658,7.681646389007568
1789317521463982000,5.307982177734375,5.834819083404541,-1.8115128311157225,8.689156375122069
1789317521474016300,5.318016357421875,5.578340230560302,-1.4579191734313963,8.718335707855225
1789317521484050200,5.32805029296875,5.636549258422852,-1.0950479843139649,8.699930282592772
1789317521494084000,5.338083984375,5.578040955352783,-1.0019733947753906,8.933664219665527
1789317521504117200,5.3481171875,5.277867922210693,-0.2711433380126953,8.670302037048339
1789317521514151200,5.358151123046875,5.448305152893066,-0.201112939453125,8.209118942260742
1789317521524185000,5.36818505859375,6.082618955230712,-0.6534674156188964,8.736591495513915
1789317521534218200,5.37821826171875,5.588066674804687,-0.4445733207702636,8.87994431991577
1789317521544252200,5.388252197265625,5.738452466583252,-0.6287772109985351,8.751704893493653
1789317521554286300,5.398286376953125,4.608987833404541,-0.8105868995666503,7.36157155456543
1789317521564320300,5.4083203125,5.276970096588134,-1.285835929107666,7.521683790588378
1789317521574353200,5.418353271484375,5.168482833862305,-2.0569185012817384,8.653093712615966
1789317521584387300,5.42838720703125,5.047426012420654,-1.905784521484375,8.17814395828247
1789317521594421200,5.438421142578125,4.639813179779052,-2.3005285202026364,7.389703424072265
1789317521604455200,5.448455078125,5.397727642822265,-2.4516625,7.490858444213867
1789317521614488000,5.458488037109375,5.548861622619628,-2.4329577995300293,7.403320446014404
1789317521624522200,5.468522216796875,5.560533355712891,-2.231994497680664,7.635258731842041
1789317521634556400,5.478556396484375,5.8934770240783685,-2.459892568206787,7.7036431167602535
1789317521644589300,5.48858935546875,6.331915203094482,-2.754828285217285,7.683442040252685
1789317521654623200,5.498623291015625,6.040570788574218,-2.3897125320434567,7.24590168685913
1789317521664657200,5.5086572265625,5.548412709808349,-2.1643583007812497,7.567023984527587
1789317521674691300,5.51869140625,4.574571184539795,-1.4618097511291503,7.361870829772949
1789317521684724000,5.528723876953125,4.803367080688476,-1.3883376876831053,8.257152613067626
1789317521694758100,5.538758056640625,4.762067102050781,-1.2901754196166992,8.013392956542969
1789317521704792300,5.548792236328125,5.488856943511963,-1.7337012771606444,7.638101846313476
1789317521714826000,5.558825927734375,6.184821438598632,-1.986289552307129,7.943212920379638
1789317521724859100,5.568859130859375,6.084713881683349,-1.9707272415161132,7.23333212814331
1789317521734893300,5.578893310546875,6.393416258239745,-1.992424694061279,7.383867557525634
1789317521744927200,5.58892724609375,5.856815811157226,-2.0040964271545407,7.634360906219482
1789317521754960400,5.59896044921875,6.630292584991455,-2.1903952438354493,7.9104422851562495
1789317521764994000,5.608994140625,5.767033248901367,-2.224213342285156,7.867945205688476
1789317521775028200,5.6190283203125,5.878213988494872,-2.5463831031799313,8.661922331237793
1789317521785062400,5.6290625,5.539584091186523,-2.6396073303222654,8.685265797424316
1789317521795095300,5.63909521484375,5.176413626861572,-2.5610475883483885,7.7215996292114255
1789317521805129200,5.649129150390625,5.117755686187744,-2.667439924621582,7.130830369567871
1789317521815163100,5.6591630859375,5.457433046722412,-2.6598084068298338,7.516147199249267
1789317521825196300,5.6691962890625,5.483320352172851,-2.638709504699707,7.855226009368896
1789317521835230200,5.679230224609375,5.9114335365295405,-2.858078231811523,8.036287509918212
1789317521845264100,5.68926416015625,5.875071598815918,-2.8248586837768555,7.970895877075195
1789317521855298300,5.69929833984375,6.098031628417968,-2.9013234992980954,8.413374271392822
1789317521865331200,5.709331298828125,5.319766451263427,-2.3970447746276853,6.960842051696777
1789317521875365400,5.719365478515625,5.536441701507568,-2.3493103790283203,7.494300109100341
1789317521885399000,5.72939892578125,5.457433046722412,-1.992424694061279,8.058733150482178
1789317521895433200,5.73943310546875,5.2630537994384765,-1.7805378471374511,8.096142551422119
1789317521905466400,5.74946630859375,4.913649994659424,-1.4040496360778807,7.261314360046386
1789317521915500300,5.759500244140625,5.685031842041015,-1.4490905548095703,7.904456781005859
1789317521925534200,5.7695341796875,5.713462986755371,-1.2810475257873535,7.818864071655273
1789317521935567000,5.779567138671875,5.527762720489502,-1.5062521194458007,7.020547455596923
1789317521945601300,5.789601318359375,6.675932054138183,-1.9598036964416503,7.7799582946777335
1789317521955635200,5.79963525390625,6.852205151367187,-2.3138462669372557,8.282142092895507
1789317521965669000,5.809669189453125,5.983409223937988,-2.098517755126953,7.874828535461425
1789317521975702300,5.819702392578125,5.07555788192749,-2.466775897979736,8.538321670532227
1789317521985736200,5.829736083984375,4.037222549438476,-2.191741982269287,8.242937040710448
1789317521995770000,5.83977001953125,3.3022026397705075,-2.0356699615478515,7.670423568725585
1789317522005804300,5.84980419921875,3.0129531517028805,-1.648557480621338,6.564452039337158
1789317522015837200,5.859837158203125,3.9004537796020506,-2.5103204406738278,6.806416044616699
1789317522025871400,5.869871337890625,4.710591766357422,-3.0852281143188476,6.7374331092834465
1789317522035905000,5.879905029296875,5.6310126670837395,-3.3967736053466795,7.180210778808593
1789317522045938200,5.889938232421875,6.292111600494384,-3.686172731018066,7.745990558624267
1789317522055972000,5.89997216796875,6.466888321685791,-3.5359365768432616,8.232312770843505
1789317522066006300,5.91000634765625,6.756885997772216,-3.3029508277893065,9.175328949737548
1789317522076040200,5.920040283203125,6.265925019836425,-2.708889540863037,8.558971659851073
1789317522086073000,5.930072998046875,6.355557944488525,-2.7187656227111816,8.878148668670654
1789317522096107300,5.940107177734375,6.4375593513488765,-2.1052514472961423,8.545354637908934
1789317522106141200,5.95014111328125,5.931933888244629,-1.5147814628601073,8.27391202468872
1789317522116174300,5.96017431640625,5.793219829559326,-1.1978490180969237,8.689605287933349
1789317522126208300,5.970208251953125,5.071218391418457,-0.6748655929565429,8.214805171203613
1789317522136242200,5.9802421875,4.159027558898925,-0.7624035911560059,8.336011630249024
1789317522146276400,5.9902763671875,4.120421057128906,-1.0954968971252441,8.417863399505615
1789317522156309200,6.000309326171875,4.180126461029053,-1.7254712089538573,8.047959243011475
1789317522166343200,6.01034326171875,4.26452206954956,-2.067393133544922,7.574056951904296
1789317522176377300,6.02037744140625,4.248510845947266,-2.407519406890869,7.681945664215087
1789317522186411300,6.030411376953125,3.8826469047546386,-2.5758617111206052,7.706486231231689
1789317522196444200,6.040444091796875,4.37974302444458,-3.2607530235290527,8.65728356552124
1789317522206478000,6.05047802734375,5.30570051651001,-3.147028444671631,9.150489107513428
1789317522216512300,6.06051220703125,5.261258148193359,-2.7691934951782224,8.15928962020874
1789317522226545200,6.070545166015625,5.49678773651123,-2.8106431114196777,7.785494886016846
1789317522236579000,6.0805791015625,5.291784219360351,-2.9290064559936524,7.069478952026366
1789317522246613200,6.09061328125,4.8971898582458495,-2.995744827270508,6.820631616973877
1789317522256647200,6.100647216796875,3.6736031723022458,-2.5993548149108885,6.678625531005859
1789317522266680300,6.110680419921875,3.3372178390502927,-1.9288287124633787,7.019350354766845
1789317522276714200,6.12071435546875,3.235613906097412,-2.0425532913208007,8.051849820709228
1789317522286748200,6.130748046875,3.9577649818420406,-1.9271826988220213,8.169614614868163
1789317522296782300,6.1407822265625,4.182071749877929,-1.9141642272949217,8.07639038772583
1789317522306815200,6.150815185546875,4.99235937423706,-1.624166551208496,8.25490804901123
1789317522316849200,6.16084912109375,5.437231970214843,-1.9871873779296874,8.594884684753417
1789317522326883300,6.17088330078125,5.759252093505859,-1.7847277000427244,8.002469411468505
1789317522336916200,6.180916259765625,6.015132395935058,-1.7720085037231443,8.889072213745116
1789317522346950400,6.190950439453125,6.289567761230469,-1.9955670837402342,9.43599765548706
1789317522356984000,6.200984130859375,6.327426074981689,-2.645143921661377,9.253439778900146
1789317522367018200,6.211018310546875,6.4454901443481445,-3.3352725502014158,9.23249051437378
1789317522377051100,6.221051025390625,5.89916325302124,-3.069067253112793,8.77789147415161
1789317522387085300,6.231085205078125,5.520879390716552,-2.995595189666748,9.006088819885253
1789317522397119200,6.241119140625,4.25180287322998,-2.556259185028076,8.204629814147948
1789317522407152000,6.251152099609375,4.360888686370849,-2.8658593872070313,8.812158485412597
1789317522417186300,6.261186279296875,4.797830489349365,-2.749590969085693,8.186374026489258
1789317522427220200,6.27122021484375,4.446930308532715,-2.5803508392333985,7.357680976867675
1789317522437254100,6.281254150390625,4.279336192321777,-2.211943058776855,7.180210778808593
1789317522447287300,6.291287353515625,3.3080385063171387,-2.3707085563659667,6.645405982971191
1789317522457321200,6.3013212890625,3.1352070739746094,-2.4958055931091305,7.300519412231445
1789317522467355100,6.311355224609375,3.375225790405273,-2.959233251953125,9.318382498931884
1789317522477389000,6.32138916015625,3.6104561035156246,-2.504634211730957,8.743325187683105
1789317522487422200,6.331422119140625,3.8361096099853516,-2.8036101440429686,8.373570668792723
1789317522497456000,6.3414560546875,5.434239218139648,-3.6845267173767087,8.882039246368407
1789317522507490000,6.351489990234375,5.257217932891845,-3.7306150993347167,7.58438194656372
1789317522517523000,6.36152294921875,4.44378791885376,-3.7666777618408203,7.509862419891357
1789317522527557000,6.37155712890625,4.2019735511779785,-3.4599206741333006,8.19789612197876
1789317522537591300,6.38159130859375,3.703381055450439,-3.585616261291504,8.834304850769042
1789317522547625000,6.391625,4.244171355438232,-4.20092608795166,9.230395587921143
1789317522557658000,6.401658203125,4.291157563018799,-3.9782653335571285,8.642020529937744
1789317522567692000,6.411692138671875,4.010287780761718,-3.652653907775879,8.34439133605957
1789317522577726200,6.421726318359375,4.1097967872619625,-3.590255027008056,8.42085615158081
1789317522587760000,6.431760009765625,4.254795625305175,-3.5378818656921385,8.007108177185058
1789317522597793000,6.44179296875,4.790647884368896,-4.02255806427002,8.589048818206786
1789317522607827200,6.4518271484375,4.447229583740234,-4.048595007324218,8.839093254089354
1789317522617861000,6.461861083984375,4.6453497711181635,-3.6733038970947263,8.194304819488526
1789317522627894300,6.471894287109375,4.470423412322998,-4.36687419052124,8.286032670593261
1789317522637928000,6.481927978515625,4.501548033905029,-4.270208298492431,6.934356195831298
1789317522647962000,6.491962158203125,3.9586628074645995,-4.32886623916626,6.627898383331298
1789317522657996300,6.501996337890625,4.574870459747314,-4.696376194000244,7.482778013610839
1789317522668029200,6.512029296875,4.330961165618897,-4.2329485351562495,7.022193469238281
1789317522678063000,6.52206298828125,4.734833058166504,-4.491821589660645,7.7036431167602535
1789317522688097300,6.53209716796875,4.2874166229248045,-4.650287812042236,7.23348176574707
1789317522698130200,6.542130126953125,5.096956059265136,-4.580855963897704,7.231536476898193
1789317522708164000,6.5521640625,4.831349312591552,-4.153640605163574,6.4746694770812985
1789317522718198000,6.562197998046875,5.752817676544189,-3.646518766021728,6.421997040557861
1789317522728232200,6.572232177734375,6.098031628417968,-3.371784125518799,6.732644705963135
1789317522738265000,6.58226513671875,5.9205614303588865,-3.2257378242492676,7.275380294799804
1789317522748299000,6.592299072265625,6.087856271362305,-2.805106520080566,7.82065972290039
1789317522758333200,6.602333251953125,6.0327896331787105,-2.628384510040283,7.747187659454346
1789317522768367000,6.6123671875,6.8587892059326165,-2.7343279335021973,7.972242615509033
1789317522778400300,6.622400146484375,6.050446870422363,-2.3183353950500485,7.365312494659423
1789317522788434000,6.632433837890625,6.256198575592041,-2.1576246086120605,6.798036338806152
1789317522798468000,6.642468017578125,5.656002146911621,-1.8992004669189453,6.388178942108154
1789317522808501200,6.652501220703125,5.71421117477417,-2.4685715492248534,7.307702017211914
1789317522818535200,6.66253515625,5.217563967895508,-2.2870611358642576,7.711424272155761
1789317522828569000,6.672569091796875,6.2304609077453605,-3.0916625312805173,9.795427179718017
1789317522838603000,6.68260302734375,5.497535924530029,-2.684049698638916,8.763975177001953
1789317522848636200,6.69263623046875,5.364807369995117,-1.8981530036926269,7.73776049041748
1789317522858670300,6.70267041015625,5.960365032958984,-1.8728642486572264,7.46960990447998
1789317522868704000,6.7127041015625,6.281337693023681,-1.7565958305358886,7.362319742584228
1789317522878738200,6.72273828125,6.026205578613281,-1.6175824966430663,7.110479655456542
1789317522888771000,6.73277099609375,5.42017328338623,-1.2611457244873046,7.4122987022399895
1789317522898805200,6.74280517578125,5.560982268524169,-0.9611223289489745,8.566902452850341
1789317522908839200,6.752839111328125,5.998971534729003,-1.7603367706298827,9.467271914672851
1789317522918872000,6.7628720703125,5.839607486724853,-1.8236334770202636,8.002469411468505
1789317522928906200,6.77290625,5.754014777374267,-2.1226094093322754,7.8532807205200195
1789317522938940200,6.782940185546875,5.585822110748291,-2.037166337585449,8.179939609527587
1789317522948974000,6.79297412109375,5.4984337501525875,-2.4947581298828125,7.833229281616211
1789317522959007000,6.803007080078125,5.022735807800292,-3.105279553222656,7.701548190307617
1789317522969041200,6.813041259765625,5.358672228240967,-2.639906605529785,7.6574050971984855
1789317522979075000,6.823074951171875,5.667973155212402,-2.977040126800537,8.24233849029541
1789317522989109000,6.83310888671875,5.141398427581787,-2.905363714599609,7.502530177307128
1789317522999142100,6.84314208984375,5.214122303009033,-3.297114961242676,7.932439012908935
1789317523009176000,6.853176025390625,4.150947128295898,-2.313546991729736,6.077232001495361
1789317523019210000,6.8632099609375,3.9496845512390135,-2.5080758766174314,6.795492499542236
1789317523029243100,6.8732431640625,3.7509658134460446,-2.8009166671752928,6.7742439598083495
1789317523039277000,6.883277099609375,4.096628678131103,-3.088220866394043,6.77379504699707
1789317523049311200,6.893311279296875,4.906018476867676,-3.7544074783325194,8.039579537200927
1789317523059345000,6.903344970703125,5.127182855224609,-3.4261025756835934,8.01877991027832
1789317523069378000,6.9133779296875,5.458330872344971,-3.284844677734375,8.585756790924071
1789317523079412200,6.923412109375,5.556942053222656,-3.019088293457031,9.110086954498291
1789317523089446100,6.933446044921875,5.160402403259277,-2.591573659515381,9.022698593902588
1789317523099480000,6.94347998046875,4.454561826324463,-2.0323779342651367,7.630470328521728
1789317523109513000,6.953512939453125,5.516240625,-2.7679963943481445,8.853458464050293
1789317523119547100,6.963547119140625,6.1638721740722655,-3.2205005081176754,8.802880953979491
1789317523129581300,6.973581298828125,5.9017070922851556,-2.133682592010498,7.055712292480468
1789317523139614200,6.9836142578125,5.455936670684814,-2.3157915557861326,6.998850003051757
1789317523149648100,6.993648193359375,4.954800335693359,-2.492363928222656,7.218218730163573
1789317523159682000,7.00368212890625,4.841674307250976,-3.1292215698242187,7.996034994506836
1789317523169716200,7.01371630859375,4.6812627960205075,-3.2309751403808593,8.48505068359375
1789317523179749000,7.0237490234375,5.559785167694091,-3.5422213562011717,9.466074813842773
1789317523189783000,7.033782958984375,5.2359693931579585,-3.917961379241943,9.520243626403808
1789317523199817200,7.043817138671875,4.349516228485107,-3.6557962974548337,7.961468708038329
1789317523209850000,7.05385009765625,3.4632127014160154,-3.3004069885253906,7.564480145263672
1789317523219884000,7.063884033203125,4.1757869705200195,-2.6402058807373043,8.24203921508789
1789317523229918200,7.073918212890625,4.218284049987793,-2.316240468597412,8.217498648071288
1789317523239952100,7.0839521484375,4.44333900604248,-1.7528548904418944,7.254580667877197
1789317523249985300,7.0939853515625,4.310909726715088,-1.4755764106750486,7.4594345474243156
1789317523260019000,7.10401904296875,4.365677089691162,-1.5336358009338378,8.041225550842285
1789317523270053000,7.11405322265625,3.259855197906494,-1.7009306419372558,7.830236529541015
1789317523280087300,7.12408740234375,4.435108937835693,-2.2731448387145994,9.00818374633789
1789317523290120200,7.1341201171875,4.67318236541748,-2.64948341217041,9.747094233703613
1789317523300154000,7.144154052734375,6.498162580871582,-2.4384943908691405,8.805125518035888
1789317523310188000,7.15418798828125,6.1930515068054195,-2.6574142051696774,8.081029153442381
1789317523320221200,7.16422119140625,6.779481275939941,-2.6321254501342772,7.725490206909179
1789317523330255000,7.174255126953125,5.596745655822754,-3.2707787429809567,8.910919303894042
1789317523340289000,7.1842890625,4.228459407043457,-2.8036101440429686,8.097040377044678
1789317523350323200,7.1943232421875,3.1706711860656736,-3.264793238830566,8.500313719177246
1789317523360356000,7.204356201171875,3.7761049308776853,-3.2122704399108883,8.684966522216797
1789317523370390300,7.214390380859375,3.9354689788818358,-2.4717139389038083,7.895179249572753
1789317523380424000,7.224423828125,4.107402585601807,-2.899228572845459,7.2812161613464355
1789317523390458000,7.2344580078125,4.087650421905518,-3.434183006286621,7.084592350006103
1789317523400491300,7.2444912109375,3.7297172737121578,-3.5066076065063476,7.621791347503661
1789317523410525200,7.254525146484375,4.117428305053711,-3.8988077659606932,8.308478311157225
1789317523420559000,7.26455908203125,4.372111506652832,-3.967192150878906,8.377461246490478
1789317523430592000,7.274592041015625,5.4512979049682615,-3.643077101135254,7.549217109680176
1789317523440626200,7.284626220703125,4.482693695831299,-3.72193611831665,7.175123100280762
1789317523450660400,7.294660400390625,3.9701849029541014,-3.6640263656616208,7.275679570007323
1789317523460693500,7.304693603515625,4.00340445098877,-3.4681507423400877,8.268973983764647
1789317523470726400,7.314726318359375,4.869357263946533,-3.7770027565002438,8.896404456329345
1789317523480760600,7.324760498046875,5.3844098960876465,-4.178330809783935,8.25505768661499
1789317523490794800,7.334794677734375,5.663783302307128,-4.058620726776123,8.333168515777587
1789317523500828400,7.344828369140625,4.962132578277588,-3.1543606872558594,8.282441368103028
1789317523510861600,7.354861572265625,4.525938963317871,-3.4097920768737793,8.615235398864746
1789317523520895500,7.3648955078125,4.387673817443847,-3.459621398925781,8.594735047149658
1789317523530929700,7.3749296875,4.415656049346923,-3.1082723052978514,9.30820714187622
1789317523540962800,7.384962890625,4.011933794403076,-2.1814169876098632,8.884134172821044
1789317523550996500,7.39499658203125,4.093785563659668,-2.210745957946777,8.81006355895996
1789317523561030700,7.40503076171875,4.343530724334716,-2.194734734344482,7.595904042053222
1789317523571064600,7.415064697265625,5.586570298767089,-3.2378584701538085,7.844003189086914
1789317523581097700,7.42509765625,5.715408275604248,-3.781940797424316,7.417835293579101
1789317523591131600,7.435131591796875,5.565621034240722,-3.923348332977295,8.261492103576659
1789317523601165600,7.44516552734375,5.037549930572509,-3.7159506141662595,8.456469901275634
1789317523611199700,7.45519970703125,4.931606507110596,-4.045003704833984,8.263437392425537
1789317523621232400,7.465232421875,4.800075053405761,-3.6246716758728024,7.1422028274536125
1789317523631266600,7.4752666015625,5.577741680145263,-3.070413991546631,6.018274785614014
1789317523641300700,7.48530078125,5.482123251342773,-3.9950247451782226,6.643311056518554
1789317523651333600,7.495333740234375,5.3962312667846675,-3.660883975982666,6.871508402252197
1789317523661367600,7.505367431640625,4.987122058105468,-3.3680431854248045,7.423671160125732
1789317523671401500,7.5154013671875,5.321861377716064,-3.598784370422363,7.828141603088379
1789317523681435600,7.525435546875,4.9999908920288085,-3.4337340934753415,7.410353413391113
1789317523691468500,7.535468505859375,5.730072760772705,-3.6381390602111816,7.5427826927185055
1789317523701502500,7.54550244140625,4.549432067108154,-3.5945945175170895,5.8654947921752925
1789317523711536600,7.55553662109375,5.419275457763671,-3.3469442832946776,7.003039855957031
1789317523721569500,7.565569580078125,4.970961196899414,-3.700986853790283,8.481459381103516
1789317523731603700,7.575603759765625,4.882675010681152,-3.4762311729431152,8.260594277954102
1789317523741637400,7.585637451171875,4.132392065429687,-3.3048961166381834,7.544279068756103
1789317523751671600,7.595671630859375,5.004330382537842,-3.7633857345581054,9.022997869110107
1789317523761704700,7.60570458984375,5.50367106628418,-3.201795807647705,8.617330325317383
1789317523771738600,7.615738525390625,6.040570788574218,-3.5386300537109374,8.683619783782959
1789317523781772500,7.6257724609375,5.36271244354248,-2.545634915161133,6.3989528495788575
1789317523791806700,7.635806640625,6.158335582733154,-3.515585862731933,8.26179137878418
1789317523801839600,7.645839599609375,5.5273138076782224,-3.09630129699707,7.272986093139648
1789317523811873800,7.655873779296875,4.839579380798339,-3.7460277725219724,7.8155720443725585
1789317523821907500,7.665907470703125,5.143044441223144,-3.0520085662841794,7.63570764465332
1789317523831940600,7.675940673828125,4.478054930114745,-2.66220260848999,7.994987531280517
1789317523841974500,7.685974609375,5.277419009399414,-2.6946739685058594,6.84352617034912
1789317523852008700,7.6960087890625,5.227440049743652,-3.1542110496520994,6.600365064239502
1789317523862042600,7.706042724609375,6.362890187072754,-3.515735500335693,7.173925999450683
1789317523872075500,7.716075439453125,5.555146401977539,-3.769221601104736,7.53978994064331
1789317523882109700,7.726109619140625,4.9555485237121575,-2.8681039512634277,6.295403627777099
1789317523892143400,7.736143310546875,4.2691608352661135,-3.2249896362304686,8.646210382843018
1789317523902177500,7.746177490234375,4.310011901092529,-2.8782793083190916,8.530241239929198
1789317523912210400,7.75621044921875,3.8940193626403805,-3.421164534759521,8.12083275604248
1789317523922244600,7.76624462890625,5.386953735351562,-2.941875289916992,7.587075423431396
1789317523932278500,7.776278564453125,6.244077929687499,-2.4595932929992674,7.2809168861389155
1789317523942311400,7.7863115234375,6.572682107543945,-2.851194902038574,8.09524472579956
1789317523952345600,7.796345703125,5.543025756072998,-2.5643396156311034,7.432799053955078
1789317523962379800,7.8063798828125,4.737975447845459,-2.9773394020080564,8.208071479034423
1789317523972413400,7.816413330078125,5.127033217620849,-2.9243676902770996,9.314043008422852
1789317523982446600,7.826446533203125,4.900930798339844,-2.4275708457946776,9.340528864288329
1789317523992480500,7.83648046875,3.9227497825622555,-2.404526654815674,7.297975572967529
1789317524002514700,7.8465146484375,3.5797803947448728,-2.623147193908691,6.833350813293457
1789317524012548600,7.856548583984375,3.554790914916992,-3.9643490364074703,8.03808316116333
1789317524022581500,7.86658154296875,4.113986640167236,-4.059219277191162,7.858218761444092
1789317524032615700,7.87661572265625,4.793042086029052,-4.153191692352294,7.970297326660156
1789317524042649600,7.886649658203125,4.9260699157714845,-3.937114992523193,7.645284451293945
1789317524052682800,7.896682861328125,4.734384145355224,-3.7735610916137694,7.818265521240234
1789317524062716400,7.90671630859375,4.011335243988037,-4.169951103973388,8.455123162841796
1789317524072750600,7.91675048828125,5.268740028381347,-4.442141905212402,9.044246408843994
1789317524082784800,7.92678466796875,6.013336744689941,-4.412214384460449,8.82278275527954
1789317524092817700,7.936817626953125,5.8542719718933105,-4.088099334716796,8.691101663970947
1789317524102851600,7.9468515625,5.085733238983154,-3.2797569992065427,7.873032884216308
1789317524112885500,7.956885498046875,3.8652889427185055,-3.0078654731750487,7.87856947555542
1789317524122919700,7.966919677734375,3.778798407745361,-3.1009400627136228,8.556577458190917
1789317524132952600,7.97695263671875,4.023455889892578,-3.144185330200195,8.622118728637695
1789317524142986500,7.986986572265625,3.1974563171386716,-2.9315502952575683,6.351966641998291
1789317524153020700,7.997020751953125,3.304447203826904,-2.623296831512451,7.152228546905517
1789317524163053600,8.007053466796876,3.326743206787109,-2.8076503593444824,7.744344544982909
1789317524173087500,8.01708740234375,3.445106551361084,-3.125031716918945,6.738779847717285
1789317524183121700,8.02712158203125,4.084059119415283,-3.832069394683838,6.510432864379882
1789317524193155600,8.037155517578125,5.635352157592773,-3.8009447731018065,7.176619476318359
1789317524203188700,8.047188720703126,5.57998624420166,-3.882197991943359,7.659350386047363
1789317524213222400,8.057222412109375,5.371391424560547,-4.256292001342773,7.707084781646728
1789317524223256600,8.067256591796875,6.132897190093994,-4.515314693450928,8.406939854431151
1789317524233289500,8.07728955078125,5.219658894348144,-3.609707915496826,8.284835569763183
1789317524243323600,8.08732373046875,4.684854098510742,-3.4789246498107906,8.90643017578125
1789317524253357600,8.097357666015625,4.436306038665771,-3.616142332458496,8.641870892333984
1789317524263391500,8.1073916015625,3.959560633087158,-3.6282629783630367,7.823053924560546
1789317524273424600,8.117424560546874,3.9439983222961423,-3.2836475769042965,7.794323504638672
1789317524283458600,8.12745849609375,4.198232611083984,-3.2172084808349606,7.359775903320312
1789317524293492500,8.137492431640625,5.13930350112915,-3.9107787742614746,7.451952667236328
1789317524303526700,8.147526611328125,5.607669200897217,-4.152892417144775,7.221810032653808
1789317524313559600,8.1575595703125,5.8728270347595215,-3.6610336135864254,7.712621372985839
1789317524323593700,8.16759375,4.474912540435791,-2.966116581726074,8.186673301696777
1789317524333627600,8.177627685546875,4.6857519241333,-3.26239903717041,8.783278427886962
1789317524343660500,8.18766064453125,3.8103719421386715,-3.714903150939941,8.856002303314208
1789317524353694700,8.19769482421875,4.686350474548339,-3.632153556060791,8.898499382781981
1789317524363728600,8.207728759765626,4.0532337730407715,-2.8368296920776364,7.742249618530273
1789317524373762600,8.217762451171875,4.358644122314453,-2.2007202384948727,7.203853520202636
1789317524383795500,8.22779541015625,4.554220470428467,-2.182614088439941,7.263259648895263
1789317524393829600,8.23782958984375,4.946420629882812,-2.7519851707458494,7.419780582427978
1789317524403863600,8.247863525390626,4.787655132293701,-3.030610388946533,8.097489289855957
1789317524413897500,8.2578974609375,4.855291329193115,-2.830095999908447,8.135497241210937
1789317524423930600,8.2679306640625,5.737105728149413,-3.258508459472656,8.647407483673096
1789317524433964500,8.277964599609374,6.2693666847229,-3.451241693115234,8.508843062591552
1789317524443998500,8.28799853515625,5.505616355133056,-2.657264567565918,7.180360416412353
1789317524454033000,8.298032958984376,5.995829145050048,-2.775029361724853,7.931092274475097
1789317524464066000,8.308066162109375,5.780799908447265,-3.2607530235290527,8.144026584625244
1789317524474100000,8.318099853515625,5.833621982574463,-2.6856957122802734,7.088034014892577
1789317524484134000,8.3281337890625,5.201403106689453,-3.40949280166626,7.5816884696960445
1789317524494166800,8.338166748046875,4.528782077789306,-2.9158383468627926,6.025756665802001
1789317524504201000,8.348200927734375,4.603900154876709,-3.050512190246582,5.96245995941162
1789317524514235100,8.358235107421875,5.530905110168456,-3.080589348602295,6.932859819793701
1789317524524268800,8.368268798828124,6.96533117980957,-3.4193688835144043,7.521234877777099
1789317524534302000,8.378302001953125,6.701669721984863,-3.13475816116333,6.858340293121337
1789317524544336000,8.3883359375,6.6702458251953125,-3.234716080474853,7.681796026611328
1789317524554370000,8.3983701171875,7.089530390930175,-3.0119056884765625,8.151059552001952
1789317524564404000,8.408404052734374,6.607098756408691,-2.1160253547668457,7.396437116241454
1789317524574436900,8.418436767578125,6.8499605873107905,-2.170044529724121,7.841758625030517
1789317524584471000,8.428470947265625,5.64358222579956,-1.5469535476684568,7.339125914001464
1789317524594505000,8.4385048828125,4.172943856048584,-1.1082160934448242,6.9989996406555175
1789317524604537900,8.448537841796876,3.8973113899230953,-1.8550573738098144,8.394519933319092
1789317524614572000,8.458572021484375,3.9360675292968748,-1.8792986656188964,8.583661864471434
1789317524624606000,8.46860595703125,3.936516442108154,-1.2491747161865234,7.73761085281372
1789317524634640000,8.478639892578125,4.509179551696777,-0.979976667022705,6.697479869079589
1789317524644672800,8.4886728515625,6.298546017456054,-1.6693571075439453,7.247248425292969
1789317524654707000,8.49870703125,7.03566085357666,-2.522441086578369,7.897124538421631
1789317524664741000,8.5087412109375,6.631639323425293,-2.005742440795898,6.823474731445312
1789317524674774000,8.51877392578125,5.493794984436035,-1.9928736068725585,6.788010619354248
1789317524684808000,8.528807861328126,5.96305850982666,-2.440738954925537,8.320150044250488
1789317524694841900,8.538841796875,6.127809511566162,-3.5556887405395505,9.223661895751952
1789317524704876000,8.5488759765625,6.899640271759033,-3.9832033744812008,9.156474611663818
1789317524714909200,8.5589091796875,6.408529656219482,-2.6556185539245605,6.861333045196533
1789317524724942800,8.56894287109375,7.280168698120117,-3.7292683609008788,8.988132307434082
1789317524734977000,8.57897705078125,6.412420233917236,-3.0253730728149413,8.327482286834716
1789317524745011000,8.589010986328125,5.261707061004638,-2.8698996025085446,8.157493968963623
1789317524755044000,8.599044189453124,4.872649291229248,-2.385373041534424,8.147617887115478
1789317524765078000,8.609078125,3.9667432380676266,-3.0769980461120605,9.094973556518553
1789317524775112000,8.61911181640625,3.5832220596313475,-2.7691934951782224,7.809885815429687
1789317524785145000,8.62914501953125,1.9632453613281249,-2.2189760261535643,7.343465404510497
1789317524795179000,8.639178955078124,2.625092482757568,-1.8900725730895995,8.112303412628174
1789317524805213000,8.649212890625,4.59671754989624,-2.728641704559326,9.91483798751831
1789317524815247000,8.6592470703125,5.191227749633788,-3.2869396041870114,9.259275645446778
1789317524825280000,8.669280029296875,4.930409406280518,-2.5348610076904294,7.967903124999999
1789317524835314000,8.67931396484375,5.274126982116699,-3.0823849998474118,8.753949457550048
1789317524845347800,8.689347900390626,3.8640918418884276,-2.4179940391540526,7.848641954803466
1789317524855382000,8.699382080078125,4.783764554595947,-3.076399495697021,8.649502410125733
1789317524865415000,8.709414794921875,4.321683634185791,-3.183839295196533,8.461707217407225
1789317524875448800,8.71944873046875,3.8660371307373045,-2.8968343711853026,7.832780368804931
1789317524885483000,8.72948291015625,3.565714459991455,-2.587533444213867,6.957849299621581
1789317524895516000,8.739515869140625,3.5550901901245116,-2.549226217651367,6.694187841796874
1789317524905550000,8.749550048828125,4.96078583984375,-3.4337340934753415,8.642768717956542
1789317524915583700,8.759583740234374,4.161122485351562,-2.629132698059082,7.501931626892089
1789317524925618000,8.769617919921876,4.579808500671386,-3.2606033859252928,7.407659936523437
1789317524935651000,8.779651123046875,5.769277812957763,-3.4050036735534666,8.180089247131347
1789317524945685000,8.78968505859375,6.576423047637939,-3.093757457733154,8.343792785644531
1789317524955719000,8.799718994140624,6.126612410736084,-2.6032453926086423,7.7784619186401365
1789317524965752800,8.8097529296875,5.830180317687988,-2.632873638153076,7.805546324920654
1789317524975786000,8.819785888671875,5.500528676605224,-2.8420670082092285,8.79719472503662
1789317524985820200,8.829820068359375,5.980117196655273,-3.104681002807617,9.422230995941161
1789317524995853800,8.839853759765624,5.603778623199463,-2.957287963104248,8.396914134979248
1789317525005887000,8.849886962890626,4.707449376678467,-2.724451851654053,8.397662322998046
1789317525015921000,8.8599208984375,3.9369653549194332,-1.4603133750915527,7.176469838714599
1789317525025955000,8.869955078125,2.947112606048584,-2.1531354804992673,7.1778165771484375
1789317525035989000,8.879989013671874,3.4249054748535155,-2.3235727111816407,6.646453446197509
1789317525046022000,8.89002197265625,3.5633202583312986,-2.578405550384521,6.702417910003661
1789317525056056000,8.90005615234375,4.563348364257812,-2.529922966766357,7.716362313079833
1789317525066090000,8.910090087890625,5.172223773956299,-3.1616929298400875,9.017910190582274
1789317525076124000,8.9201240234375,5.796511856842041,-3.60072965927124,9.37838717803955
1789317525086156800,8.93015673828125,5.241954897308349,-3.30714068069458,9.330054232025146
1789317525096191000,8.94019091796875,5.5276130828857415,-3.4720413200378415,9.639205521392821
1789317525106225000,8.950224853515625,4.5994110267639154,-3.0713118171691893,8.41442173461914
1789317525116257800,8.9602578125,4.374356070709228,-2.8746880058288573,8.123376595306397
1789317525126292000,8.9702919921875,4.80112251663208,-2.635267839813232,8.252064934539794
1789317525136326100,8.980326171875,3.39018955078125,-2.5378537597656248,7.588571799468994
1789317525146359800,8.99035986328125,3.751863639068603,-2.936189060974121,7.399729143524169
1789317525156393000,9.00039306640625,4.518756358337402,-3.5417724433898923,8.951171819305419
1789317525166427000,9.010427001953126,4.454412188720703,-3.155707425689697,8.180538159942627
1789317525176461000,9.0204609375,4.505288973999023,-3.271078018188476,7.482029825592041
1789317525186495000,9.030494873046875,4.211251082611084,-3.5302503479003904,8.56794991607666
1789317525196527900,9.04052783203125,4.105457296752929,-2.6325743629455567,7.070376777648925
1789317525206562000,9.05056201171875,5.346551582336425,-4.031985233306885,9.64025298461914
1789317525216596000,9.060595947265625,6.17988339767456,-3.506308331298828,8.488193073272704
1789317525226629000,9.070629150390625,6.434716236877441,-3.107823392486572,8.315810553741455
1789317525236662800,9.080662841796874,5.811176342010498,-3.2300773147583004,8.253860585784912
1789317525246697000,9.090697021484376,5.206341147613525,-3.5193268028259275,8.082675167083739
1789317525256731100,9.100731201171875,4.808155484008789,-3.3411084167480465,7.521683790588378
1789317525266764000,9.110763916015625,4.618265364837646,-3.573944528198242,8.677035729217529
1789317525276798000,9.1207978515625,4.359990860748291,-3.264793238830566,8.166621862792969
1789317525286831900,9.130831787109376,4.058171813964844,-2.9517513717651367,8.152705565643311
1789317525296866000,9.140865966796875,4.819527941894531,-2.388964344024658,6.950367419433594
1789317525306899000,9.15089892578125,6.091297936248779,-3.378517817687988,7.528417482757568
1789317525316932900,9.160932861328124,5.703886180114746,-3.9891888786315914,6.205770703124999
1789317525326967000,9.170967041015626,5.3956327163696285,-3.583371697235107,5.568613786315917
1789317525337000000,9.181,6.241833365631103,-3.921702319335937,6.930166342926025
1789317525347033900,9.191033935546875,6.204573602294921,-3.5619735198974607,7.247248425292969
1789317525357068000,9.201068115234374,6.187215640258788,-3.6113539291381835,7.0373068672180175
1789317525367102000,9.21110205078125,5.839008936309814,-3.61988327255249,6.682965021514892
1789317525377135000,9.221135009765625,6.4460886947631835,-3.826083890533447,6.501005695343017
1789317525387168800,9.231168701171875,6.1085062606811515,-3.6236242126464844,7.7513775123596185
1789317525397203000,9.241202880859374,5.469104779815673,-2.9665654945373534,7.3849150207519525
1789317525407235800,9.25123583984375,3.82413860168457,-2.727893516540527,6.938396411132812
1789317525417270000,9.26127001953125,3.60716407623291,-2.014122146606445,7.4131965278625485
1789317525427304000,9.271303955078125,4.263474606323242,-3.250876941680908,8.844779483032227
1789317525437337900,9.281337890625,5.45848050994873,-2.9046155265808102,8.724321212005615
1789317525447371000,9.29137109375,4.857535893249511,-2.23468797454834,7.633163805389404
1789317525457405400,9.301405517578125,6.07154577255249,-2.527678402709961,8.492981476593018
1789317525467439400,9.311439453125,5.912780274963379,-3.065775225830078,8.377760521697997
1789317525477473500,9.3214736328125,5.876717612457275,-2.934842322540283,8.407239129638672
1789317525487506400,9.33150634765625,5.470301880645752,-2.2641665824890134,7.376535314941406
1789317525497540400,9.341540283203125,5.45204609298706,-2.71337866897583,7.500435250854491
1789317525507574500,9.351574462890625,4.451120161437988,-3.1171009239196774,7.5254247306823725
1789317525517608400,9.3616083984375,3.9029976188659665,-2.8918963302612304,7.48861388015747
1789317525527641600,9.3716416015625,4.48852956237793,-2.9979893913269042,8.25460877380371
1789317525537675300,9.38167529296875,4.521150559997558,-3.3111808959960936,7.949796974945068
1789317525547709400,9.39170947265625,4.5784617622375485,-3.6152445068359373,7.659948936462402
1789317525557742300,9.401742431640624,4.22651411819458,-3.4352304695129394,7.651419593048095
1789317525567776500,9.411776611328126,3.856759599304199,-2.3734020332336425,6.806864957427978
1789317525577810400,9.421810546875,3.7409400939941406,-2.9103017555236814,7.486668591308593
1789317525587844400,9.43184423828125,3.8411972885131833,-3.03899009475708,7.826345951843261
1789317525597877500,9.44187744140625,3.057545157623291,-2.6996120094299316,7.756315553283691
1789317525607911400,9.451911376953126,4.200028262329101,-3.2227450721740722,8.624064017486571
1789317525617945300,9.4619453125,5.872228484344482,-3.323002266693115,8.916605532836913
1789317525627978500,9.471978515625,8.080580240631104,-3.2767642471313474,8.150311363983153
1789317525638012400,9.482012451171874,7.859715137481689,-3.2864906913757324,7.820510085296631
1789317525648046600,9.492046630859376,7.736413751983642,-3.712359311676025,8.2353055229187
1789317525658080300,9.502080322265625,6.34568186264038,-3.566313010406494,8.155847955322265
1789317525668113400,9.512113525390625,4.555567208862304,-3.350385948181152,8.199392498016357
1789317525678147600,9.522147705078124,3.4802713882446286,-3.164685681915283,7.7787611938476555
1789317525688181500,9.532181396484376,3.6361937713623043,-2.9791350532531737,8.987683394622803
1789317525698215400,9.54221533203125,3.293523658752441,-2.605340319061279,8.460360478973389
1789317525708248300,9.552248291015625,3.2912790946960446,-2.1868039413452145,6.65932228012085
1789317525718282500,9.562282470703124,4.066252244567871,-2.225111167907715,6.283133344268799
1789317525728316700,9.572316650390626,4.922927526092529,-3.1578023521423337,8.260594277954102
1789317525738349300,9.582349365234375,4.575169734954834,-2.8673557632446287,7.655609445953369
1789317525748383500,9.592383544921875,3.2966660484313963,-2.4793454566955564,5.633855781555176
1789317525758417400,9.60241748046875,5.355829113769531,-3.525910857391357,7.148188331604003
1789317525768451300,9.612451416015626,6.26338118057251,-3.640233986663818,9.34696328125
1789317525778484200,9.622484130859375,5.616348181915283,-3.10917013092041,8.927529077911377
1789317525788518400,9.632518310546875,5.155913275146484,-2.9411271018981933,8.591891932678221
1789317525798552600,9.642552490234374,5.389796849822997,-3.5989340080261227,8.757690397644042
1789317525808586200,9.652586181640626,5.585223560333252,-3.662679627227783,8.674940802764892
1789317525818619400,9.662619384765625,4.854393503570557,-2.8184242668151853,7.68658442993164
1789317525828653600,9.672653564453125,4.601655590820312,-2.1440075866699217,7.326257080078125
1789317525838687500,9.6826875,4.118176493072509,-2.5576059234619137,8.174552655792235
1789317525848720600,9.692720703125,3.6023756729125975,-2.5912743843078614,7.175272737884521
1789317525858754300,9.70275439453125,3.3143232856750484,-3.07729732131958,7.505074016571045
1789317525868788500,9.71278857421875,3.2805051872253417,-2.4335563499450683,7.117213347625732
1789317525878822700,9.72282275390625,3.850474819946289,-3.2439936119079587,7.776516629791259
1789317525888855600,9.73285546875,4.025850091552734,-3.9362171669006347,8.490437637329102
1789317525898889500,9.742889404296875,5.360018966674804,-2.5272294898986813,7.498639599609374
1789317525908923400,9.75292333984375,7.247248425292969,-3.9778164207458495,10.12492918319702
1789317525918957600,9.76295751953125,8.724171574401854,-3.919158480072021,9.287706790161133
1789317525928990500,9.772990478515625,8.588001354980468,-3.555239827728271,7.29737702255249
1789317525939024400,9.7830244140625,8.124274420928955,-3.586663724517822,6.911461642456055
1789317525949058600,9.79305859375,6.7544917961120605,-2.9842227317810055,7.34825380783081
1789317525959091500,9.803091552734376,5.372887800598145,-2.7871500076293945,7.659948936462402
1789317525969125600,9.813125732421875,4.2411786033630365,-2.8483517875671387,7.94830059890747
1789317525979159300,9.8231591796875,4.025999729156494,-2.9638720176696776,7.703942391967773
1789317525989193500,9.833193359375,3.358915291595459,-3.197905229949951,7.62283881072998
1789317525999226600,9.8432265625,3.1389480140686032,-2.6701334014892577,5.651064105987548
1789317526009260500,9.853260498046875,4.621258116912841,-3.245041075134277,6.641066492462158
1789317526019294500,9.86329443359375,5.262155973815918,-2.7008091102600096,6.710797615814209
1789317526029328400,9.873328369140625,5.750423474884033,-2.4220342544555664,7.661744587707519
1789317526039361500,9.883361572265626,5.872527759552002,-2.172588368988037,7.37384183807373
1789317526049395500,9.8933955078125,6.649296560668945,-3.0802900733947753,7.983016522979736
1789317526059429400,9.903429443359375,6.811503723144531,-2.7352257591247557,8.034641496276855
1789317526069462500,9.913462646484374,6.242132640838623,-1.9336171157836912,6.861931595611572
1789317526079496400,9.923496337890626,6.537816545867919,-2.839074256134033,7.991096953582764
1789317526089530400,9.9335302734375,6.344335124206543,-2.6722283279418946,8.749909242248535
1789317526099564500,9.943564453125,4.937891286468505,-2.624344294738769,7.851784344482422
1789317526109597400,9.953597412109374,3.3195606018066406,-1.5306430488586424,5.827037928009033
1789317526119631600,9.963631591796876,4.2037692024230955,-1.6998831787109374,7.09940647277832
1789317526129665300,9.973665283203125,6.4739212890625,-2.5432407135009765,9.234735078430175
1789317526139698400,9.983698486328125,4.780023614501953,-1.3230956924438475,6.0799254783630365
1789317526149732400,9.993732421875,6.308422099304199,-1.5277999343872068,7.289146954345703
1789317526159766500,10.0037666015625,7.515548648834228,-2.825756509399414,9.229497762298584
1789317526169800400,10.013800537109375,7.433547241973876,-3.333925811767578,8.930521829986573
1789317526179833300,10.023833251953125,6.584653115844726,-2.468272274017334,7.398083129882812
1789317526189867500,10.033867431640624,6.247220319366455,-2.2595278167724606,7.839214785766601
1789317526199901400,10.0439013671875,5.212027376556396,-3.141641490936279,9.068338063049316
1789317526209935400,10.053935302734375,3.6707600578308104,-2.4247277313232423,7.62912359008789
1789317526219968500,10.063968505859375,2.3651719650268554,-2.4838345848083496,6.846967835235596
1789317526230002400,10.07400244140625,3.7741596420288084,-2.84086990737915,8.821286379241943
1789317526240036600,10.08403662109375,2.5942671363830563,-1.5729904907226562,6.985681893920898
1789317526250070500,10.094070556640625,2.861370259094238,-2.471414663696289,8.49687205429077
1789317526260103400,10.104103515625,3.3508348609924314,-1.0791863983154297,6.858041017913818
1789317526270137600,10.1141376953125,4.2986394432067865,-2.6719290527343746,8.492981476593018
1789317526280171500,10.124171630859376,6.321141295623779,-3.2659903396606444,9.866804316711425
1789317526290204400,10.134204345703125,5.466710578155517,-2.333897705841064,7.722048542022705
1789317526300238300,10.14423828125,6.481702444458008,-3.1994016059875485,7.817367695617675
1789317526310272500,10.1542724609375,6.842777982330322,-3.575740179443359,8.298751866912841
1789317526320306400,10.164306396484376,6.54395168762207,-2.861370259094238,7.9478516860961905
1789317526330339300,10.17433935546875,5.782745197296142,-2.7913398605346678,8.176497944641113
1789317526340373500,10.18437353515625,6.232855109405517,-3.7804444213867185,8.313865264892577
1789317526350407400,10.194407470703124,5.053261878967285,-3.643675651550293,7.816619507598877
1789317526360441300,10.20444140625,4.5599066993713375,-3.1153052726745605,7.941417269134521
1789317526370474500,10.214474609375,4.274697426605225,-3.05814370803833,7.734917375946044
1789317526380508400,10.22450830078125,5.36241316833496,-4.355052819824219,9.191789086151122
1789317526390542600,10.23454248046875,4.731989943695068,-3.9618051971435544,8.212111694335936
1789317526400575500,10.244575439453126,4.535066857147217,-3.2882863426208493,8.36354494934082
1789317526410609400,10.254609375,3.8949171882629394,-3.231124777984619,8.214056983184815
1789317526420643600,10.2646435546875,4.143016335296631,-3.506906881713867,7.250690090179443
1789317526430677500,10.274677490234374,4.1481040138244625,-4.2226235404968255,7.462576937103271
1789317526440710700,10.284710693359376,4.001010249328613,-2.724451851654053,5.983558861541748
1789317526450744300,10.294744384765625,4.446930308532715,-2.8247090461730955,7.587823611450195
1789317526460778800,10.30477880859375,4.554220470428467,-2.9421745651245117,8.123825508117676
1789317526470811600,10.314811767578124,5.472546444702148,-3.010708587646484,7.422474059295654
1789317526480845600,10.324845458984376,4.522946211242676,-2.721758374786377,8.104522257232665
1789317526490879700,10.334879638671875,5.349245059204101,-2.045396405792236,8.664166895294189
1789317526500913700,10.34491357421875,4.460098417663574,-1.7340005523681639,8.832060286712647
1789317526510946800,10.35494677734375,5.425859512329101,-1.7527052528381346,8.55493144454956
1789317526520980500,10.36498046875,5.013159001159668,-1.5035586425781249,8.891167140197753
1789317526531014700,10.3750146484375,4.71133995437622,-0.6682815383911133,7.929895173645019
1789317526541048800,10.385048828125,4.810699323272705,-1.3792097938537597,8.329876488494872
1789317526551081700,10.395081787109374,5.338620789337158,-2.1543325813293457,7.649324666595459
1789317526561115600,10.40511572265625,5.22863715057373,-2.2004209632873533,7.712621372985839
1789317526571149800,10.41514990234375,5.082590849304199,-1.4519336692810059,8.562562962341309
1789317526581183700,10.425183837890625,5.136011473846435,-1.506102481842041,9.479392560577391
1789317526591217000,10.435216796875,6.013037469482422,-2.326415825653076,9.578452654266357
1789317526601250600,10.44525048828125,6.153846454620361,-2.8585271446228027,8.61209300918579
1789317526611284700,10.45528466796875,6.557419071960449,-3.1649849571228024,8.680926306915282
1789317526621317600,10.465317626953125,5.941361057281494,-2.963423104858398,7.685836241912841
1789317526631351800,10.475351806640624,5.155763637542725,-2.3971944122314452,6.796240687561035
1789317526641385700,10.4853857421875,4.603750517272949,-2.441487142944336,7.161805353546142
1789317526651419600,10.495419677734375,4.263324968719482,-3.062632836151123,7.240065820312499
1789317526661452800,10.505452880859375,4.5145665054321285,-3.7789480453491207,7.8721350585937495
1789317526671486700,10.51548681640625,4.940435125732422,-3.5691561248779293,7.000795291900634
1789317526681520600,10.525520751953126,5.772569840240478,-2.9698575218200682,6.486790122985839
1789317526691553500,10.535553466796875,5.489754769134521,-2.7723358848571777,6.694636754608154
1789317526701587700,10.545587646484375,6.40987639465332,-3.004573445892334,7.576301515960693
1789317526711622000,10.555621826171874,5.681290901947021,-3.619135084533691,8.089857772064208
1789317526721655600,10.565655517578126,6.345382587432861,-3.598185820007324,7.790133651733398
1789317526731688700,10.575688720703125,5.6477720787048336,-3.8233904136657713,8.321347145080566
1789317526741723000,10.585722900390625,6.162226160430908,-3.383006945800781,7.942614369964599
1789317526751756500,10.595756591796874,5.755361515808105,-3.5187282524108885,7.9186723533630365
1789317526761790700,10.605790771484376,5.890334634399414,-3.1268273681640624,7.685387329101562
1789317526771823600,10.61582373046875,3.995174382781982,-2.516605220031738,6.509535038757324
1789317526781857800,10.62585791015625,3.458274660491943,-2.6164135017395016,7.410203775787353
1789317526791891700,10.6358916015625,4.218433687591553,-3.2423475982666012,7.949796974945068
1789317526801924600,10.645924560546876,5.529109458923339,-3.411587728118896,8.56106658630371
1789317526811958800,10.655958740234375,4.71163922958374,-2.0603601661682127,6.956652198791503
1789317526821992700,10.66599267578125,5.907991871643066,-2.286761860656738,7.145644492340088
1789317526832026600,10.676026611328124,6.527042638397217,-3.5046623176574707,7.953089002227783
1789317526842059500,10.6860595703125,6.158185945129394,-3.545064470672607,7.116914072418212
1789317526852093700,10.69609375,5.615151081085204,-3.163338943481445,7.261912910461425
1789317526862127900,10.7061279296875,5.498733025360107,-2.9132945075988768,7.611167077636718
1789317526872161500,10.71616162109375,4.838831192779541,-3.291728007507324,8.227075454711914
1789317526882194700,10.726194580078126,3.486855442810058,-2.461837857055664,6.396259372711182
1789317526892228600,10.736228515625,5.095609320831299,-3.1591490905761717,7.447164263916015
1789317526902262800,10.7462626953125,4.4768578292846675,-2.9658173065185545,7.302464701080321
1789317526912296000,10.7562958984375,4.857835168457031,-2.487276249694824,7.523629079437256
1789317526922329600,10.76632958984375,4.034229797363281,-2.5011925468444822,7.251887191009521
1789317526932363800,10.77636376953125,4.99280828704834,-3.065775225830078,7.413645440673828
1789317526942397700,10.786397705078125,5.702838716888428,-4.027047192382812,8.01204621810913
1789317526952430800,10.796430908203124,5.1596542152404785,-2.6138696624755857,6.884826148986816
1789317526962464800,10.80646484375,5.651363381195068,-2.8658593872070313,7.70573804321289
1789317526972498700,10.816498779296875,4.8229696067810055,-3.2130186279296873,8.356063069152832
1789317526982532900,10.826532958984375,5.453841744232178,-3.3418566047668454,7.89772308883667
1789317526992565500,10.8365654296875,5.727977834320068,-3.2577602714538574,8.764573727416991
1789317527002599700,10.846599609375,5.707178207397461,-2.7256489524841307,8.751405618286132
1789317527012633900,10.8566337890625,4.819527941894531,-2.6192566162109374,7.917325614929199
1789317527022666800,10.866666748046875,4.45022233581543,-2.8657097496032713,7.980173408508301
1789317527032700700,10.87670068359375,4.8774376945495606,-2.691531578826904,7.89083975906372
1789317527042734600,10.886734619140626,5.693860460662841,-2.5424925254821775,8.060678439331054
1789317527052768800,10.896768798828125,5.563675745391845,-2.7831097923278807,7.758560117340087
1789317527062801700,10.9068017578125,5.328595069885254,-2.6460417472839355,8.279448616027832
1789317527072835600,10.916835693359374,4.753388121032715,-2.199373500061035,8.220940312957763
1789317527082869800,10.926869873046876,5.054608617401123,-2.3407810356140137,7.8998180152893065
1789317527092903700,10.936903564453125,4.6538791145324705,-2.7967268142700195,8.131307388305663
1789317527102936800,10.946936767578125,4.838382279968261,-2.207154655456543,6.97820001373291
1789317527112970500,10.956970458984374,4.618863915252685,-2.827701798248291,8.06965669555664
1789317527123004700,10.967004638671876,4.759074349975585,-2.705148600769043,8.345438799285889
1789317527133037800,10.977037841796875,4.170250379180908,-2.808398547363281,8.442254328918457
1789317527143071700,10.98707177734375,4.707000463867187,-3.693953886413574,9.323320539855956
1789317527153105700,10.997105712890624,4.758625437164306,-3.4228105484008786,8.17844323348999
1789317527163139800,11.007139892578126,4.925022452545166,-3.4714427696228025,8.150610639190674
1789317527173172700,11.0171728515625,5.854720884704589,-4.094533751678466,8.869918600463867
1789317527183207000,11.02720703125,5.392340689086914,-4.4458828453063965,9.117868109893799
1789317527193240600,11.037240478515624,4.444985019683838,-3.8275802665710446,8.066514305877686
1789317527203273700,11.047273681640625,4.277839816284179,-4.083759844207764,8.136544704437256
1789317527213307600,11.0573076171875,4.051887034606933,-4.073584487152099,7.727285858154296
1789317527223341800,11.067341796875,4.050839571380615,-4.318092331695556,7.624185549163818
1789317527233375700,11.077375732421874,3.5556887405395505,-3.4440590881347655,7.375637489318847
1789317527243408600,11.08740869140625,2.7437551025390623,-2.893542343902588,7.5531076873779295
1789317527253442800,11.09744287109375,3.3146225608825683,-3.1699229980468746,7.645883001708984
1789317527263476700,11.107476806640625,4.165162700653076,-3.4581250228881832,6.6340335250854485
1789317527273510700,11.1175107421875,6.871209127044677,-4.726303714752197,8.27301419906616
1789317527283543800,11.127543701171875,6.046107379913329,-4.166210163879394,7.368604521942138
1789317527293577700,11.13757763671875,5.91801759109497,-3.1458313438415524,6.133346102905273
1789317527303611600,11.147611572265625,6.318747093963623,-4.418948076629638,7.292738256835937
1789317527313644500,11.15764453125,7.039551431274414,-4.798429039764404,7.612813091278076
1789317527323678700,11.1676787109375,6.8685156501770015,-4.467281022644043,8.525752111816406
1789317527333713000,11.177712890625,4.809202947235107,-2.7275942413330077,6.093542500305175
1789317527343746600,11.18774658203125,5.4047606101989745,-3.807678465270996,8.626158943939208
1789317527353779700,11.19777978515625,4.8421232200622555,-3.309534882354736,7.50776749343872
1789317527363813600,11.207813720703125,4.647145422363281,-3.1926679138183593,7.3186255622863765
1789317527373847800,11.217847900390625,4.601954866027832,-2.2563854270935058,5.774365491485596
1789317527383881700,11.2278818359375,4.556465034484863,-2.980032878875732,5.9850552375793455
1789317527393914600,11.23791455078125,5.111021994018555,-3.6351463081359863,6.69688131866455
1789317527403948800,11.24794873046875,5.685031842041015,-3.443011624908447,6.835445739746094
1789317527413982700,11.257982666015625,6.148908413696288,-3.56885684967041,8.423250353240967
1789317527424016000,11.268015869140624,5.838111110687255,-4.154089517974853,8.606855693054198
1789317527434049500,11.278049560546876,5.015553202819824,-3.5968390815734863,7.136217323303223
1789317527444083700,11.288083740234375,4.949114106750488,-2.747795317840576,7.104793426513671
1789317527454118000,11.298117919921875,6.235249311065673,-4.147804738616943,8.699481369781493
1789317527464150300,11.308150390625,4.651634550476074,-3.2499791160583493,7.264007836914062
1789317527474184200,11.31818408203125,5.472995357513428,-3.189675161743164,8.707112887573242
1789317527484218000,11.328218017578125,5.641038386535644,-2.823063032531738,8.252064934539794
1789317527494252300,11.338252197265625,6.980594215393066,-3.5326445495605467,8.629899884033202
1789317527504285200,11.34828515625,7.382969731903076,-3.3668460845947266,8.073547273254395
1789317527514319000,11.358319091796876,5.426009149932861,-1.9262848731994628,6.763769327545166
1789317527524353300,11.368353271484375,5.223699109649658,-1.878251202392578,6.707954501342773
1789317527534386200,11.37838623046875,4.741267475128174,-2.805405795288086,7.510460970306396
1789317527544420400,11.38842041015625,5.735908627319335,-3.1865327720642087,7.671321394348144
1789317527554454300,11.398454345703126,3.9278374610900877,-2.2940941032409667,7.358878077697754
1789317527564488200,11.40848828125,4.845265609741211,-2.005293527984619,7.2806176109313965
1789317527574521300,11.418521240234375,4.876539868927002,-2.2403742034912106,7.111377481079101
1789317527584555300,11.42855517578125,6.456264051818847,-2.1752818458557126,8.041674463653564
1789317527594589200,11.438589111328126,5.9114335365295405,-2.2266075439453124,8.167370050811767
1789317527604623400,11.448623291015625,4.8594811820983885,-1.994519620513916,6.861482682800292
1789317527614656300,11.45865625,5.473294632720947,-2.8336873023986815,8.126668622589111
1789317527624690200,11.468690185546874,5.304054502868652,-2.8137855010986326,9.05367357788086
1789317527634724000,11.47872412109375,4.9155952835083,-2.3738509460449215,8.0184806350708
1789317527644757200,11.48875732421875,5.543923581695556,-2.3505074798583983,8.03119983139038
1789317527654791200,11.498791259765625,5.676801773834228,-3.0080151107788082,7.931092274475097
1789317527664825000,11.5088251953125,5.4619221748352045,-2.7578210372924805,7.689277906799316
1789317527674859300,11.518859375,4.668992512512207,-1.9430442848205565,7.14414811630249
1789317527684892200,11.52889208984375,5.406705899047851,-2.957886513519287,8.021024474334716
1789317527694926300,11.53892626953125,5.725433995056152,-3.746476685333252,9.124003251647949
1789317527704960000,11.5489599609375,5.1234419151306145,-2.192939083099365,8.374019581604003
1789317527714994200,11.558994140625,4.669142150115967,-1.5652093353271483,8.688108911895752
1789317527725027300,11.56902734375,3.8705262588500973,-2.112583689880371,7.395838565826415
1789317527735061200,11.579061279296875,4.669142150115967,-2.5637410652160644,7.530811684417724
1789317527745095200,11.58909521484375,2.8643630111694334,-1.9244892219543457,6.876296805572509
1789317527755128000,11.599128173828126,3.501220652770996,-2.0471920570373534,8.425644554901123
1789317527765162200,11.609162353515625,4.374505708312988,-2.3101053268432614,8.827122245788575
1789317527775196400,11.619196533203125,5.78394229812622,-2.740014162445068,8.540416596984862
1789317527785230000,11.62922998046875,6.343736573791504,-2.1383213577270506,7.94201581954956
1789317527795263200,11.63926318359375,5.966649812316894,-2.309357138824463,8.990526509094238
1789317527805297200,11.649297119140625,5.626822814178467,-2.5583541114807127,8.598475987243653
1789317527815331300,11.659331298828125,4.621258116912841,-2.6804583961486816,8.243984503936767
1789317527825364200,11.6693642578125,5.1131169204711915,-2.5254338386535644,8.585307878112792
1789317527835398100,11.679398193359376,4.446930308532715,-2.5769091743469237,8.882937071990966
1789317527845432300,11.689432373046875,3.414879755401611,-1.7262193969726563,5.727528921508789
1789317527855466200,11.69946630859375,2.8568811309814452,-2.128594913482666,5.278167197418212
1789317527865499100,11.7094990234375,3.906738558959961,-2.39420166015625,5.853523783874511
1789317527875533000,11.719532958984376,3.6062662506103513,-3.434033368682861,7.4703580924987785
1789317527885567200,11.729567138671875,4.682310259246826,-2.565387078857422,7.400776606750488
1789317527895601200,11.73960107421875,5.556193865203857,-2.9275100799560545,8.57408505783081
1789317527905634000,11.749634033203124,7.098209371948242,-3.3174656753540037,8.735992945098877
1789317527915668200,11.759668212890626,8.147617887115478,-4.0830116561889644,9.971401001739501
1789317527925702100,11.7697021484375,7.094169156646728,-3.1830911071777344,8.460510116577147
1789317527935735300,11.7797353515625,5.794716205596924,-2.5987562644958495,7.727285858154296
1789317527945769200,11.789769287109374,5.947496199035644,-3.09001651763916,9.5262291305542
1789317527955803100,11.79980322265625,5.322011015319824,-2.6976667205810547,8.769960681152343
1789317527965837300,11.80983740234375,5.027823486328125,-2.9200281997680664,8.103325156402587
1789317527975870200,11.8198701171875,4.912901806640625,-2.7582699501037595,7.9773302940368644
1789317527985904000,11.829904052734374,4.418349526214599,-2.5195979721069333,8.793753060150147
1789317527995938300,11.839938232421876,4.406528155517578,-2.5330653564453125,8.921094660949706
1789317528005972200,11.84997216796875,4.572176982879639,-2.524236737823486,6.890811653137207
1789317528016005400,11.86000537109375,4.961683665466309,-3.1194951255798338,6.460304267120361
1789317528026039000,11.8700390625,5.779902082824707,-3.592499591064453,6.823325093841552
1789317528036073200,11.8800732421875,5.577592042541504,-4.613626599121093,7.563881594848632
1789317528046106000,11.890106201171875,6.019471886444092,-4.46249261932373,7.074865905761718
1789317528056140300,11.900140380859375,6.094739601135253,-4.473715439605713,9.653870006561279
1789317528066174200,11.91017431640625,4.891802904510498,-4.049792108154296,9.179518802642821
1789317528076208000,11.9202080078125,4.021061688232422,-3.770418701934814,7.362469380187988
1789317528086241300,11.9302412109375,4.142118509674072,-2.9884125846862792,6.552181755828857
1789317528096275200,11.940275146484375,4.9446249786376955,-3.4485482162475583,7.090727491760253
1789317528106309000,11.95030908203125,4.6441526702880855,-2.893991256713867,6.083516780853271
1789317528116343300,11.96034326171875,5.098153160095214,-2.0178630867004395,5.990891104125976
1789317528126376200,11.970376220703125,7.006481520843505,-3.4267011260986324,7.457788533782958
1789317528136410000,11.98041015625,6.693290016174316,-3.1880291481018066,7.3463085189819335
1789317528146444300,11.9904443359375,5.925649108886718,-2.75183553314209,7.521384515380859
1789317528156477200,12.000477294921875,4.8229696067810055,-1.8947113388061523,6.790704096221924
1789317528166511400,12.010511474609375,4.725555526733398,-2.1971289360046384,7.310545131683349
1789317528176545000,12.020544921875,4.859331544494629,-2.431162148284912,7.437587457275391
1789317528186579200,12.0305791015625,5.502473965454101,-2.761262702178955,7.790432926940918
1789317528196612000,12.040612060546875,5.143044441223144,-2.487425887298584,8.398111235809326
1789317528206646300,12.050646240234375,4.84586416015625,-2.1007623191833495,8.285284482574463
1789317528216680200,12.06068017578125,3.8557121360778805,-2.0561703132629394,7.736563389587402
1789317528226713000,12.070713134765626,3.9805098976135254,-2.6689363006591798,8.253561310577393
1789317528236747300,12.080747314453125,4.171297842407227,-2.493561029052734,8.386140227508545
1789317528246781200,12.09078125,3.844638953399658,-1.811213555908203,7.449558465576171
1789317528256815000,12.100815185546875,4.768351881408691,-2.523638187408447,7.238419806671142
1789317528266848300,12.11084814453125,6.004657763671875,-3.2034418212890623,8.132504489135743
1789317528276882200,12.120882080078125,7.529016033172607,-3.112162882995605,7.5719620254516595
1789317528286916400,12.130916259765625,7.3466077941894525,-3.2974142364501953,7.9463553100585935
1789317528296950000,12.140949951171875,7.132476383209228,-2.8685528640747067,8.238597550201415
1789317528306983200,12.150983154296876,5.880308914947509,-3.539378241729736,9.39813934173584
1789317528317017300,12.161017333984375,4.923526076507568,-2.2845172966003418,7.843255001068115
1789317528327051300,12.17105126953125,4.5322237426757805,-2.5082255142211913,8.828169709014892
1789317528337084400,12.18108447265625,4.8772880569458,-2.2258593559265134,8.484152857971191
1789317528347118000,12.1911181640625,4.22022933883667,-1.9259855979919434,7.3085998428344725
1789317528357152300,12.20115234375,3.89446827545166,-2.0561703132629394,6.759878749847411
1789317528367186400,12.2111865234375,4.121318882751464,-2.860622071075439,6.514323442077636
1789317528377219300,12.22121923828125,3.5321956367492673,-3.043479222869873,6.823923644256592
1789317528387253200,12.231253173828126,4.4376527770996095,-2.38776724319458,8.300697155761718
1789317528397287200,12.241287109375,4.302380383300781,-2.7201123611450195,9.191340173339842
1789317528407321000,12.251321044921875,5.448754065704345,-3.7951089065551757,9.95942999343872
1789317528417354000,12.26135400390625,5.261407785797119,-3.8928222618103026,8.934861320495605
1789317528427388200,12.27138818359375,4.827159459686279,-3.0385411819458006,7.794922055053711
1789317528437422300,12.28142236328125,5.295525159454345,-3.5236662933349607,8.304138820648193
1789317528447455200,12.291455322265625,4.138227931976318,-3.356221814727783,7.339275551605224
1789317528457489000,12.301489013671874,4.349815503692627,-3.4112884529113767,7.56492905807495
1789317528467523000,12.311523193359376,4.4379520523071285,-3.3255461059570313,8.646210382843018
1789317528477557200,12.32155712890625,4.573822996520996,-3.2392052085876464,7.586925785827637
1789317528487590100,12.331590087890625,4.517409619903564,-3.8322190322875973,7.540837403869628
1789317528497624000,12.3416240234375,4.404882141876221,-3.997269309234619,8.302492807006836
1789317528507658000,12.351657958984376,3.825934252929687,-3.1239842536926266,8.712350203704833
1789317528517692200,12.361692138671875,3.5320459991455078,-3.005171996307373,8.362347848510742
1789317528527725000,12.37172509765625,4.840477206420898,-3.459471761322021,8.066963218688965
1789317528537759000,12.381759033203124,5.285200164794921,-3.583371697235107,7.511508433532715
1789317528547793200,12.391793212890626,5.858312187194824,-3.24982947845459,7.914931413269042
1789317528557826000,12.401825927734375,4.145560174560547,-3.406649687194824,6.747458828735351
1789317528567860200,12.411860107421875,4.729745379638672,-4.548384603881836,6.379350323486328
1789317528577894000,12.421893798828124,5.325602317810058,-4.787655132293701,7.676259435272216
1789317528587928000,12.431927978515626,6.1547442802429195,-3.7770027565002438,8.931868568420409
1789317528597961200,12.441961181640625,4.985027131652831,-3.634847032928467,8.537573482513427
1789317528607995100,12.4519951171875,5.315426960754394,-3.9993642356872554,7.723544918060302
1789317528618029000,12.462029052734374,5.995829145050048,-4.491971227264404,8.79090994567871
1789317528628063200,12.472063232421876,7.020996368408203,-3.742586107635498,8.231714220428467
1789317528638096100,12.48209619140625,6.705859574890137,-3.1543606872558594,6.392368795013427
1789317528648130300,12.49213037109375,6.739976948547363,-3.171569011688232,6.049549044799805
1789317528658164000,12.5021640625,7.312789695739745,-3.3454479072570797,8.206425465393066
1789317528668197000,12.512197021484376,5.91831686630249,-2.417545126342773,7.417386380767822
1789317528678231000,12.52223095703125,5.4029649589538575,-2.7979239151000974,8.231564582824706
1789317528688265000,12.532264892578125,4.273500325775146,-1.641374875640869,7.089680028533935
1789317528698299100,12.542299072265624,3.2926258331298826,-1.253963119506836,6.365434026336669
1789317528708332000,12.55233203125,2.935440872955322,-1.2764087600708007,6.162226160430908
1789317528718366200,12.5623662109375,3.961655559539795,-2.6005519157409664,6.713341455078124
1789317528728400000,12.57239990234375,5.147383931732177,-2.8502970764160156,7.34810417022705
1789317528738433000,12.58243310546875,5.566668497467041,-1.1381436141967773,6.376806484222412
1789317528748467000,12.592467041015626,7.482778013610839,-2.549076580047607,8.455572075653075
1789317528758501000,12.602501220703125,8.976759849548339,-3.7957074569702147,8.533982180023193
1789317528768535000,12.61253515625,7.943212920379638,-3.5248633941650387,7.753921351623535
1789317528778568000,12.62256787109375,6.048052668762207,-2.412607085418701,8.221538863372801
1789317528788602000,12.63260205078125,4.333804280090332,-2.7439047401428223,7.955483203887939
1789317528798636300,12.64263623046875,3.490147470092773,-2.7724855224609373,8.228721468353271
1789317528808670000,12.652669921875,3.993827644348144,-2.272247013092041,8.016385708618163
1789317528818703000,12.662703125,4.6812627960205075,-2.934692684936523,8.096292189025878
1789317528828737000,12.672737060546876,4.651036000061035,-2.4563012657165526,6.003460662841796
1789317528838771200,12.682771240234375,4.628889634704589,-2.647687760925293,6.2392895263671875
1789317528848804000,12.69280419921875,6.298097104644775,-2.7067946144104003,7.762749970245361
1789317528858838000,12.702838134765624,5.927444760131835,-3.0385411819458006,7.637503295898437
1789317528868872200,12.7128720703125,5.740697030639648,-1.8498200576782224,5.628019915008545
1789317528878906000,12.722906005859375,6.755239984130859,-2.6601076820373533,8.243685228729248
1789317528888939300,12.732939208984375,7.070825690460205,-2.833238389587402,8.852710276031493
1789317528898973000,12.742972900390624,6.120477268981933,-2.9523499221801757,9.014169250488282
1789317528909007000,12.753007080078126,5.676352861022949,-1.8115128311157225,8.7210291847229
1789317528919041300,12.763041259765625,4.605845443725586,-2.108094561767578,9.821314485168456
1789317528929074200,12.77307421875,4.381538675689697,-1.9942203453063965,8.84777223510742
1789317528939108000,12.783108154296874,4.165162700653076,-2.0883423980712887,8.291120349121094
1789317528949142000,12.79314208984375,5.347599045562744,-1.8396447006225585,9.214833277130126
1789317528959175200,12.803175048828125,5.487061292266845,-2.06215581741333,9.743054018402098
1789317528969209000,12.813208984375,4.452017987060547,-2.2706009994506835,8.463502868652343
1789317528979243000,12.823242919921874,4.100070343017578,-2.3407810356140137,6.804919668579101
1789317528989277200,12.833277099609376,4.510675927734375,-2.2598270919799806,7.0555626548767085
1789317528999310000,12.84331005859375,4.359392310333252,-2.668188112640381,6.65887336730957
1789317529009344000,12.853343994140625,5.418826544952393,-3.4946365982055663,6.484844834136963
1789317529019378200,12.863378173828124,5.933879177093505,-4.223671003723144,7.047182949066162
1789317529029411000,12.8734111328125,5.933280626678466,-4.586542192840576,8.560318398284911
1789317529039445200,12.8834453125,4.836586628723144,-4.202272826385498,9.010577947998046
1789317529049479000,12.89347900390625,4.972756848144531,-4.5970168251037595,9.16096373977661
1789317529059513000,12.90351318359375,4.50124875869751,-3.7835868110656734,7.628674677276611
1789317529069546000,12.9135458984375,4.331858991241455,-3.19221900100708,6.5868976799011225
1789317529079580200,12.923580078125,4.343231449127197,-3.5781343811035153,6.701370446777343
1789317529089614000,12.933614013671875,4.489726663208008,-3.1664813331604003,5.687426043701172
1789317529099648000,12.94364794921875,3.711760761260986,-2.844760485076904,6.429329283142089
1789317529109681200,12.95368115234375,4.693383441925048,-3.0074165603637693,9.231293413543701
1789317529119715000,12.963715087890625,5.496638098907471,-3.015496990966797,9.737367789459228
1789317529129749000,12.9737490234375,4.929212305450439,-2.1423615730285643,7.954136465454101
1789317529139782100,12.9837822265625,5.945401272583007,-2.026990980529785,8.986037380981445
1789317529149816000,12.993816162109376,5.409100100708008,-2.033275759887695,9.288305340576171
1789317529159850200,13.003850341796875,5.274126982116699,-2.4039281044006344,8.455871350860596
1789317529169884000,13.0138837890625,4.598513201141357,-2.3110031524658203,9.081057259368896
