time,seconds_elapsed,z,y,x
1789318102066033700,0.03903369140625,2.9102725294291973,2.5890280666857954,-0.5254068528950214
1789318102075987500,0.048987548828125,1.3890835376143456,-0.18527824146151542,-0.3294127908255905
1789318102085941500,0.05894140625,0.9913672450870274,-0.9210469236701726,-0.9424071070849895
1789318102095895600,0.0688955078125,0.4241092094123363,0.35405250736773014,-0.8111163302682339
1789318102105849600,0.078849609375,-1.8749732036352156,-3.395566567644477,-0.9817003490101546
1789318102115803600,0.0888037109375,-2.9263275921732186,4.257256462460756,0.5632667010162026
1789318102125757700,0.0987578125,-2.170900854292512,-0.36936581183373923,0.5014345872856676
1789318102135711700,0.108711669921875,0.5670908624142408,1.4977549247354267,0.9704613082457333
1789318102145666600,0.11866650390625,1.9365350490570068,2.4090175364941357,0.7499309900086373
1789318102155620600,0.12862060546875,-0.2890601029753685,-1.396436238464713,0.2608819831740111
1789318102165574700,0.13857470703125,-3.44485228433907,-0.316562442407012,0.40782881347984073
1789318102175528400,0.148528564453125,-0.23881167872846126,-0.739840461692214,-0.2804026031367481
1789318102185482500,0.158482421875,1.493465118587017,-0.831335673084855,0.48008287943825123
1789318102195436800,0.168436767578125,1.2680758160114287,-0.5665162773966789,0.8969812806889415
1789318102205390600,0.178390625,0.9055489102870226,2.4381477693885563,-0.21882775210291147
1789318102215344600,0.1883447265625,-1.7521984723597763,0.504442975321412,-0.6790797765854746
1789318102225298700,0.198298583984375,-0.9965794267773628,-2.1395471001297235,-0.6020184564758092
1789318102235252700,0.208252685546875,1.387512342774868,3.245188959172368,0.21667495798319578
1789318102245206500,0.21820654296875,-0.5641267519116401,-0.027633856856822965,-0.3472573673348874
1789318102255160600,0.22816064453125,-1.2840952229201792,-2.9886019697785375,-0.6285901639938354
1789318102265114600,0.238114501953125,1.58033150113523,-0.1573760890573263,-0.02606631527915597
1789318102275068400,0.248068359375,3.2517244984209537,-0.5248164857864379,-0.794388702024892
1789318102285022700,0.258022705078125,2.1730817054629323,-1.5022709408551453,-1.0359185536708682
1789318102294976800,0.267976806640625,0.4924386492729187,-0.057369069907069206,-0.25373722598589954
1789318102304930600,0.2779306640625,-0.8018821995854377,0.524544098585844,0.15226239930540322
1789318102314884600,0.287884521484375,-1.4987480274260043,-1.6911176884531973,-0.07694514638409018
1789318102324838700,0.297838623046875,-0.04495674757957458,1.637807538548112,-0.10841872753426432
1789318102334792700,0.307792724609375,-2.1236428440332413,1.1827023023694754,0.059407224671170114
1789318102344747000,0.3177470703125,-3.242124310904741,-1.7249276035964487,-0.9035087096963077
1789318102354701000,0.327701171875,-0.05432604894936084,-0.8879191455721854,-1.1761294267851858
1789318102364655400,0.3376552734375,0.8369371463537215,-0.19391630594730377,-0.6600901216942816
1789318102374609200,0.347609130859375,1.2328332377165556,-0.07053951712548732,-0.48915319786146283
1789318102384563200,0.357563232421875,1.3113333584576845,-0.11819207966029643,-0.1774956978265196
1789318102394517200,0.367517333984375,1.282251640880108,-0.8844003237962722,0.04754946748651564
1789318102404471000,0.377470947265625,1.1569576202601193,-0.8488473643779754,0.024932562008872627
1789318102414425000,0.387425048828125,0.21464228311181066,-0.20243863509893417,-0.15548801028840242
1789318102424379100,0.397379150390625,-1.8803461288452148,-0.0042132337808609005,-0.9416437214970588
1789318102434333200,0.407333251953125,-1.541791050338745,1.6906553316384554,-0.9285095146358012
1789318102444287000,0.417286865234375,-0.14709084188640117,-1.35378893687129,-0.6018222032513469
1789318102454241300,0.4272412109375,1.5385440312415362,1.429762169483304,0.08903225534521043
1789318102464195300,0.4371953125,2.120223975500464,0.6765145292073488,-0.17328297550231217
1789318102474149000,0.447149169921875,2.1260364611715077,0.6572825899928808,-0.34271073688119646
1789318102484103200,0.457103271484375,2.563702486771345,0.796452575752139,-0.8336090248443185
1789318102494057200,0.46705712890625,1.625540762171149,-0.10362170251607894,-0.659287573139742
1789318102504011300,0.47701123046875,-0.7145406007409095,-0.23195114530920982,-0.46882411106005306
1789318102513965000,0.486965087890625,-4.162509555795789,-0.06493219863772393,-0.7964655813641845
1789318102523919000,0.496919189453125,-3.5389340050935743,2.9794273141980168,-0.5727148032432422
1789318102533874200,0.506874267578125,-4.022400827881693,0.2859229739934206,-0.002427921266667545
1789318102543828200,0.516828125,-1.9100883561581372,-0.21749708802103995,0.20214717787168918
1789318102553782300,0.5267822265625,0.7608078463971615,2.6370260816574094,0.10127305703070014
1789318102563736300,0.536736328125,1.1907739651441573,2.3973054713904856,-0.3141337539553642
1789318102573690000,0.546690185546875,0.4863070146501064,0.8974620499432087,-0.9015886283539235
1789318102583644200,0.55664404296875,-0.98675595189929,-1.293353465130925,-0.7599443614356219
1789318102593598200,0.56659814453125,-0.843689543223381,-2.540139824876189,-0.3255924653524533
1789318102603552000,0.576552001953125,0.2835357865959406,-1.202794657805562,-0.7163730037998408
1789318102613506000,0.586506103515625,0.009463993915915488,0.6388461850702762,-0.8815512179754674
1789318102623460000,0.596460205078125,-2.216584162580967,1.2774778506070374,-0.6838759978860617
1789318102633414100,0.6064140625,-0.37347441619634625,0.8329840248137712,-1.2131943251363932
1789318102643368200,0.6163681640625,-0.1359001703083515,-0.7267325583159923,-1.2275243176534771
1789318102653322200,0.626322265625,0.057362055644392965,-0.17260113071799277,-0.9515005141228436
1789318102663276300,0.6362763671875,1.3338245917290448,0.7158622047334909,-0.469969152909331
1789318102673230000,0.64622998046875,1.4544839382857084,-1.1531471220612526,-0.23094372183233497
1789318102683184000,0.65618408203125,2.5357307762622834,-2.563528883770108,-0.5423472471062094
1789318102693138200,0.66613818359375,3.678506141912937,0.46779228379428384,-0.44583172333352267
1789318102703092200,0.67609228515625,0.19542086529135702,1.9339263278633354,-0.6844019214563072
1789318102713046000,0.6860458984375,-7.0973577235549685,-0.8121545872747897,-1.7024641351148486
1789318102723000000,0.696,-1.7199094831734896,0.11389525924921035,-1.142195666066557
1789318102732954400,0.705954345703125,-2.16374279923141,-0.6398346115857363,0.9742605543982237
1789318102742908200,0.715908203125,-1.305528471571207,-1.0646902554512023,0.837030523725599
1789318102752862200,0.7258623046875,2.1923317648559806,4.243796092385053,-0.07382756235282868
1789318102762816300,0.735816162109375,1.8868629633933305,1.55938749730587,-0.469688436271809
1789318102772770000,0.74577001953125,0.9091320294708013,0.09634206690192222,-0.3800061925852671
1789318102782724000,0.75572412109375,0.26821254525780674,-1.3920844729959965,-1.0392316237416117
1789318102792678100,0.76567822265625,2.722210794728994,-2.454596215364337,-1.1172575510997325
1789318102802632200,0.775632080078125,1.7864415182232856,3.101357411342859,-0.8093423793982714
1789318102812586000,0.7855859375,-6.701221393695473,-0.2718985402941704,-0.8283949434578418
1789318102822540000,0.7955400390625,-1.1685814225584268,0.5564139855772257,-0.6807723327822983
1789318102832494300,0.805494384765625,1.0756500408828258,-1.0139502482950686,-0.4777246989395469
1789318102842448100,0.8154482421875,0.852522253498435,-2.250407521727681,-0.767745390575379
1789318102852402200,0.825402099609375,1.3245973291784525,3.2306945698738097,-0.5864224260782822
1789318102862356200,0.835356201171875,-1.2508353428751229,-0.5496066436499357,-1.9752165157593786
1789318102872311000,0.84531103515625,1.5661153442561626,-1.14505792362988,-1.9666531239449976
1789318102882265000,0.85526513671875,3.881821559846401,-2.7096833215892313,-0.7883651308864355
1789318102892219100,0.86521923828125,4.714786879959703,1.8830916281610726,-0.3127120871217921
1789318102902173000,0.8751728515625,-3.1209073304653168,2.42827519467175,-1.358149470168352
1789318102912127200,0.885127197265625,-8.781074780362845,-3.3833103126615285,-2.313781531137973
1789318102922081300,0.895081298828125,0.2817342901319265,0.6455822153270244,0.28150049964236096
1789318102932035300,0.905035400390625,-1.0037117628753185,-2.5029618946045638,1.0053148872230202
1789318102941989000,0.914989013671875,1.6262760907083749,0.026315759995579717,-1.5048421065174042
1789318102951943200,0.924943115234375,2.950795678475499,1.3073498417794704,-2.3757944813281298
1789318102961897200,0.934897216796875,1.7484557787001132,0.8914157555162906,-2.2522218776732683
1789318102971851000,0.94485107421875,0.2213257063984871,-0.45501171267628665,-2.7962597812801597
1789318102981805000,0.95480517578125,-0.9403519281208514,-3.101771837362647,-1.7339990910634397
1789318102991759000,0.964759033203125,1.6052970155656336,1.3283961369395256,0.08307542016687802
1789318103001713200,0.974713134765625,1.4502783032894133,0.6004004268199205,0.30920254463087765
1789318103011667200,0.984667236328125,-2.990734305632114,-0.9449135369479655,0.12681935789058915
1789318103021621200,0.994621337890625,-2.9246213727772234,0.44520051275789735,-1.2618297612287104
1789318103031575300,1.0045751953125,0.8528758892416953,-1.1174784273087979,-2.208103626744449
1789318103041529000,1.014529052734375,1.1379589052796364,0.707353904107213,-1.644712641761452
1789318103051483100,1.024483154296875,0.7214239305138588,1.384147834777832,-2.005393627358228
1789318103061437200,1.034437255859375,-0.772162768626213,2.068164702439308,-1.903076431569457
1789318103071391200,1.04439111328125,-0.874581525093317,-0.04138707239925861,-0.7049652554050088
1789318103081345000,1.054344970703125,-0.028958383458852766,-0.929224384906888,-0.09908462534202263
1789318103091299000,1.064299072265625,-0.10467851809263229,2.7379882095754144,-0.5512000503212213
1789318103101253400,1.07425341796875,-2.9561995833456516,-1.1304986524015663,-1.7658160788238046
1789318103111207200,1.084207275390625,-0.17992518999576568,0.16158932283818722,-1.432220814681798
1789318103121161200,1.0941611328125,1.2757780609518288,-0.27316286114156246,-1.1777674763157964
1789318103131115300,1.104115234375,1.3337339908361434,-2.746583019441366,-1.905057814645022
1789318103141069000,1.114069091796875,2.227872449314594,4.229687487533688,-0.9975091088429093
1789318103151023000,1.124023193359375,-3.484474685153365,-0.82892042863667,-1.4814198760062456
1789318103160977200,1.13397705078125,-2.9175100794672963,-0.25697569645047186,-1.5193717132598161
1789318103170931200,1.14393115234375,0.7744096707701683,-1.1448720456689596,-0.5192707247601822
1789318103180885000,1.153885009765625,0.7689864766776562,-0.12389525973796844,-0.08485968236830085
1789318103190839000,1.163839111328125,-0.9766805480867624,3.493801316425204,-0.7111850067026912
1789318103200793300,1.17379345703125,-5.096437003827095,-3.593601999348402,-1.9974626882284878
1789318103210748200,1.183748046875,0.8851210392862557,1.8209890999913214,-0.2733963411038741
1789318103220702200,1.1937021484375,0.3845955296695232,-0.8804688295662403,-0.03162018654663116
1789318103230656300,1.20365625,0.6588871025800704,0.36494741086959837,-0.5724644817439839
1789318103240610000,1.213610107421875,1.1798264546722173,2.4998399631917474,-0.24933486284110692
1789318103250564000,1.223564208984375,-0.7648001309037208,-3.0833085444331165,0.11371749152950941
1789318103260518100,1.23351806640625,-0.14653262348175047,1.1713649157971142,1.2576703034617005
1789318103270472000,1.243471923828125,-0.2927215480923652,-1.3571657198280096,0.4539505131855607
1789318103280426200,1.25342626953125,0.10364449886977672,1.6081284395992754,0.8398449966244399
1789318103290380300,1.26338037109375,-0.9062620269924402,-0.06400222431123256,0.7872381726831197
1789318103300334300,1.273334228515625,-0.5669628521203994,-2.0936340747386217,0.18596976738963275
1789318103310288100,1.2832880859375,1.606433910641074,0.44870062983334064,0.12049834730867295
1789318103320242200,1.2932421875,0.41288989626169204,-1.7872347144275902,-0.17503456840999423
1789318103330196200,1.3031962890625,-0.7311106272697449,0.2628863817989826,0.058253743787109846
1789318103340150000,1.31314990234375,-0.013283259943127632,0.49794133834242815,-0.3306951222537085
1789318103350104000,1.32310400390625,1.7197902407079935,0.017634440889954566,-0.8657937499385326
1789318103360058000,1.33305810546875,0.865183582150936,0.023306056785583496,-0.5677556829985231
1789318103370012200,1.34301220703125,-3.6774434811174865,-0.5189215825289487,-0.8038616829648614
1789318103379966000,1.352966064453125,-3.4128760143637655,-0.14348025017380714,-0.9540732872202992
1789318103389920000,1.362919921875,0.2011737297296524,-1.2923217839956282,-0.18320309742158278
1789318103399874000,1.3728740234375,2.2703215979874134,2.2327444392651317,0.8001792681250721
1789318103409827800,1.382827880859375,2.857248795250058,1.2770341984927653,0.5013955704495311
1789318103419782000,1.392781982421875,0.7612117510229349,0.07275719317495823,0.5422193829428404
1789318103429736200,1.402736083984375,-1.0967536191880702,-1.23534259018898,0.8366331219058484
1789318103439690200,1.412690185546875,-0.19126140752434728,-1.5859908420711755,0.4557002794623375
1789318103449644000,1.42264404296875,1.1675649389922618,-0.8562994339495896,0.14892991214813664
1789318103459598000,1.43259814453125,0.8753618618160486,-1.4045610927313565,0.1424985091274604
1789318103469552000,1.44255224609375,0.40425475438535213,2.7533944530218837,0.41612559024728835
1789318103479506000,1.452505859375,-3.264144419533014,0.9037439066916704,-0.2320377824130468
1789318103489460000,1.4624599609375,-2.957746228265762,0.09394260454475879,-0.9000804888132959
1789318103499414000,1.4724140625,-0.4321481389611959,-1.1055968508571385,1.3324929047338663
1789318103509368000,1.4823681640625,0.14965689298212528,-1.2153016726791859,1.5215532950825987
1789318103519321900,1.49232177734375,2.190761154538393,1.0086153170078993,0.10117250099936499
1789318103529276200,1.502276123046875,0.42882396297454833,-0.6943757645905018,-0.16690447171265257
1789318103539230200,1.512230224609375,-0.4777238952219486,2.0182523782789707,-0.43792573598194867
1789318103549185000,1.52218505859375,-0.7077741753458976,-2.345696864706278,-1.0743876927968115
1789318103559139000,1.53213916015625,1.751378388148546,-2.6134856315940618,-0.8861384727004915
1789318103569092900,1.5420927734375,5.107748671436309,2.8653023378461597,-0.038878158318251366
1789318103579047000,1.552046875,1.4118074105978011,0.52136254594028,0.6142739077411592
1789318103589001000,1.5620009765625,-5.580614020711184,-0.2363303833067417,1.0661505372621118
1789318103598955000,1.571955078125,-0.479241314047575,-1.3557038305819034,-0.3499148230411112
1789318103608909000,1.581908935546875,2.5029881980895996,-0.49452305433154103,0.1331903268277645
1789318103618863000,1.591863037109375,1.5920815601617098,-0.0944517231106758,0.47900220806207505
1789318103628817200,1.601817138671875,-0.09670973117053508,2.6245494619220495,-0.4500554419757798
1789318103638771000,1.61177099609375,-1.978483846992254,0.688778382974863,-0.7183624971166253
1789318103648725000,1.62172509765625,0.7294844873726367,-1.4538900640457868,-0.12778050367347896
1789318103658679000,1.631678955078125,1.4190239178478716,-0.8682230959773063,1.1557467831656336
1789318103668633000,1.641633056640625,-0.02158347077667713,0.20724223598837851,1.2070049689769744
1789318103678587000,1.6515869140625,-1.2290151407331227,0.36790216902196404,-0.2557444376224652
1789318103688541000,1.661541015625,-0.8711240781158208,-2.0363813246876,-0.6959852456137537
1789318103698495200,1.6714951171875,1.7510528094559907,-0.6770674869149923,0.44270818448550997
1789318103708449000,1.681448974609375,2.630730780905485,1.8065706985384224,0.3407307420451194
1789318103718403000,1.691403076171875,-1.1890332589566708,0.9717162036776542,-0.07184219722189009
1789318103728357000,1.701357177734375,-4.1207647560000416,-1.7212825250923633,0.8006401636350899
1789318103738311200,1.711311279296875,0.6646773764193058,0.8490385030359029,1.2989806573629379
1789318103748265000,1.721264892578125,1.5475170267701148,-0.19104688799083233,0.841222276327014
1789318103758219000,1.731218994140625,-0.2723749256342649,-0.7666799533009528,-0.35504853266775604
1789318103768173000,1.741173095703125,-3.409710243809223,1.0389163472473621,-0.8570520058825611
1789318103778126800,1.751126953125,-0.8729565542399883,-1.1877823821127413,-1.115759567626938
1789318103788081000,1.761080810546875,2.028562759891152,1.725009436661005,0.10460742561779916
1789318103798035200,1.77103515625,0.9869745630860328,-1.445413327601552,0.7773775806650519
1789318103807989200,1.7809892578125,0.86864512078166,2.446729135251045,1.1654212780270725
1789318103817943000,1.790943115234375,-1.2647411186307669,1.8234493526250124,0.3104281043704599
1789318103827897000,1.80089697265625,-2.3581156167745587,-1.009084103563428,-1.0845696987889706
1789318103837851100,1.81085107421875,-0.2926853077352047,-0.2268330716431141,-1.409317201217264
1789318103847806000,1.820805908203125,-0.755079531878233,0.5414888036459684,-0.8273131395705043
1789318103857760000,1.830760009765625,-0.3570902676284313,1.8144167358636856,-0.3414179205916822
1789318103867714000,1.840714111328125,0.004492635244131088,0.6747469350129366,0.4574602018069476
1789318103877668000,1.850668212890625,0.5884107138186693,2.2673761921852824,1.681701917593181
1789318103887622100,1.8606220703125,-1.0095856233447789,-0.34817923142015933,0.9064943013783544
1789318103897576200,1.870576171875,-2.595783970686793,-2.5126959376335143,-0.6507079608429223
1789318103907530000,1.880530029296875,0.37919571645259853,1.0203080928891897,-0.9735195267725736
1789318103917484000,1.890484130859375,2.697727510857582,-0.2738520124495029,-1.6625312070466578
1789318103927438000,1.90043798828125,2.1315064170151947,2.059801947763562,-1.3648980676457285
1789318103937391900,1.910391845703125,-3.8009295755326744,0.49912850230038164,-1.3812240562856197
1789318103947346000,1.920345947265625,-0.7989654353559017,-0.870601515546441,-1.7033540696918963
1789318103957300000,1.930300048828125,1.3698697185784579,0.7995365132421255,0.3979735552240163
1789318103967254000,1.94025390625,0.9409124846130609,-1.079333113309741,0.9879369053121656
1789318103977208000,1.9502080078125,0.708618224954605,0.610605009970069,0.5015073602609336
1789318103987162000,1.960162109375,-0.6534136396050453,-0.3598538871228695,-0.03770202721096575
1789318103997116200,1.9701162109375,0.2543348265528679,0.13646540297567844,-1.2614853317052126
1789318104007070000,1.980070068359375,0.9915572147011756,-2.9531594849973914,-1.4118760919198392
1789318104017024000,1.99002392578125,3.2813930759757755,0.21859715821743012,-0.6010610826857388
1789318104026978000,1.99997802734375,2.300862282201648,1.8033067283064126,0.2014985777698457
1789318104036932000,2.00993212890625,-3.884887377157807,-1.8707021021872758,1.062444010894373
1789318104046886000,2.019885986328125,-2.8307015645861626,2.142270972135663,1.718465860236436
1789318104056840000,2.02983984375,-0.23665420843362805,-0.32617081322968006,1.4783656030021608
1789318104066794000,2.0397939453125,-1.3295195880115032,-1.1143342840641737,1.3764473434031008
1789318104076748000,2.049748046875,-1.389321438023448,-0.7151987723886967,-0.09550072070695459
1789318104086702000,2.0597021484375,-1.179974338710308,-0.39847967811524865,-0.9272883753430098
1789318104096656100,2.06965625,0.31248131057322026,0.0029857378125190733,0.2649528858747333
1789318104106610200,2.079610107421875,1.3261211777448654,-1.5144798495650291,0.6568674333207308
1789318104116564000,2.08956396484375,3.137392601320147,1.0868985801279545,1.2334753350123762
1789318104126519000,2.09951904296875,3.135264941641688,-2.7754975637584924,1.3581610144756733
1789318104136472800,2.109472900390625,3.862009774917364,-1.4710487041175364,1.339959002830833
1789318104146427000,2.119427001953125,2.217066977661848,3.590617430579662,1.4344702010437846
1789318104156381200,2.129381103515625,-6.057113927096128,-1.8615140026032924,-0.8129420843906701
1789318104166335200,2.139335205078125,-2.1871458866506814,-0.8102478768706322,-1.4666411168083548
1789318104176289000,2.1492890625,-0.013270984983444213,-2.402810498547554,0.5309858951363712
1789318104186243000,2.1592431640625,1.1938140634924173,0.11667699892222881,1.5964233887583017
1789318104196197000,2.169197021484375,0.5548609109163284,4.195172638991475,1.1594855313025414
1789318104206151000,2.17915087890625,-4.231801703208685,1.2836398803681135,-1.1043310687050223
1789318104216105000,2.18910498046875,0.7620248209714889,0.6061041914194822,-1.11818759849146
1789318104226059000,2.19905908203125,0.7924877637743949,-6.244253286254406,0.7007705801941454
1789318104236013000,2.209012939453125,5.172404975742102,-0.1216179624557495,0.8746497680239379
1789318104245967000,2.218967041015625,5.5470519428491585,2.649797300425172,-0.07645867804139853
1789318104255921200,2.228921142578125,-2.283596674624085,-0.03182487880587578,0.048686143366247416
1789318104265875200,2.238875244140625,-2.9169805026352402,-0.20691431920826434,-1.1212640833273528
1789318104275829000,2.2488291015625,1.445933552083373,-1.575549527555704,-1.6746460077323018
1789318104285783000,2.258782958984375,0.233942611387372,0.6012544133007526,-1.0066299153443425
1789318104295737000,2.268737060546875,-3.9531156947314736,-0.5409148031502962,-1.402674840593338
1789318104305691000,2.27869091796875,-3.129783879882097,2.9365269146263597,-1.4410849430084227
1789318104315645000,2.28864501953125,1.0007534975916146,2.2623113100111483,0.037282340494170785
1789318104325599000,2.298598876953125,-0.24941490580737588,-3.0898920144766566,0.39243769453726707
1789318104335553000,2.308552978515625,2.1347651265501977,0.5110276144087315,-0.7642924005772918
1789318104345506300,2.31850634765625,1.8525486058592795,-0.689559888741374,-2.0632325067341326
1789318104355460600,2.328460693359375,0.3395177860587835,0.5454711512804031,-2.2798197864338756
1789318104365414700,2.33841455078125,-1.7432050185650585,-1.8281126682609319,-2.590093650090694
1789318104375368700,2.34836865234375,0.6593652414858341,2.4469845713168383,-1.9377368260622023
1789318104385322500,2.358322509765625,-0.10069909306764602,0.9732768771231174,-1.7012141350537537
1789318104395276500,2.368276611328125,-2.166272025448084,-1.542708749705553,-2.0752342024341224
1789318104405231400,2.3782314453125,-0.4314928899228573,3.7233132518887517,-1.238258916027099
1789318104415185400,2.388185302734375,-0.25837971802949905,0.982479589754343,-1.2145406251788138
1789318104425139500,2.398139404296875,-0.7652952209442854,1.591963486739993,-0.952701487410441
1789318104435093800,2.40809375,-0.8790840972095727,-0.6380319460779428,-1.0183828239150345
1789318104445047600,2.418047607421875,-0.10069383237063884,-0.6903332112014293,-0.5557759799346328
1789318104455001600,2.428001708984375,0.7187175941646099,-0.1165811373323202,-0.2071496623340994
1789318104464955600,2.43795556640625,0.982686510503292,-1.451746622276306,-0.4681314526207745
1789318104474909400,2.447909423828125,1.5318565163016318,2.8358132085114716,-0.19287395728752016
1789318104484863500,2.457863525390625,-0.06026128421723842,1.1948983515977858,-1.1095018954716622
1789318104494817500,2.467817626953125,-2.6740701564162968,0.5396978285759687,-1.4502375328876078
1789318104504771600,2.477771484375,-1.7426473846822976,0.22505787866413593,-0.7500114348337054
1789318104514725400,2.487725341796875,-1.2501964604496956,-0.7047668102234601,0.2516819008912891
1789318104524679400,2.497679443359375,-1.0822025312662125,2.0543547882735727,1.187523000524193
1789318104534633700,2.5076337890625,-0.3463765659123659,1.622669006127119,0.9019286739632487
1789318104544587500,2.51758740234375,-0.0953752676963806,0.24033318920731542,0.29934944179952144
1789318104554541600,2.52754150390625,0.9129688311547041,-1.5611270344495773,-0.868907132718712
1789318104564495600,2.53749560546875,2.006853032386303,-1.496827873018384,-0.9729456724073737
1789318104574449700,2.54744970703125,1.960188311845064,-0.5749614496588706,-0.2679408521769568
1789318104584403500,2.557403564453125,1.6915817988336086,-2.050769915524125,-0.1472895793288946
1789318104594357500,2.567357421875,1.7351742723226546,0.7202741759568453,0.9261753725998103
1789318104604311600,2.5773115234375,-0.44042730700671673,0.14279051434397697,1.4500424487069248
1789318104614265300,2.587265380859375,-1.5248527750194072,-2.0172417399317024,0.6569301232933997
1789318104624219400,2.597219482421875,-0.6403577586770057,3.1789334029763934,0.3652259720826521
1789318104634173700,2.607173583984375,-4.428846954831481,-1.1370943974047898,-0.7733110618785023
1789318104644127500,2.61712744140625,-1.1813035414874553,-0.6715840870678425,-1.350682933679968
1789318104654081500,2.62708154296875,0.014327800559997557,0.9856126270830631,-0.23977690703142432
1789318104664036600,2.63703662109375,-0.73994099945724,-1.6274048024773597,-0.8215675816558301
1789318104673990400,2.646990478515625,1.4020558319121599,1.3069015134900808,-0.7596949167191982
1789318104683944400,2.6569443359375,1.6127344720900059,-1.6917214995652436,0.2734635976538062
1789318104693898500,2.6668984375,3.359688614055514,0.4729249705076217,0.21328038364145904
1789318104703852500,2.6768525390625,2.33981774353981,0.12395429644882679,0.24565716070905327
1789318104713806600,2.686806640625,-0.8082832987993955,-0.23649112682640552,0.5045250275816768
1789318104723760600,2.6967607421875,-3.0801819368451833,1.6882307348400354,-0.34331341548208144
1789318104733714700,2.706714599609375,-1.8783114081472156,-2.882611200043559,-0.8829751863639801
1789318104743668500,2.71666845703125,-0.7638356697857379,2.308223166358471,0.3975942735828459
1789318104753622500,2.72662255859375,-3.0125083305448292,1.2089520113915204,0.09000179449710995
1789318104763576600,2.73657666015625,-0.9664543376266955,-0.07076806518435477,0.022740111732203513
1789318104773530400,2.7465302734375,0.8967296440154313,2.260501045718789,0.9224041834980249
1789318104783484400,2.756484375,0.7786930471777915,-3.3320489119797942,-0.3747613872669637
1789318104793438500,2.7664384765625,2.8182489102482795,1.1798749699890614,-0.8026433201510459
1789318104803392800,2.776392822265625,1.5188561649531125,-0.7933072634637355,-0.8109677155777811
1789318104813346600,2.7863466796875,1.4172908104449509,-1.0586889692097903,-1.151964415082708
1789318104823300600,2.796300537109375,1.6353127991229295,0.849666864067316,-0.4025323510395363
1789318104833254700,2.806254638671875,0.16484218715429305,-3.7053982404917476,0.25637588566010816
1789318104843208400,2.81620849609375,2.01471017562747,1.1001380009293555,0.7218566228426992
1789318104853162500,2.82616259765625,0.8515507781177759,0.39864626685380933,0.6772228236071764
1789318104863116500,2.836116455078125,-2.556974055299163,0.36404666263759133,-0.22057852302668615
1789318104873070600,2.846070556640625,-3.616604104751348,-0.6342372299700975,-1.2577832623168825
1789318104883024400,2.8560244140625,-0.9005530016958713,-4.480398862892389,-0.9135676738306879
1789318104892978400,2.865978515625,1.6417513077378272,0.6938754138529301,0.6371682419206947
1789318104902932700,2.8759326171875,1.2903969534128903,-1.3722013763964176,0.8000822374913841
1789318104912887600,2.885887451171875,0.49777007342875,0.0838081640213728,1.2126420250158756
1789318104922841600,2.895841552734375,0.09597732524275779,-0.5827864441961049,1.106031954338774
1789318104932795600,2.905795654296875,0.940270679578185,-1.5877648660063743,0.5507789753649384
1789318104942749400,2.91574951171875,1.4059113382965325,-0.7678332149893045,0.3665409636713564
1789318104952703500,2.925703369140625,0.7511866160929203,-2.946004937067628,0.08725569239305332
1789318104962657500,2.935657470703125,1.811191344076395,1.6860948918551206,0.39626379216406493
1789318104972611300,2.945611328125,0.3224608527958393,-0.7638888612776994,0.3549942451972514
1789318104982565600,2.955565673828125,-0.07484159823358058,0.9149503603607415,0.7361375155210494
1789318104992519700,2.965519775390625,-0.38479426711201664,1.6422423061251639,0.448335486315377
1789318105002473500,2.975473388671875,-1.9676666849017141,-2.005479405945539,-0.0008602700911462306
1789318105012427500,2.985427490234375,-1.9229975220918654,-1.0088836125552654,0.23695936539266257
1789318105022381600,2.995381591796875,-1.621620958378911,-0.962661959606409,0.5805507940985262
1789318105032335600,3.005335693359375,0.15159633661210536,3.409710243809223,0.7453983880802989
1789318105042289400,3.015289306640625,-0.666465428879857,-0.2898328409135342,0.4494519231246784
1789318105052243500,3.025243408203125,-0.6211643979072571,1.6308213329225778,0.8451334584213793
1789318105062197500,3.035197509765625,-1.6508616659104822,0.34416356603801246,0.8800575453516095
1789318105072151300,3.0451513671875,-1.470237972256541,-0.20531389827430246,0.9007909021049737
1789318105082105600,3.055105712890625,0.0975409212976694,0.9470470418453216,1.2812566384933888
1789318105092059600,3.0650595703125,0.5206231257498264,0.5865449199467897,1.4357774842500686
1789318105102013700,3.075013671875,0.15087386755645274,1.4019932880699635,0.6564134790081531
1789318105111967500,3.084967529296875,-0.41490532773733135,-0.025691490617394445,-0.5915537610847502
1789318105121921500,3.094921630859375,0.4028559935033321,-0.11538169841468333,-0.579585163936764
1789318105131876400,3.10487646484375,1.6182126112401485,-0.17090893984735012,-0.3233314250852912
1789318105141830400,3.114830322265625,1.5906173328280448,-0.8648451439768076,-0.7130930322811007
1789318105151784400,3.124784423828125,0.2202835038691759,-0.29811434704661366,-0.5748129810988902
1789318105161738800,3.13473876953125,-0.7140881807982922,-0.08632160814702511,-0.6394239849582314
1789318105171692500,3.144692626953125,0.3636509413182735,0.1516810922861099,-1.0167522270385176
1789318105181646600,3.154646484375,0.42425884701609606,0.013297872990369795,-0.6443444902256131
1789318105191600600,3.1646005859375,-0.8965694850176572,-1.5842016205668448,-0.600747852018103
1789318105201554400,3.174554443359375,-2.053183406406641,0.16161913345456122,-0.6677730043470859
1789318105211508500,3.184508544921875,-0.8692606223315,-0.44490532920360565,-0.8079073781590909
1789318105221462500,3.194462646484375,0.7067062538534402,0.9291285233169794,0.08621953601203858
1789318105231416600,3.20441650390625,1.430970376229286,1.8225941971004007,-0.7305629302591085
1789318105241370400,3.214370361328125,0.6299217048585415,-0.7990420077234506,-1.6358185566879808
1789318105251324700,3.22432470703125,0.7490344064950942,1.9232377605885267,-0.942703605813533
1789318105261278700,3.23427880859375,0.12409341265857218,-1.5157055919677018,-1.4094991336554288
1789318105271232500,3.244232421875,0.8192869233727454,0.16228490388691424,-1.5248989522486924
1789318105281186600,3.2541865234375,0.6976385657787323,0.35320319706201553,-1.6480866482391952
1789318105291140600,3.264140625,-0.904997706145048,-0.7265431732237339,-1.4857915152192116
1789318105301094700,3.2740947265625,-3.561208380743861,1.343063544717431,-0.755950834820047
1789318105311048400,3.28404833984375,-2.5174177054584024,0.3526818035364151,-0.3313300956889987
1789318105321002500,3.29400244140625,-1.9913696320503949,-0.5333499208539724,0.4493153276655823
1789318105330956500,3.30395654296875,-0.28980186125338075,-0.41846448152363297,0.6723001263827085
1789318105340910300,3.313910400390625,2.2321388745874167,1.7172469859659671,-0.33060346191488205
1789318105350866400,3.323866455078125,1.9524270301938056,1.7675404183983803,-2.7379166056439277
1789318105360820200,3.3338203125,1.3197335225343703,-1.4612947873443365,-2.925293572950363
1789318105370774300,3.343774169921875,3.9997973664075133,-1.490935892370343,-0.9120047353629023
1789318105380728300,3.353728271484375,5.0755087820887566,0.8680793035924435,0.4826399435099214
1789318105390682000,3.36368212890625,-0.48923546931743617,-0.998240637987852,2.1426301608368754
1789318105400636200,3.37363623046875,-7.06699181138575,-1.349956811362505,2.8036490147486326
1789318105410590200,3.383590087890625,-1.6321768391847609,-0.2669599148482084,1.4647390825793147
1789318105420544300,3.393544189453125,0.38486090260744094,-0.48714171190857886,0.34875462015531955
1789318105430498300,3.403498291015625,-0.12306991482973098,1.5760720901250838,-1.5690569506660104
1789318105440452400,3.413452392578125,-2.3211481143832207,1.0938830321878195,-3.635836043965816
1789318105450406400,3.423406494140625,-0.0047381344377994536,-0.36610067255795,-2.6173472754582763
1789318105460360200,3.433360107421875,1.1453472619652747,-1.4457330610752104,0.3890257672019303
1789318105470314200,3.443314208984375,2.39347451492548,-2.3303929125905034,1.5123843385905027
1789318105480268300,3.453268310546875,3.3625288059175014,0.3760574184268713,1.8606746291697025
1789318105490222300,3.463222412109375,2.1621558223009107,-2.330112342083454,0.5421952714148909
1789318105500176100,3.473176025390625,2.721485987585783,1.40638246293962,-2.013743376421928
1789318105510130200,3.483130126953125,-0.7489297770768404,-0.8875012124210595,-3.978405034288764
1789318105520084200,3.493084228515625,-2.023917564433813,-0.4116138849765062,-4.921773095360398
1789318105530038300,3.503038330078125,0.9710305595010519,2.4169752175003287,-3.5507600519657134
1789318105539992300,3.512992431640625,-2.715209976056218,-0.5992939268827439,-0.5973856090433896
1789318105549947100,3.522947021484375,-2.015326846221089,0.8072381736606359,0.9306410467717796
1789318105559901200,3.532901123046875,-1.632937886685133,-0.8100906404823064,1.050536496283859
1789318105569855200,3.542855224609375,-0.8476350659787655,0.4117231905698776,0.9357122856214642
1789318105579809300,3.552809326171875,1.7663292890429496,-1.1528396635472773,-0.7337166450496763
1789318105589763000,3.56276318359375,3.9315848309248684,-0.7177806055754423,-2.113157690376043
1789318105599717000,3.572717041015625,2.7820968158930537,2.48346107532084,-2.3753698261752723
1789318105609671400,3.58267138671875,-4.000731432387233,-2.0580834534078836,-2.4614731153964993
1789318105619625200,3.592625244140625,-1.511038769200444,0.5130214185744524,-0.7653356990851461
1789318105629579300,3.602579345703125,0.3145259681433439,2.5974206319779154,1.1023626912415028
1789318105639533300,3.612533203125,-1.6779145080089568,-0.36566345018446444,1.5067539314880967
1789318105649487400,3.6224873046875,-1.8787550602614878,1.614729445299506,0.9039467357873916
1789318105659441200,3.632441162109375,-0.36236090150773526,1.7123656436651944,-0.7967417679570615
1789318105669395200,3.642395263671875,-0.07223813773691654,-0.2230851172864437,-1.4535264914304018
1789318105679349200,3.652349365234375,0.7311258248388767,-0.7160790623545646,-1.6448704626716673
1789318105689303000,3.662302978515625,1.4946516980230808,-2.074548265996575,-1.3202820963278412
1789318105699257000,3.672257080078125,1.7841501924157142,1.615307537448406,0.2947969661269337
1789318105709211400,3.68221142578125,0.05794950014352798,-1.1043886441111563,1.2248024914741515
1789318105719165400,3.69216552734375,0.01654547660946846,1.152855445638299,2.135082375805825
1789318105729119200,3.702119140625,-0.5956336508095265,0.5062795430988073,1.233507483716309
1789318105739074300,3.71207421875,-3.772429457235336,0.36363925088047977,0.05055409266259521
1789318105749028000,3.722028076171875,-5.5172834120512,1.235666999837756,-0.9198609287559986
1789318105758982100,3.731982177734375,-2.955225185355544,-0.8011813578397036,-0.8116239875294268
1789318105768936200,3.741936279296875,-1.0367758280873298,-1.5074842915892601,0.4905168143648654
1789318105778890200,3.75189013671875,2.1582792731285094,-2.1199235312491655,0.7285249946907162
1789318105788844300,3.76184423828125,6.83664517866373,0.7370645672380923,0.56901335490942
1789318105798798300,3.77179833984375,6.833560656651854,1.2608563861519098,0.2584064599059522
1789318105808752400,3.78175244140625,2.653135504937172,-1.4409996028125285,-0.981906392976269
1789318105818706200,3.7917060546875,-0.3806488378703594,-3.761183256077766,-1.3112014026410876
1789318105828660200,3.80166015625,0.3435667691886425,-1.9634528665989637,-0.08929028522688895
1789318105838614300,3.8116142578125,0.21907821973264216,-0.10353577779829501,1.3768755056872963
1789318105848568300,3.821568359375,-4.139086594632268,2.6980226944118737,2.086801598370075
1789318105858522000,3.831522216796875,-2.4796073225021362,1.9440794730871915,1.012006128489971
1789318105868476200,3.84147607421875,-0.11396423283219337,1.6844535543888806,0.9855613352872431
1789318105878430200,3.85143017578125,-1.3421055133402346,2.7596710490733383,0.35832097846716643
1789318105888384300,3.86138427734375,-2.330404603028297,-2.0295137770056724,-1.4029361218780279
1789318105898338300,3.87133837890625,0.08511807757616043,0.5515086778789758,-0.1475777486205101
1789318105908292400,3.881292236328125,1.6878963883191347,-1.421664203223586,0.9364702643819153
1789318105918246100,3.89124609375,2.663499078041315,-1.3657780653506517,1.7814270510621368
1789318105928201200,3.901201171875,2.090887406378984,2.409906594288349,2.0895361379005015
1789318105938155300,3.9111552734375,-1.3742320054411887,-0.6686836894512176,0.8798405416000634
1789318105948109000,3.921109130859375,-3.1431665085464715,0.04568213924467563,0.14111958545707165
1789318105958063000,3.93106298828125,-0.9340484440624713,-0.9717039287179708,-0.7584048769086599
1789318105968017400,3.941017333984375,0.681180182930827,0.7754547959089279,-0.6331225467264652
1789318105977971200,3.95097119140625,-1.2859972571492195,2.0054495953291656,-0.24222097571529447
1789318105987925200,3.96092529296875,-2.1923703433007002,-0.7992354844689369,-0.4583643841050565
1789318105997879300,3.97087939453125,0.29912907704710956,-0.7319763041883707,0.9859303877953439
1789318106007833300,3.980833251953125,2.0914497164368626,-2.2152678192853927,1.2471639608860015
1789318106017787100,3.990787109375,3.5690146705806254,-2.941933157584071,0.75780537664555
1789318106027741200,4.0007412109375,3.5848552137911316,-1.5421616372168063,0.7035736549161374
1789318106037695200,4.0106953125,2.627396083524823,-1.4233850356668234,-0.506707120861113
1789318106047649000,4.02064892578125,1.5689923609971999,-0.6145932028234005,-0.6848802795577794
1789318106057603300,4.030603271484375,1.2257727978110313,1.9037731816619634,0.15541669861786067
1789318106067557400,4.040557373046875,-0.4625263260900974,-1.4756868853121996,0.5950834695808589
1789318106077511400,4.050511474609375,-1.530102950632572,0.020345453414320945,1.2883847368076442
1789318106087465200,4.06046533203125,-4.0015988628715276,-1.2101473586559295,1.169329391381517
1789318106097419300,4.070419189453125,-1.4205033427506684,0.4405798672199249,0.8776789065867662
1789318106107374000,4.0803740234375,0.12156477096378802,1.0842729077994824,0.44870209113806486
1789318106117328100,4.090328125,0.46224107940793036,-2.1137433813095092,-0.88720193721354
1789318106127282200,4.1002822265625,2.861448585027456,-0.054579146927595135,-1.063933591865003
1789318106137236500,4.110236572265625,2.029784995162487,-1.6613275303453205,-0.49873234258964655
1789318106147190300,4.120190185546875,1.3782891718775032,-0.5885188503682613,0.6601216858763247
1789318106157144300,4.130144287109375,1.2186182498812674,-0.6618132191598415,1.4451852179341018
1789318106167098400,4.140098388671875,0.8971300415098666,0.49033437047004697,1.166424755981192
1789318106177052200,4.15005224609375,-1.0759323649555443,-0.4983417358368635,1.021699035790935
1789318106187006200,4.160006103515625,-1.9444956526726482,-0.2633171744316816,1.0716710542492567
1789318106196960300,4.169960205078125,-0.5978729541689157,0.001578209102153778,0.4545669645834714
1789318106206914300,4.179914306640625,1.4021604613304137,-0.6383703842520714,0.49839251617603003
1789318106216868000,4.1898681640625,2.9537971983790396,0.9928870020002126,0.8969975011713802
1789318106226822100,4.199822265625,1.3835720807164906,1.2105799048542976,1.1103704949997364
1789318106236776400,4.2097763671875,-1.739353019312024,-0.22857786948382852,0.49306752176098523
1789318106246730200,4.219730224609375,-2.5704396860718726,-1.5025187781363725,-0.24322423447370528
1789318106256684300,4.229684326171875,-1.058269867014885,0.30901684933304785,-0.031078371287509798
1789318106266638300,4.239638427734375,-2.0254735617041586,-0.25823534112274643,-0.14496106331609188
1789318106276593200,4.24959326171875,-2.003143071952462,1.9571908835947514,-0.579488133303076
1789318106286547200,4.259547119140625,-0.46005730562806124,5.013487502461672,-1.000042426712811
1789318106296501200,4.269501220703125,-1.249182899492979,-0.18956044882535933,-0.9385522582877427
1789318106306455000,4.279455078125,-0.10661562363505363,0.2929688008517027,-0.15100195091553031
1789318106316409300,4.289409423828125,0.9007721974045038,-1.3270961602568625,-0.3477952005386352
1789318106326363400,4.29936328125,1.9918547852188349,0.4374871619015932,-0.9114959821231663
1789318106336317200,4.309317138671875,1.070628997850418,-0.11336100624203681,-0.9718744629792868
1789318106346270500,4.3192705078125,0.7696995933830738,0.9754460378557444,-1.2575842326134443
1789318106356224500,4.329224609375,0.3116881143689155,2.090039265117049,-1.2574316724002361
1789318106366178600,4.339178466796875,-1.2638970690220594,-0.5649018279373645,-0.9926496130477637
1789318106376132600,4.349132568359375,-0.5831751512527465,1.2311480611085892,-0.46318289030268783
1789318106386086400,4.35908642578125,-1.14317400957942,-0.23794892441928386,0.6339927536897361
1789318106396040400,4.36904052734375,-1.253345864391327,1.2416326302438974,0.7876776600789278
1789318106405994800,4.378994873046875,-1.1385381664723158,0.8612193546950817,-0.0290369285877794
1789318106415948500,4.388948486328125,-1.1068348682194948,-2.1592934186071155,0.2897462586086243
1789318106425902600,4.398902587890625,1.6195850686371325,-1.4892571455031633,0.6098001963932067
1789318106435856600,4.408856689453125,3.5900106968581675,-1.3501695773303508,0.6519367719855159
1789318106445811500,4.4188115234375,3.4958372061669825,1.1087754808932542,-0.02090520618893206
1789318106455765500,4.428765625,0.38503041395545,1.1509954969853162,-0.95390377587229
1789318106465719600,4.438719482421875,-2.5609225006639957,0.42720542186200616,-2.274920031693578
1789318106475673300,4.44867333984375,-0.31051439441442485,-1.2976233975350857,-3.0742019856527447
1789318106485627600,4.458627685546875,-0.5225678300768136,-0.07493278364837169,-1.963648827562481
1789318106495581700,4.468581787109375,-2.9872073005497453,0.926368995475769,-1.5231706671513616
1789318106505535500,4.478535400390625,-2.8916742119431493,0.9119213679283856,-1.574516677376628
1789318106515489500,4.488489501953125,-0.28022388556897637,1.7714660674095153,-0.6059117375873029
1789318106525443600,4.498443603515625,-0.8520183956295251,-3.0898844156920906,-1.3337336985751986
1789318106535397600,4.508397705078125,2.287756132391095,0.3903735285490751,-2.063674843674153
1789318106545351400,4.518351318359375,4.246044163572788,-0.3731763100326061,-2.2597654249206185
1789318106555305500,4.528305419921875,3.542496666011214,-0.15841946063041687,-2.355784397348016
1789318106565259500,4.538259521484375,0.031013562422990797,0.20899171000421046,-1.2152326990962028
1789318106575213300,4.54821337890625,-1.6723995439797639,-1.0326666392028332,-0.18490977347530424
1789318106585167600,4.558167724609375,0.46253743200600145,1.0962772338479756,0.41491522807683795
1789318106595121700,4.56812158203125,0.08989829759001731,-0.7659533925920724,0.6087954397974535
1789318106605075700,4.57807568359375,-2.629533680075407,0.3177355778396129,0.5808560606554151
1789318106615029500,4.588029541015625,-2.4710405696868896,-0.886105374148488,-1.5045567137047648
1789318106624984600,4.597984619140625,2.180544296428561,1.1385650544792414,-1.5895675315141677
1789318106634938400,4.6079384765625,3.4802228729277846,0.11953297287523745,-0.6416171841535717
1789318106644892400,4.617892333984375,3.650999710828066,-0.6500555613487958,-0.9211158972531557
1789318106654846500,4.627846435546875,0.6815268044114112,-1.3495207580327986,-0.5793746995238587
1789318106664800800,4.63780078125,-1.7174094830513,-3.195685800334811,-0.10757230330538003
1789318106674754600,4.647754638671875,0.11941723754107951,-0.19431670344173907,-0.4916165557676926
1789318106684708600,4.65770849609375,0.7714543280959129,-0.15178513718247413,-1.2299234877496956
1789318106694662700,4.66766259765625,0.046996728974580765,-0.4841010290384292,-1.7879791030541061
1789318106704616400,4.677616455078125,-0.5618973854243755,1.1423568479776383,-2.544808401209116
1789318106714570500,4.687570556640625,-0.06654781714081764,-0.3530892152935266,-2.4216931859329343
1789318106724524500,4.697524658203125,1.2394207994133233,-0.8076490925490856,-1.229189182125777
1789318106734478600,4.707478515625,2.084502089256048,-0.3233095785796642,-0.4742344456709921
1789318106744432400,4.717432373046875,0.8749725702375173,-1.0202321050435303,0.5346121958747506
1789318106754386400,4.727386474609375,0.22978782979547976,-0.9099030138432979,0.5363078208114952
1789318106764340700,4.7373408203125,0.34189445206224917,-1.889534228429198,-0.9576913315869867
1789318106774294500,4.74729443359375,-0.16153203969299793,-0.3629997839331627,-0.8803984677437693
1789318106784248600,4.75724853515625,-1.5734405725777147,-0.6191062963336705,-1.5049078652299939
1789318106794203400,4.767203369140625,-1.4170359589010477,2.112412424966693,-1.4511308284655213
1789318106804157400,4.777157470703125,-1.501865282663703,2.25652629686892,-0.05746880395449697
1789318106814111500,4.787111572265625,-1.7396528790414332,-1.4166601113259791,0.8589847275108099
1789318106824065500,4.7970654296875,-0.5600958889603614,0.005523147335648537,1.4974047961235046
1789318106834019300,4.807019287109375,0.875998990675807,-1.1799497887909411,1.3495707346543668
1789318106843973600,4.8169736328125,2.175693349266052,1.0996323894947766,0.6933701677445322
1789318106853927700,4.826927734375,0.9358809201866388,-0.24086744221448897,-0.5858540881384163
1789318106863881500,4.836881591796875,-0.38227673133313655,1.4305594573408364,-0.7204860651418566
1789318106873835500,4.84683544921875,-1.7122434785902498,-0.07688274867236614,-0.5499528998043388
1789318106883789600,4.85678955078125,-0.7541700158178806,0.05978606792092323,-0.06288512991480529
1789318106893743600,4.86674365234375,-0.03295768222808838,1.615941743698716,1.7750766591221092
1789318106903697400,4.876697509765625,-1.9653917257070541,1.4725439111113547,2.0963116233848034
1789318106913651500,4.8866513671875,-4.458664000946283,2.1141490395009517,0.9277391147851943
1789318106923605500,4.89660546875,-1.9185013797163961,-0.84648881855309,0.5172312913544476
1789318106933559300,4.906559326171875,0.2969125700414181,-3.025377164468169,0.7467795402403921
1789318106943513600,4.916513671875,4.7179935670465225,-3.076939593923092,0.42064167943224307
1789318106953467600,4.926467529296875,8.105160555136203,2.127533421730995,0.3763832163151353
1789318106963422500,4.93642236328125,4.920238140878081,0.16824585811793802,-0.2741495340913534
1789318106973376500,4.94637646484375,0.041328035688400266,0.019041385078430173,-0.7305168260950595
1789318106983330600,4.95633056640625,-3.5051860492706295,-2.583773799419403,-0.8940887741178274
1789318106993284400,4.966284423828125,-2.9182465770483015,-2.298859125685692,-0.03190948834940791
1789318107003238400,4.97623828125,-3.438554645499587,0.5705553236544132,1.5518714225873351
1789318107013192700,4.986192626953125,-2.8066479043036696,0.5342378096044064,1.7509537329956888
1789318107023146800,4.996146728515625,0.052363224443793294,4.9572383764952415,1.6016908077672123
1789318107033100500,5.0061005859375,-0.687916797709465,1.1013888777732848,-0.27183431595154106
1789318107043054600,5.0160546875,-0.6568062046527862,-1.4453414314091204,-1.4917141832664609
1789318107053008600,5.026008544921875,1.3928706549376249,-1.4212743271231651,-1.0550050930652768
1789318107062962400,5.03596240234375,3.003148381525278,-3.9113106891810894,-0.511170603075996
1789318107072916500,5.04591650390625,4.111758442723751,1.3731354423761366,1.1828689641732721
1789318107082870500,5.05587060546875,1.596508728954196,1.173642797601223,2.54191881724745
1789318107092824600,5.065824462890625,-0.5205839627832174,-1.8376368679314852,2.253506510656327
1789318107102778400,5.0757783203125,0.25902035402059553,3.031546793013811,1.4011844559051096
1789318107112732700,5.085732666015625,-2.6889023993670937,-3.288952697575092,-0.010637421609461307
1789318107122686700,5.095686767578125,-3.0475246988683935,1.4804495696693658,-0.11176540761366485
1789318107132641500,5.1056416015625,-0.558567364218831,0.7003723746567964,-0.5621737181477249
1789318107142595600,5.115595703125,-0.3151999218821525,-0.896111219856143,0.664322936958447
1789318107152549600,5.125549560546875,0.8545061207920313,0.6747597944945096,1.2813959008336067
1789318107162503400,5.13550341796875,1.2301035204917192,-2.0624071618258952,0.9358215181495994
1789318107172457500,5.14545751953125,2.3264549886196852,-1.514821210348606,1.4090423297986387
1789318107182411500,5.15541162109375,3.2913620968043804,-1.150595099490881,0.7085065812736749
1789318107192365600,5.165365478515625,1.7835878823578357,-1.1215338401794432,0.5039975696414709
1789318107202319600,5.175319580078125,0.05990414134263992,0.2683335412889719,0.3984826007246971
1789318107212273700,5.185273681640625,0.0289046074450016,-1.0183423457741736,-0.632698256899789
1789318107222227500,5.1952275390625,1.5076251613646745,0.4777238952219486,0.04424903770163655
1789318107232181500,5.205181396484375,0.7146241873711348,-1.6476292598605156,0.358150663401559
1789318107242135600,5.215135498046875,-0.9951923563331365,-0.43437867449223994,0.05960303950421512
1789318107252089600,5.225089599609375,-2.0146739352703094,-1.4641484232097863,-0.2105959303304553
1789318107262043400,5.23504345703125,0.2763438292652368,-2.570461313381791,-0.14809928827658295
1789318107271997400,5.24499755859375,2.6254864505112168,1.0901812550604342,0.45182570305131375
1789318107281951500,5.254951416015625,0.5349930118858814,-1.8060896370232105,0.3308401202149689
1789318107291905500,5.264905517578125,-0.05483984369039535,0.3369347838282585,-0.10224705316200852
1789318107301860600,5.274860595703125,-0.08183598716557025,2.4801976896107196,0.1020031614035368
1789318107311814700,5.284814697265625,-1.4088532369673252,-3.2703561336547136,0.4212995588190853
1789318107321768400,5.2947685546875,0.5212012178987264,0.003497778987884521,0.744532345835492
1789318107331722500,5.304722412109375,0.48208793565034863,1.9550947880983351,0.18915829776525497
1789318107341676500,5.314676513671875,-3.509088317406177,-0.23459318425059317,-0.36440380551218987
1789318107351631000,5.324631103515625,-0.9571791442811488,0.8303776417076587,-0.45121487767659124
1789318107361585200,5.334585205078125,0.3903226751446724,2.009773303747177,0.9088657066848128
1789318107371539200,5.344539306640625,-0.6668254943639039,-0.7365911045074462,1.1921487606287002
1789318107381493000,5.354492919921875,-0.016197101563215254,1.572019015341997,1.0876502022128551
1789318107391447000,5.364447021484375,-1.6070564264535903,1.3633113829761743,0.8810271941013633
1789318107401401000,5.374401123046875,-2.54207809946239,2.349482812985778,-0.522872219850868
1789318107411355100,5.384355224609375,-0.5686620572537183,1.0150877278923989,-1.7684410204999148
1789318107421309200,5.39430908203125,-0.8040583745807409,-0.5376093318641185,-1.8767732387945055
1789318107431263200,5.40426318359375,0.6783043352335691,-0.014023849177360534,-2.232156702505052
1789318107441217300,5.41421728515625,0.7000456269204616,0.32999533995389935,-1.4012936153680084
1789318107451171000,5.424171142578125,0.30896774949431416,0.038677813440561294,-1.22599900778234
1789318107461126100,5.434126220703125,0.7458417479336261,0.4828256022751331,-1.0550316157460211
1789318107471080200,5.444080078125,0.03628361178040504,-0.7379805130392313,-0.759452267069742
1789318107481034000,5.454033935546875,-0.8268518056690692,-1.1747446213632822,-1.0476119871392846
1789318107490988000,5.463988037109375,-1.6211334671229123,0.07115443415343761,-0.6939386152822524
1789318107500942300,5.4739423828125,-1.6618272965610026,0.4195791647672653,-0.14339790565259755
1789318107510896000,5.483896240234375,0.539430702072382,1.5973574547380207,0.003366188497468829
1789318107520850200,5.49385009765625,0.5802525418043136,1.9586264693558215,-0.5397955898620188
1789318107530804200,5.50380419921875,-0.2368055996030569,-0.515368273961544,-1.0884835112318396
1789318107540758000,5.513758056640625,0.28311025466024875,-2.59998668307364,-0.9164308081768453
1789318107550712000,5.523712158203125,3.3987709166437385,0.27427403725385663,-0.5275444129129871
1789318107560666000,5.533666015625,4.132735764300823,0.9099415922880172,-0.3646291021680459
1789318107570620200,5.5436201171875,1.2830471751719712,0.24324819987118243,-0.31802809451278297
1789318107580574000,5.553573974609375,-2.004001150086522,-1.7153695016562938,-0.7683724364325404
1789318107590528000,5.563528076171875,-2.341249822169542,-3.406742626175284,-1.4388975159667432
1789318107600482300,5.573482421875,-0.3095768213033676,0.059952656659483905,-1.105816777218133
1789318107610436000,5.58343603515625,-0.8108025881439447,1.122138820335269,-0.6047280442280695
1789318107620391200,5.59339111328125,-1.8942180023312567,2.808193380180001,-0.7160846153125167
1789318107630345200,5.60334521484375,-1.1182032344520092,1.113977725711465,-0.8489626613207161
1789318107640299000,5.613299072265625,-2.0477982062369584,-2.9999188980847595,-0.612300817569904
1789318107650253000,5.623253173828125,0.2124240225404501,0.022480711877346037,-0.06570811491366475
1789318107660207000,5.63320703125,2.2951532569050785,-0.46667760055065155,-0.6049217767018824
1789318107670161000,5.643160888671875,2.8720073884427544,0.18147241943776607,-1.12749859380275
1789318107680115200,5.653115234375,1.545487566769123,0.24092121822834014,-0.8560459706451743
1789318107690069200,5.6630693359375,0.2397422375768423,-4.13818701544404,-1.4638503170460462
1789318107700023300,5.673023193359375,2.921725651335716,2.0929759030908346,-0.8736565922681242
1789318107709977000,5.68297705078125,2.0262293485075236,-0.5801841527432203,-0.4169024563712999
1789318107719931100,5.69293115234375,-0.6153437289297581,0.8264496546089649,0.08147219535447657
1789318107729885200,5.70288525390625,-3.999375926125049,-0.2837146502941847,-0.19084752949383108
1789318107739839000,5.7128388671875,-0.7577601492643355,-3.0135481949865817,-1.1520783237859606
1789318107749793000,5.72279296875,0.7584487160503863,2.0638503463715314,-0.22650058828573671
1789318107759748000,5.732748046875,-1.6349673466861248,-1.832577246454358,-0.9203550689484924
1789318107769702100,5.7427021484375,-0.5013607913970947,1.3333862003117798,-2.126394773089886
1789318107779656200,5.75265625,0.8777975645303726,0.19837386987805367,-2.04737048234418
1789318107789610200,5.7626103515625,1.4838614239394663,-0.11475041477382182,-1.333471832768619
1789318107799564000,5.77256396484375,1.0205231969445943,0.001270166066288948,-0.6834869985684752
1789318107809518000,5.78251806640625,0.4024970970630645,-1.7967431320071219,-0.6473989824254065
1789318107819472100,5.79247216796875,1.5620669456481933,0.7047627185702323,-0.448974551403895
1789318107829426200,5.80242626953125,0.10635784948170185,-2.5937591868609187,-0.6934885334271937
1789318107839380000,5.8123798828125,-1.4716525152295827,2.2747762393087148,-0.5627430059356615
1789318107849334000,5.822333984375,-2.0606407366752624,-0.9923474882960319,-1.9551482718512414
1789318107859288300,5.832288330078125,0.4767430674910545,0.08345219019055367,-1.6303586838468909
1789318107869242000,5.8422421875,0.7458844180315732,-1.7328654108583925,-0.027959910473413764
1789318107879196200,5.852196044921875,1.5216612855017184,1.2508826891481875,-0.14078892873059956
1789318107889150200,5.862150146484375,-2.192469127500057,3.083591453027725,-0.4894893344806507
1789318107899104000,5.87210400390625,-3.1103380056560037,-0.38879473492503164,-0.55048565497417
1789318107909059000,5.88205908203125,-0.5332581509172916,-0.7163900279998779,0.23392116674054414
1789318107919013000,5.89201318359375,-0.9217167857557534,-2.1168588829815387,0.7944437932129949
1789318107928967000,5.901966796875,1.164817101588845,1.8643986181288956,0.16576916580609977
1789318107938921200,5.911921142578125,0.30434067421555516,0.14243863216638564,-0.26874646947141734
1789318107948875300,5.921875244140625,0.20573241594731806,1.1489841571629047,-0.5395291940107941
1789318107958829000,5.9318291015625,0.7190648001670837,1.085177747684717,-1.4777354884050786
1789318107968783000,5.941783203125,0.06526069993972777,-2.1712053901970387,-1.255758770751953
1789318107978737200,5.951737060546875,1.2414052512288092,-0.13205986149311064,0.2526005135735497
1789318107988691200,5.961691162109375,1.4012807558864355,0.25527181514203545,1.7102354997687041
1789318107998645000,5.97164501953125,0.3450993855834007,1.926687024259567,1.6962296246394515
1789318108008599000,5.98159912109375,-1.5772814659148453,-1.6186328824788332,1.0041969160437583
1789318108018553000,5.991552978515625,0.8916098167836666,0.22345804225206373,0.27581257193274794
1789318108028507100,6.001507080078125,2.8154887978851795,0.8256897761523723,-1.0994674081914126
1789318108038461200,6.011461181640625,1.263793608647585,0.6366741017282008,-0.8968107464276254
1789318108048415200,6.021415283203125,-1.5561434008181094,1.3340969789296389,-0.880701615408808
1789318108058370000,6.0313701171875,-2.69260242292881,-2.671164498102665,-0.19592048537656664
1789318108068324000,6.041323974609375,0.12749357649087906,-1.1323118393033742,1.117239723182097
1789318108078278100,6.051278076171875,0.21708090843558311,-0.9991706123143433,0.9781295778512954
1789318108088232000,6.06123193359375,-0.7033084281086921,-0.2946750202476978,0.5176430870257318
1789318108098186000,6.07118603515625,0.6809224087774753,1.7570412362158296,-0.9518960893116891
1789318108108140300,6.081140380859375,1.2617431058585642,0.8029775936067104,-0.8429418666612356
1789318108118094000,6.091093994140625,-0.9129898739427328,0.17068565248548984,-0.6312852482967078
1789318108128048000,6.101048095703125,-3.583269405904412,-0.8599252232313156,-0.9201263747591525
1789318108138002200,6.111002197265625,-1.2605354836344718,-1.3920330350697039,0.6638644526012242
1789318108147956200,6.120956298828125,0.13060089485645293,-1.07782446231246,1.8008808163337409
1789318108157910000,6.130909912109375,1.088427104869485,0.6562497398138046,2.0328093114197254
1789318108167864000,6.140864013671875,0.3986784155577421,-1.0846171911925078,1.229560061264783
1789318108177818000,6.150818115234375,1.3205226270854473,-0.2406178513675928,-0.02213387120105326
1789318108187772200,6.160772216796875,2.677228328186273,0.9028186085402965,-0.1496416954129934
1789318108197727200,6.170727294921875,1.2358388492733239,-1.1346575256466864,0.26196057219095525
1789318108207681300,6.180681396484375,-0.42649581228792666,1.7219576478749512,0.5138908218201249
1789318108217635000,6.190635009765625,-4.471042421004176,-1.9591455247938632,0.017237221733294426
1789318108227589000,6.200589111328125,-2.9171967757344244,1.0244073449015616,1.1825539799399674
1789318108237543200,6.210543212890625,-0.8209376131892204,1.9331611887097357,1.6087858805947004
1789318108247497000,6.2204970703125,-1.4186433940976857,-1.6557891854405402,0.08730104763843119
1789318108257451000,6.230450927734375,0.9011381081074475,3.2617659999638793,-0.1547756242353469
1789318108267405000,6.240405029296875,1.278170509046316,-2.2348364431083203,-0.37986367884203787
1789318108277359000,6.250359130859375,3.5304479162991047,-0.46192836019694805,-0.26770496106185016
1789318108287313200,6.260313232421875,4.491268631953001,-1.6898182962924242,-0.2568061851024628
1789318108297267200,6.27026708984375,4.1120150478333235,-2.60151579233706,0.36388138907328244
1789318108307221200,6.28022119140625,2.6517081024825573,-1.212432839244604,0.7752581042930483
1789318108317175000,6.290175048828125,0.35270986058712006,1.02677933472991,0.10673808097094296
1789318108327129000,6.300129150390625,-3.588248947882652,-1.8798124603599309,0.33419578731842337
1789318108337083100,6.310083251953125,-1.98065476129055,-0.88304306396842,0.09988923798948526
1789318108347037400,6.320037353515625,-0.35398178021907806,0.5421498979032039,-0.20507073716819285
1789318108356991500,6.329991455078125,-1.9770833325445651,1.1376835954695939,0.23345132073909042
1789318108366945500,6.339945556640625,-1.0364444041758776,2.3844833992183205,-0.7144777646377682
1789318108376899600,6.349899658203125,-0.5991887129426002,-1.6813292848885057,-0.5777717578392475
1789318108386853400,6.359853271484375,1.2951613913357256,-1.303827512872219,-0.18856486191675065
1789318108396807400,6.369807373046875,4.076985235506296,0.28440380160212514,-1.0668254408489912
1789318108406761500,6.379761474609375,2.0073948841780425,-0.8389853110551834,-0.4640845153175294
1789318108416715300,6.38971533203125,-0.9892881007254123,0.36890520858466624,-0.5027086258094757
1789318108426669600,6.399669677734375,-2.1639368604987856,1.3003209660559891,-1.1044616362821311
1789318108436623600,6.40962353515625,-1.6668413253307341,-1.4767448699325323,-0.4530805254179984
1789318108446577700,6.41957763671875,-3.2144489529937506,3.0957991926938293,0.3198687904760241
1789318108456531500,6.429531494140625,-5.501981213501096,2.377632218149304,-0.8360534953869879
1789318108466485500,6.439485595703125,-4.036494235163927,0.4918932903498411,-0.7180864566542208
1789318108476439600,6.449439453125,-0.40301965963244435,0.06780161659419537,0.22012254115380345
1789318108486394400,6.459394287109375,1.3485948753595352,-1.4395815527081488,-0.9463673890180885
1789318108496348400,6.469348388671875,4.524333281686902,2.0272586915552613,-1.0700714370328932
1789318108506302700,6.479302734375,4.540408218175172,3.185851804062724,-1.219860505027324
1789318108516256500,6.489256591796875,1.0256377634793519,-0.8762877444893121,-2.2597873444914818
1789318108526210600,6.49921044921875,-1.4367828619003296,-1.988387401369214,-1.1404830899950116
1789318108536164600,6.50916455078125,-1.6636930904328822,-0.39408699611425396,-0.1858761708220467
1789318108546118400,6.519118408203125,-4.804259061092138,-0.047827334579825395,-0.26257358952276405
1789318108556072400,6.529072509765625,-2.9503952809810636,1.4835919593483209,-0.22740002134349196
1789318108566026500,6.539026611328125,0.5787129111468792,1.1425988400399685,0.3763895729906857
1789318108575980500,6.54898046875,0.89199501670897,1.5647855569571256,0.3733943732300773
1789318108585934300,6.558934326171875,1.305651221168041,0.8874398376226424,-0.6855868934571743
1789318108595888400,6.568888427734375,0.7035527582585811,-1.53236329677999,-0.6639639674529433
1789318108605842700,6.5788427734375,1.6158324381053446,-1.934005822840333,0.6004623861402273
1789318108615796500,6.58879638671875,2.8305168556690212,-0.733266343998909,1.1361613543383777
1789318108625751600,6.59875146484375,1.6405255653351545,-0.35158465594947336,1.0592563207689671
1789318108635705300,6.608705322265625,-0.45913902173936366,-0.36481764701008795,0.2411262027485296
1789318108645659400,6.618659423828125,-1.594624814903736,-0.48953766713440416,-0.6347115694835782
1789318108655613400,6.628613525390625,-0.6491653345108032,1.0835299804776906,-0.6994470765054226
1789318108665567500,6.6385673828125,-0.8225929791808128,1.8194360253304243,-1.4512316584914922
1789318108675521500,6.648521484375,-3.4540181720912453,-0.504226702222228,-1.7153608799584208
1789318108685475600,6.6584755859375,-0.8751496803700923,-0.8759814550191164,-0.690030209666863
1789318108695429600,6.6684296875,-0.5753016413986682,-2.357645076653361,0.30928160121645776
1789318108705383400,6.678383544921875,1.3603145392477511,0.12099018594622611,0.4385122306330129
1789318108715337500,6.68833740234375,2.0437492231070995,1.165486963674426,-0.3011869228923693
1789318108725291500,6.69829150390625,-0.046451954573392865,-1.1107751302778721,-0.5755718366421759
1789318108735245600,6.70824560546875,0.02458206807076931,1.0666858131825923,-0.6908313699819147
1789318108745199400,6.718199462890625,0.016190671822428702,-3.4394524711221455,-0.7732214838989079
1789318108755153400,6.7281533203125,2.146926104465127,1.4081751915752887,0.3765087423909455
1789318108765108500,6.7381083984375,0.8387713760435581,0.4209902006089687,0.5923555059216916
1789318108775062500,6.7480625,-2.1170997060000896,-1.5509540154814718,0.97660346426256
1789318108785016600,6.7580166015625,-1.49552964990139,1.6080051054805515,1.0753382715199142
1789318108794970600,6.767970703125,-0.30453473548293114,-2.785015333688259,0.10430106308236718
1789318108804924400,6.77792431640625,1.5412065284490584,-1.6477239524066447,0.3419319345284253
1789318108814878500,6.78787841796875,2.7522797697782515,1.9486340676516294,0.5798403808068484
1789318108824832500,6.79783251953125,0.8694535145550966,0.5164385335415601,-0.36581798315905034
1789318108834786300,6.807786376953125,-1.063586678123474,1.2970587493896484,-0.8680620601966976
1789318108844740400,6.817740234375,-0.29475568426847454,-0.9970423681139945,-1.0918618285585193
1789318108854694700,6.827694580078125,1.5518372280567883,-1.9983651900261639,-0.6545517037242651
1789318108864648700,6.837648681640625,2.3061925373136996,0.7558201211124658,-0.7966779820058494
1789318108874602500,6.8476025390625,-0.013303133687376975,-0.47574295053780075,-1.4252099130064249
1789318108884556500,6.857556640625,-1.1077847162902354,-2.0645757380366323,-1.2081080348480493
1789318108894510600,6.867510498046875,1.1901426815032958,0.07415069335997104,-1.2349486224353312
1789318108904465400,6.87746533203125,0.42232291051745413,-1.8154653681337833,-0.8904172459982335
1789318108914419500,6.88741943359375,-1.5528127950906752,2.7610230482041835,-0.11566460700929164
1789318108924373500,6.89737353515625,-3.6254099270194766,-1.701170880433917,-0.7541758610367775
1789318108934327600,6.90732763671875,0.5392652823776006,-0.21262977424561977,0.2504137075863778
1789318108944281600,6.917281494140625,2.554550627544522,3.177628750118613,1.0777208558075129
1789318108954235600,6.927235595703125,-1.2878045988321303,-1.0453495951652527,-0.21139899034164844
1789318108964189400,6.937189453125,-3.5408208417534826,1.8115812201768158,-1.4083593159705399
1789318108974143500,6.9471435546875,1.4532693017989395,0.19928864663541315,-0.6707700672712177
1789318108984097500,6.95709765625,2.956689412689209,-1.048838021802902,0.9772877932649106
1789318108994051600,6.967051513671875,2.6796453262001276,0.18013094170093535,1.4310624384269117
1789318109004005400,6.97700537109375,-2.8976339971303937,0.43249417591989037,1.2300710795268415
1789318109013959400,6.98695947265625,-5.115723888099193,0.02944529019296169,0.21918635628223418
1789318109023913500,6.99691357421875,-0.11960428454577922,0.573062338039279,1.697308652047813
1789318109033868500,7.00686865234375,-0.5381786561846733,0.8015139507949351,1.7498931180268524
1789318109043822600,7.016822509765625,-0.8841255985081196,0.8496990127712488,1.0682160184245555
1789318109053776400,7.0267763671875,-3.9127106191068886,0.8507417998224497,0.9346806044861674
1789318109063730400,7.03673046875,-0.2575356684207916,1.0098059880971908,-0.05987279635630548
1789318109073684500,7.0466845703125,0.44542380011975763,-2.373602524241805,0.666516720675677
1789318109083638500,7.056638427734375,2.7919898488759993,0.1586357337296009,0.11890322360433637
1789318109093592300,7.06659228515625,3.263452930137515,-1.3307844933807849,-0.38964601799212395
1789318109103546400,7.07654638671875,2.572076931884885,-2.0099813935399053,0.1932455670788884
1789318109113500700,7.086500732421875,3.41497503246963,0.31281682613790035,0.733508628322184
1789318109123454500,7.096454345703125,2.267729827928543,1.0080231963336468,1.3197393677532672
1789318109133408500,7.106408447265625,-0.7811872020810842,1.658484415873885,0.7713936839498579
1789318109143362600,7.116362548828125,-3.7495004170686004,-3.3876801983088254,-0.26979747636169193
1789318109153316600,7.126316650390625,-1.2690297557353973,-0.7214958267062902,-0.40304114081189035
1789318109163270400,7.1362705078125,-3.455982750162482,0.7070838549941778,0.5170218863874674
1789318109173225500,7.1462255859375,-3.9654052674621343,4.818039164641499,-0.18684023008123038
1789318109183179300,7.15617919921875,-2.1729344059467315,-0.9413064523667096,-0.6124954998917878
1789318109193133600,7.166133544921875,-0.21691022804379462,-0.719377519378066,1.9342565827310083
1789318109203087600,7.176087646484375,3.8264877951592204,-3.090451401925087,1.4883997980214654
1789318109213041700,7.186041748046875,8.077218070721626,1.5407061777114868,1.0299518272861838
1789318109222995500,7.195995361328125,5.5893613907903426,4.955083828809857,1.1712829366020858
1789318109232949500,7.205949462890625,-5.262784919369221,-4.593592111352086,-0.33520138416439293
1789318109242903600,7.215903564453125,-3.5701691013127563,1.0846177757143973,-0.41473355136699974
1789318109252857300,7.225857421875,-1.8037129710197448,-3.6022359721809623,0.4553904097955674
1789318109262811400,7.235811279296875,-1.8189806827783583,-2.953309707123041,2.066582547814399
1789318109272765400,7.245765380859375,1.4914280598014593,2.8411189137041566,2.5445903745442626
1789318109282719500,7.255719482421875,0.12835107010304928,3.885248027163744,1.767818358556926
1789318109292673500,7.265673583984375,-0.49349020415246486,3.6355800233781337,-0.7403171392932534
1789318109302628600,7.275628662109375,-0.693121965137124,-2.5690660596311092,-2.07665152188614
1789318109312582400,7.28558251953125,-1.7889000172913074,-5.186998733761906,-1.0120786092042922
1789318109322536400,7.295536376953125,1.5203180541992187,-2.5251912620693444,-0.6194232533283531
1789318109332490500,7.305490478515625,4.3075405425429345,-1.0504074630767106,0.5329042229130864
1789318109342444500,7.315444580078125,4.161772473692894,2.0772557713896034,1.8568692455373703
1789318109352399000,7.325399169921875,0.9922773456692695,0.9709288526922464,0.8867071394339203
1789318109362353200,7.335353271484375,-1.7192063033401965,-2.56891525298357,-0.6483150012917817
1789318109372307000,7.345306884765625,-1.0871002401798964,-1.2890852862924336,-1.0589780152842403
1789318109382261200,7.35526123046875,-0.1957102036267519,0.3811632171332836,-0.2807416258327663
1789318109392215300,7.36521533203125,-1.804053747281432,-0.6044020636767149,0.9558414659366011
1789318109402169300,7.37516943359375,-2.271830248984694,0.6208657072216271,1.5439109651021659
1789318109412123100,7.385123046875,0.40679216390848155,-1.402120713841915,0.7157321486130357
1789318109422077200,7.3950771484375,0.18881752150356768,0.33316286407411094,-0.06614836949445307
1789318109432031200,7.40503125,0.6697615478157997,1.9487351899385452,-0.7107975417550653
1789318109441986000,7.414986083984375,1.6376865425169467,0.5324205310493707,-1.068586678367853
1789318109451940000,7.424940185546875,2.3084704191178083,2.000042183327675,-0.22752280747294423
1789318109461894400,7.434894287109375,-2.374924712756276,-1.2566156798422337,0.22817893329411743
1789318109471848200,7.44484814453125,-5.872156588152051,-1.175558275833726,0.286005610775575
1789318109481802200,7.45480224609375,-0.0011357260316610335,1.184724748107791,1.160066911387071
1789318109491756300,7.46475634765625,-0.07259586513340473,0.7411170574992895,1.5230027632385492
1789318109501710000,7.4747099609375,0.545672811332345,2.366023028898239,0.8642742122210562
1789318109511664000,7.4846640625,-3.3060213212758303,2.116575389865041,0.4481804784167558
1789318109521618200,7.4946181640625,-1.8419307657331228,-0.5880564935535192,-1.0717353516571224
1789318109531572200,7.504572265625,1.1370593260914086,-0.7097925294309854,-0.4621957058962434
1789318109541526000,7.514526123046875,1.0417962865978478,0.24669044927954673,-0.32053127297274764
1789318109551480000,7.52447998046875,0.40344285348057746,-1.4451912092834711,-1.6199299365520476
1789318109561434400,7.534434326171875,0.763115538817644,0.8022194687157869,-1.32214964376539
1789318109571389200,7.54438916015625,1.777110210776329,-0.458259900817275,-0.7079843840304761
1789318109581343200,7.55434326171875,2.555891520759463,0.7064800438821315,0.16360095492154358
1789318109591297000,7.564297119140625,0.4001099096655845,1.3717618159353733,-0.033743352713063356
1789318109601251000,7.5742509765625,-3.358488006094098,-2.8201749098747966,-0.7325324037011712
1789318109611205000,7.584205078125,-0.7022901909768581,1.159777938377857,-0.6320716494340449
1789318109621159200,7.5941591796875,-0.3106266226172447,-0.44914545099139214,0.015474194116145371
1789318109631113000,7.604113037109375,-1.220747078603506,1.6540455566436052,0.18058306938260793
1789318109641067300,7.6140673828125,-2.2074498390108346,1.4506442139923572,-0.5460314885769039
1789318109651021300,7.624021240234375,-1.2573819880396127,-2.7523171791791916,0.5469054949324578
1789318109660975000,7.63397509765625,1.1038187352687119,-1.1463684217065573,1.9081795999273656
1789318109670929200,7.64392919921875,3.7289872058719395,-0.8201759811669588,1.1799684934914112
1789318109680883200,7.65388330078125,4.084898492848873,1.1018266846686602,0.32902496055178343
1789318109690837200,7.663837158203125,1.9809657269358634,1.5092267513424158,-0.1420899648591876
1789318109700792000,7.6737919921875,-1.1697872912168503,-1.1750257763922214,-1.1893247161839156
1789318109710746000,7.68374609375,-1.6384990279436111,0.050664603832364076,-1.596292163594067
1789318109720700200,7.6937001953125,-1.108807629597187,-3.1763182520419355,-1.3001950015887618
1789318109730654200,7.703654296875,0.6295593012869358,2.1928040585428477,-0.03569185643233359
1789318109740608300,7.713608154296875,-2.029385766711831,3.588800736546516,0.0731931734394282
1789318109750562300,7.723562255859375,-2.7912048359781503,0.7308949386924505,-1.3570514457985758
1789318109760516000,7.73351611328125,0.09626841714382171,0.6294856515288353,-1.012174543859437
1789318109770470100,7.74347021484375,0.33891397494673725,-3.290657747927308,-0.8301399604942649
1789318109780424200,7.753424072265625,4.258534811833501,-0.2073603094100952,-1.219003815132752
1789318109790378000,7.7633779296875,4.671768406966328,2.1791426129370928,-1.1594701145377009
1789318109800332000,7.77333203125,-2.0521885501503943,-1.4593886614620686,-1.3401394739642738
1789318109810286000,7.7832861328125,-5.171896441698074,-1.4174930550187825,-1.3752128331720828
1789318109820240400,7.793240478515625,-1.396747788631916,-1.1662228767335414,-0.27429018467105926
1789318109830195200,7.8031953125,-0.5828484035164118,-3.3795261179476976,0.6380759313501417
1789318109840149200,7.813149169921875,5.541354023468494,4.52897964618802,0.7808249446399509
1789318109850103000,7.82310302734375,2.971954786360264,4.848895490676164,-0.28626309266798194
1789318109860057000,7.83305712890625,-9.338071534264087,-1.8921862042427062,-4.177108574512601
1789318109870011100,7.84301123046875,0.7370370947092771,-1.218508944287896,-4.740962939223647
1789318109879965200,7.852965087890625,2.4226158537358042,-5.103097046238184,-1.0358777102038264
1789318109889919000,7.8629189453125,6.1194882579445835,0.10347849465310573,0.1959730192814022
1789318109899873300,7.872873291015625,6.951870809733867,4.339009447517991,-0.411361517650634
1789318109909827300,7.882827392578125,-3.439073116415739,-2.264549444326758,-1.1370720394425093
1789318109919781000,7.892781005859375,-3.4204596013605593,-0.6919423999637365,-2.926632712599635
1789318109929735200,7.902735107421875,1.1905319730818271,-0.6377624814867973,-2.4723130738407373
1789318109939689200,7.912689208984375,-1.4181325219660996,0.23067221141457556,-0.11782068906463682
1789318109949643000,7.92264306640625,-0.6833411603569984,1.8907786755323408,-1.0681958524193613
1789318109959598000,7.93259814453125,-4.077281003582478,1.3285621411561965,-0.026751594129577276
1789318109969552400,7.942552490234375,-1.4024053760021924,3.156173874157667,1.726963785599172
1789318109979506200,7.952506103515625,-0.08327975623309612,-0.6459083785414695,-0.08528455671686679
1789318109989460200,7.962460205078125,-1.5289251390248537,-1.5350456677317619,-0.37869642516095187
1789318109999414300,7.972414306640625,0.8833212963879108,-0.16570026528835297,-1.0331187668845057
1789318110009368000,7.9823681640625,2.346847203785181,-0.8423235155671834,-1.6303450937129556
1789318110019322000,7.992322021484375,2.3021306947022677,2.243521853867173,-0.021681853117235004
1789318110029276200,8.002276123046874,0.8224521094053984,-1.0937982765138148,-0.05597082048170268
1789318110039230200,8.012230224609375,1.0257166739344596,1.6766729835152625,-0.04311842623651027
1789318110049184000,8.02218408203125,-1.1831249116957188,-1.2583148849755526,-0.5372664732431992
1789318110059138000,8.032137939453126,-2.2169705315500496,-0.9636772741287946,-0.6631894759491086
1789318110069092400,8.04209228515625,-3.3997558360278606,4.368784992578625,-0.35236429855246093
1789318110079047200,8.052047119140624,-4.041839103323221,-0.4725456158012151,-1.127668105150759
1789318110089001200,8.062001220703126,-1.224281097948551,2.912619384816289,0.28409493658235296
1789318110098955300,8.071955322265625,-1.0646768114477396,-4.404457778984308,-0.11774890247005969
1789318110108909000,8.081908935546876,2.4983120229721067,2.59683435652256,-0.3780308008590713
1789318110118863000,8.091863037109375,3.9714509773671627,1.0328659611672162,-0.9823979028202593
1789318110128817200,8.101817138671874,3.9835546721369024,0.7928729636996984,-1.4228271095231175
1789318110138771000,8.11177099609375,0.604661006873846,-1.6790747839599847,-0.8027188696052878
1789318110148725200,8.121725341796875,-1.9087264201551675,-4.470712750658393,-0.44563981749061493
1789318110158679300,8.13167919921875,0.6623790363490581,2.0987001259565354,0.6196120538987219
1789318110168633300,8.14163330078125,0.7686158897995948,-0.11061316883862019,0.7407756967157125
1789318110178587100,8.151587158203125,-0.4699766420960426,1.9368097743451593,-0.0026565971896983682
1789318110188541200,8.161541259765626,-4.2178813144057985,1.9332722478687763,-1.5019571987308562
1789318110198495200,8.1714951171875,-0.8188648985683917,1.2603817543774842,-2.793795436993241
1789318110208450000,8.181449951171874,-0.8886737633317708,-0.6235854875743388,-1.1997203649267554
1789318110218404000,8.191404052734375,0.5035048176884651,-0.8387029869824647,-0.0849158421354834
1789318110228358100,8.201358154296875,2.4400924737155436,-1.8512287554323672,-0.519711856123805
1789318110238312200,8.211312255859376,3.094965079957247,0.49778001030087465,-0.11766533410614356
1789318110248266200,8.221266357421875,2.0135458080232143,0.43079906243979926,-0.4845665641909465
1789318110258220300,8.23122021484375,-0.401375399556756,-2.372817511343956,-0.8957108223617076
1789318110268174000,8.241174072265625,-0.5429191287100315,1.1676619696259498,-0.5280663544278592
1789318110278128000,8.251128173828125,-1.7060136442899703,-2.741411754283309,-1.4165304935969412
1789318110288082200,8.261082275390624,-3.260602216881513,3.113183458214998,0.06068145499122329
1789318110298036200,8.2710361328125,-2.0637620835661887,1.6545464919030666,0.4473670066094026
1789318110307990000,8.280989990234374,-0.4706663779258728,-1.10296474878788,0.05692377382498234
1789318110317944000,8.290944091796876,-0.3686474344313144,-0.796814394801855,-0.3308248495806008
1789318110327899100,8.300899169921875,1.9093641335368154,-1.856180824881792,-2.0640416311599314
1789318110337853200,8.310853271484374,3.5694355263412,0.5726777226358651,-1.47769997870028
1789318110347807200,8.32080712890625,3.1928543763011694,0.4085696949750185,-0.4051423874074593
1789318110357760800,8.3307607421875,1.2592612259149552,-3.090406393739581,-0.747242189316079
1789318110367714600,8.340714599609376,0.13089198675751684,-2.297041847130656,0.031192864512652158
1789318110377668600,8.350668701171875,-0.10907938340008258,-2.208139574840665,0.7819695846304296
1789318110387622700,8.36062255859375,0.5543763422697782,1.2467495348662136,0.5990510580375791
1789318110397576400,8.370576416015625,-1.3665075486689806,2.4755858119010923,-0.23223620932828634
1789318110407530500,8.380530517578125,-3.679403383013606,0.5110843130320311,-1.7401460693858564
1789318110417484800,8.39048486328125,-3.127079881620407,1.1016297007918356,-1.1067715937249363
1789318110427438800,8.40043896484375,-3.9731133576214313,-1.7310440406501293,-0.4712106408704072
1789318110437392600,8.410392578125,-1.3604296900600195,-1.6947002231150865,-0.040232038878928865
1789318110447346700,8.4203466796875,1.5804197639405726,1.50118080753088,0.8786147261321544
1789318110457301500,8.430301513671875,4.083585072162747,0.73940031670928,0.39707609492763873
1789318110467255600,8.440255615234374,4.360955321866274,1.4969687427937983,-0.5285290765687823
1789318110477209600,8.450209716796875,1.9195757309496402,-0.3053898910075426,-1.7244287141636012
1789318110487163600,8.46016357421875,-0.057951838231086725,-1.3606705130785703,-1.571244085446745
1789318110497117700,8.47011767578125,-0.6691723497509956,2.107079831767082,-0.5761040438227355
1789318110507071700,8.48007177734375,-4.407164699855446,-2.7407337088912724,-0.44698063764031976
1789318110517025800,8.49002587890625,-3.130737235084176,1.9324696993142365,-0.037694556290563196
1789318110526979600,8.4999794921875,-2.9884301203429695,3.0405069290608164,-0.3151299984510988
1789318110536933600,8.50993359375,-3.085307024773955,1.4491718033522367,-0.8867239444382489
1789318110546887700,8.5198876953125,-0.3533072419583797,2.5613550468623636,-1.3563754462331532
1789318110556841700,8.529841796875,-0.8363502863764762,-2.3102917893260715,-1.1916804124645888
1789318110566795500,8.53979541015625,1.8338374756485223,-1.0403343973517418,-0.8751637088954448
1789318110576750800,8.549750732421876,4.3811026223599905,0.38330899699032306,-1.0182729337997733
1789318110586704600,8.55970458984375,2.626892810177803,-1.2640987290740013,-0.3959888842128217
1789318110596658700,8.56965869140625,0.7846656918466091,0.2708960852533579,-0.30168186680246145
1789318110606612700,8.57961279296875,-0.19738602788448334,-0.9369488416790962,-0.7071926491308957
1789318110616566800,8.58956689453125,0.10665069494843482,0.2966144638776779,-0.06824459285503252
1789318110626520600,8.5995205078125,-1.1089777254670858,1.339918816950917,0.293605911445152
1789318110636474600,8.609474609375,-4.185957651400566,0.8769061686486005,-0.5951577769260853
1789318110646428700,8.6194287109375,-0.4705921436458826,1.2332570160865783,-1.3044140805885196
1789318110656382500,8.629382568359375,-0.9315759164690971,-0.24500819528102874,-0.12948696966464632
1789318110666336800,8.639336669921875,0.20319851355552673,-1.6667448792189359,-0.44065446682609616
1789318110676290800,8.649290771484376,2.9117151294529435,-1.0731640692859887,-0.7628796842351555
1789318110686244600,8.65924462890625,2.8637866725862025,-0.054447044980525966,0.03968413180573843
1789318110696199700,8.66919970703125,0.37666064501702784,-0.1353074651122093,-0.02412499935249798
1789318110706153700,8.67915380859375,-1.9438930106043815,-1.239322599735856,-0.1521117753209546
1789318110716107500,8.689107421875,-0.4917793085813522,-0.7390554487943649,-0.5894923350429162
1789318110726061600,8.6990615234375,1.336398241609335,0.20152911903858184,-1.0453297214210033
1789318110736015600,8.709015625,-1.476495279085636,2.8332249455839396,-0.6441963139265775
1789318110745969700,8.7189697265625,-5.787101054418087,1.6342705965936184,-1.454720523520559
1789318110755923700,8.728923828125,-0.28432664471268654,-0.3834066121459007,-1.7580450064308941
1789318110765877800,8.738877685546875,-1.3101438564121723,-2.819768082639575,0.1671391024524346
1789318110775831800,8.748831787109374,1.5073270552009344,-0.4852823477774858,0.08720847398415207
1789318110785785600,8.75878564453125,3.8674668712794777,1.430218681079149,-0.8494969873931258
1789318110795739600,8.76873974609375,3.3989217232912776,0.4256207830190658,-0.24036846145009622
1789318110805694500,8.778694580078126,3.7303947345823047,-0.8205565049171447,-1.0719210834875703
1789318110815648500,8.7886484375,2.924098810207844,-2.280392910146713,-1.1396504385631532
1789318110825602800,8.798602783203124,1.6551643315404652,0.8881985470354556,-0.8908592176120728
1789318110835556900,8.808556884765625,-3.3761060803711413,-0.5676666164755821,-1.202050926766172
1789318110845510700,8.8185107421875,-3.9424931784301993,-1.0388491272300482,-0.6116689859397709
1789318110855464700,8.828464599609376,0.11784253557026386,0.770174809679389,0.39397516977023334
1789318110865418800,8.838418701171875,-2.145511561492085,-0.3089759328007698,0.2528195996843278
1789318110875372500,8.84837255859375,-4.380238699007034,1.3685305789291857,-1.2954070366598665
1789318110885326600,8.85832666015625,0.05703063173294067,-1.2022335167914628,-1.7784418977715073
1789318110895280600,8.86828076171875,2.973984830883145,0.03965981021523476,-1.1252307950012386
1789318110905234700,8.878234619140626,4.436441647744179,-1.4958733487725258,-1.5351654947191475
1789318110915188500,8.8881884765625,3.7364042041301726,0.17812778518497943,-0.8986777824085205
1789318110925143800,8.898143798828125,1.200681611174345,-2.493745737969875,-1.0053047311551868
1789318110935097600,8.90809765625,2.257058211788535,-1.5111767163664103,-0.5660266672488302
1789318110945051600,8.9180517578125,2.9802357079714534,2.0173539681345223,0.8912700634352863
1789318110955005700,8.928005615234374,-1.7800538630127907,-0.1418207925289869,-0.0374431205464527
1789318110964959700,8.937959716796875,-8.368774082165956,1.5949702673405408,-2.177406436794251
1789318110974913500,8.94791357421875,-2.744768663495779,1.007994554761052,-2.199750078288466
1789318110984867600,8.95786767578125,-3.4108196663558483,0.8557780404239892,0.4120634553749114
1789318110994821600,8.967821533203125,-1.4500275433987377,2.359341943699121,0.005171447821147739
1789318111004775700,8.977775634765624,-0.5135761298477649,0.5870008470207453,-0.4846620969872921
1789318111014729700,8.987729736328125,0.4360451463997364,-2.2247937725216147,0.3699301677182317
1789318111024683800,8.997683837890625,4.386753779989481,1.5632430036902427,0.22531671226341277
1789318111034637600,9.007637451171876,3.354593336743116,-0.5713327377676963,-0.4481976852798834
1789318111044592600,9.017592529296875,0.28695582417249677,2.0541244866490365,0.23831110879518091
1789318111054546700,9.027546630859375,-2.6989894936174155,0.7197586276501416,0.24783676977045832
1789318111064500500,9.03750048828125,-2.954680410954356,-1.1533651487261056,0.8043003666430711
1789318111074454500,9.04745458984375,-0.8205021443814039,-0.41910511751472945,1.2173311326801777
1789318111084408800,9.057408935546874,-0.9806319160610437,2.554047354197502,0.798722274249792
1789318111094362600,9.067362548828125,-2.4215327346742153,3.097522947746515,-0.11783972255866974
1789318111104316700,9.077316650390625,-0.8302046232283115,-1.5473814176917076,-0.8974071048855781
1789318111114270700,9.087270751953126,1.2626619742691516,-0.8360983574420213,-0.7444657834053039
1789318111124224800,9.097224853515625,2.9701497827649113,-1.6197341217190027,-0.3906720365716144
1789318111134178600,9.107178466796874,3.308104557290673,0.26714111663401124,0.0572245834024623
1789318111144132600,9.117132568359375,1.8480244064331053,-0.5205091439813375,-0.7097423336137085
1789318111154087400,9.12708740234375,0.36199791341423987,-0.8250994090437889,-1.185686140485853
1789318111164041700,9.137041748046874,-0.38783962615728373,2.572180392259359,-0.701870431194827
1789318111173995800,9.146995849609375,-2.4575310997724533,-0.44668519835770126,-1.994692200601846
1789318111183949800,9.15694970703125,-2.212228889980912,2.41529471706748,-2.024507347020507
1789318111193903600,9.166903564453126,-2.4456612137585876,-1.2443091559767723,-1.0414335907652974
1789318111203857700,9.176857666015625,-1.4729858096599577,-0.2447825698316097,0.03433982076887041
1789318111213811700,9.186811767578124,-0.32550679636299606,-0.5865501806437969,-0.1392403841143474
1789318111223765500,9.196765625,1.0588941363930702,0.40573476381003853,-1.003962522765994
1789318111233719600,9.206719482421875,2.657126035878062,-0.000713116705417633,-0.9374287341505289
1789318111243673600,9.216673583984376,3.6140807237535713,-0.5837842230618,-0.14572075910959392
1789318111253628000,9.2266279296875,3.2898879325985906,-1.1493687725663184,-0.6427383702032268
1789318111263581700,9.236581787109374,0.6147966164410114,-1.4521306531578302,-0.45388873652834444
1789318111273536800,9.246536865234376,-2.594844059488177,0.7075117250174283,0.08195402405466884
1789318111283490600,9.256490478515625,-2.5827503015905617,-2.141028863120079,0.07218669981062412
1789318111293444600,9.266444580078126,-0.22143267390429971,1.5814964532613753,0.8165844594810158
1789318111303398700,9.276398681640625,-0.7130348723530769,-0.015371756654977798,0.14583755388967692
1789318111313352700,9.286352783203125,-2.9960452715218064,0.4278489804625511,-0.21153872760590164
1789318111323306500,9.296306396484376,-1.645996105700731,0.43301966109871864,-0.6514964808721095
1789318111333260800,9.3062607421875,1.289438922035694,-2.6478023272156714,-0.8033490572676062
1789318111343214800,9.31621484375,3.5066368326008317,1.3355331492125988,0.11574377319272607
1789318111353168600,9.326168701171875,2.6949399259656666,-2.1145295632511374,-0.29174304018272085
1789318111363122700,9.336122802734375,2.0733190164625643,-2.37249310169518,0.21977944507086647
1789318111373076700,9.34607666015625,3.579724280643463,-0.3228267634987831,0.18744298174735158
1789318111383030500,9.356030517578125,3.322003318783641,-0.4873340196102857,0.2678988213998265
1789318111392985900,9.36598583984375,0.7088093636125326,2.0012059664100406,0.5488152740765363
1789318111402940000,9.37593994140625,-5.67068182964921,-2.52333423602581,-1.5466417052403092
1789318111412893700,9.385893798828125,-4.372967246699333,0.5881991168946027,-1.7027369607068596
1789318111422847700,9.39584765625,-2.2328777102559805,1.7995745560407637,-0.7748626021694391
1789318111432801800,9.4058017578125,-2.4462936664432284,0.32515257609784604,-0.1799352547320537
1789318111442755600,9.415755615234374,1.2025076575577258,3.3986575193971396,-0.36932171696368604
1789318111452709600,9.425709716796876,0.9835586171627044,-1.0517553705543279,-0.6919080593027174
1789318111462663700,9.43566357421875,2.4765268921434878,-0.9168371970206498,-0.20743730190275236
1789318111472617700,9.44561767578125,3.6440018147647377,1.6359376530230045,-0.838362064590305
1789318111482571800,9.45557177734375,0.5195464364290238,-2.741131768298149,-0.9074106125056743
1789318111492525800,9.46552587890625,-0.611792758449912,2.5496371365398165,0.2948968280385248
1789318111502480600,9.475480712890626,-4.177075841286778,0.7094745495229959,-0.5614611859641969
1789318111512434700,9.4854345703125,-3.5184710627794265,0.006878069075942039,-0.6241644565060734
1789318111522388700,9.495388671875,-0.6812117471128701,1.6858686818838118,0.4189525938341394
1789318111532342800,9.5053427734375,-1.5895049876719711,2.4576491731941696,-0.028192714582290498
1789318111542296600,9.515296630859375,-2.3550655815541743,2.0878174974143504,-0.9517615031465887
1789318111552251000,9.5252509765625,-0.6107546475738287,0.9205646931111812,-1.777360824536532
1789318111562205000,9.535204833984375,-0.3449970942527055,-1.6677227843403815,-1.4759038890637457
1789318111572158700,9.54515869140625,1.7854630285799502,-1.6390543237388133,-1.4308601938530803
1789318111582112800,9.55511279296875,4.388365891361237,-1.3928519502371548,-1.8350488972648977
1789318111592066800,9.56506689453125,4.820762452125549,1.31341191829741,-1.385850254781544
1789318111602020900,9.575020751953126,1.2779554049909114,2.573889534264803,-1.4283189849376678
1789318111611975700,9.5849755859375,-3.725636141878366,-2.2936171333789823,-1.5814390239857137
1789318111621929700,9.5949296875,-0.7087941660434007,1.4637065246611833,-1.0451115486256777
1789318111631883800,9.6048837890625,-1.5913134983986614,-0.14408055415451526,-0.24314051997931674
1789318111641837800,9.614837890625,-4.153023934569955,-0.060841129931807514,0.1673454204131849
1789318111651792000,9.6247919921875,-0.752557904446125,0.9010890082687139,-1.070577632989362
1789318111661745700,9.63474560546875,0.11367781710624694,-1.332363871526718,-0.6723064099930226
1789318111671699700,9.64469970703125,2.714866861706972,3.247932704922557,-0.562480847868137
1789318111681653800,9.65465380859375,2.8968209271818397,1.4239783253848552,-1.1345953471306711
1789318111691607800,9.66460791015625,1.4107839127689599,-1.559836994639039,-0.6538939704678952
1789318111701561600,9.6745615234375,0.8559960670888423,-2.1251251915454863,-0.4025494117721915
1789318111711515600,9.684515625,-0.8782347869038581,-1.8443284745246171,-0.5516718325514346
1789318111721470700,9.694470703125,-3.829194131508469,0.8893290123701095,-1.5066475485041737
1789318111731424800,9.7044248046875,-1.2285305720865727,0.3018494419217109,-2.3953505379304287
1789318111741378800,9.71437890625,-0.1014274073421955,0.46953474354743957,-1.7618759628959
1789318111751332900,9.724332763671875,-0.381997914391756,-0.29361878919303414,-1.5773086461827157
1789318111761286700,9.73428662109375,-2.1535271101653573,3.2012241452395913,-1.2722966485768556
1789318111771240700,9.74424072265625,-3.31512291162014,-0.6607523119300603,-1.9746124123863875
1789318111781194800,9.75419482421875,-0.6462672749817371,-1.495479381018877,-1.0027542429547756
1789318111791148500,9.7641484375,0.47844870236515996,-1.3363579095989464,-0.3472973705517128
1789318111801102600,9.7741025390625,2.8569068499445915,-1.957191468116641,-0.930319194406271
1789318111811057000,9.784056884765626,6.021141280961037,1.879808368706703,-1.2486933624103664
1789318111821011000,9.794010986328125,6.1080935882270335,0.17384850043058395,-1.409233030065149
1789318111830965800,9.8039658203125,3.309880334791541,0.9435451712042092,-0.6118082848126069
1789318111840919800,9.813919921875,-2.7836756095170974,-1.7688596843034028,-1.5857435893118381
1789318111850873600,9.82387353515625,-5.149954659003019,-4.027436483961344,-2.1333888697609305
1789318111860827600,9.83382763671875,-2.423552842324972,1.136598138320446,-0.8148793360635638
1789318111870781700,9.84378173828125,-5.288742951968312,-0.677517568770051,-0.4532700566407293
1789318111880735700,9.85373583984375,-1.5891414150565861,3.053458180570602,-1.1666267813593147
1789318111890689800,9.863689697265626,-0.2390449029624462,0.3994458927989006,-1.797581482527405
1789318111900643800,9.873643798828125,1.1624199773192405,-1.0558791724860668,-1.5821164848558604
1789318111910598000,9.883597900390624,5.448719578912854,-0.08610708861351013,-1.8821943870604037
1789318111920551700,9.8935517578125,6.281648658668995,-0.9168681766808032,-1.8818844443283973
1789318111930505700,9.903505615234375,2.495661800724268,-0.8200754434019326,-1.202889277286455
1789318111940460800,9.913460693359376,-1.7703297568559646,-1.9839795217990874,-0.494957646356523
1789318111950414600,9.92341455078125,-1.843862610578537,-1.124454696062207,-0.047486046861484645
1789318111960368600,9.93336865234375,-0.11815174764990806,0.8851490963369607,-0.17327510272311045
1789318111970323000,9.943322998046876,-3.101753717184067,1.990063810148835,-0.548107454600744
1789318111980276700,9.95327685546875,-6.888749459910392,4.053036789163947,-1.9800505117870866
1789318111990230800,9.963230712890624,-2.5055004731714723,1.8095277947783468,-3.1423563612073657
1789318112000184800,9.973184814453125,-2.4940602107465266,-0.47343467359542846,-0.7405396960027515
1789318112010138600,9.983138671875,0.7477595642536878,-2.3271967468976973,-0.21086634476967156
1789318112020092700,9.9930927734375,5.029513923633099,2.185811423176527,0.044239904547110194
1789318112030046700,10.003046630859375,3.4067584082663056,-0.2630132230490446,0.26997794749513265
1789318112040000800,10.013000732421874,0.6419160940349101,-0.38616146381199357,-0.8889750843659043
1789318112049955800,10.022955810546875,-1.2333037778377531,0.17149579982459545,-1.4159465562291442
1789318112059910000,10.032909912109375,-1.8928963983386753,-2.5728993541836735,-1.2983496659830212
1789318112069863700,10.04286376953125,-0.9497060319215058,2.9047312619149683,-0.38518516612574455
1789318112079817700,10.052817626953125,-6.67330755085349,1.962909261241555,0.3012221038036048
1789318112089771800,10.062771728515624,-3.149111096164584,1.798787205055356,-0.1734349511936307
1789318112099725800,10.072725830078125,-1.4193202704459429,-2.4033769002586602,0.5934641247507184
1789318112109679600,10.0826796875,0.267397137221694,-0.7680927427083254,0.9759562524002044
1789318112119633700,10.092633544921876,5.722278745895624,3.0177210967570542,-0.9744451902501284
1789318112129587700,10.102587646484375,5.7823260951012365,-0.5158242010354995,-1.2296800343826413
1789318112139541500,10.11254150390625,4.194908435097337,-0.6999474272429943,-1.2925994318932295
1789318112149495800,10.122495849609376,0.7014122390985489,-2.5116022971779106,-1.507295052627474
1789318112159451000,10.132450927734375,-1.7683359526902436,-2.036968769186735,-0.8206431602872908
1789318112169404700,10.14240478515625,-1.650636624982953,0.9841425545305013,-0.5547953348668292
1789318112179358700,10.152358642578125,-3.221736187392473,1.297083883830905,0.03841598416659981
1789318112189312800,10.162312744140625,-3.7535716120302673,2.1694822196662424,-0.3243659922974184
1789318112199266600,10.1722666015625,-3.613484511426091,1.3025637765467166,-0.8639363585688173
1789318112209220600,10.182220703125,-1.1140057827621699,0.23639409619271753,-0.7545938672531396
1789318112219175000,10.1921748046875,0.6456412520378828,-2.369315056180954,-0.5583057176079601
1789318112229129000,10.20212890625,4.297193336051702,1.3968535870939491,-0.41632681190781295
1789318112239082800,10.212082763671875,4.101069875448942,0.28395605783462524,-0.7130608835771679
1789318112249036800,10.222036865234376,1.1853303127855062,-3.959882704648375,-0.24883354398915541
1789318112258991600,10.23199169921875,2.7128701349318027,-0.1601823786497116,0.419562067501992
1789318112268945700,10.241945556640625,2.8989269595503804,-0.531547255346179,0.13746214066175744
1789318112278899700,10.251899658203126,-0.31443770533800125,0.38936055211424825,0.4340401267202571
1789318112288853800,10.261853759765625,-6.164231655034422,-0.19661445899009702,-0.7354609314337373
1789318112298807800,10.271807861328124,-3.1233056237787005,-0.11574234842061996,-1.8502170941717921
1789318112308761900,10.281761962890625,-1.9650351673543451,1.1735510276645422,-0.7572619904838502
1789318112318716000,10.2917158203125,-1.5771575472742319,-0.2398468669950962,-1.1244715010665356
1789318112328669700,10.301669677734376,0.3300853563249111,-0.020369418811798094,-1.2352588574282823
1789318112338623700,10.311623779296875,1.5030898560225963,-0.7803086656808853,-0.7066019166961311
1789318112348577800,10.321577880859374,3.8102567913264034,-1.7765215972334145,-0.4388649895934388
1789318112358531800,10.33153173828125,5.382669774422049,0.009957914912700653,-0.3589110898474231
1789318112368487000,10.34148681640625,3.1968074978411196,-2.013135473656654,0.05247625636421144
1789318112378441000,10.35144091796875,1.2451128735750914,2.095918386283517,-0.37597982314601536
1789318112388394800,10.361394775390625,-4.3145852003574365,-1.5014648851692676,-0.6828956085465848
1789318112398348800,10.371348876953125,-3.646280865612626,-1.7351877163261173,-0.6524620379686356
1789318112408302800,10.381302734375,-0.01203062953352928,0.3588403261661529,-0.764294519469142
1789318112418256600,10.391256591796875,-1.2563397855103016,2.379464109751582,-0.09092606973517686
1789318112428211000,10.4012109375,-2.0454495972841977,3.528036763504147,-1.2400905153684316
1789318112438165000,10.4111650390625,-1.0776964520186185,0.3870002527236938,-1.6832387717716395
1789318112448119000,10.421119140625,-0.26877543983757496,-0.2210194169282913,-0.8869408020593226
1789318112458072800,10.43107275390625,2.4070710786014793,-1.0643155769199133,-1.281152009075135
1789318112468028000,10.44102783203125,4.379654761639237,0.6707973206043243,-1.2456244763590394
1789318112477981700,10.450981689453124,2.5391432150542737,0.30963994966745373,-1.6580752505511045
1789318112487935700,10.460935791015626,-2.4332167427271605,2.1180384481549264,-2.114910233131796
1789318112497889800,10.470889892578125,-3.5125475179493426,-1.5651275022625921,-2.454079205752909
1789318112507844000,10.480843994140624,-0.7361351774334907,1.696332792752981,-0.4294258743904531
1789318112517798000,10.4907978515625,-3.3395418980836866,0.6259913796722889,0.6357438351407647
1789318112527752000,10.500751953125,-3.676297818213701,0.7362246092826128,-0.1270203877548687
1789318112537706000,10.5107060546875,-0.7929284932792187,2.4202204830318688,-0.42622835699077694
1789318112547659800,10.52065966796875,-0.3635188393712043,-1.0777654256016016,-1.51337320349738
1789318112557613800,10.53061376953125,1.8435797019839286,3.205846544343233,-2.740174905964732
1789318112567568000,10.54056787109375,2.485439097395539,-0.7289157475739717,-3.0597762776762245
1789318112577522700,10.550522705078125,3.380494670718908,-1.7125047598749399,-2.296700486347079
1789318112587477000,10.56047705078125,2.2685937512814998,-0.7130214283496141,-0.8732998147197067
1789318112597431000,10.57043115234375,-1.2951485318541527,-1.080772790724039,0.008897190346010029
1789318112607384800,10.580384765625,-2.4527263298392294,-0.05237257679402828,0.20964732436873018
1789318112617339000,10.5903388671875,-0.4942459909558296,0.5803069023400544,0.0576208892436698
1789318112627293000,10.60029296875,-0.2492360421091318,-0.8155395535379648,-0.3745629786180332
1789318112637246700,10.610246826171876,-1.3457383168846369,1.8015823887318372,-1.0729440698597579
1789318112647200800,10.62020068359375,-5.414804449829459,0.8898024751007556,-1.9651960570044815
1789318112657154800,10.63015478515625,-0.6179600489079952,-1.6823007602691649,-1.2141811442166566
1789318112667108900,10.64010888671875,1.7563076612442732,-0.5042617735356092,0.353673664117977
1789318112677064000,10.65006396484375,2.6844834138810634,-0.9366758699566126,-0.28188111472409216
1789318112687018000,10.66001806640625,2.1056144353896378,0.55222822432518,-0.23139526499211788
1789318112696971800,10.6699716796875,1.6437795986950396,-0.6956009224712848,-1.330040835406631
1789318112706925800,10.67992578125,2.984213379430771,0.836714443513751,-1.6379808492884038
1789318112716880000,10.6898798828125,1.3390174841970204,-1.2626222267806528,-1.4528686120435594
1789318112726834000,10.699833984375,-0.280543619042635,-0.5178460622519254,-2.626276724106073
1789318112736787700,10.70978759765625,-3.781916832026839,0.03273030321300029,-2.6238462820887563
1789318112746741800,10.71974169921875,-3.0304806250870224,1.2746014183878898,-2.0796353600025177
1789318112756696000,10.729696044921875,-1.6700731468588113,0.5284609797686338,-1.6354032538853585
1789318112766649900,10.73964990234375,-1.7575100227713585,-0.025446575945615765,-1.2763731042355297
1789318112776604000,10.74960400390625,0.019275778356194494,0.2896715128719807,-1.1604724965132773
1789318112786559000,10.75955908203125,1.581000778698921,-0.8973872311413288,-0.757687887745723
1789318112796512800,10.7695126953125,4.4995068834662435,1.4804308649688958,-1.018663029095903
1789318112806466800,10.779466796875,3.5789123797386884,-0.7951081754058599,-1.26677730063349
1789318112816420900,10.7894208984375,0.9420856200456619,-1.7607921131819486,-1.1881592526011169
1789318112826374700,10.799374755859375,-0.4073749322324991,-0.10444529385864734,-1.0032401998408138
1789318112836329000,10.809328857421875,-1.4757576124608516,-1.1917413488715887,-0.709888025694713
1789318112846283000,10.819282958984376,-2.563307349973917,-2.655438521182537,-0.5596243259258568
1789318112856237000,10.829237060546875,-1.417708743596077,1.8212597336262464,-0.4448069468630477
1789318112866190800,10.83919091796875,-0.533673161458969,0.9959925668001174,-0.8045642782762646
1789318112876145000,10.849144775390625,-0.6548486408442259,0.8165355788379907,-1.1447902126044034
1789318112886099700,10.859099609375,-0.04612579135894775,-0.010118073910474777,-1.9160335282981396
1789318112896053800,10.8690537109375,1.800873948201537,-2.0377555356502532,-2.4212260068126024
1789318112906007800,10.8790078125,3.7575849393248557,0.7504501185119151,-1.262233811984956
1789318112915961900,10.8889619140625,1.7279589341163635,-1.754562278881669,-0.8144228975329547
1789318112925916000,10.898916015625,-0.525609097468853,0.09152326844334602,-1.0980892517060041
1789318112935870000,10.908869873046875,-2.6139316217958926,-2.1203426334440705,-0.6580773205671459
1789318112945824000,10.918823974609374,-1.2501508677422999,1.173541675314307,-0.20889482550099492
1789318112955777800,10.92877783203125,-2.0790274572372436,2.410105916252732,-0.3707472562547773
1789318112965731800,10.93873193359375,-3.0991631161689757,1.2587170360356568,-1.2172090406704694
1789318112975686000,10.948685791015626,-2.337819847720861,1.9228630820572374,-1.3498390302017331
1789318112985640700,10.958640625,-2.7903414971470832,-2.132854324492812,-0.6753720081087201
1789318112995595000,10.968594970703125,0.25191782853901384,3.1680636339157817,-0.2828833140365779
1789318113005549000,10.978549072265626,1.4260872803628444,-0.82916300522089,-0.5305591941569
1789318113015502800,10.9885029296875,4.718117485687136,-1.1383481968581677,0.27369176212018353
1789318113025457000,10.998456787109374,4.983599729198217,0.6694353846013545,0.3227026256624609
1789318113035411000,11.008410888671875,-0.0966653075069189,-2.115435572180152,-0.7286220253244042
1789318113045364700,11.01836474609375,-3.685656598189473,1.5553689093142746,-0.486684286997281
1789318113055318800,11.02831884765625,-1.457379075205326,-1.3917752609163523,-0.14567818034319205
1789318113065272800,11.03827294921875,0.3843775030046701,0.754191643127799,0.8449464114166796
1789318113075227000,11.048226806640624,-2.266323468261957,0.9653870006561279,1.4684126565255224
1789318113085182000,11.058181884765625,-6.185725693961977,0.7669318822354078,-0.462065247916989
1789318113095136000,11.068135986328125,-0.2764981430441141,1.2009528293311595,-0.91003891518265
1789318113105089800,11.07808984375,0.31519524570703505,-0.07702303392589092,0.28969198940442875
1789318113115043800,11.0880439453125,2.557933840242028,-0.8494681266248225,-1.31337450889647
1789318113124998000,11.097997802734374,3.990585301426053,-1.2397060460954903,-2.013632755654305
1789318113134952000,11.107951904296876,3.746039462959766,1.0796148528605698,-0.44917584612965583
1789318113144905700,11.11790576171875,2.5763188072383403,-1.1063818637549876,-0.8790797132954001
1789318113154859800,11.12785986328125,1.4368629413992167,0.3227566208720207,-0.7085495436325668
1789318113164813800,11.137813720703125,-0.9613514615297317,-1.3821131140798328,0.014396902007143943
1789318113174769000,11.147768798828125,-3.104721919339895,-0.4069552455157041,-0.8331661033824086
1789318113184723000,11.157722900390626,-6.245924434337019,1.2590145576775074,-0.9784009421385824
1789318113194677000,11.167677001953125,-1.545890302351117,0.8005383837610482,-0.4518228169744834
1789318113204630800,11.177630859375,-1.4059054930776358,-0.5215612833827734,0.18308955404451116
1789318113214584800,11.187584716796875,-0.4835632688999176,1.0033557890444993,0.32996702717486764
1789318113224539000,11.197538818359375,0.7965513599514961,-1.4830033458054064,-0.049494299677666276
1789318113234492700,11.20749267578125,3.3671558811962603,0.02515489952266216,0.5377298895038664
1789318113244446700,11.21744677734375,4.098528374272584,-0.4446037159085274,0.3384625048521906
1789318113254401000,11.227401123046874,2.1118366709053515,-1.0006482836514712,0.7439693051252514
1789318113264355000,11.23735498046875,0.8456102821528911,-0.4024252008706331,0.9436772000860423
1789318113274310000,11.247309814453125,0.5229483538269997,-0.6578104132592678,0.3141879683606326
1789318113284264000,11.257263916015624,-0.8513228145807981,-1.5831693549096584,0.6801856189355254
1789318113294217700,11.2672177734375,-1.2835948721826076,1.6193115123927593,0.4083490014290437
1789318113304171800,11.277171875,-2.401021861565113,0.33102760561108585,-0.4877557156210765
1789318113314125800,11.287125732421876,-1.4151730876386164,0.20966800183057785,-0.09932442544726654
1789318113324079900,11.297079833984375,-0.5367383942484856,-0.26486966457068917,0.3613956366721541
1789318113334034000,11.307033935546874,1.571720909178257,-1.3983271667778492,0.15721242292821405
1789318113343988000,11.316988037109375,3.840552560868859,0.9295172303736209,0.5275249044949188
1789318113353942300,11.3269423828125,2.371316459131241,-1.8942226785063743,-0.17979199207015334
1789318113363896000,11.33689599609375,0.42796296223103997,0.9327133960664272,-0.7475047127097845
1789318113373851100,11.34685107421875,-2.237026062107086,-3.161751382029056,-1.2037722706660627
1789318113383805200,11.35680517578125,-0.024461072039604185,0.6457873825103044,-0.6616823593217879
1789318113393759200,11.36675927734375,0.30202655205428597,1.4384259529322385,-0.32435685914289203
1789318113403713300,11.37671337890625,-3.908394509473443,0.177293087926507,-0.227086735876929
1789318113413667300,11.386667236328124,-2.5582979973793027,0.49100540159940714,-1.4062149974182248
1789318113423621000,11.39662109375,-0.31783494656085964,-1.0994219616144896,-1.0783943711549042
1789318113433575200,11.4065751953125,0.7088304064005613,3.0227123291730877,-0.6435998093381524
1789318113443529200,11.416529296875,1.8154945942282676,0.5809726727724075,-1.6911201726712286
1789318113453483000,11.42648291015625,2.115920140826702,-1.8034633801728486,-1.1219872830353677
1789318113463438300,11.436438232421875,2.682033098119497,-0.3416343398213386,-0.41795192889161403
1789318113473392000,11.44639208984375,-0.38117666113674636,-0.4437865543067455,0.13515914268270135
1789318113483346200,11.45634619140625,-5.142982481902838,1.517394860228896,-0.08784724681172519
1789318113493300200,11.46630029296875,-1.5729045660048722,1.0463099646300076,-0.24306056834459303
1789318113503254300,11.476254150390625,-1.1903636307775973,-0.18378712612092493,0.46574335190784183
1789318113513208000,11.4862080078125,-1.7373790888905525,2.1316391034841535,0.18136782655213027
1789318113523162000,11.496162109375,-3.513785535311699,2.3186077822506426,-1.0255164751872419
1789318113533116200,11.5061162109375,-0.5075660757780075,0.514165327912569,-2.1400784305274487
1789318113543070000,11.516070068359374,-0.25108956102132796,-1.8498779253453015,-0.5017725870683789
1789318113553024000,11.52602392578125,2.369758123773336,-0.7661135515898466,-0.8125967780843376
1789318113562979300,11.535979248046875,4.597002796578407,-0.5872650509148836,-1.1376605068549512
1789318113572933000,11.54593310546875,4.498571648442745,-0.6347481021016835,0.7366193076886236
1789318113582887200,11.55588720703125,4.090748387920856,0.9724591309994458,0.5829921593686566
1789318113592841200,11.56584130859375,0.922514073613286,0.21330080537497997,-0.03631718525644392
1789318113602795000,11.575794921875,-2.5729893705546854,-1.05266547113657,-0.47150790678393095
1789318113612749000,11.5857490234375,-3.694237379530072,-0.34916999602317805,-1.156925252360478
1789318113622703000,11.595703125,-3.7956256239056585,1.1557494135141373,-0.446070975449495
1789318113632657200,11.6056572265625,-2.464641224038601,0.7518781054884195,0.1533458106279373
1789318113642611200,11.615611083984374,-1.5691577806919812,0.8125444633752107,0.7125136980231851
1789318113652566300,11.625566162109376,-0.9103601099610328,1.5483903024733066,1.0825130585201084
1789318113662520000,11.63552001953125,0.7852186495542526,-3.0811341230034826,0.1235176220646128
1789318113672474000,11.64547412109375,4.8667321761399505,0.5725888753086328,-0.31909601600524035
1789318113682428200,11.65542822265625,4.692524194747209,0.11308744999766349,-0.8595965757988393
1789318113692382200,11.66538232421875,1.0521440776109694,-0.35513621095120906,-1.1454637279517947
1789318113702336000,11.6753359375,-0.8753525094658136,-0.2522036597430706,-2.0794544504776598
1789318113712290000,11.6852900390625,-1.080722521841526,-2.97738908636868,-1.8662810708746314
1789318113722244400,11.695244384765624,-0.2018535286873579,1.1219295614987612,-1.012435459817946
1789318113732198100,11.7051982421875,-3.6758266935706136,3.08071034463346,-1.5041286975510417
1789318113742153200,11.7151533203125,-4.0392426570892335,1.5192963099360466,-2.3081929173506794
1789318113752107300,11.725107177734374,-1.8430425263673067,0.3210270206004381,-1.5786732125341891
1789318113762061000,11.73506103515625,-0.5836468604177236,-1.7435101389914751,-0.6371740871395916
1789318113772015000,11.74501513671875,3.6519846302121874,0.42030455643236636,-0.8456491528585552
1789318113781969200,11.75496923828125,6.742362966901063,2.061336902245879,-1.3006314933098853
1789318113791923000,11.7649228515625,4.375300658082962,-0.5605868873476981,-1.6121251080200074
1789318113801877200,11.774877197265624,-0.37079204524457454,-1.7155659010112285,-1.4691253348395228
1789318113811831300,11.784831298828125,-2.7213655760765074,-3.360497007828951,-1.1770043829888104
1789318113821785000,11.79478515625,-0.7085282085835933,-1.2352210096359253,-0.24551062837783247
1789318113831740200,11.804740234375,-0.43963820245563984,1.4839900187551975,1.087458479033038
1789318113841694200,11.814694091796875,-5.488948713448643,-0.012935469418764113,1.1142398837789893
1789318113851648000,11.82464794921875,-1.2435960392713545,0.649963791412115,-0.4705669361393898
1789318113861602000,11.83460205078125,0.9300549905121326,0.3247147692024708,-0.7649846936903894
1789318113871556000,11.84455615234375,1.8161621182262897,0.8580085759550332,-0.3422549924703315
1789318113881510100,11.85451025390625,3.3486674538254735,0.21832243292927742,-1.3247390757367015
1789318113891464200,11.864464111328125,2.6049276466071603,-2.3445710755467415,-1.2035055825538932
1789318113901418200,11.874418212890625,1.6081541585624217,-2.26628079816401,-0.07864062519036233
1789318113911372300,11.884372314453126,0.37126726154088974,-0.9525544070899487,0.27216712810248134
1789318113921327000,11.8943271484375,-1.2862655526965856,1.6278420248508452,-0.06816931739542632
1789318113931281200,11.90428125,-3.2859394872337577,0.8101356486678123,-0.6398244555179029
1789318113941235000,11.91423486328125,-0.6123614982485771,1.5309931774705647,-0.7856405282281339
1789318113951189000,11.92418896484375,-2.519266548195481,2.4413176315963265,-0.037047216564044354
1789318113961143300,11.934143310546874,-3.6077006673276424,1.0322551357924938,-0.9818907570157199
1789318113971097300,11.944097412109375,-2.42038590272665,-1.1891811429947614,-1.1731002151571213
1789318113981051100,11.954051025390624,-1.42581547768414,-0.5188683910369872,0.49645946575421834
1789318113991005200,11.964005126953126,1.5405717376768588,-1.247643853357434,0.2772744977114722
1789318114000959200,11.973959228515625,4.627008058741689,0.6029536184340715,-0.024293569985590874
1789318114010914000,11.9839140625,4.47543568752706,0.740211633092165,0.35861210690084844
1789318114020868000,11.9938681640625,2.432113165399432,0.29893735386729237,0.020446648766472935
1789318114030822400,12.003822509765625,0.13424246622920036,-0.1933785458087921,-0.5376401653937996
1789318114040776200,12.013776123046876,-1.093106202596426,-1.5266238763451576,-0.4729386702394113
1789318114050730200,12.023730224609375,-2.3683050023555756,1.2183119604110717,-0.050079753149114545
1789318114060684300,12.033684326171874,-7.002459425720572,0.7734089692950248,-0.9606680093102157
1789318114070638000,12.04363818359375,-2.407508300974965,-0.6277765095233917,-0.7989747877061366
1789318114080592100,12.053592041015625,-0.7000123091727495,0.9528723869979381,0.8809177423775195
1789318114090546200,12.063546142578126,0.3818237268686294,0.1026736080110073,0.27666878690328445
1789318114100501000,12.0735009765625,1.9455191505014895,0.22360943342149256,-0.5119631416931748
1789318114110455300,12.083455322265625,3.2607547770947214,1.406391815289855,-1.4126809785619376
1789318114120409300,12.093409423828126,2.7934534916877745,-1.9884253952920437,-1.3986477770343422
1789318114130363100,12.103363037109375,3.52411520614624,0.8711743469983338,-0.25429749021716413
1789318114140317200,12.113317138671874,2.0772610320866107,-0.3791583070516586,-0.23023140884451568
1789318114150271200,12.123271240234375,-1.4793699577391146,-1.9763947657585144,0.12211217571347951
1789318114160225300,12.133225341796875,-4.43300699712038,0.878043063724041,0.6039937020715326
1789318114170179000,12.143178955078126,-0.7528630248725414,0.15175649560987947,0.5840952983049675
1789318114180134100,12.153134033203125,-0.1706131717711687,3.007324790427089,1.1675436039432883
1789318114190088200,12.163088134765625,-1.9032418512642382,0.3648836979836225,0.026046733795851467
1789318114200042200,12.173042236328126,-1.5159282948076724,-0.09431260690093039,-0.8170398020330816
1789318114209996300,12.182996337890625,0.28704291793406006,-1.3184738778620957,-0.6836446733482182
1789318114219950000,12.1929501953125,2.863487397378683,-0.04077624702453613,0.16210691697150467
1789318114229904100,12.202904052734375,3.2390111473202703,-0.3331821532964706,-0.15612944999709724
1789318114239858200,12.212858154296875,0.6246364579319954,-1.223233050200343,-0.0968056658256799
1789318114249812200,12.222812255859376,-0.7652163104891777,-2.599676886472106,0.4130494707375765
1789318114259766000,12.23276611328125,1.0660182891845702,0.7935784816205501,1.1968738894544542
1789318114269721300,12.242721435546875,0.5266618213921785,1.64249189697206,1.1585662975657731
1789318114279675100,12.252675048828126,-3.7987662600189447,-1.47027713522315,-0.3262213743731379
1789318114289629200,12.262629150390625,-2.438434185114503,-0.8224883497625589,-1.3347823308452964
1789318114299583200,12.272583251953124,0.7764028904139995,-1.1197247449308634,-0.9756799927420914
1789318114309537300,12.282537353515625,2.04671391813159,2.072750861185789,-0.5299873856183142
1789318114319491000,12.292490966796874,2.0957728403329847,-1.2942425229251384,-0.7644428418986499
1789318114329445000,12.302445068359376,3.045979807513952,-3.4622336272507903,0.27142270294334736
1789318114339399200,12.312399169921875,4.579304058280587,-0.24181495219767093,0.7147329084426164
1789318114349353000,12.32235302734375,1.054358831050992,0.6343710854828357,0.18994411438070236
1789318114359307800,12.332307861328125,-5.005457340741157,0.9001485125482082,-0.6481152409359813
1789318114369262000,12.342261962890625,-1.4272545705765485,-0.7814625118911266,-1.2099454063430428
1789318114379216000,12.3522158203125,0.8416483927845955,0.33234979412555693,-0.7413052735477685
1789318114389170000,12.362169921875,-3.5374399671435355,4.137036091843247,-0.5760235989976674
1789318114399124000,12.3721240234375,-6.918760567292571,1.8194518074214456,-2.5401503462702033
1789318114409077800,12.382077880859375,-1.3161784604012965,2.863122071197629,-1.7466119043990969
1789318114419031800,12.39203173828125,-3.1445354588121175,-3.5679642847448587,0.5970533448817208
1789318114428985900,12.40198583984375,2.7248469884514805,-1.9319149880409239,-0.21468856993895022
1789318114438940700,12.411940673828125,7.729449758189916,4.407824625068903,-0.17233360235560685
1789318114448895000,12.42189501953125,4.554806161361933,0.6474030010133981,-0.21872765272930264
1789318114458849000,12.43184912109375,-0.087746672514081,0.04840601125061512,-1.2024170566648245
1789318114468802800,12.441802734375,-2.4521511602997776,-1.4416121817529202,-2.07234301103726
1789318114478756900,12.4517568359375,-0.6235521698266268,-1.3962550366789102,-1.5783932265490292
1789318114488711000,12.4617109375,-1.1919815873682498,1.6449755304813385,0.3898168079817667
1789318114498665000,12.4716650390625,-9.960033220028876,3.7666912058442827,-0.30094991753241046
1789318114508618800,12.48161865234375,-3.3073972858041523,0.28813305125832556,-1.8384705422766505
1789318114518572800,12.49157275390625,0.5268488683968782,0.843159966391325,1.1152983067907392
1789318114528528000,12.50152783203125,0.510856934016943,-0.3321107246726751,0.6681681411445141
