seconds_elapsed,z,y,x
0.0,-1.270721435546875,-1.2369537353515625,-0.16607666015625
0.01,-0.07149147377560733,-0.37768683512162576,-0.48054567912246066
0.02,0.31115743344237085,0.03529229197320504,-0.48134730026749734
0.03,-0.2009648920760873,-0.7944125409748282,-0.2457361189629502
0.04,-1.8683887236136725,-1.3725506450894895,0.3318658743234479
0.05,-3.4809697393908516,-1.3567781652205464,0.7319870940009257
0.06,-1.1324206806881212,-1.4390818360001507,0.23710887513348883
0.07,1.2444738056075397,-0.6470526975169052,-0.11300882050819534
0.08,1.129936643390475,-0.1792749628794219,-0.41610786174264125
0.09,0.12744362713343055,-0.29686779759809706,-0.5503716091976901
0.1,-0.24280485548686154,-0.368304320650933,-0.13257134284547628
0.11,-2.0488248522774652,-1.2547584192254422,0.23120487549352683
0.12,-3.9701960042617586,-2.7740165031101522,0.35347509219911405
0.13,-1.1714448050296564,-0.9306265896576886,0.020576018746668336
0.14,1.1470657476857957,-0.16287436605505853,-0.29611552262508495
0.15,1.1833586718320401,-0.90704947332183,-0.636526809828442
0.16,0.1863338000050488,-0.1483633892364308,-0.7959192323339418
0.17,-1.4340780602745598,-0.2534174353354151,-0.15552541831333708
0.18,-1.5612230781061927,-0.952851630416267,0.3308874215750102
0.19,0.3446936690296995,-0.6505210810115843,0.2746910641662593
0.2,0.8957268949393028,-0.492364074774095,0.2451918025498487
0.21,-0.8782326834542309,-1.0148003201524778,0.1909361126042235
0.22,-2.3163062791375677,-0.6289724454717645,-0.11569561267796519
0.23,-1.1591083016401886,-0.5722488867401647,-0.5370762048863261
0.24,0.25783348297846237,-1.2813709840731513,-0.4454037925439091
0.25,0.880426862357791,0.3386293511523947,-0.15783478902938453
0.26,-0.6751485977042555,0.29627814413099046,0.27253999834959675
0.27,-4.9637241807097805,-1.8844551263854423,0.9627276702577273
0.28,-2.498240776244493,-1.1677675330365889,0.48976745717304726
0.29,2.370722488211359,0.23110536747947621,-0.08522387698294413
0.3,2.4600278482741715,-0.1590711740117151,-0.06723153817133697
0.31,0.8306473674801028,-1.1883387883272234,-0.1541039224216799
0.32,-0.681061645373536,-0.035920013617842146,-0.02781227030742957
0.33,-3.5603621432341837,-0.03904278464208382,0.35343159691808795
0.34,-3.4889261467750785,-3.4131389173873785,0.6241265904179728
0.35,0.16304161861098732,-0.6859038676681406,0.9453562951661484
0.36,2.1658149057240235,0.726818335203165,0.5825465125732199
0.37,0.09238036675467103,-0.5975525717916517,0.22743423697491288
0.38,-4.157005185933663,-2.5100198778901217,0.34937752311248954
0.39,-3.10879579448231,-0.21086393910545917,0.3791602515265035
0.4,1.6878332017937678,0.8509703483474008,-0.0069971288217867906
0.41,1.411940755987561,-1.4881870254120044,0.1736640564883392
0.42,-1.3900283685251216,-1.642657752798411,0.6150598606141625
0.43,-2.9444153808004208,0.1612016595329858,0.9527580386302759
0.44,-0.8936396618848417,-0.8071171509445312,0.42889174520531775
0.45,1.3090550794367037,-1.5978736416106933,0.17213949773072598
0.46,1.6975813852031603,0.5092229835451849,0.1961774043960025
0.47,-0.6625408461857728,1.0504021505746113,0.28022996061174954
0.48,-2.941233878801296,-1.9721143842514197,0.2640071609364683
0.49,-1.3099894641854517,-0.41696506275195655,0.17746221985705127
0.5,-0.9749061244531328,0.1979005450911264,0.30189576148056396
0.51,-3.264001117592083,-1.9716687115788212,0.36850495382232756
0.52,-2.090656693997973,-0.8244348041650842,-0.0001356852451681605
0.53,0.8646994630456794,-0.284700259114918,-0.6260735237996777
0.54,1.567120172261431,-1.5778837423445464,-0.7435538463916129
0.55,0.6594215982954152,-1.1374474759939563,-0.26323915273991827
0.56,-0.10357510993746998,-0.05276425705937895,0.22600886504746023
0.57,0.25867181304785736,-0.756084295924948,0.3153315101363524
0.58,-0.024369369337021884,-1.932717319389329,0.2720471997733734
0.59,-1.9773589778502734,-1.3824826507177055,0.5389097838811083
0.6,-2.0095286875225584,-1.5420186368133437,0.12302711815778739
0.61,-0.24348102492795856,0.07292885749581446,-0.5012872008949244
0.62,0.5720842304838335,0.6624130791385269,-0.9077588454232786
0.63,-0.46326893636038513,-1.3015961196580723,-1.0805689991445055
0.64,-1.5198073947198312,-1.549482802942089,-0.4734727062935534
0.65,-0.3286120116411822,-0.46039138818177516,-0.05437708587106464
0.66,0.8522203042157893,-1.5093392880594163,-0.2167602885725963
0.67,-0.15217146475213322,-0.9828836702096881,-0.04909785522966467
0.68,-3.696831952210691,-0.434455005482232,0.35749141012367824
0.69,-2.7089676106838643,-2.372602113876878,-0.21957500525603957
0.7,0.8449514706539816,-0.8024840065795127,-0.2638864869941604
0.71,1.7383134293265796,0.5549572065051461,-0.17063339977062503
0.72,0.43682933937541574,0.07331370256707899,-1.0255577180027946
0.73,-1.6919368823572682,-1.6834731871150697,-1.2488692292367432
0.74,-2.3214960281150434,-0.2290297777905897,-0.49289039471101637
0.75,-1.6927047417876386,0.024120000556610358,-0.16803326699007404
0.76,-0.9338680555755929,-1.8955279838477486,-0.020304687768447193
0.77,-0.0204106796001813,-0.6002195275104404,0.3447669476893186
0.78,0.027737082041012124,0.4585396902902885,0.3984390588297903
0.79,-0.47831220616345427,-1.5049371920881816,0.20537787344598837
0.8,-0.259888755804851,-1.4092658110353753,0.14998256841305102
0.81,-0.5550378415880325,-0.5562844778704952,0.1583143069871663
0.82,-1.205393520647374,-0.8285311823670556,-0.06753702188158234
0.83,-1.1100050258098064,-0.7212642423018103,-0.13530780123077177
0.84,-0.2889936872784477,-0.5814720939392717,0.07704049764253469
0.85,0.2876475046096749,-0.21354684462778498,0.4343026226076677
0.86,-0.21002640808636633,-0.5501941282524818,0.6897614043522214
0.87,-1.1421295814611911,-1.3697120194034422,0.6459858727655835
0.88,-0.9896936597408633,-0.5729818662815258,0.2824124777389457
0.89,-0.6637339481088084,-0.621356953674363,-0.08965990872780828
0.9,-0.05167783012867629,-1.0403797377505195,-0.10585736919703706
0.91,0.31184413113617443,-0.24784887231602812,0.04725932876924036
0.92,-1.0534400324910855,-0.4187978312494518,0.10636099032044685
0.93,-2.478239081394135,-1.4438179941480258,0.3663423095792559
0.94,-1.322391427259826,-0.640657017513811,0.3204944007490326
0.95,0.220572127168293,-0.8518685752428007,-0.12362972831236106
0.96,0.634959440398679,-0.43382039486938995,-0.30176148275060904
0.97,0.038388968865137846,0.3193418522561789,-0.04573079620408433
0.98,-0.5238821631431554,-0.4680147943792043,0.3149524909113342
0.99,-0.2939602812915671,-0.8649971160381611,0.5419746102218819
1.0,-0.8362896009560109,-0.3980010641909374,0.509450944904617
1.01,-2.6048179703812138,-1.2090988641899545,0.18973328061664632
1.02,-1.938589665408694,-0.9464987279907412,-0.4124963164198103
1.03,0.11268358079628345,-0.49082731478425956,-0.6125816179714644
1.04,0.062208301231492055,-0.7359103376035262,-0.09890363503828609
1.05,-1.2443101173998803,-1.0674903993570224,0.3957142450732058
1.06,-1.810274158065575,-0.766339432338236,0.7714162479510248
1.07,-0.30031385355361584,-0.2828680601081039,0.6633679617451934
1.08,0.46202212347286514,-1.0701556057582378,0.12650219229765103
1.09,-1.4237457668265636,-1.2689305436501923,-0.1880486525430735
1.1,-3.318478440894523,-0.6554048349267367,0.03057944676488841
1.11,-0.5997190238769791,-1.0010758713630354,0.14623554670323244
1.12,1.411810171669967,-0.9192647279290656,0.34973748113388353
1.13,1.4102471060522923,-0.23699156454928016,0.34794069977198405
1.14,-0.25425184962594055,-0.46000198269953907,0.3866803311147424
1.15,-1.516011692045722,-0.6797274296808201,0.12877386178640582
1.16,-1.7891113590637495,-0.7021828764769902,-0.3026580400514694
1.17,-0.8347824272617259,-1.4445942067438555,-0.2903725581405222
1.18,0.5448504578285709,-1.072224217712224,0.3029871911607962
1.19,0.9420678479982332,-0.7976604597349535,0.6271527211880862
1.2,0.1895634646642037,-0.42056176714575455,0.5805595702677842
1.21,-1.0908028115802848,-0.1677439088449472,0.35741276072979683
1.22,-2.6698848212955886,-1.2825743940068608,-0.14066838631055315
1.23,-2.4990250153786238,-1.437674637931328,-0.6232279821208786
1.24,-1.3990440930582466,-0.33593331021648404,-0.908765016348213
1.25,-0.6521031090152429,-0.7324820122295972,-0.9692877234987087
1.26,0.15500143145967687,-0.8838814110696,-0.34482668863485866
1.27,-0.22025427393709346,-0.23291595447804475,0.5795728535068088
1.28,-1.2388083352060917,-1.0281352109199084,0.8299874556986578
1.29,-0.7158144602223089,-1.6665809047051954,0.45029956691356093
1.3,1.0130149344015182,-0.37089123442106114,0.14580913369610313
1.31,1.5649847209930976,0.3993800888076399,-0.07110792513772214
1.32,0.5715531933128705,0.22582964647292628,-0.38653696968075824
1.33,-1.3888841022441965,-0.16043083328828386,-0.33823305622912375
1.34,-2.737336615319421,-1.41787169385753,0.17725875349006223
1.35,-2.286535502283645,-1.7364107835459015,0.6455793417547451
1.36,-0.5980605464068767,-1.0064600287924799,0.26756399712669154
1.37,0.4225474714402546,-0.13211199354009798,-0.43669183213180646
1.38,-0.07865517535775426,0.46842590309670273,-0.4124628656205088
1.39,-1.381146674932653,-0.7791085663498917,0.12678508150979412
1.4,-2.3969537299987613,-1.206816556795042,0.8153947957307572
1.41,-1.191595578266578,0.08444913605775382,1.1580862997448198
1.42,0.4650429402661219,-0.9856687042194394,0.9525754308709927
1.43,1.1300176977499878,-2.0711119883795672,0.6172624900110738
1.44,0.6376412147158522,0.38461597070327086,0.5635178020473379
1.45,-0.9953750583141886,1.6236160971234006,-0.011704493504459484
1.46,-1.0311193801434184,-2.40552229424075,-0.8520684245626491
1.47,0.021905896671498566,-1.1470976575474485,-0.1704617990597262
1.48,0.17731863636517606,1.4669532283853173,0.647613642433326
1.49,-1.839726061440541,-1.1583422489242323,0.47237733864473075
1.5,-3.490079856650412,-2.1959953356562876,0.40690947781089964
1.51,-2.304988335404159,-0.24450593796693307,0.35535739121952725
1.52,-0.05226708143433279,-1.556590979419895,-0.26476889750424004
1.53,1.2770751467062111,-1.1107230373767207,-0.400538446941894
1.54,0.809382059263327,-0.2970050592308135,-0.289519017546747
1.55,-0.756438283802616,-2.3233411812003895,-0.08056696202995069
1.56,-0.36838638675051427,-1.1937060149387313,0.5099652550771854
1.57,1.0231928785190156,0.5183231997229996,0.4589447916099963
1.58,-0.8170516855201108,-1.9685986493185534,0.09646596119705385
1.59,-4.096308924943467,-1.686489147717697,0.18063316509218483
1.6,-2.599881553253192,-0.18260625305980996,-0.6432373893034589
1.61,0.6841328052927652,-1.1876761143885468,-1.7342281250697695
1.62,1.0126124461114114,-0.20767867070964205,-1.5440491128961327
1.63,-0.6245916560176995,0.202001447667162,-0.6770580130996945
1.64,-2.188196437955905,-0.7774658672786662,-0.21310212413199178
1.65,-0.8605456244020279,-0.735914715629271,-0.09431122895991455
1.66,0.3442869912111066,0.11232128113017026,0.45931825079850397
1.67,-0.9922742129816411,-1.1997182270920066,0.9872045351095282
1.68,-1.1592809054386362,-1.0352866447115243,0.6939383579811476
1.69,0.5847466378999427,-0.023025964103474895,0.1288697075578972
1.7,1.560295598870901,-0.20159707247384942,-0.1482013432523741
1.71,0.838386057584289,-0.19880106883912105,0.08437090340559505
1.72,-1.3173748064534576,-0.8999853749407118,0.42972779375907066
1.73,-2.5759360054698113,-2.0459311330945362,0.34505911762203756
1.74,-1.1549257865641989,-1.146300138560313,0.2851153359879262
1.75,0.20652620480679584,-0.10006750023686736,0.4875785040394119
1.76,-0.045574216468798466,-0.5293236825322455,0.4932161295065805
1.77,-0.9678906449494166,-0.361810974574356,0.27914330491988415
1.78,-1.5402832042432562,-0.38869327070282744,0.15924637611662987
1.79,-1.300638862964903,-0.8694263182878046,-0.015634780386169563
1.8,-1.130679664597838,-0.8817326757371087,-0.1886736217371554
1.81,-1.040011324499357,-1.1626927556762774,-0.2692728268114718
1.82,-0.32983344201427606,-1.234422331880061,-0.21554366377688391
1.83,-0.6993102255737952,-0.16226777789271507,0.17709850228808086
1.84,-1.1882293455903405,-0.9226745365419684,0.42342764366315927
1.85,-0.28830248668571806,-1.2602320328961538,0.07280297592124828
1.86,-0.5630862720780208,-0.7582527132315959,0.04468636124165395
1.87,-1.8395670923795986,-0.4582641315293042,0.30745561639613433
1.88,-1.3278732391129724,-1.215900656817906,-0.022778576396258767
1.89,0.015547635896813558,-1.273614148364841,-0.6060069253581165
1.9,0.20518749071365958,-0.4502201793236597,-0.5310241509853753
1.91,0.08516178133426712,-0.699693197881881,-0.20060762373013158
1.92,0.4416213640365904,-1.1129171503039488,-0.08345315324527539
1.93,-0.11574473875973364,-0.5727690506083621,0.4703683508133752
1.94,-1.1471940246158725,0.1226936427554588,1.0568041123984107
1.95,-1.3190360455427883,-0.48261181607816656,0.8538499208952044
1.96,-1.050245045305096,-0.8888433303357719,0.04304525641657054
1.97,-1.8375158744189526,-0.9169585634447209,-0.49148185704634595
1.98,-3.241980877693775,-0.929034724269846,-0.5622249861871303
1.99,-2.392281751864469,-1.6971984609806634,-0.6304469064666169
2.0,0.3474870051447391,-0.04070873756245884,-0.6377238813545107
2.01,1.8368949814653919,1.3595235856038201,-0.16652089052918642
2.02,1.3888140693198,0.06725029344875139,0.374247218162659
2.03,-0.38106238592755654,-1.072076829168938,0.3851333213360133
2.04,-2.3255558520852353,-1.4499010295171517,0.22451742827156512
2.05,-2.3200399317916554,-0.5838518040195086,0.5030984571023315
2.06,-0.14076581371483773,-1.5468963233134032,0.3190353631379173
2.07,0.9326078052178143,-1.6198391558504825,0.36931540867890056
2.08,0.8392646078347874,-0.07967102515976782,0.5698948469342693
2.09,-0.35373729640952506,-1.1349549031662998,0.4027912496984618
2.1,-0.4689990584020637,-1.343636358458438,0.027119469098065153
2.11,-0.8065691085587122,0.06953701796831432,0.06294127705277051
2.12,-3.4122232864174182,-1.344592480853567,0.291124249238445
2.13,-3.5721370746876557,-1.7549102544638293,-0.05620546677589677
2.14,-0.4587842055264044,-0.04391322043671145,-0.436976217538653
2.15,1.0724543378454372,0.14233419535518013,-0.28537788582150203
2.16,1.3064273363157564,-0.2456130081238222,-0.10945561605742882
2.17,0.5980849024697984,-0.4130087668527142,0.30456584194618286
2.18,-0.11072687987953003,-0.052941437531397545,0.8803566047031879
2.19,1.18886056840005,1.488791099162116,0.6433692389408285
2.2,-2.545691110157442,-1.063633637524317,-0.6189409844549691
2.21,-9.803471244979406,-4.303141549645236,-0.8571892715627834
2.22,-0.7453973677187926,-0.39071636151019945,-0.2181619422608186
2.23,1.000018728779568,-1.2899744924936676,0.023551733478945958
2.24,-0.6575742347637087,-3.309156873308367,-0.06306879964522004
2.25,-1.1854353196358187,-1.814342180181188,-0.21225464991367213
2.26,-0.7380007059710265,-0.9108796206006502,-0.676197802826822
2.27,1.4596611674339357,-1.1744776473111445,-0.770850798095639
2.28,3.682730652192326,0.6354494875751903,-0.4682509638682409
2.29,3.8562874743335493,1.616215024775543,-0.3647519460277095
2.3,1.0027880181273376,-0.24774638838148122,-0.5184712591687526
2.31,-3.8335803583484758,-2.3154840122929725,-0.4270924543131709
2.32,-1.7149762638324453,-2.0479919679612295,-0.20012025312434603
2.33,1.4540315366754348,0.4888793180434669,0.1247995200277373
2.34,-0.5749594370059247,0.4231554511529122,-0.024899133197924167
2.35,-4.51993083010325,0.5471056367737356,-1.0658164127210017
2.36,-2.663836080846376,0.41907334476216124,-1.9053395277335128
2.37,0.27185333911767035,-0.619410757566031,-1.421514714027874
2.38,-2.368857566150118,0.06367675480051753,-0.34102478713240025
2.39,-3.0798511441757603,0.337007947142261,0.5922331952573735
2.4,-0.06971766666504227,-0.5829687327041021,0.9460240642826764
2.41,1.9410126435405506,-0.8944862992482986,1.2190475100447935
2.42,0.7612119002557312,-1.799384991962752,1.9128065206868328
2.43,-0.766411498039463,-1.9561325145930488,2.04428027898423
2.44,0.2608647587851602,-1.2669313724137914,1.0265883803017446
2.45,1.6798587007430126,-0.4589630600353324,-0.09105881145476265
2.46,0.7047811968298467,0.36172165079138385,-0.5790062717630315
2.47,-1.437953108056376,-0.2730427463002622,-0.7740615992334517
2.48,-2.2945163043264154,-1.7759130772150216,-0.8770567159069284
2.49,-2.4482967281190007,-1.2469876857937658,-0.5823838299762509
2.5,-1.6563561674157943,-0.30333212769917767,-0.24900137681571421
2.51,-0.07948873763820102,-0.960242616572602,-0.21083364928177903
2.52,-0.0001788171142752488,-0.6159650912243668,-0.12901266902997244
2.53,-0.4412466703149128,-0.19941743818321003,-0.015674835313200543
2.54,-0.2810494271056235,-0.8013596991599451,0.4680529815425633
2.55,0.24584948226814185,-0.4664395857724188,0.911791451629184
2.56,-0.2807947509436565,-0.34115640284500387,0.6559053396092492
2.57,-1.7898107636410503,-1.5227286506729123,0.5611110699929228
2.58,-1.6938124733649842,-0.8801021639294914,0.5754574419163009
2.59,-0.6578578301775293,-0.49456682998474166,0.0007963533495282535
2.6,0.19368539681818364,-0.6066108469708236,-0.5638880040891032
2.61,0.40600267089342224,-0.4151443703602787,-0.42554683957407985
2.62,-0.5776578223616203,-0.48820819381800895,0.15506648791349706
2.63,-1.6984338354303838,-0.773299586043373,0.3747647630377966
2.64,-1.9091481471029323,-0.8546059917654071,0.18765025001871102
2.65,-1.2718973445181376,0.2726916495705441,-0.025795349143470907
2.66,-0.27825621671455814,-0.3535922738008419,-0.27514692794445283
2.67,0.14008369207243176,-1.4433205921201424,-0.07403154542766327
2.68,0.07547213902789046,-0.400083057612731,0.2613166467077944
2.69,-0.8666830452386796,0.2488770692731649,0.3403088128121774
2.7,-1.3165221570051304,-0.7114324075321784,0.33018686446736695
2.71,0.24758905280536397,-0.8781290101148918,0.2768207997822628
2.72,0.7181999850651348,-1.4079353324318884,0.2902948339632637
2.73,-1.438292849453054,-1.7965576405960217,0.24302496918481337
2.74,-3.025156193191761,-1.4020874929235525,0.04480155589770822
2.75,-0.4562137895246672,-0.7900988683351917,-0.38063560054943335
2.76,1.2113552855327032,-0.6550626846785014,-0.2954844708580722
2.77,0.28305957884402,-0.7209728420630961,-0.12968025147880183
2.78,-1.0894697890812501,-0.8636796838768044,-0.0355062531102729
2.79,-2.0010395199617315,-0.7920858258072293,0.2878748026030415
2.8,-2.096706491022388,-0.7662261066805387,0.43252184056940657
2.81,-0.24529143664582043,-0.47937464207911795,0.028258975038144934
2.82,1.230658656411857,-0.2192044942242471,-0.28940281144017777
2.83,0.3829386745341776,-0.7088964080084146,-0.18890136268480504
2.84,-0.7204549239380322,-1.211415607232986,0.061368080773761845
2.85,-0.06274658851737232,-0.5183193040445976,0.20004039525375
2.86,0.6163381402972807,0.2241877526841733,0.16000021597514275
2.87,-1.7499629834113961,-1.0357170640817477,0.25925110019838266
2.88,-4.65818228380902,-1.8316283430447349,0.26430392322983587
2.89,-2.6726374403568816,-0.6293024115806821,-0.5055656009114959
2.9,0.4330130963239309,-0.17689813632762136,-0.9587608630948391
2.91,0.9422830675224726,-0.17763739580844606,-0.5699307820236538
2.92,0.36728211642044006,-0.1335977198571491,0.00929510969954011
2.93,-0.2582815666718738,-0.6076726344518615,0.4480564942921196
2.94,-0.3752880569824503,-1.0043909267822817,0.7001965582219342
2.95,-1.072040257512716,-1.2246251962786672,0.6087566561644898
2.96,-1.5533259716898287,-1.5215771432934613,0.22635054466589685
2.97,-0.8257882865769406,-0.9838488848851333,-0.15598501682936555
2.98,0.21399137693345507,-0.11613078664273488,-0.5611988698051483
2.99,0.6325155798289289,0.16839246319350165,-0.5852631231012683
3.0,-0.1266501465649802,-0.39391196517247007,-0.002518340575371117
3.01,-1.794674072325458,-0.8376779088919076,0.6351041290124175
3.02,-3.100716186836563,-0.5503721925617345,1.0009961624117565
3.03,-2.3163552402588112,-0.7095973894701845,0.8708928450956617
3.04,-0.1992334004652731,-1.1566911361542325,0.47319324784896977
3.05,1.1518150360900437,-0.6168344813398233,0.3799660783133567
3.06,1.3401676493422732,0.25848616873427227,0.5681192791562523
3.07,0.4381980224101715,-0.1322943117471834,0.6264165982434609
3.08,-0.057689961964011,-0.6912017383914452,0.5253459720935878
3.09,-0.20798920561158907,-0.2721077163824442,0.6239468136651345
3.1,-2.1633752491352487,-1.1443788988097114,0.8283418045239742
3.11,-4.14431239059723,-1.4798752838964266,0.5887100058700222
3.12,-2.1884308651569966,-0.7696178555095348,-0.2480850825456249
3.13,1.1005396769220046,-0.5440879231890347,-0.6688162407013772
3.14,1.5866495616645069,-0.3233510193145479,-0.3689134585477614
3.15,-0.5844342461175125,-1.0400837944288133,0.1967755023776405
3.16,-2.7534377795307665,-1.739028805420957,0.5770252728010232
3.17,-2.207454802731609,-0.9367038799309708,0.5595153414952945
3.18,-0.5861216007286711,-1.2885077040726014,0.10266733920892157
3.19,0.746688628816343,-1.3660284120264135,-0.1271957224506086
3.2,1.459428162506665,0.7705079228332467,-0.2805547928563534
3.21,0.13411609821584597,0.16079356975271847,-0.7160053413925138
3.22,-1.956515011201346,-2.574253373763851,-0.7092555860347649
3.23,-2.258349382738987,-1.7601812917844675,-0.12040694234309049
3.24,-0.5538633900800461,-0.04291639037942371,-0.15461552816677818
3.25,0.31957133943409227,-1.8238300116984136,-0.47435433673094674
3.26,0.45071557998890643,-1.7175703690546946,-0.37655134376945115
3.27,0.1869387366655273,0.07140966269660383,-0.18805708148086184
3.28,-0.5080579389360719,-0.15770240859184442,-0.32120943573847627
3.29,-0.688810979913712,-0.8979498919483031,-0.6079745395055145
3.3,-0.16449225058376812,-0.4488418337561089,-0.5975035424574455
3.31,-0.163014909357449,-0.09009369504787303,-0.46213542266542906
3.32,-2.094858422890069,-1.4930745558261365,-0.41801653030633473
3.33,-3.241664334701674,-2.0137323059178285,-0.6077441472600777
3.34,-1.4997956295161967,-0.7179806629263549,-0.8673372787973064
3.35,0.9661353708026763,-0.4260554769238135,-0.957371412710328
3.36,1.8866077895262672,0.05407581850703601,-0.45195350280764157
3.37,1.053052295327546,0.3255053341163956,-0.008147261468022662
3.38,-1.0146255783906142,-1.3381554982101063,0.05621175596390878
3.39,-2.8322630065343994,-2.2419691772386963,0.05062153835910288
3.4,-2.2094274770387905,-0.8722065915463825,-0.28446004105033684
3.41,-0.42852942739028294,-0.8157737162375676,-0.6956319311342
3.42,-0.538030106397844,-0.8468789322087454,-0.4623401090631897
3.43,-0.645577679376979,-0.005779306521892378,-0.15477097435456635
3.44,-0.190536833005169,0.38535033302990324,0.20453470806740123
3.45,0.2758271147104671,-0.41270397014341587,0.6638940897123967
3.46,0.2402739893288144,-0.8214047400378109,1.0692781971388239
3.47,-1.716764629034416,-0.38446897038978206,1.2049961292764195
3.48,-3.538208445801199,-1.0169736834925065,0.8606521049173722
3.49,-0.8171469480176125,-1.0371657155455505,0.3619326964583532
3.5,1.2944360342021668,-0.26213296382590306,0.3393162109392988
3.51,0.29685605828652056,-0.6200954634634858,0.22342612662184488
3.52,-2.412771216402298,-0.9246702986302464,0.33451594564627446
3.53,-3.7025518665233976,-0.41475021007451146,0.5938249162707707
3.54,-0.4053047154828039,-0.6433631668851036,0.342464561082206
3.55,2.0215340686656913,0.20282512183471657,0.5265225289432026
3.56,1.6473440835424926,1.257421963343265,0.5546097575227542
3.57,-0.2883681050728612,-0.07837789198919116,0.40328914261384285
3.58,-2.2775326335679624,-1.869708556122448,0.7347895626796543
3.59,-2.756414063573588,-1.519090747192606,0.7498551464349196
3.6,-1.6296246520983997,-1.173855077621648,-0.18127105486261105
3.61,-0.07160968344862548,-1.466586544511684,-0.8208012181206708
3.62,1.1895388045823063,-0.536593015117847,-0.6339938545716057
3.63,1.1105644788176499,0.6418808151880038,-0.25386217634309305
3.64,-0.27335889651167006,-0.04777347265764024,-0.13373996868062477
3.65,-1.9442797659522975,-1.4928875778344364,0.0140210163413886
3.66,-2.4480436879316185,-1.114142971055173,0.39856271115912867
3.67,-1.0341357343296786,-0.3116395297697243,0.26388634161556684
3.68,-0.13391931797334444,-1.072654050939306,-0.10472482402094035
3.69,0.5582590183291063,-1.3427527611996668,-0.37844026389240965
3.7,1.036616449203535,-0.9385194362120212,-0.1490161422817303
3.71,-1.03984149144863,-0.7612885405640853,0.2815848084569614
3.72,-4.070055122790281,-2.062717222011336,0.110331039270326
3.73,-1.8489909103917843,-1.0664383063173335,-0.3867099659920851
3.74,0.8837334291995728,-0.31172103837126014,-0.3467010817118688
3.75,0.6096777267707666,-2.0190755700371517,-0.3799987360571208
3.76,0.844274433043301,-0.42610803820545645,-0.3376068081686073
3.77,1.602077036833943,1.8409993229654655,0.23976792631282987
3.78,1.0253792678538205,0.07164069008356742,0.6808614527449642
3.79,-1.0044173985596898,-2.4275512359839975,0.7155558485665167
3.8,-2.8168378330101698,-1.2864872166625319,0.6134121708276538
3.81,-2.296892497191924,0.06441699631754043,-0.023266174756323768
3.82,-0.09544834888535489,-1.137026823963366,-0.7658334271934333
3.83,-0.08953891752761693,-1.0677521948501454,-0.63419122021465
3.84,-2.723061436734505,-0.6378005342167621,-0.2768236431691509
3.85,-5.492629888961254,-0.38752154338095257,0.02233543874033297
3.86,-2.0426871249770624,-1.0245120042815121,-0.011095996827332203
3.87,1.5447975867860966,-0.9192011520890507,0.36092455267427886
3.88,1.4441011170519766,-0.0654599709927833,0.6896221659624794
3.89,-0.6994729986644062,0.5867325807585524,0.5118951380230695
3.9,-2.062034365008559,-1.0916210444257592,0.4487385678293015
3.91,-0.49470679216078967,-1.6818625932854392,1.0289859478662842
3.92,0.6438867912139035,-0.1921106991058234,1.1531721611577856
3.93,-0.1828599862340252,0.18461587602846244,0.327530061171364
3.94,-1.467932499268043,-0.27800215355272256,-0.32455957199134977
3.95,-1.7469518654696081,-0.5992416785913917,-0.28854078539897693
3.96,-1.54071889025102,-0.3731055212763245,-0.1266428613405225
3.97,-1.1356718222474877,0.13201244331416326,-0.16200878664703225
3.98,-0.8299134150666143,-0.3779411106242593,0.2540998056984258
3.99,-0.4709749436131735,-1.8691966541581426,1.0364022805678044
4.0,0.47832285656344203,-2.734980721926206,1.5139691032390121
4.01,1.5276916568018548,-1.2627277344448973,1.3569409428384984
4.02,1.5915233902058237,0.6076847540113879,0.44420212899798844
4.03,0.01566175618414253,-0.3725158718243474,-0.38244327487945823
4.04,-1.191832149729988,-2.2464386435115666,-0.40357522403491486
4.05,-0.8871788810486672,-1.2406191346755724,-0.23419333821733282
4.06,-0.9549159203633224,0.1925064860384062,-0.20604444303194425
4.07,-1.3848080243579004,-0.5894911387931904,-0.15649975890988022
4.08,-1.1520037121632072,-1.2679802622131473,0.13874732278795326
4.09,-0.09802274609623914,-0.14986172633332104,0.20645309528386527
4.1,-0.4399724214581635,-0.7453992877875723,0.049084169605170674
4.11,-1.157561359379887,-1.5566096694328078,-0.020907530523057175
4.12,-0.987647079339902,-0.7160730384069627,0.2501624110366137
4.13,-0.3825238634265233,-0.48847119033272435,0.42307563577653895
4.14,0.07418140352201587,-0.9205635910435143,0.3319603520784078
4.15,-0.09949346061133073,-0.5969734027886406,0.20803067011832388
4.16,-0.8545967457101304,-0.17343882626777385,0.004134091845187338
4.17,-1.3395135965483518,-0.48471205168422027,-0.22109653859169567
4.18,-1.0851511434346595,-0.6262854888659554,-0.2618807464086674
4.19,-0.9958469452840105,-0.6874029860095381,-0.11230669889428865
4.2,-1.2903561176595024,-0.8482599243745754,0.19985564928343177
4.21,-0.9608082282070708,-0.5348800605504113,0.426346480858056
4.22,0.013504128964539345,-0.4750713582759218,0.3519410249498852
4.23,0.15807866580753333,-0.5410401921834058,0.3308848250514181
4.24,-0.8314747979151595,-0.3576267975364168,0.526624283651373
4.25,-1.54111266582895,-0.5318707160581481,0.5617655518204412
4.26,-1.3468544607417012,-1.0193408098007777,0.2501520790778996
4.27,-0.8262652180840463,-1.0469843380672808,-0.14738933357750497
4.28,-0.5368981599015674,-0.9049471604863752,-0.3401888026747591
4.29,-0.5641014083465712,-0.9743223139986884,-0.3145238366797149
4.3,-0.4948340677233923,-0.8700491158185029,-0.21269156704227743
4.31,-0.26067206975783785,-0.8704452039383848,-0.08784996471635648
4.32,-0.13970758133575864,-0.8618854394479915,0.0051720563103176175
4.33,-0.2860885644346551,-0.656432857585649,0.02847870793755536
4.34,-0.4884944872438542,-0.7588821379448204,0.00014395484911148432
4.35,-0.4755589878603418,-1.0644474920407367,-0.12469389905958753
4.36,-0.525290894359852,-1.016081814260953,-0.2749278995657931
4.37,-0.7798221119218595,-0.8555336378737552,-0.3356112863534291
4.38,-0.8926384739114528,-0.8458180659708688,-0.274945747149037
4.39,-0.682064477104322,-0.7084552268522558,-0.16625368805069557
4.4,-0.4931238052692867,-0.5122722995954756,-0.03513823928383476
4.41,-0.7277101909283262,-0.47417383954626346,0.11314342550500418
4.42,-0.8746812614305199,-0.4910191798177529,0.15167039368379395
4.43,-0.689679281612854,-0.5449967409149855,0.049561822447896614
4.44,-0.7672985716383672,-0.7347848931072654,-0.05881683570286402
4.45,-0.8865973811810336,-0.8673091338359161,-0.07437437794444958
4.46,-0.7857645700393409,-0.8982684157685924,0.011616819723488677
4.47,-0.6431540916352646,-0.8820203606631338,0.09777646212113399
4.48,-0.3993578350401812,-0.8614385111713627,0.13404416488161527
4.49,-0.3790871010371697,-1.0386403957099932,0.13909731956138355
4.5,-0.6041185355963969,-0.9762661350651768,0.028754360655154538
4.51,-0.5884862690534244,-0.7269634378496026,-0.1960482988842868
4.52,-0.44168034346317303,-0.8520346445978271,-0.4045824254153672
4.53,-0.44104131724467854,-0.8078836566146581,-0.4788811314276367
4.54,-0.6557184315901851,-0.5007283566914598,-0.3819756514396665
4.55,-1.0051583623367428,-0.46669096517461905,-0.17767734063973872
4.56,-1.1762680414149165,-0.6212224572912137,-0.016916288582785804
4.57,-0.9994024060301545,-0.6404082793462526,0.07234820175683736
4.58,-0.8971032365943563,-0.5562772693776145,0.1283157272217707
4.59,-0.9396596688275674,-0.5790096221082882,0.17021085565062402
4.6,-0.652676154820874,-0.6215789223844935,0.25552567295470946
4.61,-0.23705569370337667,-0.5819664486036514,0.34618559735394866
4.62,-0.2972695993822928,-0.5374972790928101,0.3845686071059322
4.63,-0.665237633637702,-0.49531107607000613,0.442646481840257
4.64,-0.8491303798609829,-0.5065204177247024,0.42725797983786395
4.65,-0.745024500122431,-0.6245980306554186,0.24217379929522484
4.66,-0.6395796076316931,-0.5631721147122776,0.11749941447402347
4.67,-0.904949946102685,-0.7187923345014814,0.21923116567528353
4.68,-1.1545916670213427,-0.9277584072013711,0.3956506384038172
4.69,-0.8058471623773678,-0.7686008776269505,0.41084337189066705
4.7,-0.32326904618928526,-0.8113778360145798,0.31771182883454363
4.71,-0.28177239220116707,-0.8881334076729159,0.3176733911350425
4.72,-0.5018962586510829,-0.8829449684749889,0.37289250984959693
4.73,-0.45859277847105917,-0.8394981683966212,0.3286741136316357
4.74,-0.31090227189745906,-0.8134028558578545,0.2145057403314665
4.75,-0.6342894255350657,-0.9492045569218945,0.11947980624233982
4.76,-1.0112439737195298,-0.9734066581237001,0.012287311453795576
4.77,-0.969119993205769,-0.8527438562783558,-0.1664187409156578
4.78,-0.8679495966711694,-0.7732276282833299,-0.3159990976023125
4.79,-0.9782999883222697,-0.7107307930780055,-0.22109257730793352
4.8,-1.1226280427669264,-0.852471545852987,0.01104809015650518
4.81,-0.9272017271135987,-0.8848937058649007,0.07378251733829964
4.82,-0.5400314079443783,-0.644701152432026,0.027923643625423523
4.83,-0.4063772187000872,-0.781665049052151,0.04910231205036777
4.84,-0.24784190251419852,-1.0233829892015098,0.056318037760653174
4.85,-0.1538612463571266,-0.8531806607524194,0.05414582584838328
4.86,-0.6059430827002316,-0.6037734360984445,0.27438790170035504
4.87,-1.3863576378748033,-0.9675486283027172,0.39042285794689024
4.88,-1.7682788014668027,-1.2836282460605353,0.23259506389593326
4.89,-1.5480764417739774,-0.5605383778494408,0.07026391423538877
4.9,-1.186884129031329,-0.6102286385750474,-0.11589073068396485
4.91,-0.48647939668733264,-0.7212602223263477,-0.4158670203857796
4.92,0.2696130070651658,-0.3470169893038602,-0.391511130644584
4.93,0.4904171271041797,-0.48447615172638014,-0.055044274463387166
4.94,0.5523749301739838,-0.7187724498325712,0.17595751033483287
4.95,0.5251428239951695,-0.31360917560099544,0.290361465176778
4.96,-0.6916716002447525,-0.8560905954184223,0.4151515445344761
4.97,-2.7915142185596618,-1.849285856242118,0.5151415176177329
4.98,-2.7135782836352775,-1.0808562483199393,0.18808299674635345
4.99,-0.21481194271579734,-0.7362140795670538,-0.5533701527833758
5.0,0.7597733848561441,-0.7072681321141924,-0.7377165268239662
5.01,0.2822803154505175,-0.17787392104084834,-0.4178192732042332
5.02,-0.8477674484951074,-0.28834698598894065,0.0001999999134990704
5.03,-1.943832390006027,-1.2032401264005328,0.3604445633581978
5.04,-1.6317202569802256,-1.1034918360502597,0.46869453829958413
5.05,0.007936619677863735,-0.593946091989425,0.11877039062668628
5.06,1.0137370868932476,-0.8035289521646902,-0.308287711287316
5.07,1.359645796445347,-0.30320176138208405,-0.5452622725469375
5.08,1.0312152957225982,0.3329772919398736,-0.554448136506143
5.09,-0.12240216460325844,-0.40512376158354635,-0.5077078433821332
5.1,-1.6339593216600619,-1.6467321865314344,-0.32168008895878586
5.11,-2.952103961244118,-1.6759852720529327,0.24176738998160952
5.12,-2.546091499668655,-1.33697011390128,0.5384020976710258
5.13,-0.4700111265773717,-1.1340037792412474,0.0494487663854203
5.14,0.8471374616088038,-0.5669155825342258,-0.6954548492640399
5.15,0.4787851824025026,-0.7183444192620615,-1.0253829003661608
5.16,-1.2933139083039118,-1.2392340299307698,-0.7124991901141295
5.17,-2.5482619991374693,-1.135299675162057,-0.2799211527469234
5.18,-0.9051507577302561,-1.1464494849875773,-0.258397615944584
5.19,1.2265040502200135,-0.7018989867149994,-0.16130864342974863
5.2,0.9881743601975916,-0.5322467841696685,0.06556638477921732
5.21,-0.9480038790239125,-0.6741739386995127,-0.29996641351728714
5.22,-1.9906496395001678,-0.8331075477861155,-1.0339324992919474
5.23,-1.1934463547569192,-0.7517629528128179,-1.105978870310221
5.24,-0.09841154048878895,-1.0529591136469074,-0.6469704152376368
5.25,-0.005674177672652178,-0.5589500495831546,-0.5340290371505523
5.26,-1.2319466849596705,-0.5121273116719907,-0.48838760452394997
5.27,-1.6928077744534162,-1.173083772889247,0.020161864736335525
5.28,-0.1456402044410346,-0.8651092089443587,0.49741779055748125
5.29,0.9967684696164074,-0.22498702536974202,0.5265058835332102
5.3,0.8033042491729012,-0.02769594488837985,0.3190559691368869
5.31,-0.43461451769837345,-0.17950346823123942,0.6908416077085148
5.32,-2.0775795780589332,-0.285040801918437,1.0852964116838846
5.33,-3.702804304506456,-1.287031818931851,0.7588745744894337
5.34,-3.34915850956064,-1.4642035313195239,0.016066742595672406
5.35,-0.051033129050974686,-0.7260299923045066,-0.363624218821592
5.36,1.40251831507948,-0.6139346046887444,0.0021386816559036902
5.37,1.177148214591589,-0.06940614023065478,0.36441905095170346
5.38,1.0890748434601607,0.3464177589328134,0.6192902196556029
5.39,1.6059686579880605,0.7525215939150423,1.04125380912098
5.4,1.393751992756404,0.45826249057964263,1.2472731554276584
5.41,-2.4089696290367253,-1.0440231287458122,0.9376307161892973
5.42,-7.3449904815871125,-2.232229504667386,0.4431315517926304
5.43,-3.818703789158705,-1.4278576977439696,-0.21984873569077026
5.44,1.6752366868691586,0.03502479092508465,-0.5685889590920974
5.45,2.198194371359171,0.09152987787647902,-0.4602987459316579
5.46,1.3524178577281167,-0.11787089581628887,-0.23802765291426226
5.47,-0.5344006238515545,-0.3812131234997056,0.25669964500904574
5.48,-1.2734564765720555,-0.4660278448537446,0.8750300173510144
5.49,-1.0868730932011381,-0.9901593961396725,1.2570297310170748
5.5,-1.8406825182096884,-2.002906383330291,1.2933592044307594
5.51,-2.1351557210584398,-1.8752412431883678,0.7829844518474693
5.52,-0.6071664337909177,-0.6345094230134254,-0.22712054503299908
5.53,0.7537473474850848,-0.30696706260066225,-1.0015132455577322
5.54,0.26512561778885174,-1.0312338831044459,-0.8846746642174351
5.55,-1.2467563527672292,-1.4282421974297461,-0.4393912295636839
5.56,-1.3346226143433895,-1.3869355880721317,-0.2359483531794976
5.57,0.1400674026366947,-0.6218671770750034,-0.05087304725669526
5.58,0.45155314567454286,-0.5246590373541717,0.3119107367661389
5.59,-0.25877243084862045,-0.7853480734985938,0.49500094225396557
5.6,-0.5001532856567749,0.2728284470578363,0.26344719914339915
5.61,-0.7553869672145946,-0.2163777091497653,-0.03886085063877334
5.62,-0.6145054414659559,-1.5274423077464532,-0.23633059867284306
5.63,-0.21506433149597717,-0.5747739617798332,-0.26929296150975895
5.64,-1.6200135522349577,-0.010423758732573712,-0.16114444138585882
5.65,-3.204733335635328,-1.6528058697049823,-0.04432483792843632
5.66,-1.6465339409976403,-1.5399380198475685,0.03727098204003783
5.67,0.027181927066033354,0.002194988082524373,0.2525014163257643
5.68,-0.36246939184193633,-0.37906841027851984,0.3851732901925772
5.69,-0.7971493055840825,-0.7297390368806921,0.4827925097040569
5.7,-0.3647648576544632,-0.22706144644796952,0.6769793806739097
5.71,-0.14495855349544517,-0.7250259145578942,0.5572310030063042
5.72,-0.44387016850861694,-0.9724429587064553,0.10985730894468121
5.73,-0.7525296656803231,-0.8337697141989845,-0.1378594386966354
5.74,-0.6265091798210916,-1.6570379932993247,-0.04713013071041863
5.75,-0.3519613439089999,-1.0346623226066034,0.23485280157258304
5.76,-0.28630548364975933,-0.3003351548138173,0.6468978208653846
5.77,-0.19476387914048607,-0.7325254775407706,0.9064056790850981
5.78,-0.0030570082166556,-0.48219867523081794,1.0831735593907934
5.79,-0.23777362193998122,-0.3150474890344091,0.8716909697222293
5.8,-1.2353898362068585,-0.4063724124946378,0.09050931962220667
5.81,-2.107497799179855,-0.6160648003765099,-0.6257125492181669
5.82,-1.397094997922574,-1.3669300992577056,-0.939793421044724
5.83,0.3702312808224268,-1.1452988194622276,-0.992159132108856
5.84,0.7509962954859165,-0.15520523311717221,-0.7884689728040829
5.85,-0.23877367620153545,-0.554999763946552,-0.22440925137426287
5.86,-0.6657079136667604,-1.0706942955236853,0.2781386175764905
5.87,-0.011609505926775399,-0.366325649032592,0.6497491624454658
5.88,-0.0022809690438122094,-0.6085811799126792,1.0056239842483172
5.89,-1.5317507108166557,-1.6835929951680613,1.016367557870951
5.9,-2.79677868343702,-1.1726896217749982,0.324375620863358
5.91,-1.6600928501338161,-1.018537362199188,-0.7441279128214783
5.92,0.7031840238110929,-0.7508415742523242,-1.1623142235722161
5.93,1.0998971509309727,0.05339454500294089,-0.8255453655816404
5.94,-0.4430860099524033,-1.137945179690724,-0.5108574360344842
5.95,-2.1453245150615805,-1.4761519739010538,-0.20699793674783687
5.96,-1.8730399299696143,-0.46422824259497525,0.16742297618539137
5.97,0.03240778834120598,-1.1611373514856846,0.21049013857400142
5.98,0.1969254529705789,-1.542160794602822,0.22647126597247724
5.99,-1.1502515663505262,-0.09094731276990109,0.07366754078219097
6.0,-1.8164549808354753,-0.07756461272472392,-0.3626571884519024
6.01,-1.0519256148226082,-1.7743330450992285,-0.31990486153958403
6.02,-0.20160550902258068,-1.4435561953000458,0.10577237995988208
6.03,-0.08818467511676181,-0.4558123349881674,0.034657460370273056
6.04,-0.3053567158907102,-0.8248879416627034,-0.25219085974404026
6.05,-0.1930439916535652,-0.7325677499179587,-0.031035549433535387
6.06,0.050276000872192646,0.05551990114377796,0.36716231619523987
6.07,0.07270048054583168,0.12213414482141902,0.280122690653958
6.08,-0.1782384383892366,-0.4079156335346323,0.22769805360249662
6.09,-0.5516419089210537,-0.27727410288699816,0.43191636864365246
6.1,-1.8044741483130027,-0.5131716121562474,0.3739436158729937
6.11,-3.3043417492963467,-1.4249604333840444,-0.1614652516947233
6.12,-2.1654737657791254,-1.2148138221083593,-0.6529227046731712
6.13,0.40408076193934156,-0.5083566693839457,-0.3744872141077166
6.14,0.6948537396015605,-0.346852710896061,0.23685521074911398
6.15,-0.3876091576531109,-0.5930818965208751,0.5653019844633862
6.16,-0.7138064803694842,-0.46419874214347157,1.0048419211073165
6.17,0.10199876083803355,-0.49287569617508276,1.2411061765102855
6.18,0.22307859371937902,-1.0963112247952527,0.8622458649724932
6.19,-1.2379780121802506,-0.8268205753826713,0.25555058497123234
6.2,-2.4697492397085843,-0.6532723324501648,-0.3543224755922183
6.21,-1.8468832448749353,-1.7427611657598276,-0.6542693483472921
6.22,0.170159045077748,-1.022260845142719,-0.440158949204661
6.23,0.9428420172838048,0.5100993214537667,-0.3558166290684471
6.24,-0.2770910906049314,-0.7289539364739217,-0.40917093799944093
6.25,-1.301228262517604,-1.8803327279748048,-0.012442687397947468
6.26,-1.222426770277156,-0.8692755140968631,0.47193542951620493
6.27,-1.5230614799740863,-1.2221215173207103,0.443888534968978
6.28,-1.3055637309764117,-1.2860742315730451,0.34644468761090474
6.29,-0.02417439074416436,0.13041748477769774,0.5686198643275536
6.3,1.0981366487598743,-0.3029733773013727,0.4588444992880319
6.31,1.1315103173868648,-0.8218390085075552,0.10342615192519335
6.32,0.1556159554921887,0.1694705430851446,0.1813227251122566
6.33,-0.6300869619393504,0.505713012143656,0.34894932939905543
6.34,-0.18875005211134793,-0.32638451396960894,0.0882098182910202
6.35,0.0238440829949227,-0.541776000201323,-0.05980722998547594
6.36,-3.1012645929716953,-1.0634369030677648,0.3218050488800438
6.37,-5.654067608125289,-2.2640510136210565,0.19508475799785055
6.38,-1.1758613337614492,-1.7242875683129966,-0.5427656554616616
6.39,3.0650640304787147,0.5645273438096032,-0.2406316779334745
6.4,2.5073815520608163,1.0378065456613572,0.09733421481303918
6.41,-0.5748123621851182,-1.2801228747961135,-0.3735696134920739
6.42,-3.9578766488632935,-2.5411760042397757,-0.16018767966870226
6.43,-2.799609345924876,-0.8905523806886492,0.6438105442358895
6.44,0.4919714052046093,-0.626506777742981,0.7577154054940953
6.45,0.8682200089082047,-1.4698820712394915,0.5458000187577854
6.46,0.1829501485537539,-0.6872722643902397,0.11060741513549986
6.47,-1.1128307606720782,-0.08741700985617964,-0.45107872314007336
6.48,-1.5683068027016347,-0.8268966995366893,-0.8114089645257648
6.49,-0.46378783993329586,-0.9002889839826491,-0.5566465864954416
6.5,0.5003003083263202,-0.7196287739213717,-0.27694793660168615
6.51,-0.24119403564005953,-1.71736738433435,-0.06512425825054483
6.52,-1.3083193635364192,-1.9278513493580387,0.4079578605139838
6.53,-0.42899255472789144,-0.3572010994773482,0.38522069712842505
6.54,0.996744627653692,-0.22203229245079056,-0.20570222121440643
6.55,0.8669069708814799,-0.7690881330509761,-0.5077704478434387
6.56,-0.7482167259914719,-0.7882399303099975,-0.3696904617743969
6.57,-2.1510175537914784,-1.333355999167682,-0.22015829620975924
6.58,-2.203892730003148,-1.385129999038091,-0.13961581166237028
6.59,-1.4689636588306356,-0.29120879614053785,-0.11089059704096
6.6,-0.6172641801211122,0.17186608403629527,-0.11879014028826766
6.61,0.16277712995183533,-0.9461055775651943,-0.08977768337593905
6.62,0.7305603027343934,-0.9483961217542104,-0.04848637300378433
6.63,0.5850424604740405,0.46461366602428994,0.09685423037823332
6.64,-0.13729653382348,0.6164526365695165,0.36715104739223947
6.65,-1.1792478101061004,-0.38203359801078673,0.5817161889567503
6.66,-2.684642228047021,-0.7105416485805123,0.6631555591032061
6.67,-3.1715390613728647,-0.5877845112597633,0.5966564291782127
6.68,-1.4810063435857264,-0.5564897547715214,0.3821310041238193
6.69,0.3910183946625858,-0.5203770869920247,0.3135321160324488
6.7,0.606054283247664,-0.6431840106300172,0.4453198004690435
6.71,-1.0591410077221237,-0.6669620404328315,0.8299237289115519
6.72,-2.5829973751991187,-0.2853859578441839,1.0653171382752453
6.73,-2.601972970931016,-0.38742689796902513,0.5123886054348056
6.74,-1.1820589075711263,-1.184643171782592,-0.1815373182191827
6.75,0.490769911678995,-1.601086865325019,-0.23073068931509613
6.76,0.7437083699262583,-1.6859406662658525,-0.23785883844049532
6.77,0.2574494041889341,-0.4472651691190054,-0.11760513866666869
6.78,0.7974407538226859,0.93799717798582,0.21390023976069059
6.79,1.815160447313206,-0.4600023194402072,0.2609351281501271
6.8,0.3913785113218938,-2.3113613957579475,0.5287297590960957
6.81,-4.05794462656883,-1.974913970054976,1.2804831993504824
6.82,-4.869200283159881,-1.8813493530792498,1.0079600637551955
6.83,0.43607429473117604,-1.5516546084260674,0.04335182626799212
6.84,3.7934494941127412,0.9007133986176975,-0.2627888799834981
6.85,2.9533551063409424,0.7780830156848835,-0.6698758973443294
6.86,-2.0965315963256286,-2.082396187663713,-0.9468721896275032
6.87,-5.629114649609292,-2.993482583710889,-0.739857405190407
6.88,-1.2983979031902142,-1.1279456258240594,-0.5319361348313293
6.89,2.5414114361842097,-0.25321056685790766,-0.24664828747956263
6.9,1.8778502604593166,-0.22060144944161492,0.10815324828524595
6.91,-0.92095729948533,0.439052208564628,0.03644186942241608
6.92,-3.472606020527993,-0.3048379084896584,-0.5306694779406806
6.93,-2.7384604870013,-0.425208222550049,-0.5393490271441792
6.94,-0.9459464436624292,0.19526040236344602,-0.1544514544315279
6.95,-0.6879308625777317,-1.438869021462465,-0.31176038914239057
6.96,-0.6615386660957788,-1.5268805045703442,-0.5395934894580838
6.97,-0.7373115046778538,-0.03781021510294358,-0.3222130866215783
6.98,-0.6821036254004792,-0.6542147110283538,-0.17762112053714932
6.99,0.1334104988545109,-0.9585266515867186,-0.20406981032203736
7.0,0.6206381426720684,0.1852052564472989,0.10393855803311565
7.01,-0.29941483485137327,-0.09423537561255799,0.6018771691448297
7.02,-1.7140300115259142,-1.1515151165029192,0.8154705247007885
7.03,-1.8367818271166394,-1.0288930801386074,0.49253858671358686
7.04,-0.9661253932307015,-1.6160499717379,-0.24584307772162145
7.05,-0.28206711009264346,-2.2450357794599314,-0.7489049138793495
7.06,0.002962463982775013,-0.9769035946019652,-0.5782783315399964
7.07,0.039654247283468246,-0.14157661390460743,-0.2779012279107457
7.08,0.40178172365164777,-1.2620236697037397,-0.37630633961205817
7.09,0.8321925249818427,-1.0246701954485635,-0.33416069480866745
7.1,0.15748679090442624,0.4812373373222721,0.11130169273376214
7.11,-1.4198561296921262,-0.6920773660976014,0.23265016750783357
7.12,-1.7095468541851906,-2.009135022692744,-0.2091338846671385
7.13,-1.044041898815765,-0.653704132771795,-0.5737392804994031
7.14,-1.4316450414195483,-0.8833701870272874,-0.6348871458693599
7.15,-1.21721549459963,-2.1596193807488167,-0.7201261216596708
7.16,0.1869056359478898,-1.0512951729187843,-0.7020235816458944
7.17,0.24487281165996688,-0.2326623330731327,-0.4422653715641131
7.18,-0.8908124588923025,-0.8497610790847077,-0.18802835854242728
7.19,-0.5289442372878014,-0.8501431791490363,-0.2837499954375405
7.2,0.2029859018391008,0.2514952972155718,-0.5063248403794093
7.21,-1.0402698684585416,0.24104187566347068,-0.5566338544155683
7.22,-2.3210018528385796,-0.6961343979826681,-0.6763384792821268
7.23,-1.7712985692829837,-0.8498553279673289,-0.7714576908501645
7.24,-0.9034506786794823,-0.9294098359615003,-0.5091344651846548
7.25,-0.5416088692737927,-0.8995210294629947,-0.016642715567850214
7.26,0.22075693054300452,-0.4808828072217776,0.3712038581822748
7.27,1.2451266977780269,-0.2040624396745989,0.5296219636948044
7.28,0.9947864443475389,0.12950613865910898,0.5301931852529641
7.29,-1.500863138648315,-0.3702402664917245,0.6452015307500931
7.3,-3.682063624754955,-1.0540628185350478,0.6587541918282087
7.31,-1.902582831697,-0.6144542429441511,0.23570820128335587
7.32,1.1604779832223562,-0.43620172962443293,-0.11916717058143926
7.33,1.5217486387844146,-0.792646065318313,-0.08098908540410849
7.34,-0.26917615903462744,-0.7236514750121972,0.1775178794210431
7.35,-2.5582525906723292,-0.8854164028857691,0.4049997216024037
7.36,-2.7760062078275904,-0.98332737109237,0.5094119353275249
7.37,-1.252008969148613,-0.7350745749412425,0.5488517305535596
7.38,0.031965559192822304,-0.5214287329947009,0.46016135144590953
7.39,0.674798313363129,0.053121447257431405,0.4086726282664292
7.4,0.24270497445633246,-0.12156611008890922,0.6142613140894602
7.41,-0.687737791835668,-0.7249026777398492,0.7015555976670839
7.42,-1.2951914695545717,-0.2679915228498611,0.6129257545838369
7.43,-1.8456986528855106,-0.40455649283873957,0.6086171331428235
7.44,-1.8307959199082104,-1.0913843285604823,0.5547604223623799
7.45,-0.4611233116814207,-0.3552363642526884,0.5112031345127448
7.46,0.44178891214564253,0.16795122117909855,0.5278697972747753
7.47,-0.21206936704018242,-0.5605818913767201,0.5854985623972845
7.48,-0.47781062399300733,-0.6220963434267394,0.6110433465784382
7.49,-0.4766647404100065,-0.22712549880792002,0.48017014964414795
7.5,-1.9302615106392742,-1.2921217071611073,0.4174504916820603
7.51,-2.813529892221254,-1.6619130638350947,0.3464055615802194
7.52,-1.2222924153855552,-0.4183821425968908,0.13025650540682457
7.53,0.907273199934923,-0.10852350701169668,0.05225936649220707
7.54,1.2711519695654097,-0.9451650022240681,-0.051554748757318705
7.55,-0.4662078041084277,-1.4079255033823708,-0.2909373013953084
7.56,-2.1167407363736928,-0.5746415379254911,-0.34608550611630756
7.57,-1.5506660173663342,-0.40835714163167847,-0.3816472415652182
7.58,-0.4210075359407185,-1.9085733987102345,-0.3218416875741663
7.59,0.25423366911175305,-1.6544654164809895,0.1188859382317625
7.6,0.3384027386027743,0.29616661958930157,0.22830484079756921
7.61,-0.9783200170078212,-0.5421034858288394,0.0212309756344441
7.62,-1.855044031133801,-2.107864035464079,0.07063394397040017
7.63,-0.7546049016230385,-0.4922998864699232,0.10337279624838931
7.64,0.07433989997659443,-0.10078764016542054,-0.12967985737261345
7.65,-0.21955293674403747,-1.6760542353125625,-0.21739237332266748
7.66,0.10787985337439823,-0.7027368416934369,0.009660525132791057
7.67,0.3800535188979544,-0.07470018462535531,0.1296153975250526
7.68,-1.3299282404058532,-1.6062842784853057,0.3049851317500515
7.69,-3.303451577970876,-1.0347826860669889,0.5491910564254403
7.7,-1.7717615365750143,-0.3540591634482023,-0.010177320443413171
7.71,0.9320497596684583,-1.0535382592680387,-0.5821447255021214
7.72,0.9756237987548901,-0.5829240753521522,-0.20802081909409567
7.73,-0.15505090280739353,-0.3642030171358243,-0.036624059328598586
7.74,-0.3186910492983618,-1.4541683299063084,-0.39977050497953787
7.75,0.6511592811871662,-1.6245919457456086,-0.3585363596716858
7.76,0.9720913840687605,-0.002655863857913848,0.11789925949836977
7.77,-1.144340997669985,-0.12648629775274667,0.26861682974318435
7.78,-3.524361901342017,-1.9581572346467135,0.08168039551137837
7.79,-2.1719660159647822,-0.8088405297411493,-0.044039037659505474
7.8,0.4018856314639966,0.8760623650918989,-0.2636377058988211
7.81,0.7138403288106588,-0.5925783918127897,-0.6042758389238861
7.82,-0.3247107221952602,-1.2619082585240815,-0.46487728459581806
7.83,-2.455374771530343,-0.5469862183589382,0.2615596383377272
7.84,-3.4796799105640104,-1.547888060065219,0.7986832924925382
7.85,-0.7215686929026748,-1.8620792007306628,0.6628773969885833
7.86,2.3737543829458727,-0.5111012873609992,0.20349314218918169
7.87,2.071440774082707,-0.1972304571384671,-0.0824429070585279
7.88,-0.42088194423183645,-0.7122487629087446,-0.08426479634241914
7.89,-1.293537742517273,-1.0923953391916426,-0.3085263652462797
7.9,0.09575524083777866,-0.32414261261236454,-0.5027776140133956
7.91,0.3246260737477237,-0.151546975808139,-0.17509272766304948
7.92,-1.6989330957471755,-1.061786048878673,0.24475152636493144
7.93,-3.2538783730937166,-0.42751632349737073,0.4768414457536055
7.94,-2.108502571644002,-0.27819866897289086,0.44311342845778534
7.95,-0.15498789853348022,-1.023824561074717,0.3199756045007775
7.96,-0.059420889312389064,-0.06284074234678577,0.5769232086781629
7.97,-1.0666061730875631,-0.1583382109074169,0.996291746728831
7.98,-1.0443065266360116,-1.5317907825179942,0.7944940153489533
7.99,-0.14806208570340482,-1.0657760323774474,0.25402975840721287
8.0,0.4345846140736652,-0.276557777737287,-0.06585256499381152
8.01,0.3825206659208921,-0.7423686440238656,-0.4002331968656935
8.02,-0.1853667594115396,-0.9324156111990214,-0.3970228881760994
8.03,-0.38300814021951785,-0.4750755456175228,-0.0903007987422792
8.04,0.13508852343088223,-0.7101925679755549,-0.16147823605846517
8.05,0.25644466390360954,-0.9155475575917718,-0.17715720137906374
8.06,-1.815008936529654,-0.42373395520593515,0.29137897174608274
8.07,-4.353936827443897,-0.8801843780455233,0.447071505424744
8.08,-2.73090014626507,-0.8545377935220339,0.05623494793678938
8.09,0.4276500854266635,0.2203445238872311,0.0662552836002771
8.1,1.2409651567862765,-0.2983969315106624,0.19043236680860598
8.11,1.0095668537020812,-1.065724149774487,-0.09966219629367383
8.12,-0.14698921521350708,-0.7590407503267756,-0.17502315339991487
8.13,-2.2531491140300246,-1.640050958317455,-0.019078599923291868
8.14,-2.4975826130634564,-2.2821436946203684,0.023847295496219858
8.15,0.0004992265002575122,-0.8512735782678433,0.0909604275839551
8.16,1.8059448550075743,-0.11022677858604622,0.17787133359060878
8.17,1.1054507648700544,-0.4859684201551416,0.2614108803071799
8.18,-1.5263958170661749,-0.7853290934811307,0.4523864973475199
8.19,-3.0456743704427103,-0.977362325421204,0.2672970984069395
8.2,-1.7604742411512717,-1.3182358740478606,-0.3736478584450486
8.21,-0.4516787732026981,-1.956217442698171,-0.7076111354247745
8.22,-0.20392924035115034,-1.3331652705894483,-0.7000880220078075
8.23,0.058348198118749965,-0.19734178810774375,-0.7395263537682686
8.24,0.06116205625101954,-0.35063444834241425,-0.6346118316441524
8.25,-0.6135244218071578,-0.789523215603058,-0.1562285682117427
8.26,-1.0712554551428966,-0.23691189753001968,0.19287273760635165
8.27,-0.9988862232018471,-0.04663018695498296,0.18454331953553713
8.28,-1.1618075215978294,-0.9407227233462176,0.2776834344636845
8.29,-1.3701234949134502,-0.7069213732996454,0.3375747171851485
8.3,-1.1044865247209046,-0.32310611679382545,0.087957531301096
8.31,-0.5742039265905503,-1.1280032957344834,0.004861813260198341
8.32,-0.23058334244351986,-0.9609595746425524,0.38452665413544185
8.33,-0.024949820218265875,-0.13857788375192379,0.5026019045867516
8.34,0.011974979119684407,-0.5299192106852219,0.2566744425918156
8.35,-0.31714435641223454,-0.988519735908264,0.38430819121763293
8.36,-0.7014896108788512,-0.14187365620088707,0.5871941151040304
8.37,-0.9932596197578787,0.049245666750031905,0.2761430225254038
8.38,-1.6843056936409118,-1.0875793136500485,-0.004927150948080675
8.39,-2.118142856152841,-0.9170684411885978,0.20467803728447448
8.4,-1.6076581730189892,-0.4575165298876065,0.2340586261402832
8.41,-0.4203837952801937,-1.4143025779513416,-0.022122051480826622
8.42,0.9387612372888796,-1.3205748323341744,0.13660678200934828
8.43,1.2793688219646864,0.002734552726025109,0.5096727855414853
8.44,0.3240005498754967,-0.7123571578292548,0.36869489390929616
8.45,-1.5210209746414343,-1.9562171695985808,0.02069327671452528
8.46,-2.624735966589801,-0.8090000968901616,-0.05675190576520101
8.47,-1.1805472927856786,-0.5851378906219261,-0.3455116455554955
8.48,0.6019254325437012,-1.6165818805818022,-0.5821291060475077
8.49,0.8011645968825971,-0.6029432578919249,-0.4049710737253718
8.5,-0.0005877513335075602,0.5002771620088129,-0.4075407671902559
8.51,-0.7556443831911,-0.8154100797603465,-0.6948943983697464
8.52,-0.49591517043077804,-1.126512306426938,-0.6908747330293996
8.53,-0.7556463934668771,-0.0950312305868944,-0.33466941802751693
8.54,-2.358978050071989,-1.479662754489845,-0.14135735776244035
8.55,-2.7455043871000635,-2.205646555149177,-0.1282432016414031
8.56,-0.5672806317308665,-0.7212350746788337,-0.21447522536265481
8.57,1.5889260010813955,-0.45409479937039987,-0.3719534248678435
8.58,1.142546573370119,-0.9207568223390086,-0.2859376890667593
8.59,-1.0619550146520216,-0.7293469488773638,-0.007897482900314863
8.6,-1.3043963485889603,-0.3472367876031505,-0.07439965237391666
8.61,0.20210831174919033,-0.30258099537446786,-0.2766817712836221
8.62,-0.4785511283257948,-0.7667137008268629,-0.12727284987656215
8.63,-2.4461658571438605,-0.7423141932391252,0.000810278042980625
8.64,-2.432100685224851,-0.500949978248918,-0.2971150485037077
8.65,-0.7090792608418669,-0.8205624267834788,-0.6454595055504735
8.66,0.7063784958898078,-0.7196108398586384,-0.4292023704065462
8.67,0.8967403402080909,-0.49634314537395824,0.15134672652056536
8.68,0.16582495387664242,-1.1189784429629868,0.43575813892834764
8.69,-1.1770103859963368,-1.3467311584688613,0.5008077526174123
8.7,-1.9955320583788576,-0.7149111084437392,0.5468022620652316
8.71,-1.148783419934783,-0.8455503339572457,0.4093035791009159
8.72,0.08853658785882111,-1.0129882857230514,0.16192647864765758
8.73,0.4735468951964535,-0.18001525254196232,-0.135452774450038
8.74,-0.43687178743521976,-0.1958634490800319,-0.2831652805192741
8.75,-1.3973014454126882,-1.2040813046729184,-0.12668092922660207
8.76,-0.7033391285050061,-0.6830999672364977,-0.05396354789913868
8.77,0.04843349883127473,0.13393275231921992,-0.2476391158727379
8.78,-0.8942162031212162,-0.7672012829329339,-0.12786572441261448
8.79,-1.684371457706544,-0.8301007548694169,0.4576611421014727
8.8,-0.8112216731864125,0.012527264904594179,0.6858781955523513
8.81,-0.20790631337301674,-0.7354587027865954,0.39355932671461286
8.82,-0.708092943384624,-1.3509050517666632,0.31333415757258926
8.83,-1.2042407909832942,-0.3480041350345992,0.369172079596513
8.84,-1.3516971363740802,-0.3795327579273167,0.03912263758045212
8.85,-0.6056107501138815,-1.0212379285030306,-0.19551620511355516
8.86,0.49170293429638673,-0.11543549199775757,0.11841938890278264
8.87,0.27912292443202413,0.4543058219025648,0.49613742774783454
8.88,-0.801996779264328,-0.3859573873072071,0.6868420157427515
8.89,-0.8715487937337391,-0.3340013685554976,0.7666567212929145
8.9,-0.8073945782579576,-0.3990952978382686,0.634552602076483
8.91,-1.7323089331225265,-1.5334021579831043,0.34690121671312374
8.92,-1.7281612182282835,-1.673495771457632,0.1525610572825347
8.93,-0.17994934848422514,-0.7178249917346532,0.262714574792151
8.94,1.0042740056029313,0.1555765996996633,0.46242200617729096
8.95,0.8152700658652098,-0.6107707259384284,0.42870503094411244
8.96,-0.1675111950668793,-1.301823575584666,0.5053988246683377
8.97,-0.9310727673908086,-0.2508327982865201,0.7929057251179645
8.98,-1.1411471446908534,-0.8503272034570915,0.68224617359432
8.99,-0.9801007117651812,-1.9599302272020076,0.1663294351517698
9.0,-1.4549586814387119,-0.6874867402553868,-0.07582353543834433
9.01,-2.0247559822325547,-0.08321200168199729,-0.14004680647709214
9.02,-1.0045021277988002,-0.9964238631938933,-0.4435353414354316
9.03,-0.19810021918383722,-1.4492655834789172,-0.6136927691339087
9.04,-0.9398636523598761,-1.2413349444662827,-0.3305330820893955
9.05,-1.2767204696926193,-1.0360362004646637,-0.04998125423320621
9.06,-0.36601554262071345,-0.8823841859587395,-0.1761284716009837
9.07,0.7092576730144512,-0.7991408748214317,-0.14588300575192126
9.08,0.8909631598291161,-0.08228962473119712,0.2944611166752831
9.09,-0.2965517037778612,0.12587927192410692,0.4086259796489052
9.1,-1.7214333498478904,-0.9677997835595963,0.06549348440949233
9.11,-1.759999095729679,-0.734228028295098,-0.11568776746268837
9.12,-1.4481691887225148,-0.7351643343438015,-0.15032162403643326
9.13,-1.66269595144806,-1.445479746198245,-0.26836894826220814
9.14,-1.3941856521265428,-0.5338701966890288,-0.30170754404372063
9.15,-0.7062013653356273,-0.49575127321710777,-0.17070107185695912
9.16,-0.08974598863261711,-1.2305105744023344,0.14370503922415379
9.17,0.4915433073620999,-0.20902026139040816,0.47249723019526174
9.18,0.6719816784525636,0.2186112242654007,0.5213715257135513
9.19,0.1547947429410064,-1.360276650330264,0.4776221721321975
9.2,-0.7960297313005722,-1.7418394911370279,0.6604576326107309
9.21,-1.6659023487600149,-0.758762405561176,0.7147537143847158
9.22,-1.5602489450560015,-0.6832913705701469,0.267280568176206
9.23,-0.2593614804929424,-0.883471099305562,-0.302567767735822
9.24,0.5831667886574704,-0.6434272576030584,-0.5538420535088998
9.25,-0.5001014661945573,-0.41726377232543715,-0.5745248632639546
9.26,-2.0152217799290244,-1.1348727720041105,-0.4580638433996986
9.27,-1.5950736440393316,-1.10131525513455,-0.1991253335284947
9.28,0.0018531106921468132,-0.4176001631122928,-0.02126151951908166
9.29,0.8790333830918642,-0.6772831539509689,0.051699784370778684
9.3,0.5082898977703287,-0.5443734077123942,0.21636824899524482
9.31,-1.1313649032738058,-0.6137860543983389,0.378593596905169
9.32,-2.5514516481924723,-1.7180700445630457,0.3042022529141541
9.33,-1.752337255090215,-1.3797569568449852,-0.02654665188280093
9.34,0.15141544909574248,-0.3134470491525403,-0.37325169071289
9.35,0.9207312237454595,-0.5450835765654576,-0.4752566110395882
9.36,0.1745052348829532,-0.5667984276422025,-0.2693263533433779
9.37,-0.7069294091850261,-0.2556031626543779,0.0960304313371505
9.38,-0.8552583624008568,-0.4620484886445708,0.3282055954507419
9.39,-1.207265789162208,-0.7064612027386795,0.3163093124245818
9.4,-1.6218611319656415,-0.8794577421862521,0.24066979340817
9.41,-1.2644728167996857,-0.8894317310863117,0.1304635410782041
9.42,-0.9110326043587057,-0.9717257490259726,-0.17009277567408654
9.43,-1.1012027480301165,-1.0166646004282145,-0.383746363162907
9.44,-1.1013492895542767,-0.7697359829265046,-0.2276325287794539
9.45,-0.8700687310132904,-0.8056327897170897,-0.015928150967723615
9.46,-0.6439243549244502,-1.104064830700293,0.054603792108177694
9.47,-0.1467665867416582,-1.0215778191010492,0.2403959474415848
9.48,0.16969444125248787,-0.5419180468638894,0.5290070109367213
9.49,0.08087150002475543,-0.4889467415741348,0.5566994981682561
9.5,0.1508341754649085,-0.6851089773880497,0.28170310048753716
9.51,0.19810185025315652,-0.36298100392411015,-0.05811717144160355
9.52,-0.40265726620878667,-0.23064114430947955,-0.3465239255873897
9.53,-1.289941308739171,-0.6411566295403212,-0.4830773260203377
9.54,-1.6842389858768319,-0.9063961046944501,-0.3467088102572658
9.55,-1.668157690599665,-1.2203548354515417,-0.028603970537086413
9.56,-1.2652454540699336,-1.1269811958041647,0.29246178842864373
9.57,-0.4257074027688496,-0.593337095363865,0.4236763478350496
9.58,0.1454229458997276,-0.4594961179195353,0.407421019523735
9.59,0.036687287483945154,-0.5048901919612597,0.47346938969499214
9.6,-0.794814210257884,-0.6520675862700289,0.5925007231747746
9.61,-1.6311380541279596,-0.40590805439512684,0.5033409207181977
9.62,-1.602983028552763,-0.29578164827318143,0.17380543511804192
9.63,-1.0173376776585785,-1.0133100998048383,-0.09510174741989824
9.64,-0.4803861124837638,-0.9765707039985838,-0.09370200908616982
9.65,0.039756018225146024,-0.29286752223306245,0.07239631621524582
9.66,0.7291873471915309,-0.45098004798680885,0.2804030395472277
9.67,0.8967023286265776,-0.5976399646644832,0.5278053000403503
9.68,-0.24215886265162997,-0.3150807013176239,0.6695983740594567
9.69,-2.5393092961426924,-0.590321495659108,0.5930893441965869
9.7,-2.5861190142096424,-1.1729449744986697,0.1587312905983565
9.71,-0.5369990070926556,-0.946642112470799,-0.05380308774849145
9.72,0.420288014368249,-0.5507595108384382,-0.14718720857895096
9.73,0.062214283871486996,-1.0694925853556079,-0.3472789915739578
9.74,-0.12448953936298741,-0.8622931469575549,-0.21743363114497194
9.75,0.09083984643383045,0.017634981928117938,0.011681657741971368
9.76,-0.7768974341472558,-0.9030493459873091,0.0053639131433916255
9.77,-2.7763539807355078,-1.709077599547478,0.03572502429775105
9.78,-2.696103640779221,-1.1035694273652903,-0.021303015107435555
9.79,-0.5121558663148819,-0.7899913586086967,-0.10073303543226844
9.8,0.6620324212756794,-0.9560915225560636,-0.13058203071324614
9.81,0.39833557695413635,-1.3730599310670746,-0.19602519875338478
9.82,0.2500453722991063,-0.7026263300250704,-0.05489856854627229
9.83,0.4343841218760803,0.15056295758549768,0.13943890972916761
9.84,-0.48673446392470554,-0.9884485826482926,0.05494322366181098
9.85,-2.5545972243294917,-1.6763919526991704,-0.0642478442445427
9.86,-2.608781827668246,-0.6772162489974123,-0.21527870581731956
9.87,-0.6668894300766045,-0.6459924985131967,-0.4462069364058372
9.88,0.43007872564535005,-1.1601422682437443,-0.5446618463882668
9.89,0.4914773840770412,-0.5655369038265712,-0.5663247510095003
9.9,0.40651954771090953,-0.11460883733597269,-0.4524495539624406
9.91,0.4279550319628275,-0.6269103996450884,-0.14585105045180313
9.92,-0.5805576254386696,-0.8231737410064646,0.08567416101828317
9.93,-3.407452631887644,-1.1146023319887521,0.2785678414819585
9.94,-2.913659521542982,-1.236781278193712,0.05156249194809109
9.95,0.528292038861471,-0.6938938814050953,-0.011762058033660634
9.96,2.085065736138144,-0.13874228125564764,0.15198803961431695
9.97,0.8780727986594478,-0.026037015275671236,-0.06661431016420243
9.98,-1.7185690773405407,-0.6281778567793925,-0.11503523915497181
9.99,-2.37045149803382,-0.818883389055412,0.12495425941485618
10.0,-0.9843902640072262,-0.9011695340542197,0.28388522011827483
10.01,-0.7579783483319108,-0.8545435503694696,0.4955235786107341
10.02,-1.7934048410769876,-0.3605349139941161,0.7756561653553419
10.03,-1.655721488119366,-0.6082784799198163,0.8927989920205542
10.04,-0.39946476223586513,-1.1769658162419232,0.6270272114811539
10.05,0.3322603756068416,-1.0252882389987037,0.24291382052121488
10.06,0.24970068059678296,-0.48818908892694035,0.0991767914053194
10.07,-0.25659425706812206,-0.5606126188168488,0.19837726962510896
10.08,-0.8032612937582269,-0.8364394118782439,0.2937584497370847
10.09,-0.939971705765538,-0.5494382808652587,0.39932602113226884
10.1,-0.8581004577837964,-0.43191356293169275,0.6602219613870948
10.11,-0.9680437263576508,-0.8719215758358279,0.7407652396626547
10.12,-1.1193743112950019,-1.1516005916183032,0.3788006294337707
10.13,-1.2443077559871418,-0.9552353369354927,-0.06198550315517236
10.14,-0.9717778304090046,-1.02610155723982,-0.1872365272019476
10.15,0.265096034982844,-0.8197609157428958,-0.08740780351506386
10.16,1.2672248365277083,0.06429817953944136,0.00047175328692045614
10.17,0.3504241095049125,-0.02656817645287554,0.09677958021981334
10.18,-1.473536920239844,-1.192872838953403,0.13106866448517931
10.19,-2.174531133028997,-1.4335181650376652,-0.027425702016852065
10.2,-2.0406758878788636,-0.8247858100511112,-0.23479789293650896
10.21,-1.4574011884116904,-1.0496644956982983,-0.3739978103682664
10.22,-0.17473627045326942,-1.0808193601153173,-0.445805306403887
10.23,0.9832845510575267,-0.28214344338223896,-0.2939848284210149
10.24,1.1086379251187017,0.0653491542980819,0.0030819186713695597
10.25,0.11846565273588427,-0.6224143548605543,-0.0548965470875992
10.26,-2.298277599744131,-1.9364592465867894,-0.18450231723358917
10.27,-3.636044061857207,-1.6026627818471455,-0.03590875662512101
10.28,-1.3114831354356806,-1.0945686255529852,-0.10615213016048106
10.29,1.6425440427506537,-0.9218882209291038,-0.24032014292558593
10.3,3.0256124164343574,0.0758528300324136,-0.14179331496374536
10.31,2.0832059318565275,0.7854261029985693,-0.11311793231231071
10.32,-2.579603420702369,-1.463440877002158,-0.3390323064139335
10.33,-6.187861948943117,-3.312508346560536,-0.5125640263798706
10.34,-2.310621241935617,-0.7966741913841634,-0.40645904593198917
10.35,1.9560511405217962,0.16404009395356475,-0.02857461919029441
10.36,3.0652670277275456,-0.9034407557300514,0.13987433355603573
10.37,2.635247028891892,-0.15042382828920742,0.07119300127525544
10.38,-1.8573228745906176,0.06912649119010172,-0.030904499416005933
10.39,-5.494709276287963,-2.2555338672128866,-0.24056742178790244
10.4,-1.7081435224267787,-1.232441846692789,-0.20787871010616052
10.41,1.7968759635756946,0.7642210605687291,0.20465516933406633
10.42,1.1383688347408696,0.08957737295611765,0.2638266308426618
10.43,-1.2978538079306643,-0.8207362228849965,0.16099674030279243
10.44,-2.610145734910712,-0.5003324984630204,0.26694940362234193
10.45,-1.772039250324449,-0.796791410090953,0.23752832129656548
10.46,-0.7576962654212137,-1.090420408921689,-0.05403054009811879
10.47,-0.8518425337252262,-0.5327221367317465,-0.15163489826668763
10.48,-1.2554422747187486,-0.6992388012029099,0.32578013123589683
10.49,-0.5529307217238318,-0.9613556561954228,0.714650475980884
10.5,0.5623295824180826,-0.4495501514408292,0.4727201591093695
10.51,0.4067685051033873,-0.1299423764221292,0.16764625040894413
10.52,-0.4862793949821332,-0.8260241030062648,0.1403145036218413
10.53,-0.867245842056026,-0.9779817258004384,0.0007323521712078749
10.54,-1.0765995132335908,-0.908331294355027,-0.3327042518727951
10.55,-1.3323555672973089,-1.6043171292960732,-0.4083610046717735
10.56,-1.005238279365382,-1.320619283068185,-0.17125065102575937
10.57,0.0003860560109642231,-0.6474079268505857,0.01158787092007455
10.58,0.4824141641581615,-0.5836236122721159,0.039449968497599866
10.59,-0.2456881415221109,-0.9337640694861493,0.10385848331059248
10.6,-0.8615469144525326,-1.1205680253553154,0.0525311134667437
10.61,-0.5544305730801049,-1.0210887580443901,-0.24572043469554572
10.62,-0.43990924187368924,-0.9985995069946944,-0.5968750034292574
10.63,-0.9717242878203843,-1.0241798968400746,-0.7202285518718468
10.64,-1.043830842693352,-0.5983297316104128,-0.5818474791607873
10.65,-0.6611566940554553,-0.4992400857651002,-0.319809976443159
10.66,-0.742741678540283,-1.052206545908856,-0.03262563169795431
10.67,-0.9095177888078197,-0.9011420458117818,0.13203025893912423
10.68,-0.5973229776944378,-0.2614507264906582,0.01626601339743867
10.69,-0.45490186147756967,-0.6269518788746673,-0.12086574414191843
10.7,-0.7681926739688087,-0.9536480424540263,-0.03657730855099267
10.71,-1.0869530558164318,-0.35500797035476567,0.14430961119647198
10.72,-1.1498122529667756,-0.23976472673136043,0.2985856774352465
10.73,-0.6676070043130982,-0.7003408284535195,0.33371887430685104
10.74,-0.18133204557878257,-0.722754956677952,0.21199684166364755
10.75,-0.4898644199060197,-0.2637021022149176,0.028837704613647677
10.76,-1.4552035631678042,-0.6669046288519296,0.05320377613112117
10.77,-1.8789050683617556,-1.165055387372738,0.25203499351937136
10.78,-0.5018260509262695,-0.35452274980804915,0.29577458396377343
10.79,0.8470778339813642,-0.06838483017146971,0.3463168447905988
10.8,0.42367640525930517,-0.8054577152881235,0.6185551437540258
10.81,-0.04644710240739228,-0.7282595576224278,0.9122180284612897
10.82,0.6425621102606772,0.010053341237566715,0.9015805037682395
10.83,0.6055256174671741,-0.23094166920988296,0.5375984997774577
10.84,-1.8552570116101492,-1.2712005309573826,0.2601299691727384
10.85,-4.0632456286393275,-0.9618040929831134,0.13510330664277007
10.86,-1.4976053016130577,-0.38293583839928075,-0.12798021527875925
10.87,1.4855893880378017,-0.4049404528962342,-0.045195731796156595
10.88,0.9005550356937073,-0.9519770232546383,0.10354630174128367
10.89,-2.2394354328564483,-1.3465936851105533,0.34252463555445706
10.9,-2.926329467492969,-0.8342360231250248,0.32361217902667644
10.91,-0.5815579427595212,-1.269279077413423,-0.09219920814616621
10.92,0.6976306565646438,-1.2576056713933332,-0.17315710357372163
10.93,0.47975213374785647,-0.24138619867994154,0.04887815451936356
10.94,-0.5557943231920299,-0.4299848219928376,0.07282683428595242
10.95,-1.2934960911256923,-1.4268502203586833,0.05418002541951374
10.96,-1.068182504629914,-0.7965142134156509,0.3070568632203102
10.97,-0.7001340373178555,-0.2438988160551266,0.2839722708369916
10.98,-0.9821763186456482,-0.8781189430789361,0.003404041820065493
10.99,-1.2373413437056922,-0.9547114470214091,-0.09418777483339122
11.0,-0.5187169696704301,-0.3315090706430556,-0.01631791900046096
11.01,0.2505149381884952,-0.39816425454406934,-0.0065528840740183185
11.02,-0.8701211897868916,-1.3328929483169165,0.18771682800760991
11.03,-2.3091413226511257,-1.0517166422854238,0.6910091476095531
11.04,-1.2931494542886441,-0.5216839391025291,0.5922326482285999
11.05,0.5199560191265995,-1.1091147339270224,0.0032301945055273652
11.06,1.0458644924254639,-0.39775809156032926,-0.012633220578927278
11.07,0.04032623681646925,0.50948933453588,0.279620729528058
11.08,-1.3749405192386108,-0.9968526424354914,0.15623512254086136
11.09,-1.7099736604263323,-1.3001631260909547,0.13557329896575707
11.1,-0.8588503613381288,-0.16929489293824004,0.32205456011872086
11.11,-0.2716171739913168,-1.066143216955065,0.16378396102852907
11.12,-0.08497588619349165,-1.4018269533754466,-0.0353885190336697
11.13,-0.006799319015535805,-0.056314297893901674,0.17575220145548673
11.14,-0.17719587673412432,-0.062442848594169,0.24431447343277604
11.15,-0.8557988663123135,-1.4853533039761848,0.1336349709462043
11.16,-1.8561943185407972,-1.0353035597866873,0.3902792767526718
11.17,-2.4315470168860247,-0.4482398245962874,0.5789659122938997
11.18,-1.4188783700427492,-1.5268821917588487,0.15968030221732657
11.19,0.9892835750784232,-1.3619640110098563,-0.45637015161291933
11.2,1.9248263975865352,-0.34867071475818817,-0.7067888177182173
11.21,-0.4195858230578087,-0.8445399867526915,-0.5076396376307855
11.22,-2.6394493583126097,-2.01600319029462,-0.38429249742428534
11.23,-0.7387130488311373,-1.5610541984256112,-0.4622920224366931
11.24,1.286537033049308,-0.29491077505574476,-0.14382028175506711
11.25,0.4118373615045707,-0.6049436855071385,0.42369217025180095
11.26,-1.550050198210591,-1.0423860938477927,0.2629475692801492
11.27,-2.522294894589194,-0.06179850275335543,-0.5437324241562163
11.28,-2.1638436215870818,-0.24066136464342922,-0.9389373782278745
11.29,-1.1861158871165225,-1.2128944043785068,-0.7150534583576983
11.3,0.03082199870197441,-1.421120245907732,-0.4816248223590838
11.31,0.5836813313341319,-0.6112123101347319,-0.0094217006315935
11.32,-0.7278015785317392,-0.6759495697078101,0.7287353851106767
11.33,-1.7380582700184743,-1.591873785857544,0.7558102046844445
11.34,-0.5575277303004136,-0.9804905738292122,0.2566217915012148
11.35,0.42468312115436047,-0.1710847300371715,-0.00040690365096563894
11.36,0.39182665740974487,-0.9683672498232748,-0.34537014201960514
11.37,0.5351126146940105,-0.4931080079953044,-0.5492480622619954
11.38,0.593977816870499,0.7796687581737554,-0.4055586409857193
11.39,-1.5118626329592322,-1.1344199761720875,-0.2666528557672384
11.4,-4.715150190451957,-1.9512152349635619,0.10560892004379308
11.41,-2.367054391516452,-0.4416737652435033,-0.12850603182301507
11.42,1.3690773615601597,-0.6855529668115967,-0.5889477620769488
11.43,1.686663542146829,-0.9483984805906677,-0.6018597666329425
11.44,-0.7371352626070717,-0.25362130322230786,-0.3967944635925065
11.45,-2.38882362195168,-1.0784637048591765,-0.15262237582380975
11.46,-0.5699997624794497,-0.981977002367607,0.15357630566478683
11.47,1.2155966804389557,0.044383244517258086,0.4450539146663382
11.48,1.086263544556273,-0.9623474441664446,0.44584281886906696
11.49,0.028208110916912374,-1.208433783766354,0.2011820232968547
11.5,-1.7884982200206785,-0.3560241764822198,-0.03610588298870132
11.51,-2.5131959152892573,-0.8265340073349946,-0.3410636382990869
11.52,-0.7658498836493721,-0.7818815312165059,-0.40328677149356257
11.53,0.7203717051899148,-0.39425920997489067,-0.28532356812383247
11.54,0.23062488624683442,-0.7476079322657262,-0.20885508570794792
11.55,-0.8656113032429877,-0.8074615989129384,-0.02660987678825748
11.56,-1.1490705826291998,-0.5091695090097977,0.14738244168181516
11.57,-0.737351647741992,-0.49383853713394116,0.027553470285887113
11.58,-0.6270386099270818,-0.7943181671255131,-0.12781929247024634
11.59,-0.9825713045245972,-0.9827054122639992,0.08627511342844413
11.6,-1.1742753928495844,-0.9497773944108112,0.3435732871498731
11.61,-0.7661248087459684,-0.4669314755235614,0.060890806278876886
11.62,-0.5267007170076574,-0.6356447694413506,-0.26005551403541044
11.63,-0.4127272787982939,-0.8048197694278602,0.00023211616550982377
11.64,-0.3432880603365805,-0.14550027573546573,0.27626542645495605
11.65,-0.7882277851563243,0.039201527380379894,0.156319079242452
11.66,-1.180995140127841,-0.34088362812501966,0.05805197427439436
11.67,-0.8344328849907665,-0.8848647886774054,0.19365669158229146
11.68,-0.1424386756592646,-1.2232519567034497,0.3871622780995109
11.69,-0.021995724825712364,-0.23850819001168594,0.2579138494435003
11.7,-0.2881762307208141,-0.3428615460481292,0.05494000172273428
11.71,-0.552113193633553,-1.0428114595279196,0.3231799573156111
11.72,-1.1279803391500554,-0.701972006237088,0.4994345424899555
11.73,-1.743707504865195,-0.5325865907464568,0.14848032033555977
11.74,-1.537501536613999,-0.3410666687357436,-0.031543186732702976
11.75,-0.33640101754175966,-1.0037542574016483,0.22795617147960665
11.76,0.9608459029087281,-1.1802071035898325,0.43694415678614135
11.77,0.7627752228409569,-0.1494096372424594,0.4993164699152616
11.78,-1.4447661041412283,-0.15551172472900837,0.6202153227421552
11.79,-2.4792499933621013,-1.1998092505249678,0.5982473558668603
11.8,-1.0305088645672063,-0.8906630245217552,0.2686944052253178
11.81,-0.21945592410335965,-0.23571326942004803,-0.015171742582029555
11.82,-0.5368061402978039,-0.5104141317348807,-0.04324744689970502
11.83,-1.1129336340226972,-1.247854295551077,0.3986309103234467
11.84,-1.246107712000725,-0.9168970183699113,0.8503642571445779
11.85,-0.4929758830690762,-0.43863401225416765,0.6844820348045613
11.86,0.16054810733307867,-0.5467111567255475,0.256417353522827
11.87,-0.284585597903033,-0.8093272494877801,0.2889886415863842
11.88,-1.1756165631004558,-0.5318686228280504,0.42524156426928145
11.89,-1.3621264893711311,-0.5380969748212188,0.2424754637479072
11.9,-1.1347330703073215,-1.2621618270642725,0.10617157686930472
11.91,-1.4152962868796704,-0.8626195474961604,0.132293650849746
11.92,-1.3400695249101573,-0.7607470631555739,-0.054582585807362624
11.93,-0.36389214315142004,-1.6052251528273775,-0.4280076197793324
11.94,0.35133407665455,-1.366481580369742,-0.5275133132235681
11.95,0.38809020513084536,-0.25115321330201434,-0.31777755791719103
11.96,0.2701748852993393,-0.24535673177641767,-0.08554349775910114
11.97,-0.5779216662734308,-1.3979481072172275,0.08304343410878255
11.98,-2.031955066017974,-1.2149656738191235,0.4287331657181641
11.99,-1.6570709776463632,-0.21435323556517083,0.521463792129229
12.0,-0.11414421436326011,-0.9401913069417502,0.12332099458284855
12.01,0.680285198341748,-1.1498289617787472,-0.2955258777731372
12.02,0.021762635894980623,-0.010330640793373763,-0.4008042058389063
12.03,-1.4614598071271359,-0.5026386470471453,-0.1863251548738509
12.04,-2.1956462553980494,-1.5108145630283918,0.10092028669923732
12.05,-1.0747879518495993,-0.8280802449858019,0.20876220390009312
12.06,0.1412414499344467,-0.49306226281616755,0.1631934486532766
12.07,0.3899674108646564,-0.9264999190224801,0.2504517734742677
12.08,0.6451165702907043,-0.4880428528514483,0.2758675050199609
12.09,0.5017515103050536,-0.034557062495868776,0.19811519493733348
12.1,-1.5718524269524696,-1.01723965229994,0.3251826079011609
12.11,-3.674224165423652,-1.4442979627366566,0.47877403216037195
12.12,-1.640394815380302,-0.8284175616999425,0.12038845361864432
12.13,1.379642699312601,-0.45062933795852167,-0.08573021238653782
12.14,1.9107559396071316,0.012610256166623174,0.01467022027406065
12.15,-0.17907756294276367,-0.4105129642190663,0.1310428446518915
12.16,-3.0503965582444885,-1.5440377747380738,0.3292162628501759
12.17,-2.863349241911637,-1.06266256173746,0.30038109957931936
12.18,-0.5338389488808003,-0.6650257677651583,0.07732363866626649
12.19,0.7909151501829642,-1.007900595129141,-0.003559316814423002
12.2,1.162816086738053,-0.45151707961507626,-0.23320611823511125
12.21,0.10096093808110372,-0.08657533601833246,-0.45878866071756425
12.22,-1.6647422278921231,-1.2689311839089767,-0.2578916179488356
12.23,-2.012656042225471,-1.4839680560912802,0.12363443510929074
12.24,-0.6447285672100415,-0.5589753013581095,0.11997941669270663
12.25,-0.0012737689410421945,-0.8451199124329132,0.07127494506358746
12.26,-0.7982544608820031,-0.8592518304284354,0.21616260290467743
12.27,-1.6309848112218823,-0.9949855323599288,0.03610428241119309
12.28,-1.6270458959325513,-1.4329920756762011,-0.3958811141856033
12.29,-1.44170042824092,-1.2373769080614336,-0.5145891646936324
12.3,-0.7366388727458579,-1.2657882300899514,-0.5115753058273595
12.31,0.325635928298812,-1.5015155213732325,-0.5328412278685833
12.32,0.5507267028856193,-1.1189169176439056,-0.2978992294421473
12.33,0.26208233896799543,-0.8155185220936758,-0.09511911688786981
12.34,0.1208895416334257,-0.32758468754646725,-0.0747014249308748
12.35,-0.07889367692180459,-0.15980557145486599,-0.028111795845005262
12.36,-0.15967797390835112,-0.5579450820469182,0.06576722488597588
12.37,0.22072762792539735,0.14460958063710544,0.009181356812139508
12.38,-0.46132178031090715,0.08863440476683991,-0.09967759876617135
12.39,-2.593538315287268,-1.2050439078132698,-0.010097492013459606
12.4,-3.445211941687562,-1.117465944571575,0.07186534643779016
12.41,-1.2232220608831683,-0.726005943916176,-0.30021081954493356
12.42,1.0985866909603816,-0.6798423516411094,-0.4578405014714658
12.43,0.9770378259838606,-0.6685169097992096,-0.07567953537507228
12.44,-1.3101588652597502,-1.4084547934433187,0.37668799296304895
12.45,-2.394192774317849,-1.3275915641558913,0.4259489706848941
12.46,-0.3678785664975295,-0.7854818893524655,0.08047143770252453
12.47,1.458348115479658,-0.9416934197094324,-0.02643582931207554
12.48,1.6604803524051084,-0.37432576250893557,0.10046128181126511
12.49,0.11599278732472404,0.06228250103062438,0.07253101796649827
12.5,-2.576059794447756,-1.2458921418006446,-0.1500944419037495
12.51,-2.622822926596835,-1.5741718907750437,-0.4169781886280697
12.52,-0.6780528991927891,-0.6344221708492854,-0.4878905731868411
12.53,0.19622647335971566,-0.5048886389151971,-0.6113524288783695
12.54,-0.08307038863170378,-0.4871434743957591,-0.6413880960108755
12.55,-0.6298332574997098,-0.1409602203313477,-0.22937501073542016
12.56,-1.009058752725261,-0.5109070052339589,0.3592782321561841
12.57,-1.4684151132857417,-0.8213311258392524,0.5007545375206607
12.58,-1.4495340461213844,-0.9017261833618638,0.338720495126859
12.59,-0.5262419018099729,-1.0500437372651432,0.3555755630142481
12.6,0.7811267096550987,-0.777774032195862,0.37530139155683245
12.61,1.4360397060051582,0.17612103687158434,0.2741365020853504
12.62,0.6361480885847614,0.13627551751426792,0.2097475164822432
12.63,-0.6784103965736099,-0.682219225905741,0.39701776799227473
12.64,-1.917392853815792,-0.02828272745777921,0.32796791591995295
12.65,-2.9536399743460784,-0.8024936943013387,-0.03910128606378243
12.66,-2.288612262655334,-1.0346792409078247,-0.020603662371776788
12.67,-0.7748953679521178,-0.2651351554854303,-0.1379558260289362
12.68,-0.11326153602474329,-0.7663770840370967,-0.488428538038105
12.69,-0.9558970585729983,-1.033491479434932,-0.057002108009040285
12.7,-1.5450387874802138,-0.6967468582289484,0.5197946174074435
12.71,-0.7069994256649142,-0.6859230990635925,0.39912640083721135
12.72,0.48438695177396357,-0.8954315185547189,0.21623053149083027
12.73,0.588327493803857,-0.6726577462447072,0.43844266103803253
12.74,-0.7492281682842158,-0.6030133064542897,0.7545039542420124
12.75,-1.687198003086631,-0.6804303743412167,0.8304429019430818
12.76,-0.9631637161347507,-0.6171818680214136,0.5539135571465408
12.77,-0.06250551852576573,-0.9667566849986636,0.07483506104849513
12.78,0.06692630352665793,-1.0153524788101445,-0.08661488064394463
12.79,-0.7287267536210472,-0.7280376032504375,0.09301727545408586
12.8,-2.007762243208925,-1.0976712120822334,0.2256061851407744
12.81,-2.4732328879697736,-0.9028072157287204,0.3351837635331456
12.82,-1.227133025653386,-0.4260532857967934,0.3694381736233125
12.83,0.03664158540170087,-0.7282186004086822,0.32402744675241957
12.84,0.42420262231543165,-0.6626919263795776,0.19763613568422145
12.85,0.4050409221220563,-0.07217021656619063,0.24375870797650623
12.86,0.8318868237871708,-0.004771460912769574,0.39291609360970664
12.87,1.4404415571865077,-0.24795761658211107,0.4176215537464855
12.88,1.0127408905657351,-0.20943331163986337,0.48243127345384296
12.89,-2.3920988972607238,-1.5183876168993602,0.7886697063024207
12.9,-6.218214924782321,-2.792313884938631,0.5704878143018302
12.91,-2.3080673547661936,-1.842238507632477,-0.5628187437466591
12.92,1.9224694333673054,0.004622066316650818,-0.7387878753449547
12.93,2.484321968476702,0.8148011458626039,-0.35171118149748304
12.94,0.12127349879599816,0.09428134581330967,-0.34514947157138304
12.95,-4.953772179138024,-1.9289106099734323,0.1998964765331434
12.96,-3.894861530933879,-2.034713323902206,0.37820315847353975
12.97,0.9549882720365356,-0.0990500109406804,0.0551949316172806
12.98,2.121317343797228,-0.356731272874894,0.06612782117592939
12.99,-0.11661197359126035,-1.1651571853209854,-0.05103121457328676
13.0,-1.9904581556629704,-0.7980757677322197,-0.4284012815579529
13.01,-1.3115204867593715,-0.8373570310919211,-0.3454096198533635
13.02,0.0676625767220132,-1.8820635366804654,0.13767894662391514
13.03,0.7888367914404395,-1.2532519057105191,0.47390999538315126
13.04,0.4444067570374209,0.49638747265061955,0.30536264578480876
13.05,-1.089898447549535,-1.2440429079907125,-0.13926659054382168
13.06,-2.044464459067616,-2.264176914455568,-0.24418626756393166
13.07,-1.618676566588418,-0.06097463698890132,-0.0738273407202419
13.08,-0.4653687309954755,-0.726960068708745,-0.334128727207548
13.09,0.4825444720047695,-1.6340499629681031,-0.2869478419163645
13.1,0.9860998749863936,0.2936207067839244,0.1480311264088305
13.11,-0.287571698118283,-0.11816026867641943,0.18603524794588197
13.12,-2.202830325515826,-2.2240329338453924,-0.06274903715490562
13.13,-1.6916960883404462,-0.6760525929061935,-0.15490699433517754
13.14,0.03135554865522504,0.1578513468432619,-0.44995557327675084
13.15,0.6883885535620963,-1.095736574681206,-0.8273994454188072
13.16,0.16386684226130005,-0.3728150991529208,-0.7047757533977068
13.17,-1.6215977384103304,-0.04128213387672604,-0.2124289761885003
13.18,-2.38199878998752,-1.799414422582751,0.004080628492575887
13.19,-1.0487351945912238,-1.1426537562004697,-0.014188894331859004
13.2,0.2018024036215538,-0.13378714573901615,-0.17747207248706967
13.21,0.1389750267131296,-0.9434536797962488,-0.3382357107060121
13.22,-0.19207869494879107,-1.6021788777704136,-0.33328992266986635
13.23,-0.06992266097520707,-0.6325704165678887,-0.08292113977501646
13.24,-0.31933215588494307,0.6292476838103412,0.14878941758791897
13.25,-1.056413489858662,-1.1863438992245696,0.05845998883687726
13.26,-1.0544028645952905,-2.127970599394244,0.018481236196080456
13.27,-0.9242045591584495,0.4927225618227296,0.1214658251434025
13.28,-1.40725644199672,-0.4453788977219048,-0.07476280670830576
13.29,-0.8929589494853901,-2.0236520791666917,-0.3652763145839521
13.3,-0.4310248253610217,0.4047909472536706,-0.26683632927249507
13.31,-1.3515067374849703,0.4243328947629453,0.3196596948220921
13.32,-1.5201377558332547,-1.8139018628045427,0.8439506075066743
13.33,-0.07554216703597601,-0.6896808725656143,0.8516317784658162
13.34,0.24925607672188693,0.22099483122356392,0.7028496395235562
13.35,-0.61422510732044,-1.0402613386669575,0.6989403599406979
13.36,-0.6215297241882323,-0.9894424388155243,0.6206991517880319
13.37,0.007760119716544448,-0.3506637172892219,0.2142281894103498
13.38,-0.15749129220244673,-0.9127864125699815,-0.10159987463999699
13.39,-1.3861531851362454,-1.0816961549148745,0.1260530409598447
13.4,-2.0710324062390613,-0.5846622711166309,0.42604942862210277
13.41,-0.919807408920838,-0.6860986236427119,0.21109777599428411
13.42,0.08918724932291204,-0.8073129868260474,-0.04257228688055945
13.43,-0.7315523267980222,-0.42781363899689523,0.17274248467214282
13.44,-1.737994335189005,-0.7721742709448621,0.3148079493433998
13.45,-1.1073541969493716,-1.2004424858722431,-0.11211765541385234
13.46,0.18888928038990002,-0.8223256351007009,-0.412131663805757
13.47,0.6893619714878544,-0.270533813387153,-0.25834655426240233
13.48,0.16926728133633354,-0.6109768269334194,-0.07544409431673074
13.49,-0.8825990707819247,-1.0955786720859404,0.05190842930219434
13.5,-1.6615267735686527,-0.8767830032367276,0.35290239491996594
13.51,-1.3719674912378315,-0.6682966827577337,0.4124736867893101
13.52,-0.6693292547208018,-0.8836767718281074,0.09214578817020033
13.53,-0.16810583420058445,-0.8694729300024191,-0.13163564087224275
13.54,-0.08724788173104601,-0.2912173677580375,-0.2299177648442424
13.55,-0.21011147448412434,-0.5765934525849946,-0.26345286972140886
13.56,-0.695388551653525,-1.187088947195925,0.030704439861404722
13.57,-1.4300206403497957,-0.789529780891932,0.3349514042514209
13.58,-1.5269658397256602,-1.1347798449165842,0.2981877959836039
13.59,-0.16488938495092365,-1.3319655749969608,-0.008019979946300234
13.6,1.010624280505137,-0.3545839873721767,-0.14476921554010372
13.61,0.47012598646185416,-0.0591178413245886,-0.17925166962608788
13.62,-0.8912858492638337,-1.121597609863977,-0.21435712155250322
13.63,-0.7414780458920825,-0.8256781008095492,-0.03949351503513588
13.64,-0.2783102050805004,0.11473962583650361,0.10783925372361265
13.65,-1.6936072920216056,-1.1506210757682969,0.17237703484814637
13.66,-2.1324142472828824,-1.1846905220118127,0.22834995894608984
13.67,-0.8939449995411979,-0.427503118017367,-0.04232841761569576
13.68,-1.3622693054493138,-1.5971656874805187,-0.5040894281564435
13.69,-2.082440834888876,-1.6150313028270045,-0.4826078674681498
13.7,-1.1765970062738336,-0.568527719670205,-0.10905498887075496
13.71,0.4909107774085503,-1.5012503499653487,-0.0970395319112972
13.72,1.855954126269588,-0.9676393540450939,-0.20448971547108402
13.73,1.8153679314501663,0.9716731327365968,0.047319142735090115
13.74,0.45014292268600925,0.4187301786706942,0.12939776528576558
13.75,-1.4352913813287689,-1.484594715752327,-0.18126713934577546
13.76,-3.859861780531804,-1.1100249118417147,-0.09557090825444284
13.77,-2.796854998629643,-0.706363834256727,-0.0473762844892264
13.78,-0.20005659532070416,-1.3443419047425482,-0.02474048063874092
13.79,0.9293104206000976,-0.7379105726934866,-0.2875725287315212
13.8,-0.012824585783933433,-0.15402188616991067,-0.533468860747731
13.81,-1.0925281804690867,-0.50083297108849,-0.22656001185010774
13.82,-0.6392916405290019,-0.07390079798827952,0.24946254284313069
13.83,-0.7126035238395283,-0.19885097367620036,0.35922355633219655
13.84,-1.7439148799102784,-1.6190237825978844,0.46819536063031547
13.85,-0.8802096374525149,-1.4152367170467623,0.5939130784944646
13.86,0.9114950748272636,-0.760912946153861,0.29597609685256454
13.87,1.194947421496879,-0.14412460131454952,-0.16108407942788958
13.88,-0.4928063285848531,-0.03759794326552594,-0.4001491025530085
13.89,-2.1968649307276746,-1.5864096848771625,-0.12391813564052413
13.9,-2.187158361318994,-1.080238217787461,0.29539497834715345
13.91,-0.8378584144030283,-0.5836083436585393,0.10862656564062285
13.92,0.1386073206492446,-0.9953494755852293,-0.29535994818028566
13.93,-0.4504592977503832,-0.43318864443157873,-0.09712045256779699
13.94,-1.115847391836918,-0.8760207628140587,0.3467048536544955
13.95,-0.18894736466020448,-0.5096536616035596,0.23348226838943698
13.96,0.9203254030083518,-0.006320992413440391,-0.03640210066201109
13.97,0.5394959178237636,-0.8475440200875589,0.12333846827838016
13.98,-1.059669542156113,-1.0661728414086293,0.346283641128939
13.99,-1.7248575863998161,-0.5588732971584174,0.2279160093091418
14.0,-1.4056417123904281,-0.781877128216242,0.07720037963314068
14.01,-0.5570069019152828,-0.9952934711512921,0.07734336606076521
14.02,0.17130003484270523,-0.3283407920641311,0.06314061082664939
14.03,-0.009316506944101842,-0.8977966785676317,0.10404321629580117
14.04,-1.318103643420788,-0.6348907026387942,0.11629427711735833
14.05,-2.0892304238402604,-0.6413777766187484,-0.07367275149972241
14.06,-1.2068248983150813,-0.8582279572953234,-0.10130364704702942
14.07,-0.5622152895440686,-0.6422205796949397,0.08591276746206482
14.08,-0.390050166795221,-0.5143768566996993,0.03265252634255505
14.09,-0.2880155657659467,-0.09330036818614092,0.06998252011334037
14.1,-0.08190680666139764,-0.9600665546822144,0.26090401997869567
14.11,-0.3242535389953172,-1.7301296869214244,0.32270445934913694
14.12,-1.8997508890113561,-0.5511253309223836,0.2985276163894074
14.13,-2.457860576870341,-1.1312244524956652,0.33445239108426555
14.14,-0.16832554137942657,-1.0800871915573589,0.38964924302689313
14.15,1.625136115465502,-0.19940341463322284,0.31023836507438135
14.16,0.9779110045693682,0.25967877086183194,0.05824287762147017
14.17,-1.4651780157365015,-0.7829275207637887,0.08653818361223227
14.18,-1.5836709732273901,-1.522026544545031,0.29811334159181735
14.19,0.8204359368379446,-0.2000471742042456,0.25431199139606464
14.2,1.0341430594731622,-0.07316185744543563,0.09264894171994052
14.21,-2.291528042236665,-1.3008002270357726,0.34763596458901014
14.22,-4.431170151882569,-1.4528281356744375,0.6483039650966207
14.23,-0.9503529941083426,-0.673891271821974,0.288781445294561
14.24,0.8233471706527711,-0.48022541452912254,0.07695651447521787
14.25,0.2278664256995798,-1.3093636031726663,0.04366254480364458
14.26,-0.8273711103300048,-0.4049714547515289,0.21808839851320452
14.27,-2.4022658510037456,-0.48779962601912613,0.38030567322011444
14.28,-1.8050490810416344,-1.7480337032237718,0.3683016573704866
14.29,1.2901005695768937,-0.24546933361719803,0.06479936129028359
14.3,1.4477744525906238,0.5577845302128313,-0.33270765551282927
14.31,-2.6241810977374462,-1.6014722570999516,-0.10828578651524245
14.32,-2.677839719124361,-1.8525553376968433,0.13192772169355757
14.33,1.8985982178844123,0.5162405096412374,-0.19846143754213227
14.34,2.723069235895057,0.533177350633078,-0.16377013256618309
14.35,0.22271754757727175,-1.536003271773302,0.2181266250693616
14.36,-2.0903868355596886,-1.3203335825951314,0.41305332955422175
14.37,-3.4990378464035476,-0.34766727054765745,0.3691468873099483
14.38,-2.73506827743063,-2.444084821651208,0.25134144608392667
14.39,0.41949352778321536,-1.1221208310760373,0.4523851106931712
14.4,2.870141307084891,0.7755978616090836,0.03156280126182369
14.41,1.9786192327592471,-0.20301022435480567,-0.5406375230465157
14.42,-2.679949657542892,-2.241529946788538,-0.3918534601761766
14.43,-4.963562075831197,-0.8108366756951113,-0.17088327860726368
14.44,-0.4182225480017179,-0.6003518109795081,-0.30161904754022895
14.45,1.692062610902521,-1.5938039632191239,0.20520264506849434
14.46,1.777059636170929,-0.7269822659812276,0.2267734840595095
14.47,-0.7072617995487342,1.2232397686828151,-0.10414369256269324
14.48,-4.225835656936329,-2.1095756314192173,0.00036278000250100455
14.49,-1.7682628501125366,-1.9766476653341873,0.1144786996489331
14.5,1.3842983250980123,1.6461722573743285,0.19210342438912076
14.51,0.8356900974080601,-0.19407635806679563,0.04837430796507286
14.52,-1.2216228160345965,-2.5902786159832742,-0.04376292533311678
14.53,-1.295641424415007,0.07535711023454855,-0.12877581672602015
14.54,-2.6416223573340183,-0.5182362270001329,-0.03348903644823219
14.55,-3.368455673298046,-2.4625556823727504,-0.41212339362814543
14.56,-0.9516984279098768,-0.8697761040811395,-0.5958469691404025
14.57,0.9573785432598853,-0.564173576350503,-0.29942530515902355
14.58,1.302348186548398,-1.5560895465738391,-0.045194468504581684
14.59,1.407137165364038,-0.9799201731247674,0.1399270170061355
14.6,1.7028347251964424,-0.00025967932703806586,0.08164333706070886
14.61,0.8541503403030006,-0.8817975733965059,0.21245738796307934
14.62,-1.8188025396452585,-1.373961081326765,0.289466237285663
14.63,-5.042975753722754,-1.2130288733191903,0.2546929716932845
14.64,-1.3300180530232317,-0.18844114254761493,-0.3767694976848228
14.65,1.6945425081651515,-0.3454423151096098,-0.4359775831719436
14.66,1.6636697189761838,-0.18381582157392148,-0.7419730624800597
14.67,-0.35641432338480095,-0.5865659358461432,-1.1118578605050706
14.68,-3.2047273070439597,-1.7977215804299067,-0.7629503674365546
14.69,-4.041352227051049,-0.947249251032296,-0.12430299510910334
14.7,-1.2317566251951002,-1.5708527154048246,0.3579174829736051
14.71,1.39957848168375,-0.7659952926214468,0.6291921002183555
14.72,2.52800150605077,0.8775980644432976,0.5170584442729744
14.73,1.2768088641176691,0.7213949842535423,0.5173985994850846
14.74,-0.9297268623456015,-1.1286652271109334,0.6254926350464275
14.75,-0.9801797835137609,-0.4689528126256614,0.39786288447972096
14.76,0.6502166703311882,0.9541900925512309,-0.08137904607831678
14.77,0.2595291586866431,-0.45825204631427024,-0.1612584005159921
14.78,-5.415642562143483,-1.610201269018455,0.37387500906436383
14.79,-6.860346834456075,-0.8295593928952197,0.09037252602970847
14.8,0.5261516839440427,-0.6709130771555617,-0.255524928108122
14.81,2.518757165871675,-0.6532131401482307,0.3450731485509952
14.82,1.6462425894509376,-0.3126617342179402,0.7103739838059957
14.83,-1.975724853014108,-2.0853781302223555,0.7412299848940085
14.84,-3.637659523900536,-2.4608416207861477,0.7728636061187781
14.85,0.49947957375552965,-0.5548255287489655,0.660011785394288
14.86,3.162452021555921,0.010182078782524836,0.45177491961035543
14.87,2.0802292887617138,-0.22232174111626185,0.03550080680005304
14.88,-0.9104300598093594,-0.38356975118829384,-0.4175492728981242
14.89,-2.1005869327600006,-0.8342109766841848,-0.5488679488179653
14.9,-1.1131554245380053,-0.23751657760165779,-0.35522855313920226
14.91,-2.210871618499884,-0.7421175455881837,-0.17969121247378855
14.92,-3.134366725922989,-1.4415081202626792,-0.22845466774986387
14.93,-1.3880762603803458,-0.4328925509413897,-0.5845703831728772
14.94,0.479872111032298,-0.4223901174845029,-0.826704194453415
14.95,0.8053616600274207,-0.8980560336282293,-0.6904691534716875
14.96,0.25406245318744625,-0.8596538526929093,-0.03660456699799959
14.97,-0.41161391445906187,-0.5232395204269021,0.7024338098444984
14.98,-2.0656173567768232,-1.185107173109414,1.0531930250436174
14.99,-2.2937471193374397,-1.67591613680069,0.9832663922224275
15.0,0.44389211082255253,-0.7337706908210287,0.746219785323836
15.01,1.2358805090043232,0.004242749984808624,0.11009839095012594
15.02,-0.7762607226401431,-0.2784450603227433,-0.8984390372479791
15.03,-2.1835364699932023,-1.4680808028532233,-0.945833643839531
15.04,-0.6272438079325413,-0.3727036348039664,-0.16777174989806262
15.05,0.7964167506379729,-0.12289787890369497,0.3184823324513207
15.06,-0.6923294272395429,-1.4641844693726211,0.6546500736972648
15.07,-3.1496272561317085,-0.2452814389426126,1.274551650667455
15.08,-2.3228237779726246,-0.4400260040928779,0.9440831183570999
15.09,0.3107370701253646,-1.6095266821145213,-0.11795232816453653
15.1,0.8839616646915075,0.17850324151027258,-0.5657236167456223
15.11,-0.6944767715457377,0.1232391828574586,-0.5980598184310856
15.12,-1.8698071425031075,-3.133491339257672,-0.41326432395928403
15.13,-0.5085539463105061,-2.1935430116464847,0.06732662504270424
15.14,0.617762942912253,0.5966583900548064,0.8174168004414964
15.15,-0.24761452586878838,-0.5721073357974649,1.219639851872977
15.16,0.40446226148646874,-1.901211871031424,0.7185222755731543
15.17,1.2725726751330941,0.27109471583919104,0.38028181546496737
15.18,-1.0283205954218757,0.6323207096198931,0.316707166292245
15.19,-2.5612908773921057,-1.8496727853024242,-0.4043055793979968
15.2,-1.3606829031814531,-0.33508065422798844,-0.9336198150011501
15.21,-0.4852626065066776,0.2942590123904548,-0.8868108301333427
15.22,-0.8405822014375298,-1.5477352265340474,-0.7249085077998101
15.23,-1.0399367703873048,-0.8648811944584143,-0.6230138837490206
15.24,-0.9977494544124901,-1.2323978956247685,-0.6831549896464362
15.25,-1.3912463799375472,-1.696306573484075,-0.04650214989574913
15.26,-1.1948603202210377,-1.0952347627411043,0.9686649291295119
15.27,-0.5258706513852605,-0.7210970519458872,1.2128778923203172
15.28,0.14044340046768736,-0.7048165207309894,0.7602607817444196
15.29,0.8079071566716907,-0.8150218820129235,0.08390178969275038
15.3,0.45043930402231713,-1.0184207765759616,-0.4910617174648167
15.31,-0.271867636150813,-0.49538052499067375,-0.9465478863920623
15.32,-0.15034336137053333,-0.5215386063972938,-0.9365872104861694
15.33,-0.193672267402953,-0.18381598915202194,-0.7734894661407578
15.34,-1.4610760424239253,-0.8115357619494654,-0.4208910073438895
15.35,-1.2300519825821434,-1.1421425919852737,0.2654978990881767
15.36,0.38837302101541965,0.17625136801303534,0.1944025280840322
15.37,-0.7889746251779581,-0.9626359411257432,-0.2584877897485305
15.38,-2.8943367579376074,-1.4602598569355307,-0.4619359418180494
15.39,-2.117796661723699,-0.26720837026615746,-0.4835901592362266
15.4,0.3887901947282347,-1.1380160355770073,-0.5923394916438453
15.41,1.6974364760972975,-1.7568917212620216,-0.1671690478056873
15.42,0.7643408111573862,-0.3309482621617894,0.680866230831249
15.43,-2.503706783554463,-0.14359236649969023,1.2395825589072538
15.44,-2.007677401846443,-2.0276076560404173,0.7014753118720544
15.45,1.5198891550717673,-0.6213913206132543,0.09948550076628689
15.46,1.5416483139982973,0.6087646763942608,-0.22281970747140598
15.47,-2.8847426352404986,-0.5532447290287286,-0.6526446726291245
15.48,-4.3964109407730225,-2.266808267354455,-0.6853724854845588
15.49,0.038170020938924895,0.015195048066586638,-0.36934783290677037
15.5,1.9448257678503251,0.32040630444662127,-0.17015161003399776
15.51,1.0435203137555404,-1.0358822298963064,0.026935811576858704
15.52,-0.40793382940354933,-0.3850499333602082,0.36423936283699737
15.53,-3.1806621907451915,0.0900276448706733,0.5748335934756793
15.54,-4.366991918370123,-2.5795802068760705,0.3598094429042321
15.55,-0.7234870921075341,-1.499387589753195,0.47224740756545613
15.56,1.7203071013499354,0.3763387682664244,0.5217746785312821
15.57,1.4560259308237362,-0.3370186736416568,-0.03660131006932812
15.58,-0.20649529882591436,-1.6085045661501927,-0.2654286962900258
15.59,-0.9999633039822383,-0.6958286653030729,0.042101733192701586
15.6,-0.7549017056653158,-0.018193497593054924,0.3683037791072521
15.61,-0.1303857301116375,-0.8642578460440296,0.2246827282553762
15.62,-0.37269530221194014,-0.6802082539361717,0.10660052646045848
15.63,-1.7505366847418837,0.508591803066248,0.4502576094065205
15.64,-2.034374969061256,-0.5606600755708792,0.6172191384570852
15.65,-1.084406167292512,-1.6332612023333595,0.2401411817639749
15.66,-0.5980558579896286,-0.707977309831907,-0.16571359856179038
15.67,-0.9671151390089148,-0.813761200886768,-0.02138374564384001
15.68,-0.9637551383743883,-0.7768778624720447,0.2558331553047847
15.69,-0.2980485242463635,-0.8543388813952305,0.2621982494330042
15.7,0.17610729031891226,-1.1435029069170393,0.21272390178109743
15.71,0.196421235013523,0.14265832235679862,0.37205909913890756
15.72,-0.22334174850793134,0.1531808433508448,0.5001594616891919
15.73,-0.37684297320519466,-1.2543714166169015,0.2767393446498485
15.74,-0.36993388372961356,-0.5434645562752397,0.17225877628769884
15.75,-1.1005986698069006,-0.42316821815680417,0.15025392062314197
15.76,-1.2471472557237606,-1.5765001337110625,0.09811010831044174
15.77,-1.228014898458591,-1.3017633951383907,-0.1683642111743155
15.78,-0.7289478399384919,-0.8525534285371709,-0.2204395320748334
15.79,0.11672221577574746,-0.12144461865309629,-0.18789587268751487
15.8,0.4994312972715271,-1.0396659059899427,-0.1709880053057853
15.81,0.7705290896691841,-1.0362380409650718,-0.23052762806683738
15.82,-0.09955602906577404,0.4120848360641688,-0.027240491964665207
15.83,-3.0786644868155215,-0.8161309965043593,0.28663953252505286
15.84,-3.109333237357759,-2.3124331009813335,0.15773875129822454
15.85,-0.7852375705671271,-0.495596418966533,-0.23376321034278588
15.86,0.5821990977980883,-0.40650748605473286,-0.7134083055585465
15.87,0.45129059505853014,-0.6569441362403099,-0.7487332610755971
15.88,-0.8147911029845621,-0.8551649213609439,-0.3294672228759734
15.89,-0.8715085380605061,-0.9470588789753446,0.3612169241100548
15.9,0.09080432869960388,0.3459620174653555,0.7278878377502783
15.91,-0.2985513125272243,-0.794715799351318,0.6570790472063189
15.92,-1.1802064628413957,-1.221108598384274,0.6560557565657653
15.93,-1.4344837820372618,0.1829108664434727,0.46586110200829167
15.94,-1.1469204443982663,-0.8212862806860772,-0.2568214756450863
15.95,-0.7618997740978991,-1.4770191160105692,-0.6135533392905551
15.96,-0.9849428796821191,-0.3525254319112363,-0.10387309330542815
15.97,-1.5272594317439423,-0.9566579059691168,0.496702363856452
15.98,-1.171620865399297,-1.6602734122271856,0.6310090196049788
15.99,-0.23988569825228728,-0.3334181688212176,0.4740976733350663
16.0,0.52172224660565,-0.5369171410963516,0.41502345257426176
16.01,1.0146853799101108,-0.7654363132476448,0.38127252455957156
16.02,0.3378951908951512,0.017116133150365795,0.14152330673709476
16.03,-1.3378777577586125,-0.7722419677639566,-0.012700999134902583
16.04,-2.216368180747033,-1.1526738687852625,0.13768457152022143
16.05,-1.5827826484467111,-0.7908394869261743,0.15407866268669007
16.06,-0.6778133335215409,-1.383114725701432,-0.309536342042626
16.07,-0.6256259443332609,-0.4947837671541469,-0.4858319377769295
16.08,-1.4445054746302222,-0.957018395863156,-0.1726776033586809
16.09,-0.6280162270318738,-1.2855957355547338,0.08826653506266412
16.1,1.190151839775808,0.5356054887743609,0.14247770183884054
16.11,1.2236407777563774,-0.04129434262109121,0.11933413696736182
16.12,0.2905685722251998,-2.462193827344328,0.18016921455844453
16.13,-0.9854870634094145,-0.4657023167637874,0.5369211405296692
16.14,-2.5239926746484365,0.17846013869777755,0.33839695698551253
16.15,-0.7107109139161816,-1.5171093354583487,-0.41697603598056476
16.16,1.3482887828130192,0.0983685683689088,-0.3633735583118986
16.17,0.38401024169844195,0.475993279366831,-0.1925539810237137
16.18,-2.733032060685015,-2.3741619817871245,-0.2865920765169312
16.19,-5.103536855348767,-1.4619085885702223,0.22642259887827113
16.2,-1.8616530146474477,-0.8861040272282751,0.08348887735961742
16.21,1.5405918556392924,-0.9839727649172879,-0.03628132432336526
16.22,1.989006716238076,0.28686251325284445,0.15459612022475297
16.23,0.07316441930254747,-0.7574093824372471,0.18126395451392086
16.24,-1.7444264894822292,-1.7531751640519064,0.1827576446980501
16.25,-1.2292649099690995,-0.2637361247303286,0.19706737703938595
16.26,0.0980646700246859,-0.48953930109403065,0.18944136304006093
16.27,0.39552931645215744,-1.0570909618704891,0.21295816624893926
16.28,-0.3834705824262978,-0.3950776175166492,0.23035996683527984
16.29,-1.2387241321123443,-0.19192861610825512,0.1552708651071091
16.3,-1.7449522609239103,-0.8968695207620477,0.028886002582848794
16.31,-1.4612778508384465,-1.4835486562081994,-0.043394850640911566
16.32,-0.1460488535082456,-1.0903101849462047,-0.05349398751971439
16.33,-0.06718641597591087,-0.2453693343673071,0.10120615009591202
16.34,-1.3533979945907608,-0.87161105221065,0.5277146412686738
16.35,-0.8670663241938532,-0.703659421383109,0.46537075741556505
16.36,-0.2323125294775738,-0.781660920475465,0.01911514709031836
16.37,-0.8203102843352574,-1.4948645826923632,-0.1348980549623602
16.38,-0.16820765737889265,-0.38039651860441165,-0.2540924372692613
16.39,0.7112133759988533,0.2877790142361567,-0.5225659952039376
16.4,-0.8513715946005616,-1.654750664341572,-0.28630643951539625
16.41,-2.266534274353018,-1.6012540961470736,0.3304183767992501
16.42,-1.1852265112444493,0.26236639577290244,0.4061232275653197
16.43,0.29251365601069923,-0.5461698657678128,0.3452567509042682
16.44,1.2926668689332625,-0.6986173831416996,0.3942478594426749
16.45,0.8436082481421732,0.15035714102510944,0.1596143052271879
16.46,-1.4224032874874182,-0.694201593360119,0.049392637573717556
16.47,-3.7966573981500322,-1.384535732248389,0.12448607235437885
16.48,-2.86515036033716,-1.5528542815136108,-0.31326553191148965
16.49,-0.3757893500280964,-0.7677772294799319,-0.17824442347782005
16.5,0.9119669987751975,-0.4116353692072091,0.40891921976584883
16.51,1.2002838732638723,-0.9844153343877297,0.5480247337467874
16.52,0.3520738539526782,-1.252082541032346,0.49671674651883957
16.53,-1.0578173439280045,-1.0935281168698707,0.4890602265388325
16.54,-1.2463335629215813,-1.2127267761342575,0.08694239945225957
16.55,0.6574796498989367,-0.04792322800675827,-0.37838633263882243
16.56,1.698375063015376,0.9178790677124351,-0.4611159796730763
16.57,-0.2626074836028745,-0.7175436442738081,-0.3174588846552144
16.58,-5.169962582498923,-2.392668178953647,0.3740888016392706
16.59,-4.897148407977586,-0.48159029802039366,0.6657147165357276
16.6,0.7500761112974282,0.16838479923304292,-0.27894853624815513
16.61,1.6263020902912098,-0.847594588627961,-0.6258010551149652
16.62,0.08332841553910493,-1.1460670440070577,-0.003364830787405182
16.63,-1.795206308982356,-0.4593234061029581,0.3687441823956461
16.64,-1.968288983733965,-1.5372952529639816,0.0904499741301875
16.65,0.6826177928416467,-1.3368229149421036,-0.20644001106228788
16.66,2.3083197206213137,0.022434075455573136,-0.10315250078405418
16.67,1.2373732474926709,-0.01910763231842873,-0.020675978259295305
16.68,-1.856630805473678,-1.2105308323036488,-0.366791747733678
16.69,-4.59265520350164,-1.4582527205369533,-0.45674833848408847
16.7,-2.1388710835520675,-0.6392086198193294,-0.13653352988347414
16.71,1.0929363162024919,-0.703896268121861,0.3198911038046094
16.72,1.7605021910807441,-0.791472018452264,0.31359230579751546
16.73,-1.3269233616021672,-0.3712945327612278,0.5661018756649626
16.74,-2.5874676371725642,-1.4940699073559771,0.119640312321702
16.75,-0.31353663706288737,-1.100476120067848,-0.5016107790545458
16.76,0.5941830626218838,-0.314873304120151,-0.34832192268613976
16.77,0.9583385027210084,-1.0843106312818749,-0.49475807757461027
16.78,1.2109289817676885,-0.33586515950999607,-0.5348721289993209
16.79,-1.2464774856022214,-0.09138529062551358,0.13488297383588038
16.8,-4.245083698679602,-2.890836255297434,0.8816308024923489
16.81,-1.9053861765986546,-0.7349083765912107,0.9306898337692138
16.82,1.558890508475629,0.4147758591972679,0.2024734631246218
16.83,1.6472300267507256,-0.9644641168452353,-0.1554825904504077
16.84,-0.5448359999545298,0.34270041329523593,-0.2024485692629311
16.85,-2.500478149726977,-1.0679652252142642,-0.5048336086362563
16.86,-2.046938211256382,-1.3494976465657755,-0.1702095741452018
16.87,-0.5674719740011477,0.24867536675952875,0.4766374538855291
16.88,-0.4611217310559593,-1.2353183092230187,0.2880878308719678
16.89,-1.3529408847337743,-1.0494104024034998,0.31428534168892974
16.9,-1.259827834339482,-0.688502360980243,0.4866870634574091
16.91,-0.17081526094129648,-1.170782834197493,0.03668138119311615
16.92,0.9012905427822532,-0.6407957415776743,-0.38030634472956804
16.93,1.2240167316100667,-0.30674580608654944,-0.18239720336282478
16.94,0.2718509773319485,0.4949992998887586,0.15720922298392712
16.95,-0.9365710826858294,-0.9839997666264033,0.015198343176792455
16.96,-1.185846587795323,-1.5108726759402293,-0.12832008303659403
16.97,-2.663108201129985,-0.4197313811234193,0.11498018560420821
16.98,-2.7337640952655695,-2.063953897008287,-0.20732398615021003
16.99,-0.9164602142865662,-1.5620391678713552,-0.6426707393190502
17.0,-0.4181879949610633,-0.8495550345514457,-0.7742147998988134
17.01,-0.464751495823205,-1.4908002256121378,-0.41043028614814997
17.02,0.10068076788289083,-0.9406604867953667,0.14667224429736772
17.03,1.030308234696047,-0.07017572556029959,0.166611327230265
17.04,1.1495276822555824,-0.34511756598771814,-0.0907490286529783
17.05,0.5861817211384143,-0.41087017391065855,-0.1005507408233037
17.06,0.22324256904395448,0.1683795076107847,-0.10048357546275785
17.07,-1.324142738240727,-0.35987832980010204,-0.3088076101257634
17.08,-4.8357395110708925,-1.618148677358893,-0.21632131021511883
17.09,-3.126131617978237,-1.8718098969762822,-0.24207821417909442
17.1,0.6331122812484241,-0.5756653782561427,-0.3842671104646317
17.11,1.806041122251991,0.2506914662503901,-0.4712501329813449
17.12,0.404808224469985,0.2955692903307918,-0.5793356083788216
17.13,-2.569178032236983,-1.2000940699593066,-0.08075329184310422
17.14,-3.329077621035559,-1.1801327480360504,0.5850190550744427
17.15,-0.4230895067934692,-0.3224765019491052,0.35502939863754224
17.16,0.6883057758893926,-1.0661887376114374,0.34699272695320676
17.17,1.0168529150424,-0.6827151626726925,0.6382341740861499
17.18,0.8100492383061642,0.3977200640561783,0.6431459241665931
17.19,-0.2634231648645868,-0.36529983094123847,0.22110996950828923
17.2,-1.4914102425033202,-1.5011381635088559,0.17598374548761073
17.21,-1.8094622276402152,-0.5051251102166101,0.2941329070757282
17.22,-1.7998693919819313,-0.3809805227627197,0.08654518865478544
17.23,-1.1915233730877903,-1.2100136400565638,-0.09851248519710458
17.24,0.27527427188757814,-0.43748866325966734,0.04874466535798227
17.25,0.7191946615992757,0.43881581261509767,-0.02294559340847184
17.26,-0.1533953148439471,-0.8601918847799557,-0.17565627777780668
17.27,-1.668621935376545,-1.313408723503838,0.13374484592857627
17.28,-2.255852357858094,-0.8435936155839687,0.39810565907949413
17.29,-2.07806320255675,-1.6123457969554709,0.2662986027564008
17.3,-1.292982993027418,-0.4938393612986566,0.23504901278859888
17.31,0.18658696639745326,-0.3917058579166982,0.40934784729517115
17.32,0.8330236747524176,-1.1314936884187299,0.5451426967423275
17.33,0.7881857258582976,-0.023026241363074997,1.0978747433807237
17.34,0.21166844542202143,-0.3979361409063545,0.9845689199898656
17.35,-0.944159154727721,-0.8641694457156867,0.1840929176047849
17.36,-0.9229980043807791,0.12631732423018763,-0.16106701761546569
17.37,-0.5614323201346769,-1.3681953516658274,-0.09074912780368365
17.38,-0.5743522143605391,-0.43384815074896554,-0.31448648261007184
17.39,-3.34213028960398,-0.17890707518184187,-0.6321661296449066
17.4,-4.2671717890590255,-1.6923575463171332,0.08257189571600371
17.41,-0.5349480024755454,0.5080581055586457,0.7197691104228784
17.42,0.6936110018845238,-1.182388837947384,0.3091296847732853
17.43,0.4330423141000968,-1.6968532858129088,0.07748501242863927
17.44,1.019482238851812,1.0036554169041823,0.5755752673440437
17.45,1.895647605966739,1.382787207084565,0.782433736155349
17.46,1.296245887972617,-1.0035601936365461,0.28281093554076947
17.47,-2.114943236171908,-3.0727739047795564,0.2014313359158948
17.48,-5.1596262517009635,-1.8851130784554675,0.2573932085308115
17.49,-0.8213004616735898,-1.405177914438715,-0.10669735277463072
17.5,2.1849296961955,-0.5918372219280464,0.12697153313215873
17.51,0.994944462285232,-0.1920490498311642,0.01965695806087708
17.52,-2.4182546331192647,-0.8824415864809233,0.008396601196999618
17.53,-4.106512817590422,-0.017756020078259695,0.29621283155026296
17.54,-0.8973944538953667,-1.3029665358949225,-0.4807677090994519
17.55,0.9419410344746865,-1.6612737374960616,-0.5602142892359967
17.56,0.6897645094140878,0.1439969049874849,0.019772673229816153
17.57,-0.3702940001159302,-0.23682774262913023,0.08850580391550987
17.58,-0.31198028754548146,-2.5442514813045496,-0.16900147423720296
17.59,1.0423160834876015,-0.8281945239403413,-0.005739330991971928
17.6,1.0346735435593502,1.173955249020896,0.2970209037835777
17.61,-1.747211574182731,-1.5408822295981393,0.2786714312705905
17.62,-5.4366237977256295,-2.4080797753867778,0.4881537180585856
17.63,-2.7031423832419703,-0.36918853476504887,0.03451983848316087
17.64,1.8402329749265105,-0.5215546828479987,-0.5889747918766074
17.65,2.682890633901324,-0.49516763141061615,-0.6247041376862122
17.66,0.14791132990978495,0.028813857072005105,-0.35337030027049465
17.67,-3.434597767883263,-0.9824265232739597,-0.09471665276729893
17.68,-1.7413705328719467,-2.2929421040554443,-0.3317327138067054
17.69,1.0943706841096505,-0.10444902613742277,-0.06502531263112557
17.7,1.3271339581258816,1.0482584297459447,0.16590594928526922
17.71,-0.6294130658226729,-0.5467546525677105,-0.13438806250749671
17.72,-4.081870888454621,-2.563255251534749,-0.20217409495961755
17.73,-3.6457984824410037,-1.5610352248352983,-0.15688967858534525
17.74,0.18687767951679268,-0.7257477464166043,-0.2815310634950552
17.75,1.8800563960879169,-1.058209756212765,-0.3411087967560347
17.76,2.577802037083805,-0.8873074240625494,-0.28410920431446945
17.77,1.0855964061433898,0.9915979262598222,0.1165861393253022
17.78,-2.4286588781019085,-0.038878204722446526,0.09119516521393771
17.79,-1.9484391125453873,-2.9603103061794833,-0.28676608970823486
17.8,0.17392151202451556,0.1283389194556194,0.10830981232399214
17.81,-0.11307217376599442,0.5104592642280336,0.08635114106386235
17.82,-2.0835869214728366,-1.9865507005408078,0.018271378363020688
17.83,-3.280469518678817,-0.8335942504505502,0.3873265940903456
17.84,-1.1656497998648943,-0.5432030889918652,0.06218562272343178
17.85,1.2349884408932452,-1.016326257206692,-0.18772149249064254
17.86,1.1472364269801816,0.3100728975369138,0.06983352163500303
17.87,0.04336474425692164,-0.517457526932009,0.2593976007791182
17.88,-1.168321001544923,-0.931542564841228,0.4460803917754605
17.89,-3.5357984606914012,-0.22581307185331068,0.6739085546791448
17.9,-2.8281998935677866,-1.2641204029615956,0.5452808369224237
17.91,0.3521524327045059,-0.5261136340268119,0.6196821634682633
17.92,1.6461138164966052,-0.31132158713788494,0.26143322418707987
17.93,0.48149825145294367,-0.6744072691130744,-0.32455660987561125
17.94,-0.8657584693369382,-0.891391013278674,-0.26725602043955754
17.95,-0.9757643587955835,-1.0484584048465577,0.03921333663757882
17.96,-1.0277621812048006,-1.4101834028689386,0.12289036180195217
17.97,-0.5844797565166152,-0.5922505182210339,-0.022874104579140297
17.98,-0.4513968731872954,0.3021151797502561,0.17406437309657527
17.99,-1.102513124608759,-0.6593920573393582,0.5076500649997997
18.0,-0.9597469275319502,-1.5510420629068036,0.2771719658929011
18.01,-1.5206874230887721,-1.19595673728632,-0.00011622637826576438
18.02,-1.365084494067621,-0.8594550095824965,-0.23128653498690888
18.03,0.29329021183760245,-1.0484328113989008,-0.7811871865092048
18.04,0.876664569960553,-0.7520462819611666,-0.7750850503986879
18.05,0.3821577184340518,-0.1456682802714347,-0.10599236025203526
18.06,-0.11067796863022192,-0.47515303482577054,0.07005394487948981
18.07,-1.1340270023204577,-0.9398480363275111,-0.059652958216731146
18.08,-2.613313936222527,-1.0550218343222717,0.12977880403729253
18.09,-1.2337685474710745,-1.3320868339646166,0.16282424339667392
18.1,0.8989770079035249,-0.6217807611461406,-0.030565136094404408
18.11,0.72237150177104,0.15112523708572756,-0.2931453127928241
18.12,-1.2697481570317457,-0.5813045644753632,-0.26428808070409676
18.13,-2.064380272258841,-0.7605292025966375,0.053600312024787634
18.14,-1.1763463601009536,-0.36820026275160683,0.0005600312930637868
18.15,-0.8396070611683374,-1.326291917342212,-0.393815848016635
18.16,-1.1484779647161398,-1.8073105043283488,-0.3689832264310982
18.17,-1.3411189663733705,-1.090998544430695,0.09976426509131958
18.18,-0.66243544798335,-1.2557959054899166,0.40579446455788687
18.19,0.4641824053424012,-0.5131725590380636,0.33874729483122445
18.2,0.8680021892440244,-0.5418836650241353,0.32776189710652637
18.21,0.4830187679677387,-0.21941846354630562,0.37932288352024524
18.22,-0.3635185822267731,0.31754074124600457,0.23970546291404776
18.23,-0.47210423266575213,-0.982134638061891,-0.03213701663782943
18.24,-1.141338724406627,-0.875645459637485,0.009621284347869062
18.25,-3.939264729499552,-0.45737500290463,0.059507069560637685
18.26,-2.9023832150976334,-1.88554177439975,-0.3145538399404135
18.27,1.2295193235134445,-0.7581009409123061,-0.17962413889972095
18.28,1.9015738310537005,-0.3580193761533744,0.1694165330558087
18.29,-0.6255293523105013,-0.9827182272609921,0.2112512648374319
18.3,-3.3311626944537616,-1.424345744053693,0.4393448630808545
18.31,-1.6212001753577294,-1.0334745138353978,0.44125073194182035
18.32,1.67361739947952,-0.8056492465023589,0.23184110287911722
18.33,2.1719126003523197,-0.3407864928334322,0.37240154380883156
18.34,0.4997554254868489,0.9977650028399151,0.27145506291661975
18.35,-1.393383182214851,-0.76091109951788,-0.09173954057070251
18.36,-1.0483653594303206,-1.368327499577792,-0.13818502696388532
18.37,-0.9740481088147745,0.4694822366324714,-0.21871617341270022
18.38,-3.5867800553236275,-1.5338614096462642,-0.43043807765712605
18.39,-3.054276774133312,-1.8363809695997713,-0.4974348549384414
18.4,0.4456824354297209,0.06964454255764624,-0.45114082066555955
18.41,1.8999250753792865,0.14009839434916632,-0.4861068084459349
18.42,0.5993572685674516,-1.0380173055654498,-0.12576512007880808
18.43,-1.1450877615924673,-1.1677423914176968,0.5784707696017295
18.44,-0.4489057575139591,-0.01011118895264788,0.7404913980910722
18.45,0.5785925858068477,-0.5356370351158206,0.3610239332960182
18.46,-0.648464139513916,-2.0167096033444176,0.4282845155508498
18.47,-1.6731260764499685,-1.386908010274678,0.5245529783876401
