seconds_elapsed,z,y,x
0.0,0.4672936797142029,-0.9434149265289308,0.2659427225589752
0.01,0.5195932834215756,0.9586221657859438,0.3454211222575124
0.02,0.3078936052992839,2.274108938881374,0.16963985951202207
0.03,-0.059413344452061645,2.5345862311980696,-0.029910562355678585
0.04,-0.027900503473326264,0.674350737586125,-0.25966356866843193
0.05,0.06986264740694395,-1.690467932980392,-0.2025224382955517
0.06,-0.35262710948383535,-1.8917734801529156,0.20614875400146238
0.07,-0.6917856463804105,-1.4608304558809604,0.685548793203714
0.08,-0.7108633678140113,-0.7257913834665735,0.663980981474197
0.09,-0.49214469036496605,0.7220503561487813,0.1748419636812259
0.1,-0.21579344118242766,2.505098431953011,-0.6591354125915209
0.11,0.34125109329653386,1.658910339771431,-0.7177420422967852
0.12,0.4767880643842944,-1.5439365141380101,-0.11088404664190521
0.13,-0.2567827015811505,-2.0347242384002806,-0.5219026743406624
0.14,-1.128632346121231,-1.770595620660199,0.06422525813353001
0.15,-1.6214126046853876,-1.3697681948860827,0.7371133154035778
0.16,-1.5007893823586254,0.1906161391943794,0.335139203224727
0.17,-0.9887807202124876,2.5675436556404536,-0.23007474198210898
0.18,-0.33699690993660536,1.8907528222824836,-0.154402814806608
0.19,-0.0043362265677666595,-0.2899578832677657,-0.054350741459403606
0.2,-0.04973462131981201,-2.157806978403902,-0.08236320448711566
0.21,-0.24530418079440125,-2.6340391465595903,-0.22749082913167804
0.22,-0.5463832351863954,-1.0461002500808017,-0.9822887886670352
0.23,-0.9808677221051971,0.1654102818362264,-0.4640040068628923
0.24,-1.2765601638817377,0.6783802244731528,0.5387789164983307
0.25,-1.1407146141099351,0.6066349403660474,0.075680755963026
0.26,-0.455173143143185,-0.27395145352240396,-0.01698582309856143
0.27,0.46614885165594033,-0.12420835691894867,0.3996159075279682
0.28,0.4847992014878974,-0.8103260840456796,0.475505165775877
0.29,0.10794990047822015,-1.2804274438486494,0.9649685326580554
0.3,-0.3446479563630116,-1.011084186204078,1.6340368057435415
0.31,-0.6185799344797325,0.0757738825317661,1.440218441839278
0.32,-0.3788177159558798,3.4253546005905355,-1.6194091245515265
0.33,0.4747438233717219,0.8061703326669442,-2.918145386542073
0.34,0.8431560809874087,-2.147470370482891,-1.2004847392408935
0.35,0.5832125036885545,-0.8045652431781267,-0.31314812223666527
0.36,0.33749679451342623,0.3861794111551759,0.43563779760476246
0.37,0.3662929804965022,0.27638689724440496,1.442719259962401
0.38,0.8073313354438294,0.9038050214754499,1.6405932121720723
0.39,0.8416044007687429,1.2433387577630097,-0.2290583630192484
0.4,0.6079376875923114,0.14497888155058805,-0.619988738162474
0.41,0.4475071318906308,-0.41184258277534813,0.40664547406615364
0.42,0.7442825531759103,0.5318053990852795,0.09020432028451421
0.43,1.3073341650720531,1.476122636687454,-0.9728891126125044
0.44,1.5049248968005744,0.33682128812152745,-0.2536881039192588
0.45,1.2647876651924503,-0.3517056319073426,0.9201237842537425
0.46,1.1140322729186165,-0.08223585668562225,-0.33017530845789766
0.47,1.0418297551428135,1.0349050456087163,-1.657616178851884
0.48,1.098450824476734,0.6500503569219176,-1.111792829497728
0.49,1.079947762196923,1.0269747964131009,-1.3934798071232601
0.5,1.4063769215563977,-0.049357789920547124,-0.3464375622298041
0.51,1.817413419738434,-0.6844497067745706,1.32605449776996
0.52,1.7376889303343235,0.8304217496430186,1.5977541925968697
0.53,1.3497331272130075,0.8975327965312575,2.305481029472376
0.54,0.6721461680301049,0.9356912421848764,2.9973315846596233
0.55,-0.0090551059442264,2.1688107400727814,1.5874726038882458
0.56,-0.5309522054001684,3.177185151786828,-1.0463011500327255
0.57,-0.7526743672757978,1.5810500219305037,-2.3844078612441155
0.58,-0.18415242773526333,-2.1664352510821336,-2.371749079085279
0.59,0.8195367630721881,-4.086162154031143,-1.6025406252242387
0.6,1.1627754749039767,-1.7627198910531927,-0.3727735696767172
0.61,1.0892143864916415,1.1463003146978943,-0.1759446790073943
0.62,0.3996657321505159,2.48708728587249,0.2848694548408968
0.63,-0.5888179263644059,2.150908996515162,1.1347915641114412
0.64,-1.458934684863387,1.1037957844343098,1.2307103496450207
0.65,-1.9735280549612122,-0.2281734575970323,0.9643110232168706
0.66,-1.9327992796678841,-1.7400144869959824,1.3507110805601417
0.67,-1.0958090387628312,-0.7284641433004996,-0.09068943735441397
0.68,0.23122987229119513,0.7461983579949555,-1.0855764152366738
0.69,0.562544807116347,-0.936656833989412,-0.5821353823859362
0.7,-0.08747846827366904,-0.5637116440096553,-0.3470101236281602
0.71,-0.8547600563650545,-0.6690691542653227,-0.7140707441589017
0.72,-1.3502614983106005,-1.564708483225831,-0.7506316288088531
0.73,-1.4739181013149367,-1.1519886510634032,-0.18307739794139472
0.74,-1.2895228260702472,1.9132169119586926,-0.8677706101045156
0.75,-0.9817041726227868,1.751206833820618,-0.04003819654641808
0.76,-0.9490401927259856,0.5376823417317851,1.5059742309737099
0.77,-1.1971352785662064,0.17418418995903273,1.0743137743062847
0.78,-1.4569765523422515,-0.666403052319652,0.2729645942359286
0.79,-1.6008714718216999,-1.8662380259072004,0.585126366190969
0.8,-1.563989116476632,-1.5166708543884273,0.24592745107539712
0.81,-1.1665111178005738,-0.7791962269413392,-0.3974404765799423
0.82,-0.5536975217863767,-0.7115411717852944,-0.803874175864814
0.83,-0.24157469286831976,-0.1602629114762009,-0.7874318416042728
0.84,-0.4186713413600189,0.9906491081721228,-0.4081872410820818
0.85,-0.8562450994833037,1.5296524464203902,-0.014575660907936027
0.86,-1.041209470486048,-0.42961819985567795,0.8965024701489349
0.87,-0.9279706858461467,-2.7814380379114496,1.384010313045544
0.88,-0.7043629329945096,-2.636180249111136,0.7172045729980275
0.89,-0.48595980551252704,-1.0784669374352753,0.4172688215695755
0.9,-0.36152071696985544,0.6093551692500758,0.4275964299327668
0.91,-0.16863469187414326,1.5595314828150553,-0.41159540451937887
0.92,0.1446392145161071,0.3734083578820403,-0.8628623754234263
0.93,0.3145939694820239,-1.2527104513511311,-0.6900569019014966
0.94,0.040419559193765914,-1.094611215435923,-0.3639682402438564
0.95,-0.35471719997886786,-0.7156073776221524,0.5615048991872227
0.96,-0.5597436647987235,-0.04555081930759937,0.6971772233458225
0.97,-0.5548943362675551,0.9881522077146615,0.19065245069951622
0.98,-0.39805951602610695,1.1879248396734656,0.23374480065973866
0.99,-0.0011664783090160312,0.04801402892566735,0.1148600783166234
1.0,0.6571846537543841,-1.9872042171908963,-0.21520296045088597
1.01,1.0498527684345238,-2.0422507153540073,-0.4231119347278084
1.02,0.7832253590538537,-0.7087051741325463,-0.6988676968294929
1.03,0.03474183721603325,0.972498544799725,-0.36775165527746073
1.04,-0.8569193936404914,2.6974006927797816,0.059669956724861244
1.05,-1.1175354223147977,1.4408715703159836,0.49525603216267644
1.06,-0.775869660638615,-1.235521197773273,0.40229630306471104
1.07,-0.32198559583307074,-2.497566798511725,0.35602587953988124
1.08,0.23451558949571769,-2.3363922588798354,0.6959730467420799
1.09,0.8893155885879507,0.6481962194958363,-0.002962825445250827
1.1,1.1477041966474666,3.0820372083443885,-0.8166726497746153
1.11,0.6435443238051987,2.55961756558775,-0.4153757881164445
1.12,-0.005180170236432879,0.3717904021163956,0.40900736434606627
1.13,-0.30883195411012493,-2.4381654098181067,0.5749995109317658
1.14,-0.19488387171173185,-3.3412919287998366,0.5038382301249434
1.15,0.28618029995440547,-1.617017679967557,-0.0861319128127711
1.16,0.7320695649184055,0.7501885623625308,-0.18469293576986323
1.17,0.6577964809250043,2.6632206570433072,0.4364177219413601
1.18,0.20533391620349314,3.322444171597856,0.9127820532677339
1.19,-0.28982890583029663,1.442822320146352,0.6368842656939818
1.2,-0.32878735358499556,-2.885618711161251,-0.5781664381026994
1.21,0.09986926259189001,-5.484502845546158,-1.572587214087608
1.22,0.47469005703659284,-3.262279082615155,-1.3099898498011935
1.23,0.5921924929078898,0.7020776537755127,-0.6720135422909866
1.24,0.579205583106366,2.663452225516539,0.06744371434853014
1.25,0.19300319302414576,2.172962560867923,1.345871174085305
1.26,-0.5436595284532516,1.654177660424886,1.8226494498053145
1.27,-1.041811495593457,0.6636007418776629,1.3163149085574208
1.28,-0.9420972030955395,-1.789786293987926,1.0770183824366055
1.29,-0.6678036204716192,-2.757820242095146,0.7719796861653816
1.3,-0.2002096807520788,-2.4128389665600807,0.22095295316215643
1.31,0.3531525108249161,-1.2884630356940927,-0.4231677813143008
1.32,0.8026565634841742,0.6641104249584461,-1.5282149708109318
1.33,0.8933972884662803,3.0450823946934813,-2.454182269332062
1.34,0.6475522252469148,1.5888620033568117,-1.4413014894599172
1.35,-0.041661584545339365,-0.6373966326678643,0.21680362255382485
1.36,-0.7881103968868289,-2.2581000438082452,1.155916236300241
1.37,-1.0340852650061718,-2.6610493645119675,0.8503319248747583
1.38,-0.7279846037906457,-0.713767214282803,0.1420967654513065
1.39,-0.15378571887268397,2.2952052186904672,0.2359839873903995
1.4,0.6749767076566422,3.736817520147238,0.002498566396567369
1.41,1.3322865341643468,1.7994251028092885,-0.19496072347288737
1.42,1.5251711615773915,-1.080253011737211,1.1273568040380477
1.43,1.277074265673419,-1.9247843525514827,1.9861158615839185
1.44,1.1824062506561626,-0.6576833786351549,-0.5925642754183678
1.45,1.2673810417797495,-0.11512502616882722,-2.839985370769733
1.46,1.1326721838779454,-0.8991011885971798,-1.572628947289789
1.47,0.8286370728775225,1.3815106405533588,-1.3011818941454374
1.48,0.7470215525778587,3.3911806464499157,-1.3732825247500582
1.49,1.3930391748411008,0.21900409928210254,0.6800594269042037
1.5,1.8709410294870046,-1.548281083711258,1.55045547231942
1.51,1.5846134921941766,0.22325286757481141,1.2291536460389025
1.52,0.893018155776772,1.0005995320068148,1.8948528116375682
1.53,0.20472329617116872,0.8775465385083568,1.40644699650542
1.54,-0.2875075424549098,0.6474187432678793,0.262140530890557
1.55,-0.6734608521897718,1.2458357143507297,-0.34257168972936164
1.56,-0.6176392076364259,1.456190277372519,-1.8534427155769537
1.57,-0.1073325676243333,-0.7039411413375136,-2.590599736198148
1.58,0.7315696485200043,-4.227023736239967,-1.1644336443860255
1.59,1.0776632417350576,-1.727319333446701,-1.169375501628372
1.6,0.6353888444727295,-0.5611796796737555,-0.43708389268831893
1.61,-0.2873688592550431,-0.8556174643894862,0.9626967813927665
1.62,-1.182777334272985,-0.05700395682728119,1.14249410667062
1.63,-1.7013380365434667,2.8784990944063806,0.3282924282000515
1.64,-1.457890811731828,2.709708403505268,-0.009617373133183654
1.65,-0.7860095109960238,-0.12772310287180036,-0.3952117894862653
1.66,-0.23523031614834405,-1.338567292170447,-0.3401975580852489
1.67,0.1567423613390628,-1.0287054515188994,0.5963470938908298
1.68,0.350886665815926,0.15925361433933805,0.6815881255259135
1.69,0.4034167448978169,0.029696413942732255,0.5616763664570412
1.7,0.24514625018469138,-0.49975982145395303,0.39999565027792816
1.71,-0.12551867337516062,0.3150305995402912,-0.4251404755802991
1.72,-0.3378534207794008,0.8471531556015688,-1.0550822645253073
1.73,-0.19894961978731784,-0.6205660654946057,-0.6954175435260542
1.74,-0.17910818297459993,-0.5020373715597295,-0.6965497627467818
1.75,-0.10519343151411698,0.39834604080775937,-0.4583379933664462
1.76,0.2210645592848646,0.25368203126022154,-0.0014600419808021821
1.77,0.7261410447851969,-0.9039043878653407,0.037201071505502774
1.78,0.8721102181809811,-0.7463105151629628,-0.020263758260835884
1.79,0.6448725291925924,0.49284791829345587,0.011843369098036485
1.8,0.39823394459552763,0.9389077265154716,0.042306025261329844
1.81,0.1920097068609595,0.34837961612086216,0.5210619951968435
1.82,0.03839359005009241,0.18965973543052883,0.4703908946292612
1.83,0.11979786749068524,0.5953610750247539,-0.19288012299968177
1.84,0.3155449436049779,0.2636458888417927,0.1065739175512111
1.85,0.530468490107125,-0.4200611687651709,0.3853710936829747
1.86,0.7259302892115499,-0.2053529937588749,0.1254977483141735
1.87,0.8211703094765983,0.4488360655470253,-0.2676299834812434
1.88,0.6574752710816906,-0.022744398497591235,0.3170110183116348
1.89,0.3243502985586739,-0.6073936152473384,0.6543150415029914
1.9,-0.13304316920900583,0.010436998884922829,0.6148300191356892
1.91,-0.562264104213848,0.9720594180463973,0.8247456848162436
1.92,-0.7508373164399024,1.4652350515925583,0.8546684768042132
1.93,-0.5680534967758669,1.9848008196532265,-0.37160806703267596
1.94,0.15447685104340234,0.40547231112136495,-1.6115761336542707
1.95,1.0814323937774275,-2.7583154892328707,-1.5261943339458028
1.96,1.5479255642197325,-3.4814670669330727,-0.7363926480042989
1.97,1.3609171766719403,-0.26133656569860075,-0.16025577136211847
1.98,0.8467559454109996,3.140544326835141,0.5086824177617609
1.99,0.1603177783623703,2.3684501584201834,1.4865391839711
2.0,-0.43775183677991647,0.5160930073610739,0.8449653574473308
2.01,-0.6333010381484538,-0.8337698268995614,0.21436708229456075
2.02,-0.3232092950949538,-0.5790112265594525,0.46121144893920496
2.03,0.6593992709270087,-0.19571396054122842,0.8720060645986114
2.04,1.7474054072764649,1.8424568097059724,0.39345209715641777
2.05,2.2189283785158014,3.275704254430989,-0.3696261054250051
2.06,1.8198329744734052,2.4047889706618584,0.2705426881184566
2.07,0.8656917553718855,1.1456996966535553,0.41280392801019744
2.08,-0.09421781548832986,-0.2870730944707041,-0.4423132363429282
2.09,-0.6279407650645833,-2.054103545152934,-0.22043572852265367
2.1,-0.6254514558594559,-1.9651801578696009,-0.47515786146453576
2.11,0.05656033114313415,-0.2805327996377884,-0.8868697902090127
2.12,1.2374674536537886,1.113918547518424,-0.04111097360875138
2.13,2.0504294945845083,0.9079517092011328,0.6486833418101422
2.14,1.891165153662743,1.5718810384525448,0.6449336961220372
2.15,1.1329037539983469,2.0257939909176432,0.8430553598020802
2.16,0.209117023603708,2.245556887220919,0.956261646935433
2.17,-0.3579803742672194,2.512137595630372,0.37078058744093384
2.18,-0.15061886715054992,1.827294864335895,-0.9401162377615166
2.19,1.3540544680711457,-1.896909665718975,-2.6339030797846466
2.2,3.480112634309462,-2.40468685191795,-1.1843295048551565
2.21,3.729723304611399,2.2619287904371097,0.11155013120282316
2.22,2.1387565910983355,2.9192861748510275,0.3017355079481394
2.23,-0.3163727716557339,2.6403229503179126,1.9350036160566138
2.24,-2.66101775702327,-1.0885127566018595,3.2667273415913627
2.25,-4.62840556962108,-5.763458805108467,1.76138609645856
2.26,-5.481157837168002,-6.2416150499033725,0.8284126561742612
2.27,-5.313451162158716,-5.719195125477934,1.2451347092911202
2.28,-4.123504271853827,-3.8084122159154785,1.191785446916597
2.29,-2.079133799858206,-1.0244299392788114,0.8405099439835213
2.3,-0.07235595758351224,4.628388323051369,0.0443919140839142
2.31,1.3511145683410608,9.488433119682014,-1.763825973710732
2.32,1.6471968072331549,3.272824193776755,-3.6220606970936142
2.33,0.8893391656582619,-3.622709409308568,-5.528292468732431
2.34,0.2719175385410595,-6.897518738908625,-5.483260130960874
2.35,-0.07586000964172326,-0.6567616453519476,-4.352980038478339
2.36,-0.583101877524917,-0.8001367504215646,-0.8739873439400685
2.37,-1.174248198969533,0.8727991494699016,2.963437268974586
2.38,-1.425025429724256,5.154468986421521,4.5685583603785735
2.39,-1.38657890522601,5.534751514659605,4.465329776768608
2.4,-1.666188780414302,3.1440022879020333,3.630823830654265
2.41,-1.8304565144286453,-0.16085958299288577,2.6240757075308303
2.42,-1.8055861689107848,-2.2734109613008107,1.2466782175274262
2.43,-1.3431372147377825,-3.8375125808477004,-0.5524622410632789
2.44,-0.597836261858627,-4.854673589326647,-1.6203429587469687
2.45,0.2844580328802016,-5.350799699014159,-2.2887612782804174
2.46,0.9047099480483959,-2.8593154397041896,-2.9897291656406466
2.47,0.8520004933152943,1.508597874917452,-2.603720299228375
2.48,0.3651483313420693,2.925103767401387,-0.7475763140821111
2.49,-0.12668558387795864,1.6146698740982397,0.5056998970337772
2.5,-0.876308143103972,0.10532784386257554,1.2527058782907674
2.51,-1.5744338300648335,-0.6308041805179605,1.7622370770348308
2.52,-1.6567532776953187,-0.870829505574387,1.1881569076072327
2.53,-1.1503696218055006,-0.30579303222895093,0.4207289163141985
2.54,-0.5153360080915452,1.285109742156075,0.3658955835105447
2.55,0.30582265740006465,1.6654724586222933,-0.07824313569000703
2.56,1.1069466147650422,-0.817827676558862,-0.3370409094699109
2.57,1.1303827387847278,-2.0956337990555527,-0.3845261116063212
2.58,0.31156004898911976,-0.4896516877621457,-0.9979894667869644
2.59,-0.6025169050008226,-0.1098182314698588,-1.003056719959196
2.6,-1.15929316167098,-1.1276479914146218,-0.40506327105136003
2.61,-1.2003601281897291,-1.3137825493643753,0.42758026729140347
2.62,-0.7459168331985566,-0.049594474983664066,0.9288187675297193
2.63,0.09696198544154162,0.596074367687743,1.108454564898576
2.64,0.825624913017974,0.8044497877074206,0.21560816570776828
2.65,1.0512231428194705,0.2321756622781295,-1.1706933518447353
2.66,0.6593222526487028,-0.5895758643313304,-0.9715588530309229
2.67,-0.06562174214532959,0.013673266175415647,0.08836946025009511
2.68,-0.5313402147618905,0.8093753042485177,0.15649920017040025
2.69,-0.36873195054095514,-0.16472064818332588,0.1510912969370381
2.7,-0.09340018195355453,-1.0505998320238248,0.6560267735781611
2.71,-0.1174966159469495,-0.4371209013981723,1.390296642716539
2.72,-0.14582418011222537,0.45874389925107756,1.835736667204845
2.73,0.15855263510293022,0.615886399596991,0.9052707569507786
2.74,0.5364927376024183,-0.5355002987424969,-0.8382986595273882
2.75,0.32090306397759416,-1.8844011046759737,-1.6521266873096443
2.76,-0.10766009632664156,-1.6189164809142746,-1.2373353457500365
2.77,-0.4384808422244464,0.13645472082826826,-0.5211233200532375
2.78,-0.3302285974615602,1.4036143759107345,0.23904785241082457
2.79,0.21170896390672747,0.9486195895644922,0.7072224034586838
2.8,0.5701867334525578,-0.014094665966602058,0.742930987175985
2.81,0.43371141386673207,-0.5593831841888365,0.34996520168879597
2.82,0.09829589148696856,-0.864343949245613,0.03744983889705541
2.83,-0.29853427324368326,0.07052748766310075,-0.19832079817130038
2.84,-0.5027166127576173,1.2263247511013196,-0.42966669164789306
2.85,-0.4054962676129529,0.9368400174956228,-0.9266100209725707
2.86,0.02369227394967492,-1.137068279201369,-1.2567382695197962
2.87,0.6162920728873607,-2.9772506964605294,-0.5219776399103356
2.88,0.6814754752350325,-0.6840706164467446,-0.3627139239094508
2.89,0.0065415842585633275,0.0477855732369062,-0.4070999306009129
2.9,-0.9469796770873771,0.025434572570264463,-0.039473965748804025
2.91,-1.6642779156591845,0.19324987600648744,0.5029204901302685
2.92,-1.7369913274644855,0.5588105621945965,0.8053169224657152
2.93,-1.1399735621843974,0.43230087039565346,1.1920655233553534
2.94,-0.09093083263333471,-0.2734793153115363,1.1159499536210553
2.95,0.9047714639499049,-1.2443172532850844,0.5442990799606984
2.96,1.2067562866607,-0.9531485953231421,-0.4783434512895606
2.97,0.8518720128956585,-0.407033069963829,-1.5673644600586913
2.98,0.20741296435676695,-0.46311503264788956,-2.2091170271135736
2.99,-0.4418502549160849,0.037060912247599075,-1.8296946115209674
3.0,-0.680703232770633,1.031076684381563,-0.33261041241424605
3.01,-0.08388621469151548,0.8760688298304756,1.2652147981059652
3.02,0.8681259425580036,0.7856917385218004,1.774515725877007
3.03,1.370242415123068,0.970218755850829,1.7210227107778067
3.04,1.2456779881965345,1.1972757211555323,1.4699833664387272
3.05,0.8960993261409165,0.9694772372493718,0.6864239898002628
3.06,0.6409614725370294,0.8330124411606633,-0.8432095561926308
3.07,0.6696748584520238,0.5380001635856454,-1.8769341750999757
3.08,1.1035951741632524,-0.15239424558161624,-2.103137635779323
3.09,1.7387945734218022,-0.4295865630024415,-1.5764740478036583
3.1,2.357288626953508,-0.3460652716624552,-0.15831986588342428
3.11,2.5571283294466727,1.1322882221106978,0.42807559166389425
3.12,1.9064503170186193,1.2093458420629812,0.7275480486045982
3.13,0.85065614206643,0.7230616179522558,1.0119134524970268
3.14,-0.10601975146407294,0.867909665205115,0.8350658153757214
3.15,-0.5003776382899042,1.7780792717533442,0.19151420534411878
3.16,0.10345023738474199,1.264467458811718,-0.5078132530065826
3.17,1.1103446362813012,-1.0139074281529357,-0.9872544835214069
3.18,1.5428708684186645,-1.9353591048441945,-0.10556972903963983
3.19,1.3650971417964666,-0.7836848669059356,0.6076810552458997
3.2,1.057326877078679,0.7677613689270397,-0.2155556231723068
3.21,0.5055358473765266,1.7726686893867105,-0.5882497376230906
3.22,-0.1183147930965775,1.7271205932396834,0.08370311423339993
3.23,-0.7030227470400944,1.2283023201168153,-0.3787995103516062
3.24,-1.1160754785471187,-0.76712903704725,-0.504635072160778
3.25,-1.397596802915561,-2.684312149722159,1.0391543304486648
3.26,-1.5143461620849925,-2.0493336813462486,1.5494467845778181
3.27,-1.307869312222138,-0.0212086083978779,0.5970952642822056
3.28,-0.9116687384573914,1.1470865566665518,-0.5418537318962036
3.29,-0.5542959880025039,0.3589438319031025,-1.2491737768736761
3.3,-0.42268966096574484,-0.9064989918571846,-1.728945451373812
3.31,-0.4739488624160017,-1.6741847687978302,-1.3125239935492519
3.32,-0.5946203975809656,-1.967874123163077,0.31848321490412224
3.33,-1.0777177670769043,-0.11415054176081428,1.2848026156119736
3.34,-1.734887789317002,1.1462451012984964,1.410269295308719
3.35,-2.2787334350405555,0.538242829436435,1.5404008083295846
3.36,-2.4876810336936184,-0.2161137733316683,0.8565901167670523
3.37,-2.1781267689103863,-0.7276406678739958,-0.32357025672127565
3.38,-1.4070180782672674,-1.47915370517733,-0.6045823012836599
3.39,-0.43753304724780506,-1.358245830065875,-0.8244264632597962
3.4,-0.09489113440550845,-1.0399784590220347,-1.1753820238291623
3.41,-0.6036667917459442,-0.38954576824885967,-0.790757613642756
3.42,-1.5270692422507544,0.6735812319639999,-0.3410549678535422
3.43,-2.288687916234192,0.8865921597544537,-0.19451846706642273
3.44,-2.575262722173245,-0.00929009446820626,0.35383081718476095
3.45,-2.3726898085813612,-0.687586681678566,1.6347110921098187
3.46,-1.5766011990804527,-0.6313481535407123,2.0950777683966453
3.47,-0.09779770024497866,-0.9058347527462643,1.161291795900369
3.48,1.0560901140109706,-1.0063935618734072,0.19755873679962863
3.49,1.0599726283794841,-0.6484354036876798,-0.38490591664710194
3.5,0.4581913496850044,0.00845087580591761,-0.494716854137204
3.51,-0.16509486527297415,0.3919731387466713,-0.6969754308914703
3.52,-0.09385856391399232,0.19566014594860356,-1.0459598577975355
3.53,0.3225757822537052,-0.5991364735422002,-0.8473024384797126
3.54,0.294453889923633,-0.32669235067902075,0.33170110091223065
3.55,0.3094660664872963,0.928924198012009,0.84369447463975
3.56,0.5773231434796013,1.380928334925366,0.16063986861804358
3.57,0.9827072215349154,0.4176003014422357,-0.006567882114050858
3.58,1.2369119892368423,-0.6031355927478824,0.29987549915137834
3.59,1.078652102540716,-0.7080022475942404,-0.03954284807671218
3.6,0.626496339260866,-1.4754474870576701,-0.0948749866809005
3.61,-0.07034615842200301,-1.7505742115984473,0.4350163411188363
3.62,-0.6656946881693868,-0.8971293025725118,0.4747046648374479
3.63,-0.9127512023344955,1.0237866501738635,-0.27847627531803737
3.64,-0.6360662659497991,1.9337484760892414,-0.7296738233842925
3.65,0.19380944730959165,0.5736991961355463,-0.4225733770737888
3.66,0.9418178166896911,-0.39572653206142866,-0.5882905000016455
3.67,1.0463515532647827,-0.34592690606771676,-0.5073488758894021
3.68,0.6192303141574085,-0.17871688380482414,0.3953356432658333
3.69,-0.07826879071939599,-0.11686866586443223,1.495335198625834
3.7,-0.7151985486726954,0.6379164284236408,1.5210791819623486
3.71,-0.7597686466458057,0.9642383508706742,0.3212382876319353
3.72,-0.1683466279783663,-1.7783511893774993,-0.6638225634812048
3.73,-0.05713352916234429,-2.6470115434822916,-1.4217894663476018
3.74,-0.3666501627543407,-1.6989083679794612,-0.358935586387198
3.75,-0.8199609092002156,-0.05260089104955216,1.620499091750038
3.76,-0.9768758377589704,1.5796049357596855,1.38573704733214
3.77,-0.9504911698457762,2.7109168057146324,-0.14979251977230174
3.78,-0.8204554590475175,1.7434082663250365,-0.44366873099112475
3.79,-0.21384841354173367,-2.0165727078063824,-0.1861669476867504
3.8,0.4230370378052138,-3.729626019089089,-1.733140731078546
3.81,0.430755965252571,-3.0680726298455796,-2.255173803689099
3.82,-0.21826851447829207,-1.6558594198997805,-0.9558465953972862
3.83,-0.9439675582551743,0.8919450417331417,0.3881980914910738
3.84,-0.8980921261371699,2.2997439342713606,0.5918994578931231
3.85,-0.2748360066290452,-0.1773112863582117,0.5121429944028334
3.86,-0.44088856026455997,-1.406942168310961,1.4526515966867257
3.87,-0.8005415066863745,0.0053035548512648314,2.5569229090448147
3.88,-0.6532248189217703,1.7793039570847726,1.7446120088516648
3.89,0.15341092712476204,1.8451983954711497,-0.8338408008606527
3.9,0.993068066610241,-0.5146548863795111,-1.5182136833804494
3.91,1.0730484058168195,0.2938886741206613,-1.3986273252507113
3.92,1.0434899505727773,0.34461038567534025,-1.4177314164365644
3.93,1.2410602481372641,-2.2641906800480447,-1.23824996438171
3.94,1.263572228828277,-3.3316187619590756,-0.38361113730273555
3.95,0.7165877032362089,-0.06694891216383801,0.5822736091233446
3.96,0.20647893759203054,3.225655803077721,1.1579950705676871
3.97,0.14274147983321847,2.971199915612014,1.4176550893042825
3.98,0.25994673134155727,0.7748529571264877,2.207781253694501
3.99,0.08340893537010426,0.8430180569918427,3.78126443227982
4.0,0.022354705123392375,2.1488360407239653,4.982468306463481
4.01,0.5566801367873513,0.6623167486917275,3.1235291550616244
4.02,1.5028157933180593,-3.7097478341270995,-1.2712079756804537
4.03,2.273001896244106,-4.262522167026678,-3.9007487391763718
4.04,2.464581394896771,-1.3185118577056927,-4.013897937886841
4.05,2.0817949181731046,3.019232700665562,-3.8237262047180174
4.06,1.4764134460656466,4.620234955712855,-3.1715683183522896
4.07,0.9941929921482243,1.270827448632936,-0.41239306370953277
4.08,0.3354805312315018,-1.5484735278313373,2.2737987489071885
4.09,-0.43954940358835765,-1.114167631886603,3.046168838095356
4.1,-0.8078326658260766,0.11161355141347935,2.9227022466837256
4.11,-0.664247725987463,1.148035126931164,1.6977527232714096
4.12,-0.12191861933131339,1.383717594367241,-0.3605354510115073
4.13,0.5697204372349184,-0.041144672597169335,-1.595123170318223
4.14,1.1959377963798363,-1.7367043708085783,-1.5786111151151718
4.15,1.572149588731724,-1.690068106888097,-1.2710287861332785
4.16,1.6098773144417635,-0.18314950542165462,-0.7686729925877545
4.17,1.2806244488788565,1.4437481964174956,0.06261034528969607
4.18,0.750929614106379,2.0770210572400765,0.7571396368141092
4.19,0.3272665260230994,1.2546592471755411,1.0441652969867226
4.2,0.15294466540135504,0.3446052144062146,0.7076236304334343
4.21,0.22369676691442236,0.34074841100902065,-0.04598752799783712
4.22,0.5851385613070964,0.4157580422025648,-0.4329329104057616
4.23,1.1848157470133178,0.5336302512125128,-0.6516220925269948
4.24,1.7940110533522735,0.7467674654016648,-0.8533783761153659
4.25,2.048816913153005,0.756098896685114,-0.6088972064227823
4.26,1.7768691157367997,0.5416776393677573,-0.042442826132193384
4.27,1.1324232070251157,0.43743820668824873,0.27168256712801475
4.28,0.4211937591896912,0.4973283575297037,0.2815280573324941
4.29,-0.04703582214942343,0.5318059078695365,0.12296116509702279
4.3,-0.12449013987360462,0.4457082028228685,-0.12447977120715253
4.31,0.0909605498866419,0.3242782425666387,-0.15875153036377893
4.32,0.44424629721697184,0.2916822275381639,-0.18464475757434795
4.33,0.7051378840038459,0.3470170082583825,-0.26308860307729814
4.34,0.6728538753378804,0.3376670309158377,-0.1346438015240668
4.35,0.3507786301095953,0.15109546642732544,0.12428830982087659
4.36,-0.04693389581691728,-0.1198266007997272,0.13471015505601142
4.37,-0.3304234489650094,-0.1587137860242766,-0.052158571891123474
4.38,-0.4060697180688681,0.18986501680612572,-0.20337317819828193
4.39,-0.2686713488024571,0.6159686187382344,-0.2956802408984195
4.4,0.04905914797605263,0.6535186505758493,-0.30989685880903906
4.41,0.4236570130400181,0.3666727622535492,-0.2557286451121825
4.42,0.6299542717421595,0.2939624156237243,-0.17889045417135405
4.43,0.5863795749358189,0.4173283966168302,-0.06320458123798556
4.44,0.35734483350850577,0.42478382097012907,0.10020353895974488
4.45,0.014509848738691626,0.4655231700393311,0.2002459089969842
4.46,-0.3179713380057281,0.44955298928851356,0.22494714286601766
4.47,-0.5290152968555948,0.16301947860867572,0.16617794291206409
4.48,-0.6006799870772533,-0.2610980649743734,0.14209111412714046
4.49,-0.5499947184169236,-0.6523532096786525,0.1402251745054513
4.5,-0.4488319322901925,-0.781728250477746,-0.1381069728775039
4.51,-0.3995063837261742,-0.6846320361782008,-0.47373907196521003
4.52,-0.45781307048971115,-0.5270788953317872,-0.485457791132275
4.53,-0.5735214372483183,-0.23538082118501358,-0.4328743048817651
4.54,-0.6635871703867707,0.07509451008894691,-0.39122111284048244
4.55,-0.6513861851143634,0.05089592351990044,-0.17176196458500623
4.56,-0.5708912447949349,-0.12156274523395232,0.20175316128825838
4.57,-0.48306080341862784,0.02276460166202128,0.3989896074572615
4.58,-0.35412753619371834,0.1877299958064889,0.31461566055966506
4.59,-0.21741565899187995,0.22564448636677448,0.10459359630852869
4.6,-0.16993477440019764,0.39454932878885296,-0.07647173324358648
4.61,-0.11007512277443691,0.3075423843176586,-0.16650162656744705
4.62,0.0843010857789383,-0.16885075128796007,-0.21107889794414997
4.63,0.35585916379047244,-0.31598572398411967,-0.25790558740727765
4.64,0.5976972575544163,0.023302996885918643,-0.20521089350370988
4.65,0.7557919720944551,0.40143090452163405,-0.082343386627773
4.66,0.8148856449188352,0.6779020420416124,-0.03779157222707778
4.67,0.7838178960306098,0.8232627764006208,0.10744774501709413
4.68,0.6900893975732366,0.8950361476923268,0.18272169972992713
4.69,0.603363738692517,0.7061187885977138,0.13086447568986478
4.7,0.5989212202683949,0.3127000940945757,0.1342849512299664
4.71,0.676037446226807,0.2467960537142192,0.07870571201971359
4.72,0.7699685262380392,0.5523930441851124,-0.0652046819923408
4.73,0.8216719311709898,0.7127656440308789,-0.24460943598568252
4.74,0.8287545013794659,0.2999070875443731,-0.3063250581627261
4.75,0.7838598428562269,-0.24845312343451234,-0.23809587256446996
4.76,0.6527240549512078,-0.1671146533975283,-0.19497995355510458
4.77,0.5065158028457868,0.30056140371802265,-0.15726480492313052
4.78,0.4306341463272959,0.6119957423685337,-0.08536764638084049
4.79,0.4109661700656535,0.8014537924373007,0.07447187698218986
4.8,0.4096882954321753,0.8136610647792504,0.36976330526017054
4.81,0.38698834706245466,0.6400865324916036,0.4674007152719473
4.82,0.33191278882262215,0.42362570342916883,0.3204741398537005
4.83,0.2445441596741413,0.3217576464358903,0.2865670244716388
4.84,0.1738641186039767,0.30101261785488437,0.2948261193635308
4.85,0.1530963879697006,0.40339976750524675,0.02805327688568351
4.86,0.20485298590367126,0.44306012939089207,-0.37288668448924134
4.87,0.3426975880625763,-0.30622744703348853,-0.20500759461945675
4.88,0.3852877542310925,-0.6235432363931318,-0.05157192460615839
4.89,0.29426087689172775,0.05258469279737757,-0.1477562875555487
4.9,0.22669766172611977,0.3305567175377183,0.20659929379339173
4.91,0.21804684453851197,0.1583613213562481,0.6629594323310821
4.92,0.16454529218313954,0.5449905488608654,0.940331698317218
4.93,0.060770061310706544,1.4113154722560264,1.224184128439988
4.94,0.02003293415369739,1.8647415139536654,1.0327454279712274
4.95,0.19539706596370654,1.271336799981426,0.08222622563707097
4.96,0.6674435030556323,-0.25255788092704606,-0.5740755656732676
4.97,1.260923590513879,-0.9770134924270211,-0.8171638793119061
4.98,1.4382949309881803,-0.4121062915673116,-1.0238946655476406
4.99,1.0915088367393648,-0.02992496511396503,-0.37989230205060925
5.0,0.446657939971131,0.85517496104861,0.44193704214651386
5.01,-0.1956426109917956,2.4078721558739846,0.5431847405614499
5.02,-0.4489418066624103,2.666075590257718,0.4505317187729844
5.03,-0.18183661697641715,0.640495401700426,0.6956600072617488
5.04,0.115509705296272,-0.9056949218405274,0.49795414838393737
5.05,0.1336652140264356,-1.192762345366814,0.42547267008238604
5.06,-0.019811756565782043,-1.1376956961917444,0.7451809779968885
5.07,-0.2004097511884146,-0.5195060050923697,0.49930098177617427
5.08,-0.3666491636557703,0.8525784187120407,-0.4144123977479204
5.09,-0.5439756375238949,2.0395020614224335,-1.0540091185658924
5.1,-0.5893537138005465,1.8787284383410163,-1.125393753799017
5.11,-0.4914640655741702,0.5766586241585648,-0.8956352586631032
5.12,-0.7139953516306535,-0.8751600186292493,-0.2264483114126934
5.13,-1.168510948055968,-1.7302031195868532,0.43188402185271063
5.14,-1.4583193954136409,-2.56990466854967,0.7805148301959538
5.15,-1.6496980692013345,-1.730466131495758,0.8959341400589976
5.16,-1.7806789109198853,1.5318310279003429,0.31605487338336535
5.17,-1.7955798331788713,3.091455982909961,-0.5331324536321046
5.18,-1.928196708142936,-0.10778283877795641,-0.574965616984552
5.19,-2.320479601126604,-2.7374569821200208,-0.3078946950798824
5.2,-2.5472896521586743,-3.702228088770326,-0.12756037155692262
5.21,-2.2656850175483467,-3.813865817089671,-0.17166704947555725
5.22,-1.8391965384685607,-2.5202262358366165,-0.2930112673548164
5.23,-1.8290208259723721,-0.10186156781110087,0.12171087952007856
5.24,-2.1165068986347118,1.6612671548344562,0.6857363975912559
5.25,-2.163420517439481,0.8159721975380163,0.22712831492997912
5.26,-1.9269270878332099,-1.6446201563754252,-0.3461120578844198
5.27,-1.9904291487334924,-1.8204801441286533,-0.3337131434218931
5.28,-2.2966461522945933,-0.03428266928477301,0.05791273062974661
5.29,-2.285402416454875,0.34589382240619987,0.2587238135582687
5.3,-1.8732173503674303,-0.9894686628038712,0.08753007869729545
5.31,-1.210240243831595,-1.996604651529389,-0.362623181126273
5.32,-0.44132155756718355,-1.8236789593175746,-0.6414977980485407
5.33,0.2815746240345403,-1.5603737644509046,-0.16290496025022208
5.34,0.39993111422275346,-1.208016625719788,0.4476095779432639
5.35,-0.19727470346660428,-0.06187572650930169,1.331408789744012
5.36,-0.9292834712025474,1.2763326738480625,1.9729492420653467
5.37,-1.3355823926441073,1.857533162199595,1.422058999531146
5.38,-1.2382614054551015,1.1962157405920704,0.050110582698412384
5.39,-0.6599745990985516,-0.030604372741311996,-1.3920078856278666
5.4,0.46836769800542855,-2.0647168789954393,-1.999660842381093
5.41,2.069539338906479,-2.7956145789765516,-1.6387513887638876
5.42,3.098315617766472,-0.012741657000597241,-0.9397523864744988
5.43,2.6514046562121516,-0.6666882610458645,-0.0011501260595720806
5.44,1.3038123839150737,-0.21690493057813348,0.8843494961743703
5.45,-0.13153739150877386,0.4753644577684297,1.6240516096366748
5.46,-1.1604794320292149,1.5847545998836987,1.4200065061462381
5.47,-1.3938124726002525,2.548752103696145,0.24937304968258386
5.48,-0.699509509773908,1.391340896816629,-0.8041039146271548
5.49,0.5373373897284063,-1.5114170786717112,-0.6144437420115302
5.5,1.548155114966186,-2.820365044272439,0.32442328277945576
5.51,1.8273393427945595,-1.3788911006702804,0.5709437481515592
5.52,1.5822387467330719,-0.40947207449944534,0.09825029358931642
5.53,0.8893807563841579,-0.4677386994906808,-0.05357206096912075
5.54,-0.1011584088299443,0.535807785194927,0.03196904966270151
5.55,-0.8417485133707048,1.5942769532857515,0.001807413194094768
5.56,-1.0633328410751266,0.8858173609548413,0.09222086502032753
5.57,-0.8933189540769497,-0.30651648651945634,0.005572959522244097
5.58,-0.44392927454345427,-0.858601336240679,0.23896796462212538
5.59,0.18866160662865858,-0.6731831785325072,0.004504593114229619
5.6,0.8583603705743438,-0.4905683296508068,-0.9443012953523766
5.61,1.169149551523234,-0.5756964313135081,-0.7035387102047502
5.62,0.9081914602891931,-0.05288291088435877,0.1755509477755032
5.63,0.4061679765116429,0.891953869276641,-0.17121183055955816
5.64,0.11509739860439311,0.6447246063145085,-0.7301989911953204
5.65,-0.09446005733615616,-0.7309090923502957,-0.0309224470864737
5.66,-0.559172441038364,-0.19896205329982997,0.2721770816658603
5.67,-0.7859886779123474,0.9517128488673058,0.14927363421536718
5.68,-0.49096226370048823,0.6566536681650996,0.34399359686089703
5.69,0.08971857540931563,-0.24349377827108598,0.42198457797413147
5.7,0.5339348296920892,-0.12493339124358475,0.27770312492441107
5.71,0.826738073121292,-0.14668773718959055,0.5061920438906674
5.72,1.0491834663334259,-0.5569088458665435,0.3404971098745537
5.73,1.0241358897807287,-0.15149082911231088,0.23186945192063357
5.74,0.7312678471513379,1.115818047857811,0.48585603174163466
5.75,0.43723383085243767,2.352658184232556,-0.15207665752068927
5.76,0.28997032125206207,2.1159094677253547,-0.8238610910142111
5.77,0.3435090113134852,0.20135169823842147,-0.8525572646251333
5.78,0.46215388699315435,-1.314503576923113,-0.687155035377925
5.79,0.7561769201625598,-2.345924787811464,-0.3409522300094298
5.8,1.1796586062029144,-2.3057716162100705,-0.13944902511752652
5.81,1.3297746295117767,-0.3872594263012247,0.24579713735470785
5.82,1.005814465264763,1.1237269602461355,1.251979679806968
5.83,0.4748578092875155,1.5053100906362622,1.666025680559154
5.84,-0.03966184642206946,1.6184137783630144,0.8425692261085282
5.85,-0.46730519528033126,2.0242609064490935,-0.18367913321394794
5.86,-0.6045445582720643,1.6071409515730979,-0.99763215932749
5.87,-0.43416078319018453,0.36749971224232303,-1.4054441754009939
5.88,-0.02080735112350407,-1.238327111138043,-0.5032666112812542
5.89,0.5777058651307588,-2.348703744115336,0.6575134525372507
5.9,1.0465110242417683,-1.963041042166227,0.6491186267321697
5.91,0.9647803932096058,-1.3837824167859154,0.745549866748749
5.92,0.37123390429270187,-0.4380924677986134,0.626065883988599
5.93,-0.49788649682040026,1.4209054224898126,0.15209088698306736
5.94,-1.2794630495781196,3.151762687594632,-0.21949636149134083
5.95,-1.3493541484789675,2.1372518909056937,-1.1160182047344005
5.96,-0.9742444600820249,-1.4757850582372531,-1.3502778032222755
5.97,-0.8274473696936189,-2.9160591294807796,0.051899990086186495
5.98,-0.7730936771043406,-1.4069102408900491,1.0433876659022807
5.99,-0.4730562149534204,0.5110984783294965,0.31766984203751064
6.0,-0.23089270234852066,0.4515017612069122,0.013432002872169363
6.01,-0.532510753478641,-0.04188855040140964,0.8158095499848068
6.02,-1.07128480553296,0.18520149939223404,0.8168447857659779
6.03,-1.3003736498592546,-0.7790544445463404,0.16813817926487304
6.04,-1.1789270084825758,-1.9378489423229819,-0.1616007613261191
6.05,-0.973603592813536,-1.0190772049675612,-0.4082511289799786
6.06,-0.6761510576843024,0.6037279089335656,-0.7054901439831713
6.07,-0.2631587977019064,0.6132137242133046,-0.5882632961659083
6.08,0.05932868923916192,-0.5085703056606983,-0.10739820230918276
6.09,0.1605106360871045,-1.1545166555665765,0.008512507332932266
6.1,0.29336948908873056,-1.7344846088647738,0.11997328868589376
6.11,0.32632508270177313,-1.7387171875940124,0.28409264178244903
6.12,-0.1197330464829053,-0.6521567189315163,0.4682468291264854
6.13,-0.7530009670165163,1.2877614631484766,0.8222259027669125
6.14,-1.0992209064569083,2.7360443450846623,0.8449865383709142
6.15,-0.8675527755442741,2.1463652408179903,0.2994405580532372
6.16,-0.1994866357088837,0.1870275220795331,-0.320370104393866
6.17,0.4645717745111911,-1.3753362042558017,-0.33679202078633397
6.18,1.051730529530978,-2.4795920910000677,-0.08835729497756452
6.19,1.482206914808463,-2.162719665310793,-0.6864212380963193
6.2,1.443285077297686,-0.6341099665805051,-1.0230522090587892
6.21,0.6787240984980745,0.7082577383633667,-0.02161528822991069
6.22,-0.2990590485336744,1.7034857874433706,0.4596739406821737
6.23,-0.8072777737021141,0.604408951212186,0.2680891496165359
6.24,-0.8071472888911972,-1.3503636421534109,0.9350820454562754
6.25,-0.5262895039544863,-0.9039619080631665,1.4081049230542493
6.26,-0.030180628746588122,1.2316228611532727,0.8996695337239599
6.27,0.587712032097197,1.4630420132246595,0.5160652936542385
6.28,0.9508129017801801,0.7135560965369199,-0.34848757412511633
6.29,0.8314699789297307,0.45244292471907827,-1.1833246333194622
6.3,0.5010133044900602,-0.4624004430112094,-0.602047520597218
6.31,0.2739209295536623,-1.3029296733710514,0.0977819036665775
6.32,0.2689335746969102,-0.5022041149115614,-0.25433706188480953
6.33,0.49575409855585045,0.7081057906980706,-0.5195655134428461
6.34,0.8269105519554785,0.6862910557640556,-0.11886099226070594
6.35,1.181064918222346,0.29690341314762264,0.07162274342000867
6.36,1.5563348385824,0.12789979999688664,0.037861321937774466
6.37,1.4631373357984618,-0.6745088696873233,0.389990320811655
6.38,0.5632342186804435,-1.2318454857360381,0.9360311918181695
6.39,-0.31415692537737744,-0.19574851639853558,0.7758174173645992
6.4,-0.7658264260101736,1.0461528766165862,0.21978103227202617
6.41,-0.5100236888699299,1.9396121872002297,-0.13486076185437726
6.42,0.3108180839552112,2.9737909046583315,-0.947316043002071
6.43,0.7543229748932767,2.1446010602878554,-1.960374524987373
6.44,0.6464810486749224,-0.39548090647310846,-1.402712655716599
6.45,0.33596265148194543,-2.7656763774800157,-0.10652583348560599
6.46,0.02827715344339991,-3.235749568929805,0.022448394777382044
6.47,-0.09514139615580933,-2.051192089964373,-0.28246030569644004
6.48,-0.20424054916789458,0.2660942687454304,0.11735948901458934
6.49,-0.3606713814213724,2.3619809780478462,0.7935307611194724
6.5,-0.41530761586101156,2.2338243037918883,1.3778227011857196
6.51,-0.43605702126517115,0.4735785577828652,1.7523089363539126
6.52,-0.5651582714116713,-0.7166515419447052,0.8820525636951582
6.53,-0.7530902729952912,-1.5007428841681063,-0.8903731040559929
6.54,-0.8116972940489733,-2.8523808565798823,-1.521112254959815
6.55,-0.707027674469761,-2.6969652713897934,-1.3845502710552249
6.56,-0.456655939797212,-0.5266833172566198,-0.9043620715200833
6.57,-0.11644225720957166,1.3204570036224914,0.15831288605574226
6.58,0.18364134061924536,1.5686300212641937,0.7647044953422432
6.59,0.18601877086803167,0.710986445608959,0.16849965961657742
6.6,-0.25254260774299914,-0.4394590816466983,-0.27541560872842924
6.61,-0.8995521804855101,-1.1130208349816375,0.4237987821867787
6.62,-1.2742162960417172,-1.0158855152480193,0.6980893261291689
6.63,-1.0684927141067537,-0.1305803956675221,-0.2503024516153734
6.64,-0.30299364282360963,0.7054812855098559,-1.0709672676886661
6.65,0.8031268757445451,0.1644150281825548,-1.1143951026727175
6.66,1.7039602085858951,-0.6064365414934103,-0.9975882356269048
6.67,1.7270510126096992,0.020512873498657578,-0.8540968241340171
6.68,0.9597372095394316,1.177450592520485,-0.3256822433094618
6.69,0.07352611566539732,1.6344504429011635,0.5256132984675004
6.7,-0.3094881913711334,0.5169574800490643,1.1326937098371528
6.71,0.05163057565320951,-0.6283109157910589,0.8058624621124157
6.72,1.0695131507376323,-0.6943257259485874,-0.2669803771892952
6.73,2.287945510715913,-0.9132222305218589,-0.6416385074354288
6.74,2.8680787604747513,-0.4092603597818387,0.38358328011099624
6.75,2.7534195790422307,1.34567478827681,2.1603487331885
6.76,2.294661697429118,3.234115927764847,2.86068277966361
6.77,1.6731830949179427,4.5569835185829435,0.9639440813507175
6.78,0.9564896722345964,3.767301504794187,-1.557839776887433
6.79,0.3181639423453645,0.8538158391617245,-1.8367563340695434
6.8,0.35697250988357704,-1.2772528976606077,-1.2165747688121522
6.81,1.315754189938388,-0.9730196995787909,-1.0197440590256923
6.82,2.1917772686125625,-0.3051118427684555,0.04425210333795286
6.83,2.2016518138478474,-0.591662562236235,1.2658126003427437
6.84,1.7700326466306706,-0.9793970926975673,1.2546366981873311
6.85,0.9414403407989583,-0.22564929839477282,0.7982031895852756
6.86,0.07006749658469463,3.5780633586496258,0.028321087221907362
6.87,-0.605726533514492,4.606315201522818,-1.1892464018340458
6.88,-1.3297932780618056,-0.19091068786279408,-1.7180337897554592
6.89,-1.7207950262736145,-2.976561390400874,-0.8565051696448245
6.9,-1.4035346184666118,-2.9984486812884437,-0.16709266617209897
6.91,-0.26741414239483136,-1.1944708028363067,-0.3270873107752383
6.92,1.054139328545469,0.7202813160020352,-0.17728533871185545
6.93,1.5421602435174302,2.639019050396664,-0.2845151814117029
6.94,1.287156370745691,2.937692008003454,0.040504543810759824
6.95,0.6751659507913871,0.36964243642676947,1.3561146495048528
6.96,-0.19441458582698704,-1.1874590541964807,1.2721239682852177
6.97,-1.0021702844371971,-0.24775105366517602,0.08858320823035554
6.98,-1.3462164521491113,0.8116214634479704,-0.20677405812240374
6.99,-1.1156749677274995,0.9862386463176703,-0.20440995310825352
7.0,-0.4626948779514746,1.0029001512275377,-0.6228658860414032
7.01,0.29206790654471537,0.6957179276683829,-0.4227306520840038
7.02,0.8439206763541125,-0.05640307958084657,0.1474121111031422
7.03,0.9046809337741216,-0.5314257673768776,0.4617076636783719
7.04,0.48721914386712806,-0.9296341697021482,1.238782701645773
7.05,-0.20835052061586037,-0.6848250797002428,1.6772195099765537
7.06,-0.9281133496747356,0.5968802039897874,0.6654480245142966
7.07,-1.4778797608003094,1.4738759913257589,-0.4851459472028249
7.08,-1.7337424142072504,0.5877467478726396,-0.49311609827572117
7.09,-1.551062606239241,-0.5484799131377824,-0.95732756465927
7.1,-0.922619429118317,-0.9395147429584976,-1.7416501597359229
7.11,-0.15065981672549839,-1.4670444453667029,-0.717852553459799
7.12,0.24058159500291745,-1.065143122223769,0.6851274334745306
7.13,0.042873174212700184,0.7301466714401565,0.6656598656254058
7.14,-0.6855974765405035,1.5373943943323032,0.788282872857525
7.15,-1.7119337818354698,0.49787725333975635,1.0568320343016675
7.16,-2.6487341206044452,-1.0939729290878732,0.3189291939799562
7.17,-3.0823508937829325,-2.0716396024074704,-0.6166836536465552
7.18,-2.9208509652071077,-2.119150347917637,-0.7776261244645615
7.19,-2.3774208021520984,-1.780363131203163,-0.5917069452050425
7.2,-1.6490523308859129,-1.422273464761534,-0.813223553505849
7.21,-0.940728421835623,-1.336102251571382,-0.7361932762966472
7.22,-0.7374987176985586,-1.013712798885153,-0.11756726549676731
7.23,-1.3907045924445487,0.315706306903261,0.5218775514616697
7.24,-2.55004219550358,1.391987793539213,1.1666036330327505
7.25,-3.531052208220439,0.7110399188062291,1.4173983986188203
7.26,-3.8935598330254897,-1.3044068153717763,1.3504866215980964
7.27,-3.4609220865674315,-3.161132540440831,0.940724403989713
7.28,-2.2483897335380827,-3.76329174505365,0.048329807021661265
7.29,-0.6219664504170456,-1.8023329032162845,-0.7557001884070779
7.3,0.7370980121333731,0.49198697958755605,-1.105993399297164
7.31,1.1184538217792659,0.40472199321771607,-0.7924302585084099
7.32,0.5599740652285004,-0.26156834543306207,0.3020966489734803
7.33,-0.42386923090957185,-0.5591787733011242,1.2021756829798198
7.34,-1.2138661926933338,-0.6050517591537559,0.9567123827650695
7.35,-1.357733645795805,-0.9685970827593671,0.21063283630086868
7.36,-1.0032616917562382,-1.0315782499441248,-0.4086028443918608
7.37,-0.43952308007760116,-0.6362550280827005,-0.4016267675058617
7.38,0.2165104674701932,-0.1179200880639012,-0.052564699011142475
7.39,0.7919937672786542,0.38253781496718436,0.13321618687003478
7.4,1.0663951459325038,0.6796410834783678,0.4650371400973249
7.41,1.032558607095535,0.16732005878819134,0.4717513587175281
7.42,0.807402271276657,-0.2685594873375135,-0.26513797714716725
7.43,0.6593071182876573,-0.25717748056414846,-0.5475505110625559
7.44,0.6949775086605972,-0.19914029003247485,-0.24023937891803046
7.45,0.8367061115991312,0.12995357648638586,-0.14302357976669847
7.46,1.1531301891652495,0.46519650228411735,0.12353099873423715
7.47,1.4837200395787224,0.7038850901472147,0.6489347914410085
7.48,1.665936389578509,0.8964643711486063,0.4944471054423209
7.49,1.7479207363905647,0.8067757914656495,-0.05455930966229895
7.5,1.8557400215573008,0.6702541921335307,-0.05333362799807898
7.51,2.005179445608904,0.2640051116975209,-0.2834336550541055
7.52,1.952772558380495,-0.21164758544243636,-0.7299209335165664
7.53,1.6839048071805425,-0.11239982697388493,-0.22454736808262263
7.54,1.3623726365853654,0.289571119186712,0.9034012604190265
7.55,1.1445903745751214,1.6715013556708664,0.916121595091099
7.56,1.1044572114041689,1.8815760055245698,-0.4817561050161583
7.57,1.0090958685285452,-0.5865900389064765,-1.0279185887405757
7.58,0.6284301187492962,-1.4092967000554324,0.18349584344594538
7.59,0.2363119634192,0.35329931990128816,0.8139645421187187
7.6,0.22277982897464277,1.8430006613466592,-0.04367456142105798
7.61,0.5247198869686659,1.03654172139742,-0.1495787179032339
7.62,0.8249585481070622,-0.2562292590984801,0.1552885113873119
7.63,0.9323141557605186,-0.067470728933829,-0.599087101183347
7.64,0.8926883615255781,0.24181724918825054,-0.44308811831753
7.65,0.6249829223782102,0.8542854877008252,0.4858187249926258
7.66,0.2780547277193436,1.5222196336693659,0.28396645576221924
7.67,-0.021761338734873605,0.8877008135457609,0.11540116905848574
7.68,-0.02297197231350304,-0.05517503167327138,0.07528564584367785
7.69,0.30257024976509644,-0.5286756424275695,-0.74336934536603
7.7,0.4531247349125088,-1.5902105419546217,-0.6233740075280915
7.71,0.24502776115036398,-1.6404550893771013,0.6161368160191866
7.72,-0.11431188888928807,0.5323698731381222,1.310175102715444
7.73,-0.4472479608222185,2.3944627668840264,1.2505727349395577
7.74,-0.7589856476010172,1.5050705552771722,1.2989915568676784
7.75,-1.0733068216474444,-0.5415845919007521,0.7213281597407215
7.76,-1.186728212854192,-1.4906514420904144,-1.2598299278939793
7.77,-0.7380136217464848,-1.8993374406657866,-2.4719624778821707
7.78,-0.0026401547630623156,-2.0168550767270585,-1.8995876240850902
7.79,0.420126955576467,-0.6774302601143474,-1.3685241256774143
7.8,0.4608728790568456,0.7450821340033563,-0.4323445296219056
7.81,0.14230554104240903,1.0271645471765243,1.4682730722177195
7.82,-0.3420246769437103,1.5283274958703041,2.0844859914321408
7.83,-0.6738299539513519,1.6987245324337767,1.1620280133872678
7.84,-0.9914798966408849,0.29578726488836826,0.7474071677495334
7.85,-1.3954239350441549,-1.6529807863005865,1.0049840513189507
7.86,-1.4171334785260346,-3.3682129792477618,1.198487993612879
7.87,-0.9543403856515871,-3.1508383687840267,0.7615046946559718
7.88,-0.22039358528164474,-0.36169031489954034,-0.25418916107031636
7.89,0.48166218304123415,1.5467622816456366,-1.340294713708949
7.9,0.7728826053022853,1.3902193573640131,-2.3218620955180027
7.91,0.6594000085990164,0.38229827991683923,-2.317875947745028
7.92,0.47236797205911774,-0.6051403645266247,-1.5257301986864644
7.93,0.27111385592837794,-0.3120272148703669,-0.8215757376367782
7.94,-0.064089549211845,0.7304956233518627,0.7109486354178688
7.95,-0.2780307542277415,1.596742053134977,2.1144435836439475
7.96,-0.03880806197370956,1.6600525919969242,1.8292122354900284
7.97,0.4790029276372593,0.5266420907307561,1.2223256192730152
7.98,0.9513677457116746,-0.9992644159111718,0.7717548977764871
7.99,1.2773983993037723,-1.5689235987965473,-0.2506828741566931
8.0,1.4161407609504966,-1.2444460932248733,-1.0579111732168536
8.01,1.2589257637077091,-0.16971269629143582,-1.180806100320443
8.02,0.7328825996910717,1.8497761725041961,-1.2384611525465323
8.03,0.022325649154195853,2.768853159430195,-1.2545662751846682
8.04,-0.5135992041175527,0.5257742082801622,-0.5361335545418375
8.05,-0.6819685576424223,-2.250388337990114,0.08407027517681127
8.06,-0.25020700797107576,-1.4637435446205396,-0.18734947191480344
8.07,0.6089610645285676,0.5924340742509465,-0.2521850727901172
8.08,1.17469178083079,1.3748096702153683,-0.12447239416212369
8.09,1.2714047724181194,1.9255405667501506,0.07433523907676959
8.1,1.0946332789216775,1.2637829969560717,0.9197173545181809
8.11,0.7149880324706587,-0.19612660968367843,1.1903803008934584
8.12,0.274760647955237,-0.8696220010777554,0.3590936723336498
8.13,-0.07477549796783454,-0.4470051674758654,-0.15530968075031462
8.14,-0.38659451718262344,0.5299468337502276,-0.33292339950363936
8.15,-0.5619192957674257,0.9821919439359444,-0.45264265244153623
8.16,-0.42865860251723653,0.4240440595986114,-0.12602743097857308
8.17,0.050262572043119874,-0.49014119639636977,-0.019385925293473223
8.18,0.7565716726585847,-0.7260923904712823,-0.3947069670671385
8.19,1.156222681541308,-0.681623276978287,-0.6803344589368124
8.2,0.8339778875968568,-0.746045707570089,-0.09074722489294423
8.21,0.0061949051377131765,-0.1558915302838472,0.9457271470479748
8.22,-0.8154004140205828,0.41158703217876536,0.9574779145187374
8.23,-1.303456574728671,0.23505591982750285,0.09439106582934848
8.24,-1.382756723037491,-0.11861621715108311,-0.5354808999019239
8.25,-1.004983268069118,-0.009578170477680776,-0.8081359465980237
8.26,-0.25045576900103034,-0.04683511267764099,-1.0404908551886707
8.27,0.44205160358638956,-0.2597206211450117,-0.5010589261775484
8.28,0.6693001433447956,0.37016383781243417,0.6125809226642792
8.29,0.5053883015505456,1.2613798104494625,0.8557448666946783
8.3,0.15218675274341412,0.8589593059553003,0.7643149614972023
8.31,-0.32916677103488956,0.2323598157883399,0.914862608018489
8.32,-0.6457768840377348,0.464826207846289,0.4510645465324847
8.33,-0.4300213779814908,0.06194847493135217,-0.3182608863352498
8.34,0.14836046731958985,-0.7947484878475721,-0.3687659488069733
8.35,0.688836407942429,-0.051924558237553015,-0.2667789387461783
8.36,1.1265911425035617,1.2598733920497862,-0.8177875656060912
8.37,1.4901625986018576,0.48396276874674965,-0.8263027370391806
8.38,1.474711986763257,-0.4589835294773733,-0.061221293366138775
8.39,1.000292395206435,0.8772576762530989,0.22176663192432866
8.4,0.47425309980561453,1.9955296175412844,0.6926153451494826
8.41,0.03771672528410964,1.5190016455334723,1.9447384332464976
8.42,-0.3071556300588859,0.8550344442301329,2.345094084745505
8.43,-0.4338368403406631,0.29491211636711157,1.257061061084362
8.44,-0.19784742711378683,-1.1479255736658427,0.24004366017655343
8.45,0.45046427196196587,-1.05750274921597,-1.056318604361357
8.46,1.1592835555069032,0.19043041603634644,-2.5455135395338524
8.47,1.3637808971502967,-0.0744151510830267,-1.977388749895029
8.48,0.9089564759754378,-0.10595116344865581,-0.017629258512117475
8.49,0.1402827183557707,0.8527535805180336,0.6802390270343559
8.5,-0.6057138137020714,1.0613281220032693,0.3635989077211547
8.51,-1.2242706413538103,-0.2341293851927592,0.53958714384291
8.52,-1.5292580422652344,-1.0021030531338508,0.13268019548170915
8.53,-1.2675683062404186,-0.8204420184396413,-0.51813952107852
8.54,-0.6436081631389012,-0.5693489132860647,0.14295849154092524
8.55,-0.2501569032266355,0.40741192212479743,0.764211401532626
8.56,-0.38136172080138697,1.0602642472911021,0.8961328429152082
8.57,-0.962314527668806,0.3646506298584408,1.2225240560767545
8.58,-1.6775035684293544,-0.17274557572347224,0.6235123611064994
8.59,-1.9866217778164983,-0.38362494716717765,-1.0808409452711412
8.6,-1.8014986044235513,-1.4863059469487865,-2.3959918331563985
8.61,-1.3649407854618583,-2.5939390755083913,-2.240449229515133
8.62,-0.7822003370707987,-2.236115765285752,-1.0007779588307582
8.63,-0.36093379790723923,-0.3976283532177418,0.08355963055404962
8.64,-0.4738421037285593,1.142585984627065,0.9189049944855433
8.65,-1.1457898846627812,1.157215590698108,1.712666763134369
8.66,-2.0439556085715687,0.502292129065746,1.8826391912225857
8.67,-2.6998719333684527,-0.25784902855466146,1.4199420532756357
8.68,-2.6305614044733527,-1.6283280207877655,0.747116873883564
8.69,-1.6994407697868976,-2.3302254906063937,-0.5128774192870751
8.7,-0.5254228556843569,-1.7796798410512331,-1.6773247150720854
8.71,0.14031839272225297,-0.9088836057871019,-1.4995504980398795
8.72,0.18718038819327973,-0.24188325601471558,-0.6738347370639882
8.73,-0.13460386406818786,-0.392069338751194,-0.2929551567288336
8.74,-0.654362968273311,-1.0759923925239958,0.23357801209804238
8.75,-1.2987884292908691,-0.8840690232523372,0.9365207542382253
8.76,-1.679608279225632,-0.2664653952223713,0.7065191592594382
8.77,-1.4305175069839033,-0.7649665396742378,0.15824594014993465
8.78,-0.772551957658337,-1.0764809594953004,0.08716704745376827
8.79,-0.19639348757488717,0.4241355853069893,-0.24906938914450333
8.8,0.14748649407080405,1.3365369594560974,-0.5140981237122516
8.81,0.3533109754079278,-0.35325617731501924,0.24203797035351698
8.82,0.2687071577087793,-1.5858042634478553,0.6156154220381406
8.83,0.010878994153695922,-1.076239857790377,-0.17913452497445956
8.84,-0.1735581291072432,-0.5713388411437875,-0.5589334982283113
8.85,-0.2780355277527512,-0.03549579738614605,-0.29652850044522205
8.86,-0.2448438903171707,0.9267229437215709,-0.4516383484871881
8.87,0.0449006967951456,1.0308433200787428,-0.536987801385618
8.88,0.496162756411181,-0.020903561496053668,-0.09329642651929013
8.89,0.8094802648382562,-0.5766613712231696,0.1375497361934051
8.9,1.006194969177992,-0.7493078609171946,0.5960193276775331
8.91,1.1733192084428872,-0.5751558924778092,1.2150743090481932
8.92,1.1350850440082667,0.7489584091179992,1.233814879334567
8.93,0.9259801908563597,2.137060918089085,0.5200708835478779
8.94,0.7076228085598597,2.109087397111168,-0.5027482646781193
8.95,0.6010102622410449,0.295284647630572,-0.8505270605834321
8.96,0.6419018329046158,-1.188022591938156,-1.2121087315757444
8.97,0.7935526470304662,-0.9167158420001722,-1.6635076972465523
8.98,1.0062939597644522,-0.5283499016566333,-0.49008376738948844
8.99,1.2430379351081955,-0.26830700292000104,0.8737347169095544
9.0,1.455904478733959,0.8894706308964354,0.4077310437787263
9.01,1.3868745683587036,1.1293843520606197,-0.3852926725352395
9.02,0.9108564091803625,-0.08503495190940363,-0.21167442049026944
9.03,0.2406758034748711,-0.7676775674230987,0.28629838230146437
9.04,-0.33456508807131635,0.03737953263228742,0.5239192891686916
9.05,-0.5110012084683871,0.9074481438371772,0.5406127592138446
9.06,-0.3223047188070162,0.44844201338510065,0.6455764316705999
9.07,-0.09267543094913784,-0.11019730070297905,0.6953416753895716
9.08,0.0898669627120395,0.33676843869898165,-0.23906210426588986
9.09,0.3947503909933105,-0.04773878405157513,-1.3103573282545633
9.1,0.7077930563474856,-1.3503429495735912,-1.5638927030114897
9.11,0.6923732435127403,-1.1411271746317966,-1.413626148091171
9.12,0.40126665828758057,-0.033775423667249956,-0.2805566867659812
9.13,0.0912267255666337,0.8143028109267978,0.9543066780187216
9.14,-0.12953945764061517,1.2504653396049632,1.1190796770076274
9.15,-0.3267291296102897,1.0945915519732416,1.2601474554122136
9.16,-0.46760587682068677,0.8938451168547888,1.2217345870282008
9.17,-0.3420836385264128,0.594249352320197,0.11866070837752861
9.18,0.04565752822374924,-0.29672146037338926,-0.5986367264762096
9.19,0.47300208764825025,-0.9546759586220767,-0.06946973567102813
9.2,0.7796981308433569,-0.1196071933762199,0.05162308491065915
9.21,0.9544223145788316,0.6482479556191934,-0.5921344385045962
9.22,0.9042674474197884,-0.20721913985861648,-0.8988025798077327
9.23,0.5300912616693152,-1.4019066586924978,-0.5230666571238084
9.24,0.02893898250651404,-1.3653418291296264,-0.13817771332739354
9.25,-0.26419763777577965,-0.3085057490603608,0.104489161069966
9.26,-0.333885149603667,0.9917550446042458,0.6138322176448255
9.27,-0.3323205046083469,1.9767909439041718,0.8041398921049556
9.28,-0.2934541388703614,1.5854410214957948,0.8187768646732195
9.29,-0.2140584127452602,0.06979006895201198,0.8298143097066268
9.3,-0.055817157971070216,-1.092320389854916,0.13869582643980877
9.31,0.2114105696844585,-1.3949822539611805,-0.42989538533975574
9.32,0.35144677444148004,-0.8049652690557743,-0.25354930394177777
9.33,0.21189296703259924,0.1962396744821971,-0.20732809899706164
9.34,-0.1147086264818261,0.3984554653330546,-0.029847355729931836
9.35,-0.512810658252911,0.08205175110500341,0.4194827265356806
9.36,-0.7758722218371913,0.19137016863927797,0.24587180681325996
9.37,-0.7582643564344187,0.4547437107051845,-0.2532909579749578
9.38,-0.3766408830280624,-0.10503493729923184,-0.47602228114434403
9.39,0.1686900429795974,-1.1674495387097852,-0.3977852674518345
9.4,0.33463411700216844,-0.8726303007640503,-0.19825183229718388
9.41,0.01893077851302987,0.31186971837769295,0.01642629825118801
9.42,-0.36872177723240573,0.14666961182937416,0.3228683842882282
9.43,-0.6264456961087926,-0.7313056176717189,0.42275983319398924
9.44,-0.780941734753318,-0.5140436014858223,0.29454337888551446
9.45,-0.7527338217856216,0.17655760729986542,0.3540719257892467
9.46,-0.5902809191328258,0.45964884258500605,0.6285180474391784
9.47,-0.46832206253459224,0.648562372817056,0.6171237818295067
9.48,-0.3972215840713077,0.4422434367576473,0.09845197640764015
9.49,-0.2813320014503837,-0.8426241150009186,-0.35317194742853547
9.5,-0.14728583906565518,-2.171053556130873,-0.589777477672568
9.51,-0.02645992419735433,-2.2277996990727265,-0.8396116086847175
9.52,0.08755412947463201,-1.1433516547869795,-0.8117884712020306
9.53,0.12545202540655068,0.2553388188277117,-0.3278059809831126
9.54,0.010144900215377131,1.1772664674681008,0.43294480090313603
9.55,-0.23572775607101912,1.2836824298298126,1.1573829686873172
9.56,-0.48954683739114313,0.928744400868229,1.1568259355799542
9.57,-0.5343894442881543,0.14610282846706887,0.5329535904582248
9.58,-0.25279640948887167,-0.6963232301116489,-0.14187349732344567
9.59,0.2945636325331394,-0.816303424867455,-0.5697606850955352
9.6,0.987262407911588,-0.3588920792935768,-0.7250020125251577
9.61,1.61028455016057,0.058353145834630166,-0.8614726610144149
9.62,1.8322401519676241,0.2974467379857678,-0.44867631958137494
9.63,1.47399946737036,0.8737340786636149,0.5717072694652575
9.64,0.7475080662423296,1.6968763924555132,1.0197063955294312
9.65,-0.011326938409038732,1.8552107327042582,0.8297089998356295
9.66,-0.5053298196986687,1.1020763951607493,0.7103262845166896
9.67,-0.412822800346435,-0.1556534418108618,0.18825671438815106
9.68,0.45489847822263907,-1.368787117350725,-0.8878428762667409
9.69,1.7062357860694075,-1.6771279360852756,-1.4956538438534959
9.7,2.3287494281132006,-0.5111853228549572,-1.0834285469798264
9.71,2.005720396557823,1.5441182685713895,-0.2237910878563084
9.72,1.0911748158140304,2.554296399385959,0.5305540535969401
9.73,0.0011652400450641452,1.4606868816100744,1.046488362383542
9.74,-0.891561277887896,-0.15432963740962016,0.48807026404288884
9.75,-1.108507849247865,-1.3726718451551747,-0.5299343930850992
9.76,-0.4425759956699075,-2.126365702996018,-0.4902740639429514
9.77,0.675325037395432,-0.39087899266807075,-0.31556164494861816
9.78,1.345861636080263,1.955424887299284,-0.24072884235234124
9.79,1.179956217561852,2.6022681255196307,0.14604549689115753
9.8,0.48234736881227663,1.0718617701298239,0.7313812666075638
9.81,-0.4460322805992336,-1.0546842981681643,0.940987578324102
9.82,-1.218698796012201,-1.64457806519306,0.09320647805771679
9.83,-1.4609904290818099,-1.0352239271320098,-0.832875428842558
9.84,-0.9625032630948017,-1.080656007289325,-0.6526591246631135
9.85,0.03769370604887057,-0.7544451420016444,-0.6077920927740093
9.86,0.6329560760731288,-0.1154628649867193,-0.7893141004764599
9.87,0.3674936811285472,0.24510506366464263,-0.1048819410985268
9.88,-0.43218778943067104,0.30149800332068744,0.8458789997388592
9.89,-1.2225110464577622,-0.08296416056415076,0.8501302577160731
9.9,-1.7315547633145987,-0.4616929685166028,0.513085364039485
9.91,-1.7554480563856096,-0.5778712209464717,0.3163091121021956
9.92,-0.9983893703157302,-0.42602869495676177,-0.20569327171840157
9.93,0.23080718623008267,-0.46453063437479347,-0.6145555747433252
9.94,0.8229118491904629,-0.6957676248296938,-0.4845964647531057
9.95,0.49418344711120976,-0.06976976214056894,0.28692687982181075
9.96,-0.2025295529405344,0.7369159428180577,0.7158483447238784
9.97,-0.7560026987511259,0.5301387631543424,0.042006354620840555
9.98,-0.7821246632461022,-0.40005344199856074,-0.9397488983772277
9.99,-0.5524477596301621,-0.9469627962073567,-1.3016030810610684
10.0,-0.40155892555427297,-0.28636126600560025,-0.6918075889421491
10.01,-0.03781006715954677,0.5734106226865882,0.05069230637580435
10.02,0.4838262888253448,0.8681720137165069,0.4732173901758566
10.03,0.7503294687479896,0.8400681031380642,1.035954531640968
10.04,0.707800221211686,0.3218902017634224,1.5221454368109355
10.05,0.5353917287001309,-0.47397049747877507,1.1531697486031607
10.06,0.38629576150963424,-0.6452039441492144,0.030256166988998835
10.07,0.3815690351148388,0.1441049280759064,-0.9561393219456812
10.08,0.6803380235437962,0.787574833867942,-1.3680165539687827
10.09,1.144200504721678,0.8889374970821864,-1.1813075950880036
10.1,1.4741764593229372,0.8669033070703813,-0.2833069108268393
10.11,1.5910293338924042,0.4699689397661462,0.9689124327072325
10.12,1.506046623814992,-0.0681433730084472,1.5355496168631562
10.13,1.252791553960663,0.09840497908558475,1.0513023308057232
10.14,0.871693660609731,0.8828457844125388,0.42207922453181324
10.15,0.5222208272279157,1.2401656674511687,-0.051728983575305414
10.16,0.3531977711468588,1.0038337616737325,-0.8462623501233505
10.17,0.4894746521688321,0.09842585846005952,-1.2760633621128672
10.18,0.864382667797854,-1.097433698975606,-0.7270810191198244
10.19,1.0809517341261694,-0.7393324944670197,-0.08277003880558367
10.2,0.9309015595383424,1.0481234524930443,0.19566458238772103
10.21,0.4755432721526882,2.1580692053494555,0.7030219895221088
10.22,-0.076055115115479,1.5582670656896997,0.9553619991039255
10.23,-0.5627803809771333,0.2463891405286651,0.5940680584219973
10.24,-0.7709729597045343,-0.7783944395502761,-0.06068350151350941
10.25,-0.5093524598915989,-1.9086036346766253,-0.14968008848970832
10.26,0.04953768239563382,-0.7925464589700201,-0.01571556713804861
10.27,0.34045035653551675,1.6225870352701655,-0.1690052535486113
10.28,0.06655472208400973,2.1310025334344087,0.25612134848284746
10.29,-0.4845387417891679,0.4667297014146388,1.1199484689877475
10.3,-0.9830353124643582,-1.605584472440783,1.0282037754308593
10.31,-1.1479281215014225,-2.56459789356503,-0.3078937807553441
10.32,-0.6552701895943652,-0.7803730499179011,-0.7339535136695458
10.33,-0.12943816508930148,0.7530367493771598,-0.7254269417926215
10.34,-0.2987181386601671,0.9694773882512461,-1.0010326643519687
10.35,-0.8938593341186947,0.6221493631205175,0.22400257724682313
10.36,-1.4141741151757816,-0.49607241024105153,2.1339519392572286
10.37,-1.483031946747576,-1.6116314392699265,1.6558604953607554
10.38,-0.620619312157944,-1.5107119949189092,-0.5908393039510325
10.39,0.20279489360409675,-1.1750793201634857,-1.5253205337526754
10.4,0.3167808275480363,-0.2244837088459827,-1.706813393172736
10.41,0.015201992533988061,1.2991472654237046,-1.4048485247719111
10.42,-0.17945996403723713,1.4383704916961872,-0.4342334344049571
10.43,0.08914829089071671,-0.5043436906430547,0.40088207751697813
10.44,0.2606545088731483,-1.1034378812006178,0.5481109320265536
10.45,0.045610435548346255,0.23946164434362566,0.7282236179968532
10.46,-0.11904804483865561,1.1593350050172864,0.49051647604033777
10.47,-0.00036744100023458333,0.9359776982111349,-0.24658438485956718
10.48,0.13488216003200176,0.9308766199260456,-0.5273667751114882
10.49,0.20608324419610685,1.0069735680491552,-0.27497604645476936
10.5,0.3778612670376905,-0.03997464611080443,-0.20837073831948863
10.51,0.5331532151694793,-1.2658753875222981,-0.14981000514504433
10.52,0.4136333883133362,-0.9413931728172236,0.16891807023867897
10.53,0.16622894597655502,0.13968962740372215,0.11467369019663826
10.54,0.013377211489324348,0.26397751944985876,0.13734391101181045
10.55,-0.10574950761927426,0.12096350993931058,0.3745501080945897
10.56,-0.2930048313810906,0.6495953833705161,0.2397714364376024
10.57,-0.47223069942949625,0.842657869382143,-0.008766513705850425
10.58,-0.5370751083370406,0.05099076455780809,-0.1444399416260986
10.59,-0.49397300290210433,-1.1672359260818561,-0.09378909956568743
10.6,-0.5109454431652581,-1.557796525847458,-0.021322007513323683
10.61,-0.5977305813733771,-1.1830509471998325,0.017538561279648247
10.62,-0.647800466798875,-0.6994026982463624,-0.01746123542112141
10.63,-0.6729102372264113,-0.15931087969603516,-0.2694161265917822
10.64,-0.7844424197288771,0.44082084475102634,-0.6608843685573119
10.65,-0.9979328242190417,0.4263361199513295,-0.45643151173634067
10.66,-1.2014985096152295,-0.3808458450515115,0.32066096458096843
10.67,-1.3369439545089252,-1.0236330059518794,0.5976826517941105
10.68,-1.3501871505295644,-1.2395288387206183,0.3454185059325294
10.69,-1.2517878899109214,-1.0417315399951923,0.3275797608018596
10.7,-1.0169776354181792,-0.3491318694674432,0.08011687668385528
10.71,-0.6940292253792993,0.14942122593070645,-0.5491112114150606
10.72,-0.45642467011920257,-0.12937248512793728,-0.6708399651657868
10.73,-0.4414416927673676,-0.6464340651633907,-0.05859432447386457
10.74,-0.506458534031131,-1.025191007419642,0.4286356934576895
10.75,-0.42607172552673156,-1.1685027805150374,0.39046059407292494
10.76,-0.24139228327758447,-0.6724467096682086,0.5146693835528283
10.77,-0.12476378513829385,0.7116045369408752,0.5005054684608443
10.78,-0.05976558662041989,1.5524523865321016,0.18263328168019757
10.79,0.005708761004322082,1.0372910172393155,0.1980880132980038
10.8,0.11630560535097775,-0.13126846178416812,0.501667921444416
10.81,0.1627684417233038,-0.44628739006267504,0.29443219355841516
10.82,0.2310828196146243,-0.43369325692726235,-0.29686122314716656
10.83,0.5665178494744438,-1.4429488977912495,-0.5917432337361577
10.84,1.2250711205067553,-1.306626978573746,-0.8903994219577103
10.85,1.6164741506590552,0.027914314678042985,-1.3281483379201957
10.86,1.2942625343921932,1.030334669744997,-0.8616907560813172
10.87,0.615355336083881,1.3689148999562704,0.4795924626101983
10.88,0.16456340461675012,0.32729979664680836,1.7313248192004262
10.89,0.18735623637792656,-0.3365282365708571,1.4891867824303204
10.9,0.3183139816932147,-0.5390355911515964,0.539823919839593
10.91,0.3258961448975489,-0.8295354517918021,0.4325306441636171
10.92,0.3995347437633674,-0.518526976212038,0.34059690255999653
10.93,0.6057231231736077,0.7021400118110205,-0.5368538237422323
10.94,0.8302582147367035,1.2900581429986466,-1.1201003645273035
10.95,0.9186286715540433,0.8231271604285006,-0.9704112641966159
10.96,0.8177599930873848,0.413058461891908,-0.9574731422050226
10.97,0.6755219977893191,-0.4462126241641061,-0.5681614739171597
10.98,0.5943081174153646,-1.2053122775217102,0.3370118749546416
10.99,0.4506849975721176,-0.1277426783749213,0.8271553323728613
11.0,0.3172946502987443,1.4821758006154664,0.7923294731588962
11.01,0.3185644039467517,1.7557686461887012,0.6812834542925109
11.02,0.5635713627767193,0.7610612036982484,0.4919855566416302
11.03,0.8741057887536822,0.4583272114012016,-0.47020491660403513
11.04,1.07497476012814,-0.16007736330421743,-0.9035716997565806
11.05,1.0974416834568077,-0.9955136018809054,-0.291873002649578
11.06,1.0020592677020894,-0.12691725920988317,-0.3170775888599356
11.07,0.8683112002246608,1.6895193713999372,-0.7406563941431025
11.08,0.8672650070669229,1.4665438255576297,-0.08411051036012601
11.09,0.8788020720539559,0.7889032044136897,0.13736869557554607
11.1,0.8546194543049054,0.6450593272980943,0.12389352386220645
11.11,0.8910285048000186,0.23008211356565297,0.8282009504166201
11.12,0.9902495152320208,0.3778418235622897,0.9049374248146251
11.13,1.1139000834250605,1.4071127622211999,-0.2384869384596938
11.14,1.1517792411844736,1.6471545430494765,-0.937196715614569
11.15,1.1039440384047587,0.5445352267375658,-0.7125833976779672
11.16,0.9899050682515002,0.22171686835575236,-0.9041485163804986
11.17,0.8811817944537695,0.16622220836922746,-0.4911740713603897
11.18,0.6221141730240658,-0.15304325874038496,1.0720425350119558
11.19,0.27471733343654603,-1.0752265479267349,2.3654486541839206
11.2,-0.09937438598740843,-1.1421002487801237,2.322637146431168
11.21,-0.4583996014940212,2.2771416376214093,0.94169128882599
11.22,-0.6675527319064574,3.5021580320353225,-0.43426792509672263
11.23,-0.8152099815847876,1.0456365850610874,-1.513263063681053
11.24,-0.8114785782915525,-1.471073441343084,-1.9404843328665058
11.25,-0.4680258189247202,-2.4609506665764753,-1.1221973799750768
11.26,0.2500193955435427,-2.1640440196367043,-0.30409080504966723
11.27,0.8739987685768331,-0.3063872417980419,-0.3068363229879454
11.28,0.7750735642468518,1.7728564164612213,0.09829360925460079
11.29,-0.012999787889830187,2.95043190700072,1.2002278562995914
11.3,-1.020183976195362,2.3261663322669777,1.8951188070021092
11.31,-1.8281034332964992,0.8622042316818446,1.2638750544104036
11.32,-1.8637610889083642,-1.4212276601846734,0.5268880935106057
11.33,-1.3141392036395994,-2.995413680639967,0.11599331781912828
11.34,-0.6594969451734324,-2.5731134303141934,-0.30982578156256096
11.35,-0.13519162081259775,-1.058880578360548,-0.27619509464059605
11.36,-0.01822324283770874,0.30483054554710437,0.37592718831043515
11.37,-0.19730467170428567,1.1405604310828759,-0.18204276943222683
11.38,-0.5988238838197236,1.2875444915627545,-1.4441597581564438
11.39,-0.6947783585545553,-0.09579104763550333,-1.369946664471829
11.4,-0.5757076869293084,-0.9679181334535364,-1.2112949746944255
11.41,-0.8193301116003616,-1.5946699074961486,-0.5411863826894918
11.42,-1.3549519961721683,-1.9402026825843024,1.4520381477145232
11.43,-1.7734492691879031,-1.0430087504769696,2.5972110532150183
11.44,-1.7830817175955467,2.2524604472162197,1.683130160047207
11.45,-1.5350726464503792,2.883414588755778,0.7009868478025
11.46,-1.3271309420231587,0.933538355395687,-0.44549210796840827
11.47,-1.0567106401137558,-1.5952771910471102,-1.0186071585684002
11.48,-0.6752834257092875,-3.3066026798691914,-0.3722884582868168
11.49,-0.24757410488139187,-2.7404190912137816,-0.2315863058866595
11.5,0.1021808695411408,-0.1995532143673643,-0.835331536108737
11.51,-0.058782794263624635,0.9588670274004187,-0.8240486810903879
11.52,-0.7628921195381996,0.8523217451766198,-0.3533930274918284
11.53,-1.4843566322613906,-0.4106244898447497,0.35735291475706593
11.54,-1.7997052889806346,-1.9954237076722112,1.0264574732680043
11.55,-1.6918182804488622,-1.8593085927500574,0.9891744208003392
11.56,-1.2939352844519865,-0.35233352991189576,0.4234257647178894
11.57,-0.6792485089169579,0.21425822786035717,-0.09495616040742309
11.58,-0.10748555303218194,-0.3954355285100511,-0.3479606935863021
11.59,0.004200273486272231,-0.3337118762911236,-0.41227247918411386
11.6,-0.3096332764407173,0.06271980132740974,-0.526438711495442
11.61,-0.6471154048750001,-0.8668891388783956,-0.6307088683067223
11.62,-0.9764289547777134,-1.6954943518709444,-0.19523533995414202
11.63,-1.2620864793213062,-0.6986219859404014,0.2178232565947976
11.64,-1.184611910240137,0.3651396659248522,0.026389141533309655
11.65,-0.581862545989054,-0.6354558420468357,-0.20888494559498555
11.66,0.0293191700954113,-1.5685347030817827,-0.13987562991425562
11.67,0.08150133812803557,-0.4423036285961349,0.5429262863099296
11.68,-0.21772058831610694,1.1748732496320151,0.8885822884151405
11.69,-0.4068604731711052,0.760044988944093,-0.03817831615748617
11.7,-0.48206920457907176,-1.2820711873782442,-0.680202657452621
11.71,-0.5392075354036631,-1.9238744935405232,-0.923472708802118
11.72,-0.27614987857998297,-1.5830529893377652,-1.0154761643699228
11.73,0.2861869927799543,-1.1672877052203146,-0.8534144885306753
11.74,0.5832176165397267,0.28497302022592214,-0.21913199190035204
11.75,0.4056001963160315,2.053448768614153,1.319397821298759
11.76,0.09065189641052898,2.4311118527900266,2.1150684559167163
11.77,0.04631794676061581,0.07765933028371137,0.7482469284757042
11.78,0.45483562193125054,-2.554515295106124,-1.1592677336567734
11.79,0.9354352966745778,-2.4203821458993144,-1.8599816440475854
11.8,1.3710418154619286,-0.43907970761759596,-1.6563470286996487
11.81,1.7190230385236185,1.4385804827494462,-0.9771116983659651
11.82,1.7523648218463213,2.213508430643139,0.31944056185638686
11.83,1.2960791233651796,2.421178541204457,1.4418156617536824
11.84,0.5931145575676453,1.8223591812168058,1.3090800584258881
11.85,0.17416672479033593,-0.383504102293579,0.33949022212747826
11.86,0.2765208762172941,-2.2899710103152544,-0.54915083920573
11.87,0.7916079146776231,-1.5480759700770423,-1.0747148091216763
11.88,1.5417981760019421,0.6334024636554613,-1.3539754845171694
11.89,2.065760374826373,1.7111226812421814,-0.6947238149552146
11.9,2.059817739993146,1.295957987672669,0.4477786045890845
11.91,1.5127383118891446,0.5665657348512672,0.7276511108451497
11.92,0.6460996326166053,-0.2822643115368444,0.8725009846340765
11.93,-0.1622867658324059,-1.0339117778262124,1.3431190580458845
11.94,-0.5724692111503077,-1.0452348890534353,1.2156424019848848
11.95,-0.49177202509131984,-0.018193071570111505,0.26229178004496484
11.96,-0.15527281753497058,1.2537993303937844,-0.4061884222616793
11.97,0.3660203612479762,1.4807312317587036,-0.5565174803376585
11.98,0.974681115354345,0.9234013032341946,-1.1455306695759504
11.99,1.214880362095206,-0.18824283769212036,-1.3385954658641606
12.0,0.9409521043645386,-1.1462587254787595,-0.11995903977996897
12.01,0.4721377634209144,-1.208140844627179,0.8032313647369765
12.02,0.049891861240445326,0.13736717638367457,0.47397777585729317
12.03,-0.18389587684837871,1.2995574989789869,0.357461938458707
12.04,-0.19387004506287425,1.3511144325295954,0.4510999459820941
12.05,-0.056224137554696255,0.6429250875031729,0.20965872924634252
12.06,0.15464761760058687,-0.20135696425285485,0.2623633669193714
12.07,0.34759215651832176,-0.3474671446542976,0.6286653325834297
12.08,0.5596516992939551,-0.032444624774252966,0.49425699134876944
12.09,0.7097196894366772,0.5939825757733647,-0.11085491894935819
12.1,0.9542696559388962,1.1492087453037287,-0.49341429022204397
12.11,1.1353206063693577,0.6067662460147007,-0.6739664638889119
12.12,0.8372236019062536,-0.21730928499568153,-0.3996007241535731
12.13,0.3555686018213981,-0.620533707107683,0.4793371281751255
12.14,0.05672339439439404,0.07460787737046447,0.8046161278592671
12.15,0.08830354489468842,1.3379724524200771,0.6350235226973528
12.16,0.5712760483959777,1.993542268531532,0.14787078593159528
12.17,0.9311302639093465,0.6526012131215202,-0.6083265671775222
12.18,0.8690035005155682,-0.6063127848448909,-0.6075362396484829
12.19,0.6450807642244851,-1.0188206361680563,0.1255637116297553
12.2,0.5138400845523348,-0.733514299071666,0.3204055199507046
12.21,0.38941739138939,0.6327032523590934,-0.055301109085652556
12.22,0.14211553394321383,2.083345196560905,-0.0194249113997491
12.23,-0.12966318841046284,2.276331530651672,-0.24520604119895859
12.24,-0.24172022492451326,0.4577144265389578,-0.4227473581293986
12.25,-0.13181264571573587,-1.4809318923035644,-0.1393765859024019
12.26,0.16868756162434181,-1.4994800401167387,0.005895626712450424
12.27,0.4563567161309732,-0.27715230802020996,0.23295008803977307
12.28,0.49386538377830175,0.9522220860380087,0.4158635209606233
12.29,0.2054541969797611,1.4389141201156983,0.3096279663070477
12.3,-0.3779752960094837,0.7787535057232396,0.49771956086704294
12.31,-1.0574151719990459,-0.33048953912397344,0.8378317173827412
12.32,-1.5642551717457933,-0.7747576038135141,0.7519303680962781
12.33,-1.6804369642138408,-0.6171484815866267,0.22896276954730105
12.34,-1.3276423018736523,-0.3297302623856519,-0.7222503866020276
12.35,-0.7223605436473789,-0.10711946761244309,-1.1477396459330023
12.36,-0.13270234460965832,-0.02401625041366923,-0.9669473224439747
12.37,0.2879942260843558,-0.0870588320085757,-0.9774459847393565
12.38,0.5075967854394653,-0.6308761513768754,-0.46672687692723913
12.39,0.3984681296598916,0.018114690052946004,0.24395607611529874
12.4,-0.14427289614396316,1.156264510693711,0.44555868515925023
12.41,-0.8978744931101527,0.9470284032227394,0.7269141534716809
12.42,-1.5129841612651607,-0.26714962276338355,1.16590230160035
12.43,-1.7749248423987347,-0.7330121668862543,1.1054840316018233
12.44,-1.4738708987870541,-0.520303080276199,0.7061145106194481
12.45,-0.8943829806576278,-0.4360823527989766,-0.1779208773656696
12.46,-0.5713511864917595,-0.9188950644094747,-0.3395552454643359
12.47,-0.6294158330362131,-1.2834186750676821,0.30826807020435504
12.48,-0.8876896008429541,-0.7964911499054621,0.13217364952032024
12.49,-1.0594626672861829,-0.20339338007921876,-0.9180678134789396
12.5,-0.8606476905445425,-1.5041954582750003,-1.0978515161470617
12.51,-0.9128915237043874,-2.2400453798614173,-0.8647055675349272
12.52,-1.2330430393853073,-1.4342816902542386,-0.33981148680000917
12.53,-1.4846973204044445,-0.4349331279579975,0.46158471832431913
12.54,-1.5166810125953472,0.36476646380429967,0.7485216422760521
12.55,-1.3741459592177712,0.9372540696455873,0.5251022415195106
12.56,-1.0012583192747704,0.34628106219907157,0.44900949765924913
12.57,-0.37999021977799635,-1.444914102720147,0.3545028869137845
12.58,-0.10986791461018762,-1.6317340933564757,0.31334055664557736
12.59,-0.2782430625413667,-0.2284596216968037,0.6366764100675472
12.6,-0.5956841422376049,0.7692908444063419,0.8864212490910023
12.61,-0.771716821777845,0.3621443473917485,0.006259056618990855
12.62,-0.7181358850075876,-0.9101219329283684,-1.023979019039318
12.63,-0.31022094926714844,-2.1761979722621505,-1.8158222262379196
12.64,0.45208007938279965,-2.7041191458571174,-2.3088285585484933
12.65,0.8561479643833807,-1.9510352858084379,-1.2804404502299935
12.66,0.5632060991664452,1.0332889600250985,-0.12615397361118894
12.67,-0.0006330415053632604,2.228789659614813,0.8874441035503106
12.68,-0.48336648322861125,0.28392238253870017,1.7467705642374722
12.69,-0.879604328312337,-1.1438056101204224,1.5822277251738215
12.7,-1.0366630045299152,-0.7420459687295028,0.5651963964157717
12.71,-0.777274150977204,-0.42677110822893793,-0.034410957384767814
12.72,-0.15000755339705818,-0.5198277983671282,0.09729885774562545
12.73,0.6668354963903437,0.07992074017835887,0.04156533082744662
12.74,1.436337047124658,0.7818837265426706,-0.3125783092283846
12.75,1.8158140374814524,0.8653855895564974,-0.7547546640252003
12.76,1.6876737975690093,0.07396199386384678,-0.7535432232464583
12.77,1.2189436365331523,-0.9392880235993987,-0.13393713291361947
12.78,0.6464716377605048,-0.6270628366946572,0.31689616983929847
12.79,0.356546163803572,0.4196388613427748,0.34623985422619596
12.8,0.5927757557445215,0.6890721765781997,0.29963630610828196
12.81,1.0495453890825568,0.6070133156780546,-0.08903104913266317
12.82,1.2940304866083796,0.7603163618137337,-0.1750214804199978
12.83,1.3348815823160385,0.7066584203627093,0.32785227210142104
12.84,1.318933165610689,0.46776149726343014,0.6045866247147713
12.85,1.2266256115225567,0.7297131041832986,0.33593347461018636
12.86,1.0736019467035707,1.0772951326438311,0.3252273005230669
12.87,0.9575763234379383,1.0819904284088857,0.25633173082373356
12.88,0.9416575413987159,0.8050680133921349,-0.4197710657365336
12.89,1.4147388609771405,-1.5702569788826353,-1.1001785906152726
12.9,1.6443729219211602,-2.6111382032386596,-0.9758375224475159
12.91,1.1452441200051449,-2.353947437844805,-0.3463969713320495
12.92,0.3934863525937327,-0.8839985630741956,0.3232860782520429
12.93,-0.1572343124171806,1.3889511272396038,0.6299953515906604
12.94,-0.12262738453201219,4.857941120495413,0.1291200137952105
12.95,0.8422496187994937,2.9063379677785925,0.11619696038231933
12.96,1.3646326375063498,-0.6394913666592223,-0.01829708178208488
12.97,1.3154490184940875,-2.1947113548544968,0.2602227957215033
12.98,0.970880863160506,-0.9260043916115914,1.1379392858878854
12.99,0.6613922889653587,1.957903086240409,0.9945977680582698
13.0,0.6812456443864182,3.3360673075328573,-0.34016645700080345
13.01,0.5427568159596384,1.9623106026864505,-0.7019614428889684
13.02,0.1590049678511668,0.4054483554323225,0.36098345804646204
13.03,-0.13851848821162283,-0.2844457961695635,0.40954119873907296
13.04,0.027394582623448592,-1.1157290887555762,-0.5122037341348918
13.05,0.4826557144429894,-2.1902680793670064,0.197668628659441
13.06,0.6898361027939779,0.24055277680350193,0.23039699570832087
13.07,0.6446748965153783,2.8821834856297897,-0.6980633316640167
13.08,0.3077119151620456,2.198975463738936,-0.1429243745247794
13.09,-0.27884796266348066,0.43937889321014534,0.47921487555489173
13.1,-0.7692046635488919,-0.5939331728570373,-0.3100404362837298
13.11,-0.7644934436120525,-2.129408633621938,-0.06280217016441463
13.12,-0.5328652383338804,-2.101450584822181,0.6526874577370657
13.13,-0.3058945292865429,-0.0025711242903019745,0.2012383090508202
13.14,-0.23100975489264416,0.8584107609030217,0.24459876536338726
13.15,-0.33423196362375496,0.30292533699863705,0.607797706524704
13.16,-0.44439834124505995,0.5220891791429675,-0.5243087781388762
13.17,-0.4475300169385648,0.623448807049159,-1.238405168363663
13.18,-0.536515700900101,-0.3201444164087398,-0.5159654781599425
13.19,-0.8490126578165056,-0.5144482945409311,-0.04640281294881089
13.2,-1.1626536304485868,-0.6209965451162012,0.41965545171372015
13.21,-1.3759156665072114,-0.8138681493036639,1.3532328998796181
13.22,-1.473755975646846,-0.5650422733610448,1.8571685367942232
13.23,-1.3261163542722059,0.28106427284579694,0.6570683045221772
13.24,-0.8726856509989173,0.4902752366340607,-1.2363204559713046
13.25,-0.31891670272486383,-1.2539683812800813,-0.9302101464144059
13.26,-0.0999189011948434,-1.4636481123994916,-0.7357061730558749
13.27,-0.10519648542461149,-0.26202379064068354,-1.6850260034589175
13.28,-0.3255305010950368,-0.23155751834344349,-0.5124526833117563
13.29,-0.6998220639682878,-0.2061505238514217,0.7690827457573274
13.3,-0.8382508771911449,0.5223292637992213,0.04226200830974315
13.31,-0.7296142355097278,1.0349375977247435,0.23370698486924038
13.32,-0.5520510526881147,1.1889865410579794,1.3263862112888267
13.33,-0.20762462392437153,0.6933380238405,0.9785674168483587
13.34,0.3078733792515299,-0.7173909459894406,0.22048123208880938
13.35,0.6807912571018161,-1.2630438682321268,0.010527619044492375
13.36,0.803888563818866,-0.3858225537870649,-0.409114737271056
13.37,0.8403243395424471,0.13359591553498554,-0.6597597280751654
13.38,0.8485336572496788,0.1738153695739809,-0.39620415804634646
13.39,0.8445614193463414,0.5129919724069191,-0.3613007212130804
13.4,0.7249194706758655,0.9841637448546803,-0.5088392190915583
13.41,0.46784058172825416,0.6431925179714153,-0.1728777256164258
13.42,0.2762134125136178,-0.1817662683995737,0.15836802101244818
13.43,0.3107047100388153,-0.5107764670199768,0.1677228324384655
13.44,0.5244096285041412,-0.35170363660870385,0.4231465941986438
13.45,0.6544633525172454,-0.016219062895330805,0.8140300787352984
13.46,0.5969720549862362,0.3451205210512245,0.8839020211208072
13.47,0.3510221785571477,0.9837011395617459,0.48076312499594476
13.48,0.013054358565646679,1.5191248179588042,-0.13254782853937153
13.49,-0.05537829659544308,0.7830000614801889,-0.7600739758701964
13.5,0.16873919962159586,-0.479429173118241,-1.1355469291596967
13.51,0.4611024607132591,-1.0443243029843798,-0.8642075484341951
13.52,0.6198807158035501,-0.5554524282229407,0.044605285419845306
13.53,0.6040054330418765,0.6209806397615274,0.7523020506755956
13.54,0.4502499056749988,1.4714078531479209,0.660755232474097
13.55,0.087010511268214,1.367305466673592,0.5317186451561098
13.56,-0.2348362277820383,0.5638246793064327,0.23091214344633829
13.57,-0.21764798410882297,-0.5734663397586701,-0.24738360488094538
13.58,-0.06047868701882061,-1.0473434004341593,-0.003500511008285363
13.59,0.07177953372196368,-0.7540531007402596,0.5904930672011411
13.6,0.20602447194747556,0.02902510372989364,0.5732838178738378
13.61,0.2151538222562327,1.1868400569287956,0.02228896588163094
13.62,0.020189100312846247,1.7234912878778883,-0.4473037489088267
13.63,-0.2649933322956713,1.2543102343527277,-1.3743004579662377
13.64,-0.19492580035607493,-0.8912327718357894,-1.7246919845915079
13.65,0.09815636701283477,-2.5587720220628603,-0.6262479053801709
13.66,0.04267076314376385,-0.692944151161809,0.1926774063928611
13.67,-0.1823902581598261,1.2924755996937216,0.8614402714041685
13.68,-0.3269958001227098,0.6755584645896305,1.7141694585616403
13.69,-0.6906561276059195,0.32686973820094734,1.0792545393167878
13.7,-1.2953238757951788,0.4338128750320136,0.31417762742785527
13.71,-1.6967738139716142,-0.5993897058967349,0.9071845893798908
13.72,-1.6430113555578847,-1.8647032290988232,0.8684876117147039
13.73,-1.1388450531852106,-1.5187541522013448,-0.49822988405112895
13.74,-0.42912192366714585,-0.2989976653886686,-1.3938081029660283
13.75,0.4920500551989209,0.3584810531917256,-1.4743487395456352
13.76,1.2849457583060013,1.192439777524524,-1.840432647498483
13.77,1.0134766572384573,0.6671233038537978,-1.1260093568839245
13.78,-0.0504355624529688,0.45405407052382946,0.4620012475668084
13.79,-1.1110171705387484,-0.5295538503791528,1.0777197887933814
13.8,-1.7068726746498175,-1.6236990063432961,0.7909804067039626
13.81,-1.8867278105612346,-0.6769944647919747,0.18221462182536585
13.82,-1.5248667746946254,0.8856199488827747,-0.5108806739077689
13.83,-0.5477823643465227,0.19662191413542734,-0.2813113915903169
13.84,0.3012228154052195,-0.80889316508363,0.8525672999437335
13.85,0.4407454456042702,0.03279160599408299,1.4401717475318807
13.86,0.08661662626451899,0.2705387001729497,1.494321644860952
13.87,-0.3952907855668924,-0.5540804680179149,-0.0668366979245423
13.88,-0.741278621018865,-1.0974766483659233,-1.8897498289890042
13.89,-0.8434338993244033,-1.117611551835182,-2.070245995503475
13.9,-0.6874448701896461,-0.2297690327640732,-1.599725201816207
13.91,-0.4025396830133876,-0.13706950722009206,0.007625645398936168
13.92,-0.16246867039868187,-0.3877079127034972,1.447598383530648
13.93,-0.19628403916204804,0.5550335043979764,1.8032460480127603
13.94,-0.5087660939868824,1.6255433033236222,1.4559126767530917
13.95,-0.7651654501284318,0.6682439119534783,0.2477893294029921
13.96,-0.8129739675870252,-1.5119652769120064,-0.6408394372274403
13.97,-0.5895506854355281,-2.505862817948394,-0.6941810867427255
13.98,-0.11665859524727455,-1.5916710506034228,-0.6427682203135061
13.99,0.30567393310652863,0.15642596558795802,-0.5933457710400651
14.0,0.3430253060219001,1.1970069818566311,0.08567595994202427
14.01,-0.019184476600980657,1.112683039787845,0.5011314474599091
14.02,-0.5251450457175498,-0.26052772319870904,0.5132553393830375
14.03,-0.8207393733357982,-1.8165578476054416,0.35584121035905847
14.04,-0.5579134726025622,-2.196002160650186,-0.5157859828822324
14.05,-0.13322828654932325,-1.1089116568267243,-0.9329216895281528
14.06,0.12520897746033552,0.8507959058610303,-0.7552295893223412
14.07,0.24629079345638033,1.6000858559979707,-0.18512565213942936
14.08,0.25086276295806,0.254576273387508,0.23111424482424422
14.09,-0.07749651117338488,-0.8282865861543712,0.3230056290587434
14.1,-0.6293500511949692,-0.6981694250898728,1.1821170612632323
14.11,-0.8477348649270162,-0.35679476468341925,1.1491079936319513
14.12,-0.3241386065711396,-0.11672075140007517,-0.1513997415362356
14.13,0.261735800057977,-0.5871945452500028,-0.6793586731833703
14.14,0.497032108293941,-0.28398235944417793,-0.4768134108811975
14.15,0.6025306792436469,-0.23480148012485053,-0.2485817421888339
14.16,0.7134988045785602,-0.18087820201016686,-0.6633480753860035
14.17,0.7906041215797219,-0.28568588369043596,-0.23658885289543335
14.18,0.45811268175510855,0.8144706109802156,0.2924788558753697
14.19,0.1131999765880589,1.0440236384082042,0.3474292304899665
14.2,0.08604692291562488,-0.12789131666185027,0.09553776873358874
14.21,0.7009266972237045,-0.4597190337892148,-0.230110720724653
14.22,1.1749435316136474,0.07190650010702326,-0.5290083236151809
14.23,1.1463840092380138,0.5511455826395322,-0.5558030059431659
14.24,0.9386374811280168,0.41241762095553297,0.13188411407360906
14.25,0.6571405071496284,0.2395667618758162,0.7651320910513159
14.26,0.5314741235448175,0.3477860346263293,-0.03912779716189321
14.27,0.5699316147792572,-0.17881872376362176,-0.187812756518411
14.28,0.34555356310802204,-0.07848922062090372,0.2851321804366989
14.29,0.298040562677223,-0.6398480123035649,0.30446500352678935
14.3,0.6143976084694073,-1.0293150189363431,-0.17482978788081655
14.31,1.115429888488297,0.5614487995811526,0.26724960356335375
14.32,1.147975936731851,1.924801158240757,0.3993916841604034
14.33,0.9364152922731553,1.1874961233714438,0.22927978999320855
14.34,0.512307837280125,0.5306809026248749,0.33842441228099046
14.35,0.13701175369415697,0.6060841738616848,0.5891362309673908
14.36,0.3045052428388457,1.2473310920113125,-1.0155848164747727
14.37,0.9547753749570951,-1.0916784186190849,-1.647600627198658
14.38,0.9541268070313129,-1.34001079162101,-0.35326318588159455
14.39,0.5530029227937148,0.21715425241983172,0.7196578970238208
14.4,0.18688783446291574,0.15020944014731225,1.1400942451164486
14.41,-0.18405395261258295,-0.2872028989463927,1.3239003972124692
14.42,0.015757295569729525,2.3221051431504884,0.1663086518682147
14.43,0.26038609555279785,1.5698255803731738,-1.7530245469723138
14.44,-0.07337143764733554,-0.27093623702271363,-1.4110871897726038
14.45,-0.3302121165930976,-0.9792602273764659,0.6937432348880984
14.46,-0.16957005555285992,-1.1876804064180364,0.932058075539168
14.47,0.5831465788372232,0.38773806799867794,-0.6839869267456978
14.48,1.0953386473646018,0.18581448869928244,0.20462153095338378
14.49,0.7444043730253699,1.4151247680576662,-0.20205585468982845
14.5,0.17212645116552688,1.6651194757778711,-1.41895208957235
14.51,-0.3028137201983372,-0.0019420371043880552,-0.45634604104479587
14.52,-0.3999145094183835,-2.062438983075584,0.6895183331090912
14.53,-0.27347487137987214,-1.157965469321226,-0.27037628855546336
14.54,0.25361474822695895,-0.012296126001852016,0.13808792569101136
14.55,0.8209310803613235,0.3415242131579292,0.8986748092721815
14.56,0.7923726329440094,1.41253742417727,1.0239838653276485
14.57,0.2801049749948615,1.9117379799611063,1.5361421700449285
14.58,-0.5865274481749566,1.9034161022065443,2.1677894592111904
14.59,-1.430523740055869,0.4988222327620434,1.1300840289674832
14.6,-1.9865493609426328,-1.6234195184385478,-0.5130887363302422
14.61,-1.9698790055805449,-2.612143083001265,-1.7942141221994101
14.62,-0.7928146711504426,-1.7879760033229586,-2.715224932547804
14.63,0.7482619256840849,-1.4177952641224614,-2.6142147873032378
14.64,1.2225053582266878,-1.1701003797869265,-1.4557954493924194
14.65,0.6431102542316784,-0.24098545162625953,0.6532533228896452
14.66,-0.37465267017872633,0.18387971065469697,1.6987154755572045
14.67,-1.411867942334772,0.23390597632673296,1.9023762790947363
14.68,-1.7820560656086648,1.8884925376248742,0.7493608494126244
14.69,-1.6172597333226442,0.7769124801609923,-0.34308019279417923
14.7,-1.642286967644123,-0.3314949579424624,-0.10729856425247226
14.71,-1.3832358241998006,-1.0292328605544432,0.369253021396656
14.72,-0.7690198230871753,-1.369242524563166,0.05359460312014389
14.73,-0.09909673163894092,-0.6123794247818959,-0.27703614200493887
14.74,0.4072759483898743,0.06998337025219338,-0.07694018676016925
14.75,0.6556363811955715,0.26971005516603297,-1.0270296238976422
14.76,0.6041350451875347,-0.5342482616869535,-1.8204849266051912
14.77,0.4716791405016049,-1.3118340411902591,-1.2448529372273534
14.78,0.8407097477009307,2.0850259126545074,-0.7489456052248797
14.79,1.0454748445587057,0.3163301386229361,-0.20921851480863624
14.8,0.5446408393545709,-0.20969384562029036,1.3429327988008624
14.81,-0.05035378102090255,0.9465113232608444,2.997052301165827
14.82,-0.4442569408722411,2.2184778193493293,2.912093627457247
14.83,-0.32535919974651023,0.08141892044630361,1.7947117353188573
14.84,-0.15045054892368284,-0.9867135260516535,-0.22613913233484245
14.85,0.01441443982203545,-1.497498167141698,-1.200388709772824
14.86,0.23782172170321633,-2.1513070751102394,-1.0141005661708973
14.87,0.676648718596238,-1.9342287636758049,-1.2664456854361241
14.88,1.1754511539936554,0.13569115094328071,-2.0039483037116974
14.89,1.23450522195642,1.6803917683211016,-2.0520824547345127
14.9,1.0349474360978501,1.6724843208061941,-1.7032865942244992
14.91,0.9253556337424651,-0.8845541573909759,-0.23199519352993506
14.92,0.4251960720642845,-1.6690939530386006,0.9037741364125558
14.93,-0.3090945345734568,-0.33422898982540833,1.3986625370975183
14.94,-0.8532765116114045,0.5350629129182249,2.0404651029272283
14.95,-1.127565321567593,1.3060830687288147,2.3211289891221587
14.96,-1.0930104914093524,2.6585312920603172,1.409360817763335
14.97,-0.7439553662069426,3.314138585108517,-0.49811785419438465
14.98,0.28906944975711124,-1.3708873750303596,-2.0668069621331973
14.99,0.9782040005378377,-3.333537357532287,-2.113576061483618
15.0,1.1165034637093576,-2.1658867698078303,-1.300346526937092
15.01,1.101817278778598,-0.7188271722547961,-0.6930080650664567
15.02,0.9833688421739799,0.01483675667956129,0.023370254803477146
15.03,0.32206075504152176,1.8095592644417096,0.757392404704339
15.04,-0.5694138366119554,3.7858280733365484,0.7104013315828996
15.05,-1.1351044103065484,3.019998925847613,0.800504688860037
15.06,-0.648717840265986,-1.433224982635767,0.7402355358709228
15.07,0.44309939814545096,-1.8267647206659365,-0.9231843205562177
15.08,1.3819933072107307,-1.7221679944556216,-0.6230996949135585
15.09,1.8012889743795257,-1.3157711963279533,0.6308186222826924
15.1,1.8852720735698412,0.22465604548794507,0.40260841351568033
15.11,1.2753042053123207,2.7283095272303126,0.5901058417870014
15.12,0.25951387026378764,3.7817906879063354,2.1521063930909126
15.13,-0.7635712059931736,3.6556655251092516,1.715741360742139
15.14,-1.2129264697932856,1.911948047643042,-0.47168734431968706
15.15,-0.6696335706460415,-2.273577583727093,-0.7666196909246992
15.16,0.1395015083703473,-4.575223133825119,-0.29738607968811254
15.17,1.0609938743243448,-2.97910904769634,-1.0188835206029847
15.18,1.6305719382860946,1.3516817720693157,-1.4085701908807955
15.19,1.7894033985035687,2.11785807826444,-0.5230517288628436
15.2,1.4409711387316173,1.3931454193204569,-0.8536020298317659
15.21,0.5910297708508168,0.020963870898453522,-0.2241850771871697
15.22,-0.4016019223559585,-0.4084882013403611,1.000141835090972
15.23,-1.0405047887898364,0.1861985044623486,1.4033075778702624
15.24,-1.1972982615634669,0.8112514108158114,1.715242789187409
15.25,-1.162395364201171,2.5820306763625593,1.3825287043546106
15.26,-0.9449989499080438,3.420787457883058,0.4488188963747136
15.27,-0.39334040320862884,0.3733032621850128,-0.3510007441214319
15.28,0.11073471727906915,-3.645805040099828,-0.6651418617579264
15.29,0.246519780750087,-4.938920520955721,-0.3026544229543104
15.3,0.07687922973827717,-3.2950978234263752,0.27877764124443244
15.31,-0.28714348167522763,0.06955045883431023,0.45041577693149704
15.32,-0.8308356632255779,3.0307842721300573,0.33932415694754997
15.33,-1.158785995322258,3.6901615175626303,-0.8112827971548195
15.34,-1.095951114572198,0.758671953548387,-1.0239537460340509
15.35,-1.062897385715946,-1.5795703865437356,-1.077863641868054
15.36,-0.8575084606650939,-2.576378748732412,-0.8492984530374337
15.37,-0.3931789200365302,-2.8983435894025518,0.4544177397496061
15.38,-0.17806211840145741,0.5659380999978887,0.7447896862912814
15.39,-0.4682752639196956,2.737430107152184,0.7188299751098308
15.4,-1.1226732372111774,2.1696494321861852,1.9574676560506359
15.41,-1.7246250311008815,0.6585824608032683,2.674029879839606
15.42,-1.998950858676927,0.2885216125312849,0.4895599627026752
15.43,-1.384679418862199,-2.146951747271636,-1.8227617221473305
15.44,-0.6999258485283267,-3.6722760312325757,-1.8282012547185336
15.45,-0.18191029460637878,-3.739602372683612,-1.196388684136852
15.46,0.20893369564297817,-1.739797604000982,-1.2743131403697658
15.47,0.5035671551207044,2.1972187291257317,-0.6563389051145105
15.48,0.10454367553421685,2.5127938619600227,0.3234820361501241
15.49,-0.9399926022061302,1.9574798997918688,0.364986757730059
15.5,-1.7722327677805567,-0.2986408506565987,0.8353977275033355
15.51,-1.9912343595932585,-2.386323288011914,1.2896690883784023
15.52,-1.3944080406670902,-2.1869629045174963,0.02125818334089291
15.53,-0.01093520926280025,-0.16698205315445075,-0.9881696312545624
15.54,0.6939251553276191,-0.4144130944408112,0.19134359114290592
15.55,0.3203369090178184,1.1497913958841948,0.760612297227375
15.56,-0.3576803396691022,1.09371726762066,0.8076265071993215
15.57,-0.9444889087678726,-1.1957255075599664,0.9119877954753737
15.58,-1.1209688282861006,-3.2076978188883323,0.7599508047033914
15.59,-0.9554191027512207,-1.7811627416829627,-0.4519301664703534
15.6,-0.45676782087288514,0.708331040495016,-1.0650628514818739
15.61,0.2632527208264477,1.2996112666278161,-0.6278838271417821
15.62,1.1740035669401196,0.07606528682598562,-0.7628771521763653
15.63,1.624653322137899,-0.24963486327046402,-1.336957263966069
15.64,1.3133887691987314,0.2160932130578698,-0.3997499743759908
15.65,0.5756558752092912,0.4835252130084646,0.8192620211709617
15.66,-0.07669278444651936,-0.030548077968247073,1.1471996473274446
15.67,-0.4625843525169032,-0.21110633179985844,1.0936266913931876
15.68,-0.45013940012162645,0.22654116616455283,0.5638198161512976
15.69,-0.11549195337065193,0.23172674029665594,0.49009877219250825
15.7,0.4656507676119842,0.1044156528299445,0.12556146320312625
15.71,1.0003310981145423,0.615142503328089,-1.1386891728856634
15.72,1.2868815924761825,0.5031544453028772,-1.454111981588202
15.73,1.1594320307841375,-0.17375414573999332,-0.5439809158926107
15.74,0.8520289652161622,-0.4138076760730997,-0.28007853926043264
15.75,0.37701844742739804,-0.15108252372772443,0.44030754668723726
15.76,0.014939411784758043,0.016962131951100783,1.1394603179140557
15.77,-0.11554399795289277,-0.06680118592154954,1.079892692128299
15.78,-0.12324520231705667,0.0921985238400904,0.14205515169999217
15.79,-0.027846613556714257,-0.01271190276837271,-0.5933746369101587
15.8,-0.02313265150249796,-0.32152218984906444,-0.1403571644908676
15.81,0.0648407826449696,-0.3739181475490725,-0.2165929431174757
15.82,0.30691484754429815,0.7095390811674396,-1.4842198804220237
15.83,0.7296391980105684,-0.11581765845937032,-1.031646857340996
15.84,0.5334681356847103,-0.8811141398584871,-0.07282365497007191
15.85,-0.1322111325290927,-0.6708983757738289,0.20603490815148767
15.86,-0.8412656042571309,-0.8051774854579817,0.8157760280170409
15.87,-1.276862869265977,-0.2806983962327189,0.912088345924826
15.88,-1.3659378203306825,1.124491920644254,0.7920687971991921
15.89,-1.1092128543064639,2.354416893876762,0.02607334496721254
15.9,-0.4024922641238205,0.9084196729769642,-1.031348986616611
15.91,0.4654941060555876,-2.5899904015652506,-0.647213278934292
15.92,0.8342749342329289,-2.5915867726094612,-0.8244216807803628
15.93,0.8104073688218129,-0.4636917698264124,-1.2478420039562652
15.94,0.5342493860273677,0.3784916367479962,-0.29175821368491794
15.95,0.07054599304251767,0.6756621010678575,0.6259996985458707
15.96,-0.3880106443867245,1.3241826825110237,0.6469771533101444
15.97,-0.6005737633681665,0.9144162228259817,1.2183747556355276
15.98,-0.399829927063872,-0.0773481684668775,1.1759625147707258
15.99,0.10489040327455647,-0.6167490624335608,0.2595726514417657
16.0,0.522613399629073,-0.5329378528138655,0.18127031597670074
16.01,0.8874083309599266,-0.1652204308211616,-0.07076847992018649
16.02,1.1246931849081974,0.4203591407995877,-1.1738188884885226
16.03,1.2029648890876485,0.23446053682661244,-1.543651177684218
16.04,1.0143614460060069,0.32779046085540664,-1.415211099982489
16.05,0.6268087004513447,0.23765083728581643,-0.4205023345640873
16.06,0.2347013303944534,-0.4108610049411127,0.7380909029009478
16.07,-0.07267731550756291,-0.26623749824841036,0.9407756724481887
16.08,-0.41583858562946174,0.8634410273161506,1.2555420049149526
16.09,-0.6890920715117559,1.6606017682610537,1.1358492704135348
16.1,-0.5555391251409735,0.7850317730874804,0.012252069420048141
16.11,-0.23565714756043385,-0.9827356805507819,0.26147981755874306
16.12,0.04662570703630483,-1.4150991599316458,0.8975978715507782
16.13,0.4716174236152856,1.073290616350416,-1.2032720648686202
16.14,0.9115217514298019,-0.12633495056589883,-1.9563345676788129
16.15,0.6747910762823609,-1.7990031285329156,-1.3545418264103017
16.16,0.11912733023247758,-1.3964699518991404,-0.99707517252897
16.17,-0.4200739512395025,0.02333496175101752,-0.21383556623211555
16.18,-0.49086991535650526,0.44505099091485617,1.5002056915152426
16.19,-0.3261225658072084,2.14137571709364,1.183454329384793
16.2,-0.5991678634505397,0.7619722027440541,1.3147254880894208
16.21,-0.9201266408991357,-0.9694960311269734,1.363544336361503
16.22,-0.8445398312676353,-1.9780268203187232,0.585397148097009
16.23,-0.5227666919493776,-1.2969079604439442,0.06123846297061972
16.24,0.10608196011605803,0.2385452007186527,-0.6789192551795359
16.25,0.6140258397956656,1.2510580529405047,-1.5172644154689479
16.26,0.7106022863870383,0.9478952930452956,-0.973360663877337
16.27,0.6099882001534427,-0.3294582527256991,-0.005710182448583197
16.28,0.44181518039006157,-1.1205976496921817,0.15690806934589646
16.29,0.2527877855282171,-0.8208238615779774,0.008178767178376874
16.3,0.15530846017786698,-0.03483505153027864,0.26810221771991455
16.31,0.017395927929175783,1.0455256501696053,0.7926705541236985
16.32,0.02092804684425853,1.2678695747813253,0.6510901666964723
16.33,0.19432724849359448,0.6921157428538033,-0.14831989165657297
16.34,0.4046692055515616,-0.2385825970911133,-0.5372806811916832
16.35,0.47825573933201404,-0.7883536444389092,-0.7936858262297535
16.36,0.4524111642561736,-1.2015116737164755,-0.22341375710238678
16.37,0.2628724273153153,-0.4605730867615573,0.4921837439916732
16.38,0.10040727993087435,0.24969262881248336,0.22259278670689484
16.39,-0.02981230918416478,0.21521394719777806,-0.012367402614455477
16.4,-0.120850226242665,0.3612892660292183,0.5987569343904614
16.41,-0.09305261183937666,1.265984472552134,-0.06454062396105918
16.42,-0.03495536153168904,1.145392760650395,-1.0008444047083933
16.43,-0.0037455632359711596,0.12624319953367102,-0.4641385915704602
16.44,0.156718250603998,-0.9653626204390449,0.1370405176461415
16.45,0.5182268708401084,-1.7293609044336637,0.0199384176968575
16.46,0.913641409375973,-1.0486559390274541,0.05402628353854029
16.47,1.1630334950052792,1.2760890161744516,-0.09670380411753757
16.48,0.858476929353524,1.4251586821294848,0.07996991528780045
16.49,0.16852148165815975,1.9629437726763581,0.1859173292953057
16.5,-0.396076250079359,1.8306511435969037,0.7471902078728753
16.51,-0.554572362940827,0.11951374923310577,1.535771598533574
16.52,-0.19832521879566642,-2.155929404927633,1.3961911037518568
16.53,0.35000898265197095,-2.414750479011849,0.42772384742390157
16.54,0.7777957259058912,-1.078215011968196,-0.5012617844635776
16.55,1.0375204317215654,-0.14129262759675573,-1.3451269954140006
16.56,0.8980393263425374,1.62880404532215,-1.7974351371654023
16.57,0.5410286845255718,2.7312564595764193,-1.323790762077196
16.58,0.6836667155507293,-0.39109023013408456,-0.8801239171188494
16.59,0.303085453919043,-0.7156356228385948,-0.7992278535068513
16.6,-0.1104702265574137,-1.4271338469152517,0.3182773994388714
16.61,-0.39035637980444193,-1.062300965821892,2.2192375467509997
16.62,-0.43528496858014964,1.7535220797427162,2.6089355033414567
16.63,-0.010502790290919472,4.023828839739804,1.1174228395959245
16.64,0.3360304588002519,0.9392302904006437,0.2613708796823868
16.65,0.240598185032319,-2.211092552720683,-0.45725415687794035
16.66,0.07384466009777586,-3.2824843225413987,-0.87811014187674
16.67,0.014915515999703489,-1.4383418003341184,-1.1735668207854182
16.68,0.3951320032745566,2.2167036463105836,-1.5346209057523668
16.69,1.0383331863659164,2.646873288446893,-1.3801627955555718
16.7,0.7324037677249253,1.7259116998215862,-0.7201784428769212
16.71,-0.044204166512096306,1.4144267613518626,1.0190160070662804
16.72,-0.5566400011762064,0.30370362364534537,1.7001750063085146
16.73,-0.4355903021849313,-2.162312936799808,1.3141966383183667
16.74,-0.21480985664061072,-2.9567472974324795,0.836314126898833
16.75,-0.0890843632916781,-1.570741584336965,0.3068362648341765
16.76,-0.060133997484328384,0.5113245923241173,0.2933455448697764
16.77,-0.1797357682846974,1.427646446507457,0.7490775444254426
16.78,-0.30832843372097,2.0538784922098725,-0.4256721141263863
16.79,-0.33818573341375935,3.25179623159112,-1.7672621912723423
16.8,0.06599709078673337,0.07662817292624102,-1.0425499587584774
16.81,0.037851375569903555,-1.227612992880335,-1.383796658614594
16.82,0.1669131306386307,-2.2190319138500234,-0.1968258623093641
16.83,0.07758284693368486,-1.476675288993988,0.8395750296944305
16.84,0.396531464872369,0.6653027740922647,0.26451975565118774
16.85,0.3597618729562361,1.5962997043038172,0.367668782712112
16.86,-0.03211821093175296,2.898384994412114,-0.3354944655055303
16.87,-0.5016129031109214,1.8377326408757113,-0.7267019138844232
16.88,-0.23479692200422514,-2.0849777707601334,0.2577704109240429
16.89,-0.12079599301493409,-2.5489418980084255,0.46980370808845767
16.9,-0.08223293837978567,0.05886729946795069,0.8744960070325786
16.91,-0.23224254404011632,1.3048415411507404,1.2096931859517732
16.92,-0.23454124103245366,0.8431992960485492,1.1125192638790398
16.93,-0.4471045726950847,0.3329367847717362,-0.07865256683461957
16.94,-0.3231189837324223,0.38249375826867227,-2.078698973267218
16.95,-0.16016444646644892,-1.0519537519657676,-2.0827617283085345
16.96,0.28615665003059443,-1.7440912175775116,-1.6837351188535001
16.97,0.4261356277780629,-1.1028013540872776,-0.6982760682002495
16.98,0.02812614938400556,0.3021870556289134,1.2726465267276323
16.99,-0.8701779878951315,1.3708116034407387,2.013319988513536
17.0,-1.5744489285571321,0.8903210461042809,1.9127096420039247
17.01,-2.2322678028052345,0.13956368595986626,1.3486455194898208
17.02,-2.2578514979436854,-0.607094815454219,0.3620351338334633
17.03,-1.7661810744062116,-1.9774857909834087,-0.5716408935953383
17.04,-0.8152731156080658,-2.7241007850285754,-0.7433488623096368
17.05,0.0057018025199094624,-1.6546565573817025,-0.8992218559177542
17.06,0.5657085019331782,0.5090098381649798,-1.2254961090865977
17.07,0.7340016642207537,1.902763121473748,-1.5276010788154526
17.08,0.5904738259400445,0.4141925677559971,-0.8375271899622996
17.09,-0.9298796320315124,-1.4134265519293032,0.18196987389116662
17.1,-2.5515553652824097,-1.6823207016172361,0.8926571541498122
17.11,-3.480736812111147,-2.149486627255782,0.9825957259071456
17.12,-3.2046077358217975,-1.8958309819236374,0.5945668236027196
17.13,-1.9008078695616784,0.238635501002475,0.7315379705420976
17.14,-0.20959445559011133,1.7670339009677738,0.41174072081368707
17.15,0.7882682432952208,1.186859423523146,0.2585913531665453
17.16,0.9705521367213984,0.29934406610578673,0.600780098155437
17.17,0.3578384977189964,0.08894720181053069,0.14085053054379998
17.18,-0.40696816785562445,-0.6598768018595479,-1.254706265385598
17.19,-0.8609083448612219,-2.6733848888858307,-1.4334077532150735
17.2,-0.8530214073478677,-2.9280765466010403,-0.7794273263045208
17.21,-0.6050609110186068,-0.8573652272592323,-0.41990522621463616
17.22,-0.01641459424452096,0.37455760329194865,0.45868330462859297
17.23,0.2486881179040415,1.096011974244551,1.4933633018678885
17.24,0.3107536182773054,1.1234599008011668,1.160296374898313
17.25,0.22963082063079673,-0.1802104110583043,0.09279145150405317
17.26,0.19673045824280577,-1.692478930744835,-0.34551800150233797
17.27,0.12109075129507549,-1.027688063394671,-0.9064714785648015
17.28,0.09990223840878001,0.24497676178534278,-0.7290622305579808
17.29,0.19515403663084702,0.3408496536780463,0.14643210591818306
17.3,0.15495888837258015,0.8538576914187614,0.40340188353497114
17.31,-0.021959040758286072,1.0938785122007975,1.3250597026942608
17.32,-0.06977156581887585,1.013775240071292,1.7530573713579596
17.33,0.00013004033451052634,1.2243077838696048,0.8704360525046039
17.34,0.642008851169171,-1.3567376440199141,-0.21693136825886505
17.35,1.446766914260781,-3.9681577958217287,-1.7760296927655899
17.36,1.8260495610154088,-2.695085513136239,-2.4925762020713993
17.37,1.450201998459306,0.6282618764980453,-1.1823143421240563
17.38,1.1149620952748265,2.5018443503897485,-1.1819855505768826
17.39,1.10105729857261,1.1779592840568918,-0.18706183538084203
17.4,0.3837827082287985,0.7464106618136841,0.6329096428213377
17.41,-0.38741020556550526,1.8021731816679045,1.1296695666764627
17.42,-0.4064709016147389,0.008633874906072366,2.894903666856162
17.43,0.19593337020872015,-1.0796353557977718,2.9103877649821728
17.44,1.1226499414277493,-0.07431997729808804,1.018968804418454
17.45,1.9275925800284859,1.1114044672522219,-0.3554272966249499
17.46,2.258735190699437,1.572985943912883,-0.5866053684053958
17.47,2.328313315412907,2.1112205958225356,-1.5339980646214069
17.48,1.8792543755295752,-0.16743849429720323,-2.891933812683801
17.49,0.5878922527540271,-0.5321269429546366,-2.1688557567396645
17.5,-0.3606362091652079,-0.21975524663175539,-0.846756951216256
17.51,-0.6050116129402046,-0.4875973854676683,0.344347948891553
17.52,0.21982395532463891,-0.44197753397657785,0.8556194090537108
17.53,1.2132499095415137,0.6517968525360107,0.6087942552552413
17.54,1.4491042007524706,0.211399063989798,1.5577638114284738
17.55,1.0911188831864767,0.633976416471246,2.010154770191785
17.56,0.5938383643192336,2.06002726416838,0.3947648444074748
17.57,-0.01904447125424004,2.270580744716464,-0.6835918060774592
17.58,-0.37088285262395365,0.23270110507584452,-0.18120659399426875
17.59,-0.3864897746849683,-1.0812230086142982,-0.9116220685523081
17.6,0.005527508935068823,-1.0461690698445856,-1.7246720964606004
17.61,0.809464378789036,-1.1862264464946073,-0.34976345761018285
17.62,1.4697301395649403,1.910438896937869,0.09667422648489489
17.63,1.2038052737276277,1.7721482606648793,0.2724536327483877
17.64,0.37329509388873666,-0.07733886585919786,1.322768372334449
17.65,-0.45668145203631255,-1.6998940849383046,1.600477791939962
17.66,-0.9001285972372511,0.0036705743999142872,-0.15040687661220647
17.67,-0.6906797594897305,1.1785840987686866,-0.8545860175584724
17.68,-0.49161075317356523,0.11741882336816278,-0.45575820523749117
17.69,-0.3477295205700312,-0.12872216713095166,-0.6591742626619302
17.7,-0.11524902667814543,-0.2979887019520621,-0.97025855510569
17.71,0.3589839137384638,-1.7160568815050843,0.06549823124426568
17.72,0.5877103147292899,-0.547864615699689,1.1240933027522308
17.73,-0.16092296805240378,1.8396942418594355,1.136610560400194
17.74,-1.2169619178266455,2.0098410226245678,1.281034309381061
17.75,-1.960362991493167,-0.3459696711993542,2.1370899482821115
17.76,-2.124051154373274,-2.6100103562409664,1.6750237143071833
17.77,-1.5143334171091114,-1.5033857937243778,-1.4244980344148284
17.78,-0.29865274269480224,-0.7865394187528578,-2.525925268715613
17.79,0.5110288488357089,-0.8525288420751921,-1.5425558073522674
17.8,0.9009793110283598,0.8053110611768888,-1.710189065380016
17.81,0.7273984793475526,1.0209118250746974,-0.7353718915492864
17.82,0.19073892625443076,-0.3026423725090275,1.0182085927187687
17.83,-0.626959744724023,0.03219195031945273,1.0479225733213424
17.84,-1.4197515812901713,-0.0928943278925837,1.416599374049291
17.85,-1.66964667342409,-0.6691707576512221,1.5048103894315463
17.86,-1.1629058329428492,-0.7417125315840248,0.5168914642602206
17.87,-0.32340063690512294,0.10175587620237918,-0.1976480543229879
17.88,0.8629292100254875,1.4335797383424644,-1.5934355421607387
17.89,2.068762224725541,1.008712381280962,-2.3287784353577137
17.9,2.111654449281578,-0.4758056598492461,-1.3506743975172146
17.91,1.294161422157791,0.6987361596576125,-0.02699716881490553
17.92,0.38887175290832215,0.7203896128259432,1.2696701728961095
17.93,-0.29095927553507855,-0.6562491683112532,1.796993100906187
17.94,-0.7201703983396495,-0.7879683826637134,1.38540854518453
17.95,-0.6933755078431133,0.33751070581525705,0.5679886392745686
17.96,-0.14008840151264174,0.9494990784265976,-0.28604772060776773
17.97,0.8250128012110216,0.5168465307617325,-1.6660513638023289
17.98,1.6753370589958962,0.2624483635237378,-2.366954424372851
17.99,1.8931139269256103,0.4622813432647948,-1.2000972831993697
18.0,1.5373131164571654,0.4255320954646552,0.5946805474610324
18.01,0.742258224693453,0.6571757857958151,1.3576451288155884
18.02,-0.24674115778098182,0.48215649016445294,1.3707471141015084
18.03,-0.922207697416996,-0.9776931295855338,1.221287661391099
18.04,-1.1805588197589927,-1.287682652971895,0.6446975692967677
18.05,-0.9486902799921042,0.378827435006526,-0.3393803279230297
18.06,-0.3301384471464192,1.604681931267609,-1.0803497100875956
18.07,0.5777694070764636,0.646353501327756,-1.6739970036764944
18.08,1.0282294287146798,-0.8013407746079438,-1.409904371245829
18.09,0.33620456824440603,-0.02178999581437773,-0.47305799029435597
18.1,-0.6815081188270307,0.5110173904526172,0.10263983417200954
18.11,-1.4599334943957287,-0.18717180542408426,-0.04228060665265048
18.12,-1.5046717303045223,-1.8251240094765888,0.12835727260953195
18.13,-1.1077053658612128,-1.4011912387264749,0.03322620429438863
18.14,-0.526808545915103,-0.29527401484342697,0.18411428081263556
18.15,-0.03254889889860587,0.08926344674763526,1.0017594573796755
18.16,0.10034357806402017,1.0325476906451487,1.1102351504908412
18.17,-0.2822123463248897,2.2511291040336565,0.540359550300372
18.18,-0.8329575717263527,1.6313980493809914,0.014306022391198155
18.19,-1.0960626401088345,-0.7840255363961495,-0.5121128075810754
18.2,-0.9804468253776827,-2.566293155304043,-0.3852343829279475
18.21,-0.47214566323535967,-2.1538504532885137,-0.6902238426248672
18.22,0.1935692673655328,-0.5969380581070737,-0.6033541097049323
18.23,0.5587638538779468,0.8784925359572393,0.4055438134451953
18.24,0.8840897195545965,1.5234732254821706,0.179135052941172
18.25,1.2455625383982538,0.27690971669653214,-0.1905406501051801
18.26,0.6977919906115572,-1.0226408111417393,0.4235546542365383
18.27,-0.24521979028559163,-0.1987681167535209,1.2940403422224982
18.28,-1.0153981056946282,1.2565225865852028,1.7083799243018123
18.29,-1.2267897979964646,2.0462614782161315,0.8137124898201055
18.3,-0.640470623356322,-0.05651885246927253,-0.5179626609366638
18.31,-0.20362619248829128,-1.6999184704307153,-0.9602193286607439
18.32,-0.06805852712695148,-2.0112878484912153,0.06404053611056224
18.33,-0.011136288418180193,-0.7066189368730256,0.2489540002266714
18.34,0.11251221084035629,1.0772344629509052,-1.1835926232123137
18.35,0.09129947345743554,0.7839647776480406,-1.162060568550209
18.36,-0.09482604798825141,-0.40235860202521523,-1.39827230463494
18.37,0.013171597773891085,-2.613002357073334,-1.4925006232701303
18.38,0.06099494074430389,-2.8903976845181143,-0.03561365463765095
18.39,-0.5500178301219976,0.15699016325846835,1.0186784041204893
18.4,-1.1133657170618303,1.9656442958721365,1.584402693955682
18.41,-1.5103214553774376,1.6301350070087546,1.935413603743426
18.42,-1.6697428976206357,0.9250449344207224,1.5364643072663757
18.43,-1.382484435853187,0.05898150513576339,0.014884444162071138
18.44,-0.8157267329095139,-1.3035601789122555,-1.6246529736477409
18.45,-0.10640331132847133,-3.007223994941323,-1.371839943138038
18.46,0.32005850025118054,-2.250276102515068,-0.06173338623064921
18.47,0.4152674737284975,0.3099836967412916,0.3695282038895871
18.48,0.32739949987471084,0.8377088989254773,0.3537267175447801
18.49,0.0877285315170591,-0.31562893640081713,-0.10662298491853651
18.5,-0.4169318145997622,-0.6931831654917422,-0.11819005477090078
18.51,-0.9272005863200917,0.017130901765567867,0.8391104157907158
18.52,-0.7472803022043585,-0.2343533441317726,0.40222885752817905
18.53,-0.0034781352440982796,-1.2803892228169984,-0.7014978174996328
18.54,0.569235888748538,-0.44869887766503364,-0.9004735677280312
18.55,0.7448477486229718,1.298380238820714,-0.24142823763181026
18.56,0.7577178755414256,1.290419899607622,0.21883146110856322
18.57,0.5315824263941124,0.06495483926508461,0.39922860099666996
18.58,-0.005120761714083622,-0.43539512105311023,1.0904671731413857
18.59,-0.2648398390668347,-0.9753960467748731,1.352962853917809
18.6,-0.11204904296987105,-1.4918754663689384,1.0388927117871012
18.61,0.2677689903354237,-0.6847185339434074,0.28375300584677593
18.62,0.8330359897894927,1.7765226225523019,-1.3512690075797567
18.63,1.8424433578976813,2.1465237477019343,-2.1412392461113865
18.64,2.361659907310509,-1.2224326977201028,-1.3271474507367034
18.65,1.7283103421916994,0.23085493624935474,-0.05615982337987436
18.66,0.9147069470122509,1.8054937274632734,1.5228586820843506
18.67,0.22527907999398603,1.3723691336452324,1.8514506796010153
